acc_x,acc_y,acc_z,bvp,eda,hr,temp,label
0.0,0.0,0.0,0.0,0.0,0.0,25.25,0
-0.0546874962747097,-0.1484374850988388,0.0338541641831398,-0.6516666412353516,0.1082724928855896,9.333333015441896,25.25,0
-0.1280487775802612,-0.3475609719753265,0.0792682915925979,-1.7914634943008425,0.2535161077976227,21.85365867614746,25.25,0
-0.1818936914205551,-0.5157807469367981,0.1237541511654853,-2.9806313514709477,0.3798530399799347,32.74418640136719,25.25,0
-0.2318528592586517,-0.6545207500457764,0.1455325931310653,-3.779864549636841,0.4720226526260376,40.689414978027344,25.25,0
-0.2821464836597442,-0.7484535574913025,0.1492980718612671,-3.994230747222901,0.5344253778457642,46.06866836547852,25.25,0
-0.287380963563919,-0.8045338988304138,0.1462156921625137,-4.014050960540772,0.5753705501556396,49.59823226928711,25.25,0
-0.3298263847827911,-0.8464337587356567,0.1107433885335922,-4.594640254974365,0.6018887162208557,51.884159088134766,25.25,0
-0.3459882140159607,-0.8901949524879456,0.0878931209444999,-6.020486831665039,0.6203462481498718,53.356689453125,25.25,0
-0.3284028768539428,-0.9183221459388732,0.095584861934185,-7.79269552230835,0.6322096586227417,54.30314636230469,25.25,0
-0.3227068781852722,-0.9139981865882874,0.0949276611208915,-9.543206214904783,0.6398277878761292,54.91091537475586,25.25,0
-0.3246477842330932,-0.9112225770950316,0.1001030355691909,-11.820359230041504,0.6447179913520813,55.30105209350586,25.25,0
-0.3202959299087524,-0.9094411730766296,0.1034246608614921,-15.241456985473633,0.6478565335273743,55.55144500732422,25.25,0
-0.3231007158756256,-0.9138956069946288,0.105556383728981,-19.185287475585938,0.6498708128929138,55.71213912963867,25.25,0
-0.3249006867408752,-0.9223520159721376,0.1013266891241073,-22.178407669067383,0.6511634588241577,55.81526565551758,25.25,0
-0.3204580545425415,-0.9221811294555664,0.098612293601036,-23.766054153442383,0.6519930362701416,55.881446838378906,25.25,0
-0.3176070153713226,-0.9276692271232604,0.0968703404068946,-25.2578182220459,0.65114825963974,55.923919677734375,25.25,0
-0.3157773911952972,-0.9311911463737488,0.0957524552941322,-28.138988494873047,0.6506061553955078,55.95117568969727,25.25,0
-0.3146032392978668,-0.9390491247177124,0.0950350612401962,-32.56024932861328,0.6502582430839539,55.96866607666016,25.25,0
-0.3250452876091003,-0.9440919160842896,0.0945746749639511,-38.26720428466797,0.6500349640846252,55.97989273071289,25.25,0
-0.3373441696166992,-0.936132550239563,0.0886814519762992,-46.22869110107422,0.6498916745185852,55.98709487915039,25.25,0
-0.3396390974521637,-0.936622440814972,0.0904973000288009,-57.58950805664063,0.6497997045516968,55.99171829223633,25.25,0
-0.335514098405838,-0.9257412552833556,0.0916626080870628,-71.32527923583984,0.6497406959533691,55.99468612670898,25.25,0
-0.3160735666751861,-0.929953932762146,0.098008207976818,-85.08048248291016,0.6497028470039368,55.99658966064453,25.25,0
-0.2979999780654907,-0.9270595908164978,0.1020804494619369,-98.43973541259766,0.6487603187561035,55.99781036376953,25.25,0
-0.2864013910293579,-0.9252021908760072,0.1046937778592109,-113.76251220703124,0.6481554508209229,55.99859619140625,25.25,0
-0.2845558524131775,-0.9240102171897888,0.1063708588480949,-133.7917938232422,0.6477673053741455,55.99909973144531,25.25,0
-0.2833715081214905,-0.9232452511787416,0.1074471175670623,-158.002197265625,0.6475182175636292,55.99942398071289,25.25,0
-0.2826114594936371,-0.9227543473243712,0.1081377938389778,-178.98097229003906,0.6473583579063416,55.999629974365234,25.25,0
-0.2877214848995209,-0.9280371069908142,0.1085810288786888,-183.9747314453125,0.6472557783126831,55.99976348876953,25.25,0
-0.2965985834598541,-0.9258294701576232,0.1088654771447181,-163.76373291015625,0.6471899151802063,55.999847412109375,25.25,0
-0.3022953867912292,-0.924412727355957,0.1090480163693428,-118.26727294921876,0.6471476554870605,55.99990081787109,25.25,0
-0.3227445781230926,-0.9179058074951172,0.1091651618480682,-52.101661682128906,0.6480387449264526,55.88171005249024,25.25,0
-0.3414654731750488,-0.9137300252914428,0.1092403382062912,27.9694938659668,0.6486105918884277,55.80586242675781,25.25,0
-0.3534794747829437,-0.9222458004951476,0.098093032836914,108.77466583251952,0.6489775776863098,55.75718688964844,25.25,0
-0.3555915951728821,-0.8997218608856201,0.0853415578603744,174.7067108154297,0.6492131352424622,55.7259521484375,25.25,0
-0.351349264383316,-0.8684739470481873,0.077158398926258,220.3498992919922,0.6493642926216125,55.70590591430664,25.25,0
-0.3598223328590393,-0.8372253179550171,0.0663091391324997,251.3571319580078,0.6494612693786621,55.69304275512695,25.25,0
-0.3708576261997223,-0.8003784418106079,0.0481511615216732,273.1688842773437,0.6495234966278076,55.68478775024414,25.25,0
-0.3891349732875824,-0.7879277467727661,0.0253028683364391,287.4601745605469,0.6495634317398071,55.67948913574219,25.25,0
-0.4064621031284332,-0.8415131568908691,0.0050423755310475,297.8316650390625,0.6491301655769348,55.67609024047852,25.25,0
-0.4119838774204254,-0.8870967030525208,-0.0079596415162086,309.2845458984375,0.6488521099090576,55.67390823364258,25.25,0
-0.4099296629428863,-0.9723273515701294,-0.0219013635069131,321.3490295410156,0.6486736536026001,55.672508239746094,25.25,0
-0.3974158465862274,-1.038218975067139,-0.0252505838871002,326.4796447753906,0.6485591530799866,55.671607971191406,25.25,0
-0.3781896531581878,-1.0469177961349487,-0.0218021459877491,315.86102294921875,0.6484856605529785,55.6710319519043,25.25,0
-0.3546558320522308,-1.0133157968521118,-0.0027958136051893,285.6595458984375,0.6484385132789612,55.67066192626953,25.25,0
-0.3283576369285583,-0.9749586582183838,0.0149991316720843,237.7929229736328,0.6484082341194153,55.67042541503906,25.25,0
-0.2946876585483551,-0.93354994058609,0.0320166759192943,175.50521850585938,0.6483888030052185,55.67027282714844,25.25,0
-0.2786779701709747,-0.9069762229919434,0.0429375581443309,99.85009765625,0.6483763456344604,55.67017364501953,25.23,0
-0.262806087732315,-0.8731294274330139,0.0499459505081176,14.0975341796875,0.6483683586120605,55.67011260986328,25.23,0
-0.2526204288005829,-0.862604022026062,0.054443534463644,-69.14989471435547,0.6483632326126099,55.67007064819336,25.23,0
-0.2460838705301284,-0.8726427555084229,0.062927596271038,-132.67616271972656,0.6483598947525024,55.6700439453125,25.23,0
-0.2418890744447708,-0.884682834148407,0.0627744048833847,-168.78990173339844,0.6483578085899353,55.67002868652344,25.23,0
-0.244794875383377,-0.8980072140693665,0.051480546593666,-182.7440643310547,0.6483564376831055,55.67001724243164,25.23,0
-0.2522574365139007,-0.9513401985168456,0.0274394769221544,-182.5491485595703,0.6483555436134338,55.67000961303711,25.23,0
-0.2682420015335083,-1.0023596286773682,-0.0103797949850559,-173.23834228515625,0.6483550071716309,55.67000579833984,25.23,0
-0.2840977609157562,-1.0630898475646973,-0.0458455756306648,-159.66456604003906,0.6474364399909973,55.67000198364258,25.23,0
-0.2718819677829742,-1.085269570350647,-0.0686054751276969,-145.92733764648438,0.6468469500541687,55.67000198364258,25.23,0
-0.2640425860881805,-1.0939055681228638,-0.0832114666700363,-132.0386505126953,0.6464686393737793,55.67000198364258,25.23,0
-0.2590117156505584,-1.2114031314849854,-0.0981825217604637,-116.29371643066406,0.6462258696556091,55.67000198364258,25.23,0
-0.2501854300498962,-1.208437442779541,-0.0853989869356155,-99.71580505371094,0.6460700631141663,55.67000198364258,25.23,0
-0.2165323495864868,-1.1057742834091189,-0.054804153740406,-85.03233337402344,0.6459701061248779,55.67000198364258,25.23,0
-0.1109691262245178,-0.9783154726028442,0.0264053642749786,-72.7575912475586,0.6459059119224548,55.67000198364258,25.23,0
-0.0208336282521486,-0.9413019418716432,0.0953142866492271,-61.251220703125,0.645864725112915,55.67000198364258,25.23,0
0.0034234991762787,-0.9959176182746888,0.1507316082715988,-49.894020080566406,0.6458383202552795,55.51953125,25.23,0
0.0189903266727924,-0.9917823672294616,0.175099715590477,-39.85778427124024,0.6458213925361633,55.422969818115234,25.23,0
0.0009913496905937,-0.9723352789878844,0.1907377541065216,-31.99482536315918,0.6458104848861694,55.36100387573242,25.23,0
-0.0273526813834905,-0.9150730967521667,0.2175666689872741,-25.705677032470703,0.6458035111427307,55.32123565673828,25.23,0
-0.056737795472145,-0.8727277517318726,0.2235883772373199,-19.993017196655277,0.6457990407943726,55.29571533203125,25.23,0
-0.0979865714907646,-0.8399551510810852,0.1826705783605575,-14.66822910308838,0.6457961797714233,55.27933883666992,25.23,0
-0.1468487530946731,-0.8413146734237671,0.1228252351284027,-10.237217903137209,0.6457943320274353,55.268829345703125,25.23,0
-0.189401239156723,-0.8309916257858276,0.0788221657276153,-6.995983600616455,0.6457931399345398,55.2620849609375,25.23,0
-0.2167089730501175,-0.7795846462249756,0.0505835302174091,-4.640087604522705,0.6453331112861633,55.257755279541016,25.23,0
-0.2342335134744644,-0.735399067401886,0.0324615985155105,-2.8093602657318115,0.6450378894805908,55.25497817993164,25.23,0
-0.2342842072248459,-0.7966077327728271,0.020831985399127,-1.5377751588821411,0.6448484063148499,55.25319290161133,25.23,0
-0.2567078173160553,-0.9366478323936462,-0.0090223290026187,-0.9116214513778688,0.6447268128395081,55.25204849243164,25.23,0
-0.2822935581207275,-1.0433108806610107,-0.0281811095774173,-0.6602602601051331,0.6446487903594971,55.25131607055664,25.23,0
-0.2987130284309387,-1.1341521739959717,-0.0516716614365577,-0.3628132343292236,0.6445987224578857,55.2508430480957,25.23,0
-0.3204456269741058,-1.2316333055496216,-0.0611487701535224,0.0573559552431106,0.6445665955543518,55.25054168701172,25.23,0
-0.3847723305225372,-1.148648977279663,-0.0168506633490324,0.3055009245872497,0.6445459723472595,55.25034713745117,25.23,0
-0.4372490644454956,-1.0114277601242063,0.0451639592647552,0.2103832066059112,0.6440737843513489,55.250221252441406,25.25,0
-0.4541322886943817,-0.9849425554275512,0.0849613770842552,0.1027686521410942,0.6437707543373108,55.25014114379883,25.25,0
-0.3977936804294586,-1.2254434823989868,0.0657188668847084,0.3812176585197449,0.6435763239860535,55.250091552734375,25.25,0
-0.3112588226795196,-1.3741854429244995,0.0533701330423355,0.9002549052238464,0.6434515118598938,55.25005722045898,25.25,0
-0.2333346456289291,-1.3017061948776243,0.0958253964781761,1.1831871271133425,0.6433714628219604,55.250038146972656,25.25,0
-0.1889251619577407,-1.1936177015304563,0.1286685168743133,1.081733226776123,0.6433200836181641,55.2500228881836,25.25,0
-0.1324368417263031,-1.1242526769638062,0.172136440873146,0.7909236550331116,0.6432870626449585,55.25001525878906,25.25,0
-0.1353703141212463,-1.023760437965393,0.1944338679313659,0.4932389557361603,0.6432659029960632,55.2500114440918,25.25,0
-0.137252852320671,-0.920085906982422,0.1919497549533844,0.25204598903656,0.643711268901825,55.25000762939453,25.25,0
-0.1104720756411552,-0.8087713718414307,0.2071489244699478,0.0256107356399297,0.643997073173523,55.25000381469727,25.25,0
-0.1996434330940246,-0.7205427885055542,0.2001095414161682,-0.212849348783493,0.6441804766654968,55.25000381469727,25.25,0
-0.2792595624923706,-0.6639227867126465,0.1787987500429153,-0.3300535380840301,0.6442981958389282,55.25000381469727,25.25,0
-0.3247548341751098,-0.6555761694908142,0.1483293920755386,-0.1616532951593399,0.6443737149238586,55.25000381469727,25.25,0
-0.353951096534729,-0.672610878944397,0.1287759095430374,0.172118529677391,0.644422173500061,55.25000381469727,25.25,0
-0.3614920377731323,-0.7171294689178467,0.1554120332002639,0.379148930311203,0.6444532871246338,55.25000381469727,25.25,0
-0.3271469473838806,-0.8072744011878967,0.1837011128664016,0.3042197525501251,0.6444732546806335,55.25000381469727,25.25,0
-0.2939106822013855,-0.8875153660774231,0.1962576359510421,0.0340148173272609,0.6444860696792603,55.303741455078125,25.25,0
-0.2893748879432678,-0.9893893599510192,0.1763268262147903,-0.2038735151290893,0.6444942951202393,55.338226318359375,25.25,0
-0.303257405757904,-1.1051461696624756,0.152340829372406,-0.2275638282299041,0.6444995403289795,55.36035919189453,25.25,0
-0.3513508439064026,-1.140247821807861,0.1481435447931289,-0.1137941852211952,0.6445029377937317,55.37456130981445,25.25,0
-0.4046055376529693,-1.1291873455047607,0.1622432917356491,-0.1267651915550232,0.6445051431655884,55.38367462158203,25.25,0
-0.4443790912628174,-1.116491675376892,0.165693923830986,-0.3213831782341003,0.6445065140724182,55.38952255249024,25.25,0
-0.4363168179988861,-1.1475287675857544,0.1623105704784393,-0.4247823357582092,0.6445074081420898,55.39327621459961,25.25,0
-0.403154045343399,-1.1562509536743164,0.1377482265233993,-0.2905137240886688,0.6445080041885376,55.39568710327149,25.25,0
-0.2867099344730377,-1.1114684343338013,0.0828011110424995,-0.0897054374217987,0.6449676156044006,55.39723205566406,25.25,0
-0.2007872611284256,-0.9987629652023317,0.0643325373530387,0.0714049413800239,0.645262598991394,55.398223876953125,25.25,0
-0.1680381298065185,-0.904043972492218,0.0468826927244663,0.3324296474456787,0.6454519033432007,55.39886093139648,25.25,0
-0.186206042766571,-0.8488565683364868,0.0132932914420962,0.7077296376228333,0.6455733776092529,55.39926910400391,25.25,0
-0.2538429200649261,-0.8302337527275085,-0.0362513288855552,0.8984194993972778,0.6456513404846191,55.399532318115234,25.25,0
-0.3140416741371155,-0.8070871829986572,-0.0736439824104309,0.630292534828186,0.6457013487815857,55.39970016479492,25.25,0
-0.3918581902980804,-0.7586463689804077,-0.064053788781166,-0.0540842004120349,0.6457334756851196,55.39980697631836,25.25,0
-0.4529919028282165,-0.7219620943069458,-0.0523015819489955,-0.905273973941803,0.6457540988922119,55.39987564086914,25.25,0
-0.531408429145813,-0.7320069074630737,-0.0391619205474853,-1.6198997497558594,0.6443901658058167,55.39992141723633,25.23,0
-0.6097205281257629,-0.7552464008331299,-0.0195340923964977,-1.9710280895233157,0.64351487159729,55.39995193481445,25.23,0
-0.6823678016662598,-0.8037468194961548,0.0098552424460649,-2.0029029846191406,0.6429531574249268,55.39997100830078,25.23,0
-0.7177931070327759,-0.8236760497093201,0.0399111732840538,-1.897968292236328,0.6425926685333252,55.39998245239258,25.23,0
-0.7349292635917664,-0.8644543290138245,0.0703948885202407,-1.683741569519043,0.6423613429069519,55.39999008178711,25.23,0
-0.7179373502731323,-0.913014590740204,0.1179464533925056,-1.338473916053772,0.6422128677368164,55.399993896484375,25.23,0
-0.7182284593582153,-0.966568887233734,0.1428645402193069,-1.0488320589065552,0.6421176195144653,55.39999771118164,25.23,0
-0.7072197794914246,-1.0737080574035645,0.1308666616678238,-1.0420852899551392,0.6420564651489258,55.39999771118164,25.23,0
-0.6721661686897278,-1.1032793521881104,0.0671893656253814,-1.1129897832870483,0.6410990357398987,55.39999771118164,25.23,0
-0.6272796392440796,-1.1446475982666016,0.0039338464848697,-0.7106702327728271,0.6404845714569092,55.39999771118164,25.23,0
-0.5480940937995911,-1.2215752601623535,-0.0590510033071041,0.3213516771793365,0.64009028673172,55.39999771118164,25.23,0
-0.4748862683773041,-1.2933341264724731,-0.0938732773065567,1.4171355962753296,0.6398372650146484,55.39999771118164,25.23,0
-0.383123517036438,-1.3057981729507446,-0.1050246581435203,1.8588186502456665,0.6396748423576355,55.39999771118164,25.23,0
-0.296246588230133,-1.280210256576538,-0.1065832003951072,1.4830714464187622,0.6395706534385681,55.39999771118164,25.23,0
-0.2404939830303192,-1.2469961643218994,-0.1131811589002609,0.5719969272613525,0.6395037770271301,55.39999771118164,25.23,0
-0.2047151625156402,-1.1641056537628174,-0.1342086642980575,-0.528569221496582,0.6394608616828918,55.39999771118164,25.23,0
-0.1817543804645538,-1.0997158288955688,-0.1477029174566269,-1.3888999223709106,0.6398926377296448,55.43582534790039,25.23,0
-0.1726172417402267,-1.0416008234024048,-0.1563627421855926,-1.6185789108276367,0.6401696801185608,55.45881652832031,25.23,0
-0.1611557751893997,-1.0155014991760254,-0.1675179004669189,-1.2572479248046875,0.6403474807739258,55.47357177734375,25.23,0
-0.1482027024030685,-1.0099480152130127,-0.1746766418218612,-0.8247421979904175,0.6404616236686707,55.48303985595703,25.23,0
-0.1454879343509674,-0.972797393798828,-0.1624773889780044,-0.7800523638725281,0.6405348181724548,55.48911666870117,25.23,0
-0.1437457501888275,-0.9321629405021667,-0.1490508317947387,-1.0343965291976929,0.6405818462371826,55.49301528930664,25.23,0
-0.1538232713937759,-0.9340749979019164,-0.134836658835411,-1.0041608810424805,0.640612006187439,55.49551773071289,25.23,0
-0.1994748562574386,-0.896117627620697,-0.108921505510807,-0.2109209895133972,0.640631377696991,55.49712371826172,25.23,0
-0.25676029920578,-0.8325743079185486,-0.0754973292350769,1.1758657693862915,0.6406437754631042,55.49815368652344,25.23,0
-0.3327072262763977,-0.6910359263420105,0.018723452463746,2.5924644470214844,0.6406517624855042,55.49881362915039,25.23,0
-0.40943443775177,-0.6449869871139526,0.0903844758868217,3.745170831680298,0.6406568884849548,55.49923706054688,25.23,0
-0.4754668772220611,-0.872933030128479,0.1027857512235641,4.656875133514404,0.6406601667404175,55.49951171875,25.23,0
-0.4730605185031891,-0.968835711479187,0.105146400630474,5.399587631225586,0.6406622529029846,55.49968719482422,25.23,0
-0.426734060049057,-1.0303804874420166,0.112259104847908,5.947869300842285,0.6406636238098145,55.49979782104492,25.23,0
-0.3242333233356476,-1.086669683456421,0.1728013753890991,6.099100589752197,0.6406644582748413,55.49987030029297,25.23,0
-0.2696498036384582,-1.100401759147644,0.2508383393287658,5.64801836013794,0.6406649947166443,55.49991607666016,25.23,0
-0.2850012183189392,-1.10361647605896,0.323309063911438,4.699345588684082,0.6388289332389832,55.49994659423828,25.25,0
-0.3284395039081573,-1.1000816822052002,0.3474255204200744,3.542408227920532,0.6376506686210632,55.49996566772461,25.25,0
-0.3675112426280975,-1.0922155380249023,0.3517065048217773,2.2124099731445312,0.6368945240974426,55.499977111816406,25.25,0
-0.4205741286277771,-1.0535808801651,0.3264649212360382,0.4954928755760193,0.6364092826843262,55.49998474121094,25.25,0
-0.4546268284320831,-1.0231895446777344,0.2990707755088806,-1.6237772703170776,0.6360978484153748,55.4999885559082,25.25,0
-0.4540887773036957,-0.9924905896186828,0.2702952623367309,-3.818542957305908,0.6358979940414429,55.49999237060547,25.25,0
-0.4369501769542694,-0.967191994190216,0.2406332343816757,-5.606770515441895,0.6357697248458862,55.499996185302734,25.25,0
-0.4315493702888489,-0.9397612810134888,0.2160000801086425,-6.621796131134033,0.6356874108314514,55.499996185302734,25.25,0
-0.4336812198162079,-0.950146734714508,0.1722030639648437,-6.789533615112305,0.6365528106689453,55.499996185302734,25.25,0
-0.4294515550136566,-1.0015937089920044,0.121705561876297,-6.316800594329834,0.6371082067489624,55.499996185302734,25.25,0
-0.4155416488647461,-1.1409671306610107,0.0613103024661541,-5.583518981933594,0.6374645829200745,55.499996185302734,25.25,0
-0.3954195082187652,-1.2080178260803225,0.0113565493375062,-4.758265972137451,0.6376932859420776,55.499996185302734,25.25,0
-0.3713107407093048,-1.2174605131149292,-0.0318964421749115,-3.4261691570281982,0.6378400921821594,55.499996185302734,25.25,0
-0.3614369034767151,-1.117162585258484,-0.0652514994144439,-0.9054083824157716,0.6379342675209045,55.499996185302734,25.25,0
-0.3942848443984985,-1.041601538658142,-0.1090479493141174,2.657609224319458,0.6379947066307068,55.499996185302734,25.25,0
-0.4825380742549896,-1.0770773887634275,-0.1875339597463607,5.882783889770508,0.6380335092544556,55.499996185302734,25.25,0
-0.5559672117233276,-1.111039400100708,-0.2770861983299255,7.390050888061523,0.6385173201560974,56.4995346069336,25.25,0
-0.5415143370628357,-1.1776163578033447,-0.3345556557178497,7.103426456451416,0.6388278007507324,57.14098358154297,25.25,0
-0.4426749050617218,-1.1979506015777588,-0.3434473872184753,5.88054084777832,0.6390270590782166,57.55262756347656,25.25,0
-0.3400610089302063,-1.1942065954208374,-0.3323602378368377,4.4114909172058105,0.6391549110412598,57.81679534912109,25.25,0
-0.2574160099029541,-1.1638150215148926,-0.2860607504844665,2.9241878986358643,0.6392369866371155,57.986324310302734,25.25,0
-0.2211725264787674,-1.1275181770324707,-0.2563484013080597,1.5362308025360107,0.6392896175384521,58.09511947631836,25.25,0
-0.2147068679332733,-1.0986270904541016,-0.2428784966468811,0.2550190985202789,0.6393234133720398,58.16493606567383,25.25,0
-0.2273509055376052,-1.0912820100784302,-0.2342342734336853,-1.0580017566680908,0.639345109462738,58.209739685058594,25.25,0
-0.2354651093482971,-1.0809706449508667,-0.2286869138479232,-2.412931203842163,0.6375229954719543,58.23849487304688,25.25,0
-0.2238790243864059,-1.09114670753479,-0.2139313966035843,-3.6227915287017822,0.636353611946106,58.2569465637207,25.25,0
-0.222041517496109,-1.075286030769348,-0.1876688301563263,-4.632077693939209,0.6356031894683838,58.2687873840332,25.25,0
-0.2208622992038726,-1.0483142137527466,-0.1596194803714752,-5.54130744934082,0.6351216435432434,58.27638626098633,25.25,0
-0.2257033288478851,-1.042200803756714,-0.1304234713315963,-6.364831447601318,0.634812593460083,58.28126525878906,25.25,0
-0.2456033378839492,-1.060668706893921,-0.1060893759131431,-7.040207386016846,0.6346142888069153,58.28439331054688,25.25,0
-0.3031562268733978,-0.9549670815467834,-0.0400931797921657,-7.602597236633301,0.634486973285675,58.28640365600586,25.25,0
-0.4016658663749695,-0.8143627643585205,0.0806282237172126,-8.142635345458984,0.6344053149223328,58.28769302368164,25.25,0
-0.4984703361988067,-0.7913042902946472,0.1692958176136016,-8.618173599243164,0.6348118185997009,58.28852081298828,25.23,0
-0.5158116817474365,-0.950037717819214,0.2373931258916854,-8.686897277832031,0.6350727081298828,58.2890510559082,25.23,0
-0.4877559244632721,-1.0519037246704102,0.2922896146774292,-7.853268623352051,0.6352401375770569,58.28939056396485,25.23,0
-0.3521980941295624,-1.0556999444961548,0.355507880449295,-5.910341739654541,0.6353475451469421,58.28960800170898,25.23,0
-0.2875959873199463,-1.0525383949279783,0.4240666031837463,-3.040576219558716,0.6354165077209473,58.28974914550781,25.23,0
-0.2909202575683594,-1.0449116230010986,0.4736614227294922,0.4418937265872955,0.6354607343673706,58.28984069824219,25.23,0
-0.3658246695995331,-1.0120283365249634,0.4774996340274811,4.070364475250244,0.6354891061782837,58.28989791870117,25.23,0
-0.4250895380973816,-0.9741324186325072,0.4631694555282593,7.194239616394043,0.635507345199585,58.28993606567383,25.23,0
-0.4687201082706451,-0.9218241572380066,0.4147887527942657,9.37450885772705,0.6346011757850647,58.28995895385742,25.23,0
-0.5079152584075928,-0.8490713238716125,0.3725452721118927,10.605299949645996,0.634019672870636,58.28997421264648,25.23,0
-0.5442639589309692,-0.779991626739502,0.3510335981845855,11.097796440124512,0.6336464881896973,58.28998565673828,25.23,0
-0.5955793261528015,-0.7356602549552917,0.3260330855846405,11.116498947143556,0.6334069967269897,58.28998947143555,25.23,0
-0.6341083645820618,-0.729602038860321,0.2987936437129974,10.86338996887207,0.6332533359527588,58.28999328613281,25.23,0
-0.6308452486991882,-0.7593008875846863,0.2645196318626404,10.31045913696289,0.6331546902656555,58.28999710083008,25.23,0
-0.611957848072052,-0.7895554304122925,0.2145356684923172,9.360912322998049,0.633091390132904,58.28999710083008,25.23,0
-0.5998369455337524,-0.8593510389328003,0.1544699668884277,8.189083099365234,0.633050799369812,58.28999710083008,25.23,0
-0.5920584797859192,-1.0328906774520874,0.0823366120457649,7.200620651245117,0.6334836483001709,58.94561004638672,25.23,0
-0.5926644802093506,-1.121867299079895,0.0472411252558231,6.616438388824463,0.6337614059448242,59.3663444519043,25.23,0
-0.5762600302696228,-0.955056369304657,0.0303166341036558,6.162727355957031,0.6339396834373474,59.636348724365234,25.23,0
-0.5937215089797974,-0.8648000359535217,-0.0533155985176563,5.208785057067871,0.6340540647506714,59.80961990356445,25.23,0
-0.6273183822631836,-0.913236439228058,-0.1405725926160812,3.2925424575805664,0.6341274976730347,59.92081451416016,25.23,0
-0.665672242641449,-1.0226889848709106,-0.2301557511091232,0.5867869257926941,0.6341745853424072,59.99217224121094,25.23,0
-0.6734921932220459,-1.0425493717193604,-0.2764495313167572,-2.2172186374664307,0.6342048048973083,60.037967681884766,25.23,0
-0.5889462232589722,-1.0273057222366333,-0.2613760232925415,-4.5576372146606445,0.6342242360115051,60.06735610961914,25.23,0
-0.4619184136390686,-0.9895343780517578,-0.2125182747840881,-6.310363292694092,0.6342366933822632,60.08621597290039,25.23,0
-0.3859970271587372,-0.9485015869140624,-0.1699686348438263,-7.44949197769165,0.6342446804046631,60.09832000732422,25.23,0
-0.3708617091178894,-0.8941802382469177,-0.125869408249855,-7.929738998413086,0.6342498064041138,60.10608673095703,25.23,0
-0.3779420554637909,-0.8481243252754211,-0.0919712930917739,-7.997901439666748,0.6342530846595764,60.1110725402832,25.23,0
-0.4160724580287933,-0.8297638893127441,-0.0646196529269218,-8.088217735290527,0.6342551708221436,60.1142692565918,25.23,0
-0.4405423700809479,-0.845970094203949,-0.0414691753685474,-8.289480209350586,0.6342565417289734,60.1163215637207,25.23,0
-0.4450501799583435,-0.9179458022117616,-0.0042214333079755,-8.461629867553711,0.634257435798645,60.117637634277344,25.23,0
-0.4255519509315491,-1.0201133489608765,0.0364753492176532,-8.751235008239746,0.634257972240448,60.11848449707031,25.23,0
-0.3850502371788025,-1.0856786966323853,0.0737877488136291,-9.39923858642578,0.6347172856330872,60.11902618408203,25.25,0
-0.3366674780845642,-1.0997658967971802,0.1201237961649894,-10.198426246643066,0.6350120306015015,60.1193733215332,25.25,0
-0.3056181967258453,-1.1591861248016355,0.149859607219696,-10.7220458984375,0.6352011561393738,60.11959838867188,25.25,0
-0.313681423664093,-1.1749275922775269,0.1913334280252456,-10.911189079284668,0.6353225708007812,60.11974334716797,25.25,0
-0.3972247838973999,-1.2074205875396729,0.2571333646774292,-11.122135162353516,0.6354004740715027,60.11983489990234,25.25,0
-0.4676314294338226,-1.1666972637176514,0.3385443985462188,-11.852215766906738,0.6354504823684692,60.11989212036133,25.25,0
-0.4736299514770508,-1.1013789176940918,0.413180410861969,-13.112488746643066,0.6354825496673584,60.119930267333984,25.25,0
-0.4103061556816101,-1.0706568956375122,0.4218930900096893,-13.509263038635254,0.6355031132698059,60.11995315551758,25.25,0
-0.2801041901111603,-1.078930139541626,0.3771044015884399,-10.840508460998535,0.635516345500946,60.11996841430664,25.25,0
-0.2301347106695175,-1.0450550317764282,0.3651549220085144,-4.495584964752197,0.6355248093605042,60.11997985839844,25.25,0
-0.2316538244485855,-0.9785337448120116,0.3686819970607757,3.549297571182251,0.6355302333831787,60.11998748779297,25.25,0
-0.3053997755050659,-0.8630731701850891,0.3541521430015564,10.686039924621582,0.6355337500572205,60.11999130249024,25.25,0
-0.375116765499115,-0.7665861248970032,0.3224366307258606,15.613500595092772,0.6355360150337219,60.1199951171875,25.25,0
-0.4422482252120971,-0.676677405834198,0.2684967815876007,18.16304016113281,0.6355374455451965,60.1199951171875,25.25,0
-0.4909271001815796,-0.6133813858032227,0.2282835245132446,18.595443725585938,0.6355383396148682,60.1199951171875,25.25,0
-0.5277642011642456,-0.5727616548538208,0.1968791931867599,17.493642807006836,0.6355389356613159,60.1199951171875,25.25,0
-0.545806348323822,-0.5299009084701538,0.18792125582695,15.70821475982666,0.6346214413642883,60.5928955078125,25.25,0
-0.557384729385376,-0.4911998212337494,0.1877703368663787,13.953392028808594,0.634032666683197,60.89637756347656,25.25,0
-0.5872061848640442,-0.5391347408294678,0.1932712644338607,12.465408325195312,0.6336548328399658,61.09113311767578,25.25,0
-0.6399305462837219,-0.6258743405342102,0.1800081133842468,11.116422653198242,0.6334123611450195,61.21611785888672,25.25,0
-0.6849615573883057,-0.6759410500526428,0.1658988147974014,9.913958549499512,0.633256733417511,61.29632568359375,25.25,0
-0.7138598561286926,-0.7696465253829956,0.1568442732095718,9.199607849121094,0.6331568956375122,61.34779739379883,25.25,0
-0.7380028963088989,-0.8409768342971802,0.1734246909618377,9.210495948791504,0.6330928206443787,61.38082885742188,25.25,0
-0.7367031574249268,-0.8083837032318115,0.2176516950130462,9.686800956726074,0.6330516934394836,61.40202713012695,25.25,0
-0.7246735095977783,-0.8434450626373291,0.212447389960289,9.784676551818848,0.6334842443466187,61.41563034057617,25.25,0
-0.7001602649688721,-0.938716471195221,0.2035097926855087,8.289067268371582,0.6337618231773376,61.42436218261719,25.25,0
-0.6788312792778015,-1.061431646347046,0.2257630378007888,4.620843887329102,0.6339399218559265,61.429962158203125,25.25,0
-0.642752468585968,-1.1121944189071655,0.2624349892139435,-0.2840043604373932,0.6340542435646057,61.43355941772461,25.25,0
-0.5244370102882385,-1.0608043670654297,0.3251533508300781,-4.8324408531188965,0.6341276168823242,61.43586730957031,25.25,0
-0.3981290161609649,-0.9606518745422364,0.3933912515640259,-8.170526504516602,0.6341747045516968,61.437347412109375,25.25,0
-0.3394629061222076,-0.9075753688812256,0.4427801966667175,-10.190910339355469,0.6342049241065979,61.43829727172852,25.25,0
-0.3354010283946991,-0.8959050178527832,0.4520840644836426,-11.018158912658691,0.6342242956161499,61.438907623291016,25.25,0
-0.3439898788928985,-0.8884156346321106,0.4356636703014374,-11.187199592590332,0.6333184838294983,61.43929672241211,25.23,0
-0.3327083885669708,-0.8500227332115173,0.4027349054813385,-11.378079414367676,0.6327372193336487,61.43954849243164,25.23,0
-0.2806863784790039,-0.8197866082191467,0.3872008919715881,-11.68686866760254,0.6323642134666443,61.4397087097168,25.23,0
-0.2417038828134536,-0.8003827929496765,0.3772320449352264,-11.806215286254885,0.6321248412132263,61.43981170654297,25.23,0
-0.2390782535076141,-0.8159193992614746,0.3484435379505157,-11.696511268615724,0.6319711804389954,61.43988037109375,25.23,0
-0.2429910451173782,-0.8482810258865356,0.3131754100322723,-11.464893341064451,0.6318725943565369,61.43992233276367,25.23,0
-0.2678931653499603,-0.9306243658065796,0.2681512534618377,-10.875597953796388,0.6318092942237854,61.43994903564453,25.23,0
-0.3174605369567871,-0.9946631193161012,0.2112684547901153,-9.354580879211426,0.6317687034606934,61.43996810913086,25.23,0
-0.3548678159713745,-1.0637483596801758,0.1579710245132446,-6.640929698944092,0.6322019696235657,61.439979553222656,25.23,0
-0.4068625271320343,-1.1024855375289917,0.1125722602009773,-3.4234437942504883,0.6324800252914429,61.43998718261719,25.23,0
-0.4738163650035858,-1.144138216972351,0.0610468499362468,-0.828425407409668,0.6326584219932556,61.43999099731445,25.23,0
-0.5559679269790649,-1.092499613761902,0.0951540991663932,0.8942293524742126,0.6327729225158691,61.43999481201172,25.23,0
-0.5918947458267212,-0.9586009979248048,0.1450310349464416,2.6445937156677246,0.6328464150428772,61.43999481201172,25.23,0
-0.5981571674346924,-0.889465868473053,0.1770391911268234,5.107759952545166,0.6328935623168945,61.43999481201172,25.23,0
-0.5853826999664307,-0.9122722148895264,0.2087757289409637,7.745338439941406,0.6329238414764404,61.43999481201172,25.23,0
-0.5827825665473938,-0.949299156665802,0.2347401827573776,9.527548789978027,0.6329432725906372,61.43999481201172,25.23,0
-0.5531250834465027,-0.9114853739738464,0.2402071207761764,10.037152290344238,0.6324964165687561,61.81974792480469,25.23,0
-0.5228970646858215,-0.8424364924430847,0.2213243991136551,9.554524421691896,0.6322096586227417,62.063453674316406,25.23,0
-0.5090962648391724,-0.7925270795822144,0.2036087810993194,8.374236106872559,0.6320256590843201,62.2198486328125,25.23,0
-0.5226308107376099,-0.7493025660514832,0.1754465848207473,6.481118679046631,0.6319075226783752,62.32021331787109,25.23,0
-0.548109769821167,-0.7047702074050903,0.1461781710386276,3.919176340103149,0.6318317651748657,62.38462448120117,25.23,0
-0.5980473756790161,-0.6426053047180176,0.1106020584702491,1.171635985374451,0.631783127784729,62.42595672607422,25.23,0
-0.6356922388076782,-0.5691247582435608,0.0709780380129814,-1.014321208000183,0.6317518949508667,62.452484130859375,25.23,0
-0.6822416186332703,-0.521969199180603,0.0399518460035324,-2.263092041015625,0.6317318677902222,62.469505310058594,25.23,0
-0.7401032447814941,-0.514098584651947,0.031236570328474,-2.767127513885498,0.6317189931869507,62.480430603027344,25.23,0
-0.7828332781791687,-0.5034498572349548,0.0368391573429107,-2.77532172203064,0.6317107677459717,62.48744201660156,25.23,0
-0.7934616208076477,-0.5078116655349731,0.057227898389101,-2.282602310180664,0.6317054629325867,62.49193954467773,25.23,0
-0.8450644612312317,-0.5777841210365295,0.0759099945425987,-1.38602614402771,0.6317020654678345,62.49482727050781,25.23,0
-0.8725824356079102,-0.61709064245224,0.0878990888595581,-0.3914937376976013,0.6316998600959778,62.496681213378906,25.23,0
-0.8230685591697693,-0.6199242472648621,0.1123863160610199,0.4831898510456085,0.631698489189148,62.49787139892578,25.23,0
-0.7968912124633789,-0.5937538146972656,0.1448941379785537,1.155571222305298,0.6316975951194763,62.498634338378906,25.23,0
-0.8528631329536438,-0.5937524437904358,0.1937446594238281,1.608562469482422,0.6316969990730286,62.499122619628906,25.23,0
-0.9167715907096864,-0.7560870051383972,0.2474852055311203,1.99241304397583,0.6326148509979248,62.49943542480469,25.23,0
-0.9185999035835266,-0.8938506245613098,0.2875705659389496,2.4859440326690674,0.6332038640975952,62.499637603759766,25.23,0
-0.8470021486282349,-0.9654660820961,0.3244906067848205,3.0319488048553467,0.6335818767547607,62.4997673034668,25.23,0
-0.7618704438209534,-0.983435869216919,0.3593792915344238,3.3930907249450684,0.6338244676589966,62.49985122680664,25.23,0
-0.6008800864219666,-0.961381196975708,0.4097577333450317,3.363322734832764,0.6339801549911499,62.49990463256836,25.23,0
-0.3912080228328705,-0.9416300058364868,0.4308921694755554,2.9143104553222656,0.6340800523757935,62.49993896484375,25.23,0
-0.2286636978387832,-0.9345526099205016,0.4164661467075348,2.174755573272705,0.634144127368927,62.499961853027344,25.23,0
-0.1803298443555832,-0.9020218849182128,0.3736217021942138,1.2953208684921265,0.634185254573822,62.499977111816406,25.23,0
-0.1996919363737106,-0.8587544560432434,0.3349310755729675,0.3655276000499725,0.6314573884010315,62.49998474121094,25.23,0
-0.1953240782022476,-0.825390100479126,0.2877105474472046,-0.4747754037380218,0.6297067999839783,62.4999885559082,25.23,0
-0.1925210356712341,-0.8263698816299438,0.2238204926252365,-1.128675937652588,0.6285833716392517,62.49999237060547,25.23,0
-0.1795266568660736,-0.8437919616699219,0.1660262048244476,-1.652206301689148,0.6278624534606934,62.499996185302734,25.23,0
-0.165589839220047,-0.8829613327980042,0.0841549634933471,-1.9989256858825684,0.6273998022079468,62.499996185302734,25.23,0
-0.1566459983587265,-0.9248912930488586,0.0148213906213641,-2.013640880584717,0.6271028518676758,62.499996185302734,25.23,0
-0.1676996797323227,-0.9741906523704528,-0.0352706797420978,-1.7902168035507202,0.6269122958183289,62.499996185302734,25.23,0
-0.1691955178976059,-1.1737613677978516,-0.1010035350918769,-1.5357762575149536,0.6267900466918945,62.499996185302734,25.23,0
-0.2037421017885208,-1.341018795967102,-0.1767737418413162,-1.161118984222412,0.6285476088523865,62.8403434753418,25.23,0
-0.2986831963062286,-1.2188462018966677,-0.2086053788661956,-0.4979415833950043,0.629675567150116,63.05875778198242,25.23,0
-0.3820020258426666,-1.045280694961548,-0.167457565665245,0.278739869594574,0.6303994059562683,63.19892501831055,25.23,0
-0.4298734664916992,-0.9674830436706544,-0.0234980043023824,0.902559459209442,0.6308639049530029,63.288875579833984,25.23,0
-0.4885834753513336,-1.0519036054611206,0.0800824984908104,1.4676893949508667,0.6311619877815247,63.34659957885742,25.23,0
-0.4590868949890136,-1.0780909061431885,0.0961745306849479,2.188614845275879,0.6313533186912537,63.38364410400391,25.23,0
-0.3226044178009033,-0.9717454314231871,0.0729148238897323,2.9199564456939697,0.631476104259491,63.40741729736328,25.23,0
-0.2014311701059341,-0.8811079263687134,0.0691836327314376,3.267481803894043,0.631554901599884,63.42267227172852,25.23,0
-0.1516580283641815,-0.8453330397605896,0.0723869428038597,3.135828733444214,0.6311465501785278,63.432464599609375,25.23,0
-0.1700964570045471,-0.8447659015655518,0.0576493218541145,2.8435518741607666,0.6308844685554504,63.43874740600586,25.23,0
-0.2211136072874069,-0.8388041853904724,0.0369960181415081,2.7168891429901123,0.6307162642478943,63.442779541015625,25.23,0
-0.3210267722606659,-0.8349782824516296,0.0069485902786254,2.7860724925994877,0.630608320236206,63.44536590576172,25.23,0
-0.3851452767848968,-0.8493163585662842,-0.0179318916052579,2.705080270767212,0.630539059638977,63.447025299072266,25.23,0
-0.4318906366825104,-0.8473221659660339,-0.033898752182722,1.9473367929458616,0.6304945945739746,63.448089599609375,25.23,0
-0.4562913179397583,-0.8292490839958191,-0.0273520424962043,0.3110539317131042,0.630466103553772,63.44877243041992,25.23,0
-0.4607547223567962,-0.8288463950157166,-0.0231507401913404,-1.7206439971923828,0.6304478049278259,63.44921112060547,25.23,0
-0.4580213129520416,-1.030107855796814,-0.014856812544167,-3.35048508644104,0.6299771070480347,63.449493408203125,25.23,0
-0.4506694078445434,-1.2320369482040403,0.0016613013576716,-4.177886009216309,0.629675030708313,63.44967651367188,25.23,0
-0.4123647212982178,-1.232874631881714,0.0626416429877281,-4.443754196166992,0.6294811964035034,63.44979095458984,25.23,0
-0.404576301574707,-1.1382499933242798,0.1801441609859466,-4.70751953125,0.6293568015098572,63.44986724853516,25.23,0
-0.3995781540870666,-1.1502964496612549,0.2555505037307739,-5.324611186981201,0.6292769908905029,63.44991683959961,25.23,0
-0.3795773088932037,-1.2307982444763184,0.2927464246749878,-6.111125946044922,0.6292257905006409,63.44994735717773,25.23,0
-0.3443508148193359,-1.2768617868423462,0.3110188543796539,-6.504806041717529,0.6291928887367249,63.44996643066406,25.23,0
-0.209788978099823,-1.200065016746521,0.3563316762447357,-6.105418205261231,0.6291717886924744,63.44997787475586,25.23,0
-0.0786527469754219,-1.0892057418823242,0.3910086154937744,-4.957052707672119,0.6282400488853455,63.44998550415039,25.23,0
0.0334918089210987,-0.9900738000869752,0.4244578182697296,-3.263550281524658,0.6276420950889587,63.449989318847656,25.23,0
0.0046997931785881,-0.8704789280891418,0.4011414051055908,-0.912108838558197,0.6272583603858948,63.44999313354492,25.23,0
-0.0473639145493507,-0.799327552318573,0.3693849444389343,2.1517488956451416,0.6270121335983276,63.44999694824219,25.23,0
-0.1255576014518737,-0.7704600095748901,0.3042232990264892,5.199894428253174,0.6268541216850281,63.44999694824219,25.23,0
-0.1869333535432815,-0.7575322985649109,0.2344174236059188,7.148853302001953,0.6267526745796204,63.44999694824219,25.23,0
-0.2151252329349517,-0.7660293579101562,0.1784244775772094,7.851449012756348,0.6266875863075256,63.44999694824219,25.23,0
-0.2108260542154312,-0.7826778292655945,0.1312958896160125,7.987067699432373,0.6266458034515381,63.44999694824219,25.23,0
-0.2024693191051483,-0.7933618426322937,0.101051464676857,7.79465913772583,0.6284550428390503,63.797508239746094,25.23,0
-0.1971064507961273,-0.8282070755958557,0.0760445594787597,6.900928497314453,0.6296161413192749,64.02052307128906,25.23,0
-0.2048604190349578,-0.9345353841781616,0.0543987937271595,5.292019367218018,0.6303612589836121,64.16363525390625,25.23,0
-0.2210320085287094,-1.0867373943328855,0.0293122418224811,3.424773931503296,0.6308394074440002,64.25547790527344,25.23,0
-0.2705944180488586,-1.234791874885559,0.0076153608970344,1.58878493309021,0.6311463117599487,64.31441497802734,25.23,0
-0.3303896188735962,-1.3130114078521729,0.0160826481878757,-0.1196683570742607,0.6313432455062866,64.35224151611328,25.23,0
-0.4359360039234161,-1.2064704895019531,0.1390697360038757,-1.5098265409469604,0.6314696073532104,64.37651824951172,25.23,0
-0.4532896280288696,-1.110109806060791,0.2515824139118194,-2.527340173721313,0.6315507292747498,64.39209747314453,25.23,0
-0.4084484577178955,-1.0650643110275269,0.2901999354362488,-3.4239370822906494,0.6311438679695129,64.40209197998047,25.23,0
-0.2789120376110077,-1.058547854423523,0.2422113567590713,-4.232188701629639,0.630882740020752,64.40850830078125,25.23,0
-0.1789896935224533,-1.015181541442871,0.2170128226280212,-4.525176048278809,0.6307151913642883,64.41262817382812,25.23,0
-0.1484519243240356,-0.914580464363098,0.2008418589830398,-3.964439868927002,0.6306076645851135,64.41526794433594,25.23,0
-0.1680389642715454,-0.8276293873786926,0.1848664879798889,-2.8844940662384038,0.6305386424064636,64.41696166992188,25.23,0
-0.2029999047517776,-0.7830247282981873,0.1746144145727157,-2.005152940750122,0.6304943561553955,64.41805267333984,25.23,0
-0.2590224742889404,-0.7655956149101257,0.1736329942941665,-1.6844576597213743,0.6304659247398376,64.41874694824219,25.23,0
-0.3061700761318207,-0.7544105648994446,0.1730031818151474,-1.7330167293548584,0.6304476857185364,64.41919708251953,25.23,0
-0.3476222455501556,-0.7696237564086914,0.1781967729330063,-1.928977608680725,0.6299770474433899,64.41948699951172,25.21,0
-0.3854193985462188,-0.7681911587715149,0.192725270986557,-2.301931858062744,0.629675030708313,64.41967010498047,25.21,0
-0.4264687597751617,-0.7784673571586609,0.2076466083526611,-2.888782262802124,0.6294811964035034,64.41978454589844,25.21,0
-0.4528118968009949,-0.8354420065879822,0.2284177988767624,-3.670220136642456,0.6293568015098572,64.41986083984375,25.21,0
-0.4641196131706238,-0.8776028156280518,0.2417475581169128,-4.712670803070068,0.6292769908905029,64.41990661621094,25.21,0
-0.4433873891830444,-0.921452522277832,0.2391062825918197,-5.9835286140441895,0.6292257905006409,64.41993713378906,25.21,0
-0.4188870787620544,-1.0335593223571775,0.2430090457201004,-7.107192993164063,0.6291928887367249,64.41996002197266,25.21,0
-0.408761978149414,-1.0663186311721802,0.2623069286346435,-7.599011421203613,0.6291717886924744,64.41997528076172,25.21,0
-0.4470464587211609,-1.104135036468506,0.2858867645263672,-7.445314884185791,0.6291582584381104,64.41998291015625,25.21,0
-0.4828107953071594,-1.1619900465011597,0.295421153306961,-6.931102752685547,0.6291495561599731,64.41999053955078,25.21,0
-0.5001645088195801,-1.1711292266845703,0.29034423828125,-5.53350305557251,0.6291439533233643,64.41999053955078,25.21,0
-0.4945077896118164,-1.1769942045211792,0.2702928483486175,-2.032071828842163,0.6291403770446777,64.41999053955078,25.21,0
-0.4684865474700928,-1.2087469100952148,0.2350339144468307,3.2995431423187256,0.6291381120681763,64.41999053955078,25.21,0
-0.3902120888233185,-1.2962971925735474,0.1956134289503097,7.971385478973389,0.6291366219520569,64.41999053955078,25.21,0
-0.3007956147193908,-1.3244930505752563,0.187108963727951,9.955636024475098,0.6291356682777405,64.41999053955078,25.21,0
-0.1986310929059982,-1.2642186880111694,0.1984446048736572,9.745827674865724,0.6291350722312927,64.41999053955078,25.21,0
-0.1442633271217346,-1.1975492238998413,0.1889258474111557,8.969903945922852,0.6282164454460144,64.59912109375,25.21,0
-0.1205687746405601,-1.1491668224334717,0.1772194802761078,8.38239574432373,0.6276269555091858,64.71408081054688,25.21,0
-0.1333518475294113,-1.101324439048767,0.1249248087406158,7.70801305770874,0.6272486448287964,64.78784942626953,25.21,0
-0.1471530646085739,-1.0650241374969482,0.0745717734098434,6.497814178466797,0.6270058751106262,64.83518981933594,25.21,0
-0.1560098826885223,-1.0249354839324951,0.0366603210568428,4.61774492263794,0.6268500685691833,64.86557006835938,25.21,0
-0.1672914624214172,-0.9656221866607666,0.0235264841467142,2.2504701614379883,0.626750111579895,64.88507080078125,25.21,0
-0.1801290959119796,-0.916362762451172,0.0206957180052995,-0.264666348695755,0.6266859173774719,64.8975830078125,25.21,0
-0.1883675456047058,-0.8455665111541748,0.030074642971158,-2.394627094268799,0.6266447305679321,64.9056167602539,25.21,0
-0.1936545222997665,-0.7833402156829834,0.0416912734508514,-3.682696580886841,0.6266183257102966,64.9107666015625,25.21,0
-0.2138407230377197,-0.765798032283783,0.0379506088793277,-4.355254650115967,0.6266013979911804,64.91407012939453,25.21,0
-0.2603816986083984,-0.7153560519218445,0.057941161096096,-5.044809341430664,0.6265904903411865,64.91619110107422,25.21,0
-0.3070423603057861,-0.6717897653579712,0.0875632688403129,-5.759601593017578,0.6265835165977478,64.91755676269531,25.21,0
-0.3985619843006134,-0.565462589263916,0.1681485474109649,-5.845726013183594,0.6265790462493896,64.9184341430664,25.21,0
-0.4852828979492187,-0.5196190476417542,0.2310590893030166,-4.822640419006348,0.6265761852264404,64.91899108886719,25.21,0
-0.5465331673622131,-0.7253057956695557,0.2882247865200043,-2.6004974842071533,0.6265743374824524,64.91934967041016,25.21,0
-0.5466556549072266,-0.89089035987854,0.3361059725284576,0.5989206433296204,0.6265731453895569,64.9195785522461,25.21,0
-0.4963542819023132,-0.9691641330718994,0.3724311590194702,3.834372997283936,0.6256541609764099,64.91973114013672,25.23,0
-0.3969004452228546,-1.0082001686096191,0.4405247569084167,5.67066764831543,0.6250644326210022,64.91983032226562,25.23,0
-0.3330767154693603,-1.027653455734253,0.5122121572494507,5.408900260925293,0.6246859431266785,64.91989135742188,25.23,0
-0.3369005024433136,-1.0569307804107666,0.5638148188591003,3.693240404129028,0.6244430541992188,64.91992950439453,25.23,0
-0.3841365873813629,-1.0421326160430908,0.5577459931373596,1.5962727069854736,0.6242871880531311,64.91995239257812,25.23,0
-0.4312433004379272,-1.0102449655532837,0.5314602851867676,-0.3262351453304291,0.624187171459198,64.91996765136719,25.23,0
-0.4782670140266418,-0.9338035583496094,0.475407212972641,-1.9254125356674197,0.6241229772567749,64.91997528076172,25.23,0
-0.5196396708488464,-0.8735523223876953,0.4114466905593872,-3.1164710521698,0.6240817904472351,64.91998291015625,25.23,0
-0.5517880320549011,-0.8908643126487732,0.3312160968780517,-3.9273974895477295,0.624514639377594,64.91999053955078,25.23,0
-0.5612234473228455,-0.9131696820259094,0.2517398595809936,-4.437055587768555,0.6247923970222473,64.91999053955078,25.23,0
-0.5392897129058838,-0.9386795163154602,0.1727477014064788,-4.524092197418213,0.6249706745147705,64.91999053955078,25.23,0
-0.5140183568000793,-1.0110280513763428,0.110859528183937,-3.99957013130188,0.6250850558280945,64.91999053955078,25.23,0
-0.4866050779819488,-1.1246304512023926,0.0599477142095565,-3.0109331607818604,0.6251584887504578,64.91999053955078,25.23,0
-0.4746105968952179,-1.1919361352920532,0.0552643164992332,-1.9250783920288088,0.6252055764198303,64.91999053955078,25.23,0
-0.4725109934806824,-1.1063802242279053,0.001878808136098,-0.7517568469047546,0.6252357959747314,64.91999053955078,25.23,0
-0.4767613708972931,-1.1354420185089111,-0.0771631300449371,0.8968572616577148,0.6252552270889282,64.91999053955078,25.23,0
-0.4794889986515045,-1.1988743543624878,-0.1558765619993209,3.1120147705078125,0.6248083710670471,65.02388763427734,25.23,0
-0.475641667842865,-1.2227883338928225,-0.2063903212547302,5.275168418884277,0.6245216131210327,65.09056091308594,25.23,0
-0.4059993922710418,-1.1877548694610596,-0.1996227204799652,6.598869800567627,0.6243376135826111,65.13335418701172,25.23,0
-0.3333181142807007,-1.1316858530044556,-0.1784863471984863,6.799899101257324,0.624219536781311,65.16081237792969,25.23,0
-0.2866754531860351,-1.0957039594650269,-0.170520007610321,6.072672367095947,0.6241437792778015,65.17843627929688,25.23,0
-0.273536205291748,-1.0558195114135742,-0.171005442738533,4.810648441314697,0.6240951418876648,65.18974304199219,25.23,0
-0.2762997448444366,-1.0246262550354004,-0.1657191962003708,3.538601875305176,0.6240639090538025,65.1969985961914,25.23,0
-0.2668776512145996,-1.0158036947250366,-0.1623267829418182,2.5288164615631104,0.624043881893158,65.20165252685547,25.23,0
-0.24403777718544,-1.015739679336548,-0.1433564126491546,1.4902935028076172,0.6235721111297607,65.20464324951172,25.23,0
-0.2181849181652069,-1.0156985521316528,-0.11438899487257,0.0070020128041505,0.6232693195343018,65.20655822753906,25.23,0
-0.2015940397977829,-1.0100743770599363,-0.0678104981780052,-1.7581336498260498,0.623075008392334,65.20779418945312,25.23,0
-0.202142521739006,-1.006465196609497,-0.0211257748305797,-3.259901285171509,0.6229503154754639,65.20858764648438,25.23,0
-0.2304833680391311,-1.0265400409698486,0.0312248896807432,-4.284553050994873,0.6228703260421753,65.20909118652344,25.23,0
-0.2430731207132339,-1.0954006910324097,0.0368316583335399,-5.135574817657471,0.6228189468383789,65.20941925048828,25.23,0
-0.2511525154113769,-1.128395915031433,0.0460275374352932,-6.176106929779053,0.6227859854698181,65.20962524414062,25.23,0
-0.2955218255519867,-1.0376149415969849,0.1526888608932495,-7.438568115234375,0.6227648258209229,65.20976257324219,25.23,0
-0.3295932710170746,-0.9681613445281982,0.2379312813282013,-8.728808403015137,0.6227512955665588,65.20984649658203,25.21,0
-0.3234694898128509,-1.063534379005432,0.2982327342033386,-9.94372844696045,0.6227425932884216,65.20989990234375,25.21,0
-0.291550725698471,-1.1191415786743164,0.3649196028709411,-11.167633056640623,0.6227369904518127,65.2099380493164,25.21,0
-0.2374804466962814,-1.138033747673035,0.4133131802082062,-12.361478805541992,0.6227334141731262,65.2099609375,25.21,0
-0.1803901493549347,-1.1053754091262815,0.4219782948493957,-12.812353134155272,0.62273108959198,65.20997619628906,25.21,0
-0.154948428273201,-1.0732216835021973,0.4163435101509094,-11.167107582092283,0.6227295994758606,65.2099838256836,25.21,0
-0.1834035962820053,-1.0413917303085327,0.4071296453475952,-6.7472453117370605,0.6227286458015442,65.20999145507812,25.21,0
-0.2464466840028762,-1.0097695589065552,0.4012167453765869,-0.5360458493232727,0.6227280497550964,65.20999145507812,25.21,0
-0.3036974370479584,-0.9838784337043762,0.3974221646785736,5.671141147613525,0.6222687363624573,65.20999145507812,25.21,0
-0.3796221017837524,-0.9504696726799012,0.3837914764881134,10.725747108459473,0.621973991394043,65.20999145507812,25.21,0
-0.4339439570903778,-0.9178343415260316,0.3694463074207306,14.374332427978516,0.6217848658561707,65.20999145507812,25.21,0
-0.463206797838211,-0.880097508430481,0.3378493189811706,16.794601440429688,0.6216634511947632,65.20999145507812,25.21,0
-0.4651927053928375,-0.8558802008628845,0.2895833253860473,18.222400665283203,0.6215855479240417,65.20999145507812,25.21,0
-0.4608693718910217,-0.840338945388794,0.2474134266376495,18.63353729248047,0.6215355396270752,65.20999145507812,25.21,0
-0.452497124671936,-0.841560959815979,0.1923623383045196,17.733043670654297,0.621503472328186,65.20999145507812,25.21,0
-0.4471243023872375,-0.859138548374176,0.1402404010295868,15.453434944152832,0.6214829087257385,65.20999145507812,25.21,0
-0.4492740929126739,-0.9823743104934692,0.0899982154369354,12.36402416229248,0.6228468418121338,65.27806091308594,25.21,0
-0.4562514722347259,-1.1398288011550903,0.0409623496234416,9.528764724731444,0.6237221360206604,65.32174682617188,25.21,0
-0.4831202626228332,-1.1904940605163574,0.0094939535483717,7.884805202484131,0.6242838501930237,65.34978485107422,25.21,0
-0.5003631114959717,-1.066270351409912,-0.0498850680887699,7.496165752410889,0.6246442794799805,65.3677749633789,25.21,0
-0.5170263648033142,-1.0257351398468018,-0.1215777546167373,7.182272911071777,0.6248756051063538,65.37931823730469,25.21,0
-0.5557087063789368,-1.0668952465057373,-0.2011726349592209,5.4188313484191895,0.6250240802764893,65.38672637939453,25.21,0
-0.5469461679458618,-1.098907232284546,-0.2522520422935486,1.9083256721496584,0.6251193284988403,65.3914794921875,25.21,0
-0.4909429252147674,-1.0970596075057983,-0.2738363146781921,-2.2182016372680664,0.6251804828643799,65.39453125,25.21,0
-0.38782998919487,-1.090276122093201,-0.2708945572376251,-5.76917839050293,0.6247604489326477,65.39649200439453,25.21,0
-0.3048647046089172,-1.0859228372573853,-0.2578111588954925,-8.298770904541016,0.6244908571243286,65.39775085449219,25.21,0
-0.2516223490238189,-1.0775314569473269,-0.2326216548681259,-9.82538890838623,0.6243178844451904,65.3985595703125,25.21,0
-0.2286500334739685,-1.0497552156448364,-0.2052609324455261,-10.6223726272583,0.6242068409919739,65.39907836914062,25.21,0
-0.2195055037736892,-1.0319300889968872,-0.187702402472496,-11.13741397857666,0.6241356134414673,65.39940643310547,25.21,0
-0.230430394411087,-1.042881965637207,-0.1708365678787231,-11.589744567871094,0.6240898966789246,65.39962005615234,25.21,0
-0.2430391311645507,-1.055508017539978,-0.1600130498409271,-11.923015594482422,0.6240605711936951,65.3997573852539,25.21,0
-0.2511307001113891,-1.0692085027694702,-0.1474693566560745,-12.090316772460938,0.624041736125946,65.39984130859375,25.21,0
-0.2563233971595764,-1.083598494529724,-0.1394195407629013,-12.140358924865724,0.6235707402229309,65.39990234375,25.23,0
-0.2708513140678406,-1.092833161354065,-0.1398514062166214,-12.115152359008787,0.6232684850692749,65.39994049072266,25.23,0
-0.2969678342342376,-1.149139404296875,-0.1569218784570694,-11.959256172180176,0.623074471950531,65.39996337890625,25.23,0
-0.3249234557151794,-1.1684801578521729,-0.162278950214386,-11.47945785522461,0.6229499578475952,65.39997863769531,25.23,0
-0.3932437300682068,-1.0969253778457642,-0.1321301609277725,-10.70223331451416,0.6228700876235962,65.39998626708984,25.23,0
-0.4650766253471374,-0.9670389890670776,-0.051206886768341,-10.196290016174316,0.6228188276290894,65.39999389648438,25.23,0
-0.527968168258667,-0.9172720313072203,0.0175183378159999,-10.29434871673584,0.6227859258651733,65.39999389648438,25.23,0
-0.5515350103378296,-1.0084854364395142,0.0616222284734249,-9.95961093902588,0.6227648258209229,65.39999389648438,25.23,0
-0.5498655438423157,-1.04462993144989,0.101121112704277,-7.3982086181640625,0.6218330264091492,65.39999389648438,25.23,0
-0.4536319971084595,-1.0062497854232788,0.1320669949054718,-2.1396291255950928,0.6212350726127625,65.39999389648438,25.23,0
-0.3582881987094879,-0.9368374347686768,0.1911107152700424,4.151240825653076,0.6208513379096985,65.39999389648438,25.23,0
-0.3082975745201111,-0.8699015378952026,0.2625882029533386,9.22372341156006,0.6206051111221313,65.39999389648438,25.23,0
-0.3154008984565735,-0.80455482006073,0.3308494389057159,12.10278034210205,0.6204470992088318,65.39999389648438,25.23,0
-0.347948282957077,-0.7626190185546875,0.3690578043460846,13.1264009475708,0.6203456521034241,65.39999389648438,25.23,0
-0.4080197215080261,-0.7301092743873596,0.382382184267044,12.898405075073242,0.6202805638313293,65.39999389648438,25.23,0
-0.4689612090587616,-0.7092463970184326,0.3797374665737152,11.877942085266112,0.6202387809753418,65.39999389648438,25.23,0
-0.5192655324935913,-0.69585782289505,0.3780402243137359,10.657021522521973,0.6211301684379578,65.47881317138672,25.23,0
-0.5571457147598267,-0.6760702729225159,0.3825488090515136,9.82334804534912,0.621702253818512,65.5293960571289,25.23,0
-0.5758572220802307,-0.6689695119857788,0.3798443973064422,9.474638938903809,0.6220693588256836,65.56185913085938,25.23,0
-0.5654740929603577,-0.737183690071106,0.3557177484035492,9.211448669433594,0.6223049759864807,65.58268737792969,25.23,0
-0.5364197492599487,-0.8481329679489136,0.3346368968486786,8.634135246276855,0.6224561333656311,65.59605407714844,25.23,0
-0.5121765732765198,-0.9361271262168884,0.3211084008216858,7.751340389251709,0.6225531697273254,65.6046371459961,25.23,0
-0.4910208880901336,-1.0373789072036743,0.3012310564517975,7.002101898193359,0.6226154565811157,65.61014556884766,25.23,0
-0.4942377209663391,-1.074367642402649,0.2828771471977234,6.901036739349365,0.6226553916931152,65.61367797851562,25.23,0
-0.5130954384803772,-0.9805516004562378,0.2599031031131744,7.491790294647217,0.6231399774551392,65.6159439086914,25.23,0
-0.519599437713623,-0.9483346939086914,0.1891819536685943,7.928223133087158,0.6234509348869324,65.61740112304688,25.23,0
-0.5293711423873901,-0.983637511730194,0.127003863453865,6.968729496002197,0.6236504912376404,65.61833190917969,25.23,0
-0.546837568283081,-1.0398794412612915,0.0871015414595604,4.307331085205078,0.6237785816192627,65.61892700195312,25.23,0
-0.5468509793281555,-1.0423856973648071,0.0782878547906875,0.9585790634155272,0.623860776424408,65.61931610107422,25.23,0
-0.4628929793834686,-0.9824184775352478,0.1062183827161789,-1.9248852729797363,0.6239135265350342,65.61956024169922,25.23,0
-0.3698291480541229,-0.859968364238739,0.1577292382717132,-3.9437077045440674,0.6239473819732666,65.61972045898438,25.23,0
-0.3157038986682892,-0.7701913714408875,0.2019814848899841,-5.185533046722412,0.6239690780639648,65.61981964111328,25.23,0
-0.3145560920238495,-0.7517620921134949,0.224782258272171,-5.828414440155029,0.6226058602333069,65.61988830566406,25.25,0
-0.3474061191082001,-0.7567285895347595,0.2394144833087921,-6.119171142578125,0.6217310428619385,65.61992645263672,25.25,0
-0.3908784687519073,-0.7823069095611572,0.2264135032892227,-6.291431903839111,0.6211696267127991,65.61995697021484,25.25,0
-0.3851898908615112,-0.8043193817138672,0.2180702239274978,-6.516621112823486,0.6208093166351318,65.6199722290039,25.25,0
-0.3031704425811767,-0.8408368229866028,0.2239115387201309,-6.851011276245117,0.6205781102180481,65.61997985839844,25.25,0
-0.205752894282341,-0.8810648918151855,0.2332579344511032,-7.24831485748291,0.6204297542572021,65.61998748779297,25.25,0
-0.14323590695858,-0.9236742854118348,0.2224625796079635,-7.585680484771728,0.6203345656394958,65.6199951171875,25.25,0
-0.131104975938797,-0.9790074229240416,0.176350325345993,-7.676792621612549,0.6202734708786011,65.6199951171875,25.25,0
-0.14571113884449,-1.0313103199005127,0.1299648135900497,-7.308936595916748,0.6216114163398743,65.6199951171875,25.25,0
-0.2110622823238372,-1.1600375175476074,0.066610611975193,-6.571307182312012,0.6224700212478638,65.6199951171875,25.25,0
-0.2977830767631531,-1.337809443473816,-0.0132308844476938,-6.054947853088379,0.6230210065841675,65.6199951171875,25.25,0
-0.3870221376419067,-1.3455355167388916,-0.0420774668455123,-6.303955554962158,0.6233745813369751,65.6199951171875,25.25,0
-0.4107039868831634,-1.1489737033843994,0.0009859758429229,-7.00472354888916,0.623601496219635,65.6199951171875,25.25,0
-0.3867172002792358,-1.0620161294937134,0.034219391644001,-7.074682712554932,0.6237471103668213,65.6199951171875,25.25,0
-0.3153461217880249,-1.118167281150818,0.0443511344492435,-5.847764492034912,0.6238405704498291,65.6199951171875,25.25,0
-0.291935384273529,-1.1206151247024536,0.0172664579004049,-3.752758741378784,0.6239005327224731,65.6199951171875,25.25,0
-0.2769117057323456,-1.094197154045105,-0.0113104796037077,-1.666711449623108,0.6230211853981018,65.7346420288086,25.25,0
-0.2896614670753479,-1.032461404800415,-0.046442836523056,-0.0593131259083747,0.6224568486213684,65.80821228027344,25.25,0
-0.3146368563175201,-0.9760496616363524,-0.0689887627959251,1.0223785638809204,0.6220946907997131,65.85543060302734,25.25,0
-0.3362624049186706,-0.9230545163154602,-0.0834574401378631,1.5875732898712158,0.6218622922897339,65.88572692871094,25.25,0
-0.3613359928131103,-0.8722519874572754,-0.0759492814540863,1.670841932296753,0.6217131614685059,65.9051742553711,25.25,0
-0.3774267733097076,-0.8396498560905457,-0.065533198416233,1.5236546993255615,0.6216174364089966,65.91764831542969,25.25,0
-0.3821551501750946,-0.8187276721000671,-0.0588487572968006,1.5796666145324707,0.6215560436248779,65.9256591796875,25.25,0
-0.3851895332336426,-0.7941054701805115,-0.0657546147704124,2.2031540870666504,0.6215166449546814,65.93080139160156,25.25,0
-0.3983323872089386,-0.7783043384552002,-0.0869797244668006,3.4021871089935303,0.6219502687454224,65.93409729003906,25.25,0
-0.4235600233078003,-0.7737618684768677,-0.0838074535131454,4.773530006408691,0.6222285032272339,65.93621063232422,25.25,0
-0.4397496879100799,-0.7876400947570801,-0.0761738941073417,5.789716720581055,0.622407078742981,65.93756866455078,25.25,0
-0.4781281352043152,-0.9588817954063416,-0.0712751150131225,6.43109941482544,0.622521698474884,65.93843841552734,25.25,0
-0.5083550214767456,-0.996003806591034,-0.0345447175204753,7.186628818511963,0.6225952506065369,65.93899536132812,25.25,0
-0.5109595656394958,-0.9526532888412476,0.0058200620114803,8.280522346496582,0.622642457485199,65.9393539428711,25.25,0
-0.5294243097305298,-0.9416267275810242,0.0373216271400451,9.197474479675291,0.6226727366447449,65.93958282470703,25.25,0
-0.535676121711731,-0.9737349152565002,0.0631352961063385,9.058658599853516,0.6226921677589417,65.93973541259766,25.25,0
-0.5116993188858032,-1.0279268026351929,0.0964943394064903,7.421902179718018,0.6213275194168091,65.93983459472656,25.25,0
-0.4851168394088745,-1.0571062564849854,0.1402933597564697,4.884757041931152,0.6204517483711243,65.93989562988281,25.25,0
-0.4624599814414978,-0.9806697368621826,0.1851943731307983,2.6009521484375,0.6198897361755371,65.93993377685547,25.25,0
-0.453517884016037,-0.90922611951828,0.2028136998414993,1.1210074424743652,0.6195290684700012,65.93995666503906,25.25,0
-0.4533771276473999,-0.880171000957489,0.2141207754611969,0.189176857471466,0.6192976236343384,65.93997192382812,25.25,0
-0.4252979159355163,-0.8727206587791443,0.2157792299985885,-0.3980706334114074,0.6191490888595581,65.93997955322266,25.25,0
-0.3848872184753418,-0.8679394721984863,0.2168435305356979,-0.6208814978599548,0.6190537810325623,65.93998718261719,25.25,0
-0.3141717612743377,-0.881664514541626,0.2119287699460983,-0.6707217693328857,0.6189926266670227,65.93999481201172,25.25,0
-0.2575950920581817,-0.8960702419281006,0.1919814348220825,-0.7922707796096802,0.6184943914413452,65.93999481201172,25.25,0
-0.2100919038057327,-0.9109127521514891,0.1735825985670089,-0.8846042156219482,0.61817467212677,65.93999481201172,25.25,0
-0.1684115380048751,-0.9204378128051758,0.1449819654226303,-0.7683122754096985,0.6179695129394531,65.93999481201172,25.25,0
-0.1360657066106796,-0.9321482181549072,0.1154321804642677,-0.4715631306171417,0.6178378462791443,65.93999481201172,25.25,0
-0.1153080090880394,-0.962054431438446,0.0740777254104614,-0.0625894889235496,0.6177533268928528,65.93999481201172,25.25,0
-0.1243780106306076,-1.0652130842208862,0.0139521732926368,0.4112381935119629,0.6176990866661072,65.93999481201172,25.25,0
-0.1525897085666656,-1.1817944049835205,-0.0470240414142608,0.7977127432823181,0.6176642775535583,65.93999481201172,25.25,0
-0.2266720980405807,-1.2790006399154663,-0.0973506122827529,0.9848261475563048,0.6176419854164124,65.93999481201172,25.25,0
-0.2966050207614898,-1.3301864862442017,-0.1128539890050888,1.0762441158294678,0.6176276803016663,66.06180572509766,25.25,0
-0.3526794910430908,-1.099939227104187,-0.0052498956210911,1.1993972063064575,0.6176185011863708,66.13997650146484,25.25,0
-0.332687109708786,-0.9969619512557985,0.15896637737751,1.292760133743286,0.6176126003265381,66.19013977050781,25.25,0
-0.2358905375003814,-1.0372347831726074,0.2363620549440384,1.3168493509292605,0.6176087856292725,66.22233581542969,25.25,0
-0.0394254922866821,-1.0742751359939575,0.1964657604694366,1.4827765226364136,0.6176063418388367,66.24299621582031,25.25,0
0.0866544768214225,-1.019676685333252,0.1596670597791671,1.9690120220184328,0.6176047921180725,66.25625610351562,25.25,0
0.0724031776189804,-0.9510518312454224,0.1360517740249633,2.5425779819488525,0.6176037788391113,66.26476287841797,25.25,0
-0.0319046564400196,-0.8958168029785156,0.1264946162700653,2.7601914405822754,0.6176031231880188,66.27021789550781,25.25,0
-0.1156367361545562,-0.8603701591491699,0.1147636100649833,2.355291843414306,0.6185205578804016,66.27371978759766,25.25,0
-0.1525778472423553,-0.8432202935218811,0.0904420018196106,1.2105543613433838,0.6191093325614929,66.27597045898438,25.25,0
-0.176284521818161,-0.8154211640357971,0.0692360177636146,-0.5988448858261108,0.6194871664047241,66.27741241455078,25.25,0
-0.2082914263010025,-0.7975813150405884,0.0444316901266574,-2.433537244796753,0.6197296380996704,66.27833557128906,25.25,0
-0.2512226998806,-0.7581438422203064,0.0229159258306026,-3.4389736652374268,0.619885265827179,66.2789306640625,25.25,0
-0.2843713164329529,-0.7384329438209534,0.0091083478182554,-3.57906174659729,0.6199851036071777,66.27931213378906,25.25,0
-0.3056441843509674,-0.7929568886756897,0.011442988179624,-3.62597131729126,0.6200491786003113,66.27955627441406,25.25,0
-0.3304914236068725,-0.850338339805603,0.0129412254318594,-3.942681312561035,0.6200903058052063,66.27971649169922,25.25,0
-0.352034717798233,-0.9487379789352416,0.0027071589138358,-4.135179996490479,0.6201167106628418,66.27981567382812,25.23,0
-0.3658599853515625,-1.146231770515442,0.0017372987931594,-3.950612783432007,0.620133638381958,66.2798843383789,25.23,0
-0.3915255665779114,-1.2169941663742063,0.0235059950500726,-3.602883338928223,0.6201444864273071,66.27992248535156,25.23,0
-0.3800073862075805,-1.032896637916565,0.0878558605909347,-3.2077670097351074,0.6201514601707458,66.27995300292969,25.23,0
-0.3670178949832916,-1.0043178796768188,0.1459452211856842,-2.689093589782715,0.620155930519104,66.27996826171875,25.23,0
-0.3083020150661468,-1.243475317955017,0.1720280796289444,-2.141284227371216,0.6201587915420532,66.27997589111328,25.23,0
-0.2594259977340698,-1.2682039737701416,0.1775710135698318,-1.7359931468963623,0.6201606392860413,66.27998352050781,25.23,0
-0.2168646454811096,-1.2448889017105105,0.192323699593544,-1.4472399950027466,0.6201618313789368,66.27999114990234,25.23,0
-0.1671601235866546,-1.134764552116394,0.2409755438566208,-1.2081961631774902,0.6192447543144226,66.27999114990234,25.23,0
-0.1408603936433792,-1.0417019128799438,0.2777952551841736,-1.0082181692123413,0.6186562180519104,66.27999114990234,25.23,0
-0.1071894168853759,-0.9539908170700072,0.3014240264892578,-0.808232307434082,0.6182785034179688,66.27999114990234,25.23,0
-0.1191679686307907,-0.8641162514686584,0.2997943162918091,-0.5974936485290527,0.618036150932312,66.27999114990234,25.23,0
-0.121257334947586,-0.8232332468032837,0.2875528931617737,-0.5339052081108093,0.6178805828094482,66.27999114990234,25.23,0
-0.1393914967775344,-0.8025946617126465,0.2293170839548111,-0.6793917417526245,0.6177808046340942,66.27999114990234,25.23,0
-0.151028960943222,-0.7893499732017517,0.175151377916336,-0.819330096244812,0.6177167296409607,66.27999114990234,25.23,0
-0.1808883100748062,-0.7976436614990234,0.1235976219177246,-0.7586662769317627,0.6176756024360657,66.27999114990234,25.23,0
-0.2392347455024719,-0.830954909324646,0.0681222900748252,-0.5298592448234558,0.6190263628959656,66.31224060058594,25.23,0
-0.2878736853599548,-0.8635277152061462,0.0325214155018329,-0.2862945199012756,0.6198931932449341,66.33293151855469,25.23,0
-0.3190873563289642,-0.9180177450180054,0.0040770503692328,-0.1264061331748962,0.6204494833946228,66.3462142944336,25.23,0
-0.3447162508964538,-0.9641818404197692,-0.014176907017827,-0.0237989723682403,0.6208065152168274,66.354736328125,25.23,0
-0.3891522884368896,-1.0385894775390625,-0.037086796015501,-0.0009425083990208,0.621035635471344,66.3602066040039,25.23,0
-0.4456576406955719,-1.0807422399520874,-0.0405934937298297,-0.2800457179546356,0.6211826801300049,66.36371612548828,25.23,0
-0.4875172972679138,-1.1525756120681765,-0.0428438894450664,-0.932058036327362,0.6212770342826843,66.365966796875,25.23,0
-0.5143803954124451,-1.092316508293152,0.0004941312945447,-1.5403586626052856,0.6213375926017761,66.36741638183594,25.23,0
-0.5260218381881714,-1.0536456108093262,0.0506970733404159,-1.5044044256210327,0.6199992895126343,66.36833953857422,25.23,0
-0.4663193523883819,-1.068013310432434,0.0941099822521209,-0.5247833132743835,0.6191404461860657,66.36893463134766,25.23,0
-0.3664302229881286,-1.04924476146698,0.0883832424879074,1.010272741317749,0.6185892820358276,66.36931610107422,25.23,0
-0.2687404751777649,-1.0148091316223145,0.0679148286581039,2.102860689163208,0.6182355880737305,66.36956024169922,25.23,0
-0.2060488164424896,-0.9423303604125975,0.0491816028952598,2.119748830795288,0.6180086135864258,66.36972045898438,25.23,0
-0.1826102435588836,-0.8790243268013,0.0315619222819805,1.5466266870498655,0.6178629398345947,66.36981964111328,25.23,0
-0.206753134727478,-0.8383981585502625,-0.0021364740096032,1.0713526010513306,0.6177694797515869,66.36988830566406,25.23,0
-0.2390399724245071,-0.82352215051651,-0.0405554845929145,0.5048210620880127,0.6177094578742981,66.36992645263672,25.23,0
-0.2653575837612152,-0.802780032157898,-0.0708083733916282,-0.457036405801773,0.6185888051986694,66.36995697021484,25.25,0
-0.3046378195285797,-0.7838711738586426,-0.0902229323983192,-1.3501594066619873,0.6191531419754028,66.3699722290039,25.25,0
-0.3578344881534576,-0.7661387920379639,-0.0914865285158157,-1.848080277442932,0.6195152997970581,66.36997985839844,25.25,0
-0.4479507803916931,-0.7547591924667358,-0.0475152395665645,-2.4721362590789795,0.6197476983070374,66.36998748779297,25.25,0
-0.5561621785163879,-0.7922385931015015,-0.0025036723818629,-3.5819694995880127,0.6198968291282654,66.3699951171875,25.25,0
-0.6647904515266418,-0.8274862766265869,0.0319799333810806,-4.648871421813965,0.6199925541877747,66.3699951171875,25.25,0
-0.7400996088981628,-0.8836928606033325,0.0373162031173706,-5.172331809997559,0.6200539469718933,66.3699951171875,25.25,0
-0.7716353535652161,-0.9813385009765624,0.0239473916590213,-5.304051876068115,0.6200933456420898,66.3699951171875,25.25,0
-0.7302976846694946,-1.0495996475219729,0.0041725086048245,-5.291852474212647,0.6192008256912231,66.3699951171875,25.25,0
-0.6477918028831482,-1.2557411193847656,0.0306665468961,-5.237450122833252,0.6186280250549316,66.3699951171875,25.25,0
-0.5836487412452698,-1.3264553546905518,0.0980488657951355,-4.905184268951416,0.6182604432106018,66.3699951171875,25.25,0
-0.5033009648323059,-1.153522491455078,0.158084288239479,-3.0941262245178223,0.6180245280265808,66.3699951171875,25.25,0
-0.4405428469181061,-1.0201530456542969,0.168622687458992,1.0953829288482666,0.6178731322288513,66.3699951171875,25.25,0
-0.4282571673393249,-1.0185308456420898,0.1250056624412536,6.005165576934815,0.6177759766578674,66.3699951171875,25.25,0
-0.453959584236145,-1.20781409740448,0.041037019342184,8.722490310668945,0.6177136301994324,66.3699951171875,25.25,0
-0.4424650371074676,-1.301296353340149,-0.0184470005333423,8.531721115112305,0.6176736354827881,66.3699951171875,25.25,0
-0.3567196726799011,-1.2717235088348389,-0.0678159669041633,6.836546421051025,0.6176479458808899,66.36283111572266,25.25,0
-0.2345199286937713,-1.2079631090164185,-0.1106936782598495,4.874532222747803,0.6176314949989319,66.35823059082031,25.25,0
-0.1281102895736694,-1.150252103805542,-0.121416799724102,3.371809244155884,0.6176209449768066,66.35527801513672,25.25,0
-0.1102026849985122,-1.0964231491088867,-0.1394938379526138,2.8230268955230717,0.6176141500473022,66.35338592529297,25.25,0
-0.1155039370059967,-1.078672170639038,-0.1678879559040069,2.818359851837158,0.6176097989082336,66.3521728515625,25.25,0
-0.1245037466287612,-1.0560849905014038,-0.2085007727146148,2.3138043880462646,0.6176069974899292,66.35139465332031,25.25,0
-0.1302793025970459,-1.03599214553833,-0.2345637381076812,0.9940535426139832,0.6176052093505859,66.35089111328125,25.25,0
-0.145181268453598,-1.017499923706055,-0.2400939017534256,-0.3759425580501556,0.6176040768623352,66.35057067871094,25.25,0
-0.1659400463104248,-0.9440571665763856,-0.215653970837593,-0.9900165796279908,0.6166850924491882,66.3503646850586,25.25,0
-0.1848596185445785,-0.8801324963569641,-0.183176502585411,-0.8502901792526245,0.6160953640937805,66.35023498535156,25.25,0
-0.2025988847017288,-0.8503048419952393,-0.134345456957817,-0.5743278861045837,0.6157169342041016,66.35015106201172,25.25,0
-0.236374020576477,-0.8367609977722168,-0.0974107310175895,-0.5226213335990906,0.6154740452766418,66.35009765625,25.25,0
-0.2636467218399048,-0.7832871079444885,-0.0345237255096435,-0.4679435789585113,0.6153181791305542,66.35005950927734,25.25,0
-0.3147354125976562,-0.7321773171424866,0.0730068236589431,-0.1175879091024398,0.6152181625366211,66.35003662109375,25.25,0
-0.397901177406311,-0.7889423966407776,0.1700026243925094,0.6016456484794617,0.615153968334198,66.35002136230469,25.25,0
-0.4344788491725921,-1.0380864143371582,0.2098578363656997,1.801218867301941,0.6151127815246582,66.35001373291016,25.25,0
-0.4187678694725036,-1.1419949531555176,0.21304352581501,3.463097333908081,0.6146274209022522,66.35000610351562,25.23,0
-0.2911322116851806,-1.1862863302230835,0.2094901353120803,5.016825675964356,0.614315927028656,66.35000610351562,25.23,0
-0.1420497000217437,-1.158732295036316,0.2519919872283935,5.655661582946777,0.6141160726547241,66.35000610351562,25.23,0
-0.0687682256102562,-1.1186585426330566,0.2960605323314667,5.069673538208008,0.6139878034591675,66.35000610351562,25.23,0
-0.1001092344522476,-1.076148271560669,0.3411345183849334,3.5364480018615723,0.6139054894447327,66.35000610351562,25.23,0
-0.1650042831897735,-1.0432697534561155,0.3644626438617706,1.4705743789672852,0.6138526797294617,66.35000610351562,25.23,0
-0.2682256996631622,-1.0109747648239136,0.3570421934127807,-0.912044107913971,0.6138187646865845,66.35000610351562,25.23,0
-0.3624561429023742,-0.9790540933609008,0.3242912888526916,-3.594660758972168,0.6137970089912415,66.35000610351562,25.23,0
-0.4173300564289093,-0.9473736882209778,0.2864803373813629,-6.473381996154785,0.6151601672172546,66.35000610351562,25.23,0
-0.4245560765266418,-0.9102497100830078,0.228628784418106,-9.05879020690918,0.616034984588623,66.35000610351562,25.23,0
-0.4179977774620056,-0.8920234441757202,0.1803074330091476,-10.578235626220703,0.6165964007377625,66.35000610351562,25.23,0
-0.4025934934616089,-0.9195113182067872,0.1269064843654632,-10.632606506347656,0.6169566512107849,66.35000610351562,25.23,0
-0.3983056843280792,-0.9875314235687256,0.0646479502320289,-9.689455032348633,0.6171878576278687,66.35000610351562,25.23,0
-0.3955540359020233,-1.0591716766357422,0.007900689728558,-8.53606128692627,0.6173362135887146,66.35000610351562,25.23,0
-0.3769948482513428,-1.0939507484436035,-0.0285164397209882,-7.312231540679932,0.6174314022064209,66.35000610351562,25.23,0
-0.3650846183300018,-1.155454397201538,-0.0518868565559387,-5.065156936645508,0.6174924969673157,66.35000610351562,25.23,0
-0.3518435657024383,-1.1781305074691772,-0.0332979969680309,-0.3163968920707702,0.6161546111106873,66.378662109375,25.23,0
-0.3657373189926147,-1.0583361387252808,-0.0661509335041046,7.073165416717529,0.6152960062026978,66.39705657958984,25.23,0
-0.3802512884140014,-1.0542300939559937,-0.1320162564516067,14.563197135925291,0.614745020866394,66.40885925292969,25.23,0
-0.3895655274391174,-1.1243661642074585,-0.2134692519903183,18.82889938354492,0.6143914461135864,66.41643524169922,25.23,0
-0.4067384004592895,-1.1749732494354248,-0.2769366502761841,18.940353393554688,0.6141645312309265,66.42129516601562,25.23,0
-0.3617812395095825,-1.1738632917404177,-0.3008730411529541,16.246129989624023,0.6140189170837402,66.4244155883789,25.23,0
-0.2825503349304199,-1.1395642757415771,-0.2770496010780334,12.016494750976562,0.6139254570007324,66.4264144897461,25.23,0
-0.2149111926555633,-1.1287487745285034,-0.2561633288860321,7.088126659393311,0.6138654947280884,66.42769622802734,25.23,0
-0.1938953697681427,-1.105014681816101,-0.2427597194910049,2.617743492126465,0.6142858862876892,66.42852020263672,25.23,0
-0.1972019523382187,-1.0729901790618896,-0.2397558242082595,-0.6165138483047485,0.6145557165145874,66.4290542602539,25.23,0
-0.2049217075109481,-1.0468409061431885,-0.2490236461162567,-2.975097417831421,0.6147288680076599,66.42938995361328,25.23,0
-0.1986802518367767,-1.0748419761657717,-0.2549712061882019,-5.101321220397949,0.6148399710655212,66.42961120605469,25.23,0
-0.1890770643949508,-1.0928114652633667,-0.2475924640893936,-6.999612808227539,0.6149112582206726,66.42974853515625,25.23,0
-0.1717187464237213,-1.109941005706787,-0.2204661071300506,-8.54025936126709,0.6149570345878601,66.42984008789062,25.23,0
-0.1605791747570037,-1.1321293115615845,-0.1862646490335464,-10.00902271270752,0.6149864196777344,66.42990112304688,25.23,0
-0.1758215427398681,-1.1239774227142334,-0.1419250220060348,-11.564210891723633,0.6150052547454834,66.42993927001953,25.23,0
-0.2023965418338775,-1.1635282039642334,-0.1078726351261138,-12.75570011138916,0.6136401891708374,66.42996215820312,25.23,0
-0.2362441569566726,-1.2224962711334229,-0.0916175469756126,-13.16207218170166,0.6127641797065735,66.42997741699219,25.23,0
-0.285954475402832,-1.1539808511734009,-0.0364037677645683,-13.104008674621582,0.6122020483016968,66.42998504638672,25.23,0
-0.3346490263938904,-1.0708271265029907,0.0438114516437053,-13.263788223266602,0.6118412613868713,66.42999267578125,25.23,0
-0.3658984005451202,-0.9558883905410768,0.145668938755989,-13.674427032470703,0.6116097569465637,66.42999267578125,25.23,0
-0.3187791407108307,-1.0052783489227295,0.211035206913948,-13.156949996948242,0.6114611625671387,66.42999267578125,25.23,0
-0.254954069852829,-1.0649628639221191,0.2529835104942322,-10.073445320129396,0.611365795135498,66.42999267578125,25.23,0
-0.1636148393154144,-1.0808738470077517,0.2910990715026855,-3.956754684448242,0.6113046407699585,66.42999267578125,25.23,0
-0.0938030406832695,-1.0742912292480469,0.3211572170257568,3.819854259490967,0.6112653613090515,66.42999267578125,25.23,0
-0.1049795895814895,-1.0532735586166382,0.3460445702075958,11.002970695495604,0.6112401485443115,66.42999267578125,25.23,0
-0.1849231272935867,-1.034187912940979,0.3564180731773376,15.913617134094238,0.6112239956855774,66.42999267578125,25.23,0
-0.2586173713207245,-1.016342043876648,0.3518796265125274,18.101274490356445,0.6112136244773865,66.42999267578125,25.23,0
-0.3338989615440368,-0.9936940670013428,0.3153804838657379,18.115148544311523,0.6112069487571716,66.42999267578125,25.23,0
-0.3934059143066406,-0.9679643511772156,0.2863596677780151,16.730430603027344,0.6112026572227478,66.42999267578125,25.23,0
-0.4483873844146728,-0.9234636425971984,0.2621379792690277,14.45892333984375,0.6111999154090881,66.42999267578125,25.23,0
-0.4836713075637817,-0.8837100863456726,0.2298005819320678,11.700725555419922,0.6111981868743896,66.42999267578125,25.23,0
-0.5007167458534241,-0.869394063949585,0.1978527605533599,8.938300132751465,0.6111970543861389,66.45507049560547,25.23,0
-0.5004599690437317,-0.8825979828834534,0.1549593806266784,6.6747212409973145,0.6111963391304016,66.4711685180664,25.23,0
-0.4946974217891693,-0.9190603494644164,0.1218351051211357,5.200591087341309,0.6111958622932434,66.48149871826172,25.23,0
-0.4742060005664825,-0.9872419834136964,0.0893823057413101,4.408629894256592,0.6111955642700195,66.48812866210938,25.23,0
-0.4498602449893951,-1.064583659172058,0.0573604181408882,3.9218904972076416,0.6111953854560852,66.49237823486328,25.23,0
-0.439834326505661,-1.1310104131698608,0.0200172904878854,3.5701208114624023,0.6111952662467957,66.49510955810547,25.23,0
-0.4445958137512207,-1.128857135772705,-0.0263384785503149,3.5020086765289307,0.6111952066421509,66.49686431884766,25.23,0
-0.4476514458656311,-1.0267153978347778,-0.0728802680969238,3.5442798137664795,0.6111951470375061,66.49798583984375,25.23,0
-0.4720034897327423,-0.9891555309295654,-0.1419325321912765,2.90146541595459,0.6111950874328613,66.49871063232422,25.23,0
-0.4932290017604828,-1.082605004310608,-0.2198329418897628,1.0165057182312012,0.6111950874328613,66.49917602539062,25.23,0
-0.5012525320053101,-1.159368872642517,-0.2810204923152923,-1.6655914783477783,0.6111950874328613,66.49947357177734,25.23,0
-0.4392282962799072,-1.152653694152832,-0.3034938275814056,-4.289616107940674,0.6111950874328613,66.49966430664062,25.23,0
-0.3378491699695587,-1.0979644060134888,-0.278731495141983,-6.417803287506104,0.6111950874328613,66.49978637695312,25.23,0
-0.2727898955345154,-1.046074628829956,-0.2460471242666244,-7.901776790618896,0.6111950874328613,66.49986267089844,25.23,0
-0.2590274810791015,-0.9903836250305176,-0.2250721752643585,-8.667811393737793,0.6111950874328613,66.49990844726562,25.23,0
-0.2613911032676697,-0.9434487819671632,-0.2172094285488128,-8.951619148254395,0.6111950874328613,66.49993896484375,25.23,0
-0.2741034924983978,-0.9301220178604126,-0.2289568930864334,-9.105090141296388,0.6107361316680908,66.49996185302734,25.21,0
-0.2822615504264831,-0.9383630156517028,-0.2420935183763504,-9.139092445373535,0.6104416251182556,66.4999771118164,25.21,0
-0.2651058435440063,-0.9604449272155762,-0.2393282949924469,-8.899385452270508,0.6102526187896729,66.49998474121094,25.21,0
-0.2373029589653015,-1.0026047229766846,-0.2039670944213867,-8.580756187438965,0.6101313233375549,66.49999237060547,25.21,0
-0.2194606661796569,-1.0408560037612915,-0.1588832139968872,-8.555407524108887,0.6100534796714783,66.49999237060547,25.21,0
-0.2024127393960952,-1.0598056316375732,-0.1075598746538162,-8.800667762756348,0.6100035309791565,66.49999237060547,25.21,0
-0.1858745962381363,-1.0943576097488403,-0.0802212879061698,-8.9329833984375,0.6099714636802673,66.49999237060547,25.21,0
-0.2144457846879959,-1.2116931676864624,-0.0682747289538383,-8.752785682678223,0.6099509000778198,66.49999237060547,25.21,0
-0.2943566441535949,-1.1974279880523682,-0.0382170155644416,-8.450851440429688,0.6094784140586853,66.49999237060547,25.21,0
-0.3736276924610138,-1.1322957277297974,0.0146589372307062,-8.325156211853027,0.6091752052307129,66.49999237060547,25.21,0
-0.4412926137447357,-1.0177265405654907,0.1213627532124519,-8.380629539489746,0.6089805960655212,66.49999237060547,25.21,0
-0.4567272067070007,-0.9833869934082032,0.1898391246795654,-7.928999423980713,0.6088557243347168,66.49999237060547,25.21,0
-0.3658722937107086,-1.0005342960357666,0.2337833046913147,-5.73682165145874,0.6087755560874939,66.49999237060547,25.21,0
-0.223600223660469,-1.0059406757354736,0.2619841694831848,-1.3206443786621094,0.6087241172790527,66.49999237060547,25.21,0
-0.1211026608943939,-0.998214602470398,0.2856796085834503,3.97463321685791,0.6086910963058472,66.49999237060547,25.21,0
-0.0889122635126113,-0.9316809177398682,0.3176793158054352,8.135926246643066,0.6086699366569519,66.49999237060547,25.21,0
-0.0906454175710678,-0.8609945774078369,0.3438126444816589,10.480390548706056,0.609574556350708,66.50715637207031,25.21,0
-0.1365398466587066,-0.8212299346923828,0.3381924331188202,11.551441192626951,0.6101551055908203,66.51175689697266,25.21,0
-0.2051766812801361,-0.8181023597717285,0.3009990453720093,11.701393127441406,0.6105276942253113,66.51470947265625,25.21,0
-0.2660171687602997,-0.8160952925682068,0.2659349143505096,11.03095245361328,0.6107667684555054,66.5166015625,25.21,0
-0.3274521827697754,-0.803611695766449,0.232237234711647,10.192288398742676,0.6109201908111572,66.51781463623047,25.21,0
-0.3668776452541351,-0.7844048738479614,0.2106120139360427,9.876201629638672,0.6110186576843262,66.51859283447266,25.21,0
-0.3753853142261505,-0.7832745909690857,0.1911364048719406,9.852484703063965,0.6110818386077881,66.51909637451172,25.21,0
-0.3584539592266083,-0.8721136450767517,0.1674425303936004,9.60439682006836,0.6111223697662354,66.51941680908203,25.21,0
-0.3419906198978424,-0.9403209686279296,0.1522371768951416,9.237399101257324,0.6102302074432373,66.51962280273438,25.21,0
-0.3090342879295349,-0.9728969931602478,0.131283700466156,9.066367149353027,0.6096576452255249,66.51976013183594,25.21,0
-0.2878848016262054,-1.0777690410614014,0.112239196896553,9.064085960388184,0.6092901825904846,66.51984405517578,25.21,0
-0.3190944790840149,-1.189851999282837,0.1224086284637451,9.177264213562012,0.6090543866157532,66.5198974609375,25.21,0
-0.3783074617385864,-1.0714560747146606,0.1569236516952514,9.239148139953612,0.6089030504226685,66.51993560791016,25.21,0
-0.3939158618450165,-0.9618898034095764,0.1566823124885559,8.41904354095459,0.6088059544563293,66.51995849609375,25.21,0
-0.3647480010986328,-1.098694086074829,0.1173430159687995,5.829184055328369,0.6087436676025391,66.51997375488281,25.21,0
-0.3404319882392883,-1.2200738191604614,0.0976950898766517,1.831322193145752,0.6087036728858948,66.51998138427734,25.21,0
-0.3248273730278015,-1.1916106939315796,0.1130750551819801,-2.1099846363067627,0.6095961928367615,66.51998901367188,25.25,0
-0.25883549451828,-1.0893781185150146,0.1621294617652893,-4.943807601928711,0.610168993473053,66.51998901367188,25.25,0
-0.205290138721466,-0.9901844263076782,0.2104030698537826,-6.6943230628967285,0.6105365753173828,66.51998901367188,25.25,0
-0.1877211332321167,-0.909734308719635,0.24698007106781,-7.717391014099121,0.6107724905014038,66.51998901367188,25.25,0
-0.187641903758049,-0.8693016171455383,0.2592575252056122,-8.155399322509766,0.6109238862991333,66.51998901367188,25.25,0
-0.20998215675354,-0.8209631443023682,0.2447454035282135,-8.200037956237793,0.6110210418701172,66.51998901367188,25.25,0
-0.2243188470602035,-0.7899422645568848,0.2298345863819122,-8.228684425354004,0.6110833883285522,66.51998901367188,25.25,0
-0.21112821996212,-0.7700348496437073,0.231461226940155,-8.444109916687012,0.6111233830451965,66.51998901367188,25.25,0
-0.1858699023723602,-0.785248339176178,0.2437006533145904,-8.772233963012695,0.6102308630943298,66.51998901367188,25.25,0
-0.1640627980232238,-0.8174025416374207,0.2515552043914795,-9.15476894378662,0.6096580624580383,66.51998901367188,25.25,0
-0.1556660234928131,-0.8716239333152771,0.2398024946451187,-9.575804710388184,0.6092904806137085,66.51998901367188,25.25,0
-0.1558752357959747,-0.934408962726593,0.2154669612646103,-9.896157264709473,0.6090545654296875,66.51998901367188,25.25,0
-0.1728028208017349,-0.991494119167328,0.177458718419075,-9.818717002868652,0.608903169631958,66.51998901367188,25.25,0
-0.2116548418998718,-1.0897035598754885,0.1418716609477996,-9.12057399749756,0.6088060140609741,66.51998901367188,25.25,0
-0.2533811628818512,-1.169522047042847,0.1246317103505134,-7.94528341293335,0.6087436676025391,66.51998901367188,25.25,0
-0.3193431198596954,-1.2431360483169556,0.1079703271389007,-6.886530876159668,0.6087036728858948,66.51998901367188,25.25,0
-0.3840648233890533,-1.2343995571136477,0.1252668797969818,-6.447116851806641,0.6095961928367615,66.58805847167969,25.25,0
-0.4255994856357574,-1.0720553398132324,0.1699534654617309,-6.161543846130371,0.610168993473053,66.63174438476562,25.25,0
-0.3794829547405243,-1.0630342960357666,0.1650440990924835,-4.727960586547852,0.6105365753173828,66.65978240966797,25.25,0
-0.3218991458415985,-1.0852339267730713,0.1395024508237838,-1.3431575298309326,0.6107724905014038,66.67777252197266,25.25,0
-0.2961407303810119,-1.0826871395111084,0.0895246416330337,3.218592643737793,0.6109238862991333,66.68931579589844,25.25,0
-0.2796104550361633,-1.0474660396575928,0.0574517622590065,7.145599842071533,0.6110210418701172,66.69672393798828,25.25,0
-0.302588939666748,-0.9520921111106871,0.0256736855953931,9.207157135009766,0.6110833883285522,66.70147705078125,25.25,0
-0.3453240692615509,-0.868495523929596,-0.0003174302983097,9.45537281036377,0.6111233830451965,66.70452880859375,25.25,0
-0.3895423412322998,-0.8204458355903625,-0.0169970318675041,8.529143333435059,0.6097719073295593,66.70648956298828,25.25,0
-0.4459079504013061,-0.778414785861969,-0.0277010407298803,6.981777667999268,0.6089046001434326,66.70774841308594,25.25,0
-0.4764823913574219,-0.7514416575431824,-0.0233747083693742,5.372564315795898,0.60834801197052,66.70855712890625,25.25,0
-0.5072988271713257,-0.7229362726211548,-0.0094027686864137,4.160735130310059,0.6079908013343811,66.70907592773438,25.25,0
-0.5326728224754333,-0.6598609685897827,0.0163569413125515,3.2934885025024414,0.607761561870575,66.70940399169922,25.25,0
-0.5657497048377991,-0.6417739987373352,0.0272902660071849,2.529150009155273,0.6076144576072693,66.7096176147461,25.25,0
-0.5757810473442078,-0.6637534499168396,0.0343066453933715,1.9956507682800293,0.6075201034545898,66.70975494384766,25.25,0
-0.5878163576126099,-0.7058475017547607,0.0388093516230583,1.8431581258773804,0.607459545135498,66.7098388671875,25.25,0
-0.6291265487670898,-0.8560120463371277,0.0528944805264472,1.827696442604065,0.6083388924598694,66.70989990234375,25.23,0
-0.6388437151908875,-0.9187923669815063,0.0731290504336357,1.796278476715088,0.608903169631958,66.7099380493164,25.23,0
-0.633884072303772,-0.9422878623008728,0.0973099842667579,1.8513504266738887,0.6092653274536133,66.7099609375,25.23,0
-0.6307013034820557,-0.9125837087631226,0.135219007730484,1.7684674263000488,0.6094977259635925,66.70997619628906,25.23,0
-0.6398543119430542,-0.9215101599693298,0.1539490669965744,1.3355247974395752,0.6096468567848206,66.7099838256836,25.23,0
-0.6177393198013306,-1.0112053155899048,0.1883600354194641,0.9860356450080872,0.6097425818443298,66.70999145507812,25.23,0
-0.5811560750007629,-1.068766474723816,0.2496274411678314,1.0841854810714722,0.6098039746284485,66.70999145507812,25.23,0
-0.5128968954086304,-1.066521406173706,0.3001408874988556,1.1937458515167236,0.609843373298645,66.70999145507812,25.23,0
-0.3907232284545898,-1.0538851022720337,0.3381552696228027,0.9093803763389589,0.6084915399551392,66.70999145507812,25.23,0
-0.2843303382396698,-1.062569260597229,0.3513551652431488,0.5764228105545044,0.6076239943504333,66.70999145507812,25.23,0
-0.1712712943553924,-1.073740005493164,0.3710216581821441,0.4988877177238464,0.6070672869682312,66.70999145507812,25.23,0
-0.1155098304152488,-1.0193332433700562,0.3836424648761749,0.2843316495418548,0.6067100167274475,66.70999145507812,25.23,0
-0.0965186581015586,-0.9676247835159302,0.3861440122127533,-0.4444830119609833,0.6064807176589966,66.70999145507812,25.23,0
-0.1011245399713516,-0.9008545875549316,0.354162722826004,-1.3886768817901611,0.6063335537910461,66.70999145507812,25.23,0
-0.1208736523985862,-0.8300164937973022,0.3000523149967193,-2.0841705799102783,0.6062391400337219,66.70999145507812,25.23,0
-0.1391452699899673,-0.773361086845398,0.2485340535640716,-2.4660120010375977,0.6061785221099854,66.70999145507812,25.23,0
-0.1676642596721649,-0.742600679397583,0.1930814981460571,-2.564170360565185,0.6065985560417175,66.82821655273438,25.23,0
-0.1915638893842697,-0.7452515363693237,0.1462996900081634,-2.197253465652466,0.6068681478500366,66.90409088134766,25.23,0
-0.2013035118579864,-0.8085282444953918,0.0882889479398727,-1.3778276443481443,0.6070411205291748,66.9527816772461,25.23,0
-0.2075538486242294,-0.910711109638214,0.0398654416203498,-0.486544519662857,0.6071521639823914,66.9840316772461,25.23,0
-0.2059671729803085,-1.0098727941513062,-0.002405526349321,0.232315257191658,0.607223391532898,67.00408172607422,25.23,0
-0.2105467170476913,-1.1798667907714844,-0.0575214736163616,0.865601658821106,0.6072691082954407,67.01695251464844,25.23,0
-0.2246811538934707,-1.3673280477523804,-0.1040872633457183,1.4547197818756104,0.6072984337806702,67.02520751953125,25.23,0
-0.3121206760406494,-1.2805122137069702,-0.0667972117662429,2.0011630058288574,0.6073172688484192,67.03050994873047,25.23,0
-0.3794298768043518,-1.1128432750701904,0.01311113871634,2.7710001468658447,0.6077882647514343,67.0339126586914,25.23,0
-0.4002339243888855,-1.0108407735824585,0.1259672343730926,3.974387168884277,0.6080905199050903,67.03609466552734,25.23,0
-0.3408136963844299,-1.0405436754226685,0.1256207227706909,5.205221176147461,0.6082845330238342,67.03749084472656,25.23,0
-0.2858878970146179,-1.065203070640564,0.0862139239907264,5.669085502624512,0.60840904712677,67.03839111328125,25.23,0
-0.194661945104599,-1.008256912231445,0.0497293584048748,4.970810890197754,0.608488917350769,67.03897094726562,25.23,0
-0.1417161524295807,-0.9493210911750792,0.0319134406745433,3.3297007083892822,0.6085401773452759,67.03933715820312,25.23,0
-0.1469230204820633,-0.894706130027771,0.0204802099615335,1.21250581741333,0.6085730791091919,67.0395736694336,25.23,0
-0.1894489079713821,-0.8652551770210266,0.0075452462770044,-0.8841986060142517,0.6085941791534424,67.03972625732422,25.23,0
-0.2335328906774521,-0.8407574892044067,-0.0007556694908998,-2.530679225921631,0.6067716479301453,67.03982543945312,25.23,0
-0.2674212157726288,-0.8138406872749329,-0.0116804940626025,-3.5514700412750244,0.6056020855903625,67.03988647460938,25.23,0
-0.2891688048839569,-0.7741759419441223,-0.0186914168298244,-4.1349029541015625,0.604851484298706,67.03992462158203,25.23,0
-0.3031251430511474,-0.7375258803367615,-0.0231906250119209,-4.537977695465088,0.6043698191642761,67.03995513916016,25.23,0
-0.3344726264476776,-0.76998370885849,-0.0204801820218563,-4.832473278045654,0.604060709476471,67.03997039794922,25.23,0
-0.376980721950531,-0.7964110374450684,-0.018740776926279,-4.849500179290772,0.6038623452186584,67.03997802734375,25.23,0
-0.4266510903835296,-0.8581527471542358,-0.0008312030695378,-4.366031646728516,0.6037350296974182,67.03998565673828,25.23,0
-0.4641244411468506,-1.009730577468872,0.0162599049508571,-3.432401180267334,0.6036533117294312,67.03999328613281,25.23,0
-0.4993682205677032,-1.045428991317749,0.0440213158726692,-2.460662841796875,0.6049780249595642,67.03999328613281,25.23,0
-0.4324212670326233,-0.933991551399231,0.0786303132772445,-1.8800480365753172,0.6058281660079956,67.03999328613281,25.23,0
-0.3446763753890991,-0.9632373452186584,0.1120359301567077,-1.811961889266968,0.6063737273216248,67.03999328613281,25.23,0
-0.2715734243392944,-1.2003188133239746,0.1558648198843002,-2.0297961235046387,0.6067238450050354,67.03999328613281,25.23,0
-0.2414534837007522,-1.2908885478973389,0.1839916855096817,-1.9546351432800293,0.6069485545158386,67.03999328613281,25.23,0
-0.2725042104721069,-1.2202621698379517,0.2076396644115448,-0.942688286304474,0.6070927381515503,67.03999328613281,25.23,0
-0.3428107500076294,-1.1301560401916504,0.2340111285448074,1.132586121559143,0.6071852445602417,67.03999328613281,25.23,0
-0.3599405586719513,-1.0947221517562866,0.2565325796604156,3.675288200378418,0.607244610786438,67.03999328613281,25.23,0
-0.3093579709529876,-1.0607872009277344,0.2709855437278747,5.819356441497803,0.6059055924415588,67.17613220214844,25.23,0
-0.2433103322982788,-1.0166186094284058,0.3026517331600189,6.9731764793396,0.605046272277832,67.26349639892578,25.23,0
-0.1505447924137115,-0.971480429172516,0.3397665917873382,7.147584915161133,0.6044948101043701,67.31956481933594,25.23,0
-0.1022087559103965,-0.9089267253875732,0.3299981355667114,6.786610126495361,0.6041409373283386,67.35554504394531,25.23,0
-0.0823850184679031,-0.8687833547592163,0.306935966014862,6.200282096862793,0.6039138436317444,67.3786392211914,25.23,0
-0.1256410330533981,-0.8430216312408447,0.2641471326351166,5.354692935943604,0.6037681102752686,67.3934555053711,25.23,0
-0.1757913529872894,-0.826489269733429,0.2254921644926071,4.145683765411377,0.6036745309829712,67.40296173095703,25.23,0
-0.2695504426956177,-0.8102819323539734,0.1894900798797607,2.527905941009521,0.6036145091056824,67.40906524658203,25.23,0
-0.3185240924358368,-0.8222721219062805,0.1495926976203918,0.5797349214553833,0.606789231300354,67.41297912597656,25.23,0
-0.3387570083141327,-0.8579556345939636,0.1127933040261268,-1.3296828269958496,0.6088265776634216,67.41549682617188,25.23,0
-0.3853279948234558,-0.9312351942062378,0.077982023358345,-2.6266887187957764,0.6101340055465698,67.41710662841797,25.23,0
-0.4320078790187835,-1.0118484497070312,0.050044372677803,-3.1258530616760254,0.610973060131073,67.41814422607422,25.23,0
-0.5067465305328369,-1.041190266609192,0.0209200493991374,-3.2169032096862797,0.6115114688873291,67.41880798339844,25.23,0
-0.5435139536857605,-1.054422378540039,0.0134252831339836,-3.314742088317871,0.611856997013092,67.41923522949219,25.23,0
-0.5783047080039978,-1.029327392578125,0.0366044454276561,-3.359616756439209,0.6120787858963013,67.41950988769531,25.23,0
-0.6118269562721252,-1.0244183540344238,0.1130550131201744,-3.022991895675659,0.6122210621833801,67.41968536376953,25.23,0
-0.5885574221611023,-1.0716480016708374,0.1509210467338562,-2.101198196411133,0.6090991497039795,67.4197998046875,25.21,0
-0.4504733383655548,-1.1075550317764282,0.1136457622051239,-0.682068943977356,0.6070957183837891,67.41986846923828,25.21,0
-0.2834900915622711,-1.0466315746307373,0.0841268599033355,0.7660328149795532,0.6058100461959839,67.41991424560547,25.21,0
-0.1651342958211898,-0.9739477038383484,0.0819766446948051,1.6057766675949097,0.6049849390983582,67.4199447631836,25.21,0
-0.1395603269338607,-0.8769234418869019,0.0917923152446746,1.5893768072128296,0.6044554710388184,67.41996765136719,25.21,0
-0.1511373072862625,-0.7978655099868774,0.0868958979845047,1.012805461883545,0.6041156649589539,67.41997528076172,25.21,0
-0.2089467048645019,-0.7471306920051575,0.0557647868990898,0.2809549570083618,0.6038975715637207,67.41998291015625,25.21,0
-0.2684365510940552,-0.7033764719963074,0.0413844063878059,-0.4251545667648315,0.6037576198577881,67.41999053955078,25.21,0
-0.3178092539310455,-0.6696997284889221,0.0489492267370224,-1.1505708694458008,0.6036678552627563,67.41999053955078,25.21,0
-0.3774826824665069,-0.6536856889724731,0.081792764365673,-2.171400308609009,0.6036102175712585,67.41999053955078,25.21,0
-0.4325709939002991,-0.6434088349342346,0.1084676310420036,-3.6540849208831783,0.603573203086853,67.41999053955078,25.21,0
-0.5015101432800293,-0.6759981513023376,0.1143904775381088,-5.189546585083008,0.6035494804382324,67.41999053955078,25.21,0
-0.6185224056243896,-0.7808787226676941,0.1013980954885482,-6.146256923675537,0.6035342812538147,67.41999053955078,25.21,0
-0.7048096656799316,-0.8817716836929321,0.0930603295564651,-6.333891868591309,0.6035245060920715,67.41999053955078,25.21,0
-0.7154016494750977,-0.99130117893219,0.1156985089182853,-6.017230987548828,0.6035182476043701,67.41999053955078,25.21,0
-0.6942101120948792,-1.0224064588546753,0.1470197141170501,-5.602644443511963,0.6035141944885254,67.41999053955078,25.21,0
-0.6974039673805237,-1.0927480459213257,0.1391309797763824,-5.2183613777160645,0.6030526757240295,67.52030181884766,25.21,0
-0.7386379837989807,-1.0651180744171145,0.1284706741571426,-4.169253826141357,0.6027565002441406,67.58467864990234,25.21,0
-0.7706973552703857,-1.0193979740142822,0.0880428552627563,-1.6545530557632446,0.6025664806365967,67.62599182128906,25.21,0
-0.7632823586463928,-0.990057408809662,0.0173164159059524,1.6573781967163086,0.6024445295333862,67.65250396728516,25.21,0
-0.7473282814025879,-0.9880216717720032,-0.0392672903835773,4.080138683319092,0.6023662686347961,67.66951751708984,25.21,0
-0.6811121702194214,-1.0930728912353516,-0.0923727825284004,4.821681976318359,0.6023160219192505,67.68043518066406,25.21,0
-0.5266629457473755,-1.1492931842803955,-0.1208550557494163,4.31951904296875,0.602283775806427,67.68744659423828,25.21,0
-0.3827641606330871,-1.1853721141815186,-0.1335355639457702,3.3380656242370605,0.6022630929946899,67.69194030761719,25.21,0
-0.2288426756858825,-1.1973299980163574,-0.1248798593878746,2.654486656188965,0.602249801158905,67.69482421875,25.21,0
-0.1468580514192581,-1.177014946937561,-0.124922901391983,2.6958701610565186,0.6022412776947021,67.6966781616211,25.21,0
-0.1278316974639892,-1.1359890699386597,-0.136146068572998,3.030529260635376,0.6022357940673828,67.69786834716797,25.21,0
-0.1380127668380737,-1.081672191619873,-0.1601417809724807,2.840463161468506,0.6022322773933411,67.6986312866211,25.21,0
-0.1501441746950149,-1.0356191396713257,-0.1755408495664596,1.966148853302002,0.6022300124168396,67.6991195678711,25.21,0
-0.1579294055700302,-1.006065011024475,-0.1854230761528015,0.9751551151275636,0.602228581905365,67.69943237304688,25.21,0
-0.1629255264997482,-0.975903332233429,-0.1861671507358551,0.3893483877182007,0.6022276878356934,67.69963836669922,25.21,0
-0.1773272901773452,-0.9285584092140198,-0.1698513329029083,0.2283659279346466,0.6022270917892456,67.69976806640625,25.21,0
-0.1977650672197342,-0.8701862692832947,-0.1201963573694229,0.2611945271492004,0.6026856303215027,67.6998519897461,25.23,0
-0.2276741713285446,-0.8663130402565002,-0.0827328786253929,0.3539135456085205,0.6029798984527588,67.69990539550781,25.23,0
-0.2748569846153259,-0.8358385562896729,-0.0362998731434345,0.4564061760902405,0.6031687259674072,67.69993591308594,25.23,0
-0.3107339739799499,-0.8106840252876282,0.015889249742031,0.4756065607070923,0.6032899022102356,67.69995880126953,25.23,0
-0.3393555283546448,-0.7553568482398987,0.1221522912383079,0.2837214469909668,0.6033676862716675,67.6999740600586,25.23,0
-0.3857120871543884,-0.8821865320205688,0.212736889719963,0.0351905040442943,0.6034175753593445,67.69998168945312,25.23,0
-0.4266566038131714,-1.0307518243789673,0.2708688676357269,0.2303726077079773,0.6034495830535889,67.69998931884766,25.23,0
-0.4249435663223266,-1.0813102722167969,0.291381299495697,1.0972224473953247,0.6034701466560364,67.69998931884766,25.23,0
-0.362268716096878,-1.1025601625442505,0.315740555524826,2.2088160514831543,0.6016472578048706,67.69998931884766,25.23,0
-0.2772653996944427,-1.110599398612976,0.3481662571430206,3.0368151664733887,0.6004774570465088,67.69998931884766,25.23,0
-0.2507040500640869,-1.1045629978179932,0.3801707327365875,3.320979595184326,0.5997267365455627,67.69998931884766,25.23,0
-0.2616473734378814,-1.100689172744751,0.3895138204097748,2.826233148574829,0.5992449522018433,67.69998931884766,25.23,0
-0.3246479034423828,-1.0702142715454102,0.3731185793876648,1.4196304082870483,0.5989357829093933,67.69998931884766,25.23,0
-0.3874691128730774,-1.0450594425201416,0.3514015078544616,-0.6223053932189941,0.598737359046936,67.69998931884766,25.23,0
-0.4389797151088714,-1.0233187675476074,0.3038780987262726,-2.8462588787078857,0.5986100435256958,67.69998931884766,25.23,0
-0.4552429318428039,-0.9925735592842102,0.2453914433717727,-4.907580375671387,0.5985283255577087,67.69998931884766,25.23,0
-0.4488863945007324,-0.9672452807426452,0.2022603005170822,-6.423876762390137,0.6003119945526123,67.79313659667969,25.23,0
-0.4112204909324646,-0.9509910345077516,0.168983444571495,-7.03510856628418,0.6014566421508789,67.85291290283203,25.23,0
-0.381450891494751,-0.940559983253479,0.1420304924249649,-6.703681468963623,0.6021912097930908,67.89128112792969,25.23,0
-0.3735420405864715,-0.9450615048408508,0.1023425459861755,-5.426965713500977,0.6026626229286194,67.91590118408203,25.23,0
-0.3740643560886383,-0.9871347546577454,0.0544820055365562,-2.9381628036499023,0.6029651165008545,67.93170166015625,25.23,0
-0.3743995428085327,-1.0477216243743896,0.0069745401851832,0.6795803308486938,0.6031592488288879,67.94184112548828,25.23,0
-0.3802124261856079,-1.1313849687576294,-0.0515018813312053,4.523834228515625,0.6032838225364685,67.94834899902344,25.23,0
-0.3895405828952789,-1.224259614944458,-0.1002242341637611,7.506746292114258,0.6033637523651123,67.95252227783203,25.23,0
-0.4011246263980865,-1.1383191347122192,-0.1202958896756172,9.02692413330078,0.6015790104866028,67.9552001953125,25.23,0
-0.3917652666568756,-1.09436297416687,-0.1611655950546264,8.916966438293457,0.6004336476325989,67.95691680908203,25.23,0
-0.3913567662239074,-1.0997411012649536,-0.1985889673233032,7.431284427642822,0.5996986031532288,67.95802307128906,25.23,0
-0.3966923654079437,-1.1759636402130127,-0.2282029092311859,5.274113655090332,0.5992268919944763,67.95873260498047,25.23,0
-0.3497364819049835,-1.208085536956787,-0.2304141074419021,3.13742470741272,0.5989242196083069,67.95918273925781,25.23,0
-0.2916140258312225,-1.2119061946868896,-0.2150398045778274,1.307651162147522,0.5987299680709839,67.95947265625,25.23,0
-0.2151299715042114,-1.197564721107483,-0.1827823668718338,-0.178276240825653,0.5986052751541138,67.95966339111328,25.23,0
-0.1716446727514267,-1.1771656274795532,-0.1564836204051971,-1.375473976135254,0.5985252857208252,67.95978546142578,25.23,0
-0.1941182911396026,-1.1360857486724854,-0.1396065950393676,-2.462615728378296,0.5980146527290344,67.9598617553711,25.23,0
-0.2085405588150024,-1.1097230911254885,-0.134373664855957,-3.6582589149475098,0.5976870059967041,67.95990753173828,25.23,0
-0.2121981680393219,-1.092805027961731,-0.1310154795646667,-5.0059309005737305,0.5974767208099365,67.9599380493164,25.23,0
-0.2033498585224151,-1.076350212097168,-0.1120670661330223,-6.368767738342285,0.597341775894165,67.9599609375,25.23,0
-0.1864759773015976,-1.0545949935913086,-0.0887115150690078,-7.648188591003418,0.5972551703453064,67.95997619628906,25.23,0
-0.1812450736761093,-1.0406336784362793,-0.0513321682810783,-8.845417976379395,0.597199559211731,67.9599838256836,25.23,0
-0.1834859549999237,-1.026076316833496,-0.0105509329587221,-9.914667129516602,0.5971639156341553,67.95999145507812,25.23,0
-0.1961195617914199,-1.011136531829834,0.032413437962532,-10.704744338989258,0.5971410274505615,67.95999145507812,25.23,0
-0.2154226303100586,-1.0631245374679563,0.0487899519503116,-11.097127914428713,0.5971263647079468,67.95999145507812,25.23,0
-0.2278102338314056,-1.0293141603469849,0.076092779636383,-11.248624801635742,0.5971169471740723,67.95999145507812,25.23,0
-0.2469554394483566,-0.8956611156463623,0.171983003616333,-11.413915634155272,0.5971108675003052,67.95999145507812,25.23,0
-0.2872306108474731,-0.8042925000190735,0.2447153776884079,-11.322948455810549,0.5971069931983948,67.95999145507812,25.23,0
-0.3522613048553467,-0.919188380241394,0.2634019553661346,-9.827958106994627,0.5971044898033142,67.95999145507812,25.23,0
-0.3883964717388153,-1.054497480392456,0.2641983926296234,-5.758883953094482,0.5971028804779053,67.95999145507812,25.23,0
-0.4003904163837433,-1.1021466255187988,0.26470947265625,0.5782927870750427,0.5971018671989441,67.95999145507812,25.23,0
-0.3745007812976837,-1.0991384983062744,0.2762330174446106,7.185173988342285,0.5971012115478516,67.95999145507812,25.23,0
-0.3578863143920898,-1.0692191123962402,0.2836281657218933,12.155935287475586,0.5966418385505676,68.049560546875,25.23,0
-0.4087996184825897,-1.0388230085372925,0.2883739471435547,15.11301612854004,0.5963470339775085,68.10704040527344,25.23,0
-0.4582661688327789,-1.013718843460083,0.2970172762870788,16.555713653564453,0.5961578488349915,68.14392852783203,25.23,0
-0.4900109469890594,-0.9864128828048706,0.2969663143157959,16.804447174072266,0.596036434173584,68.1676025390625,25.23,0
-0.5159807205200195,-0.952096164226532,0.2745425105094909,16.114999771118164,0.5959585309028625,68.18279266357422,25.23,0
-0.5326465964317322,-0.9188780784606934,0.25455442070961,14.887967109680176,0.595908522605896,68.19254302978516,25.23,0
-0.5377440452575684,-0.8639739751815796,0.2249338924884796,13.30519676208496,0.5958764553070068,68.19879913330078,25.23,0
-0.5242219567298889,-0.8287397027015686,0.1835340410470962,11.28992748260498,0.5958558917045593,68.20281219482422,25.23,0
-0.5155442357063293,-0.8173239231109619,0.1457704603672027,8.993522644042969,0.5972198247909546,68.20538330078125,25.23,0
-0.5099753737449646,-0.8379868268966675,0.0991448685526847,6.849880695343018,0.5980951189994812,68.20703887939453,25.23,0
-0.5008038282394409,-0.8680403828620911,0.058027695864439,5.004897117614746,0.5986568331718445,68.20809936523438,25.23,0
-0.500515878200531,-0.965695858001709,0.0092499619349837,3.1115427017211914,0.599017322063446,68.20877838134766,25.23,0
-0.517124354839325,-1.1067343950271606,-0.0444438755512237,0.9686098098754884,0.5992486476898193,68.20921325683594,25.23,0
-0.5165871977806091,-1.096484899520874,-0.0733037143945694,-1.0657950639724731,0.5993971228599548,68.2094955444336,25.23,0
-0.4770580530166626,-0.9275718927383424,-0.1086176261305809,-2.665130376815796,0.5994923710823059,68.20967864990234,25.23,0
-0.4740816354751587,-0.8863465189933777,-0.1592689305543899,-3.9888453483581534,0.5995535254478455,68.20979309082031,25.23,0
-0.5337470769882202,-1.0614103078842163,-0.242153987288475,-5.228830337524414,0.5986745357513428,68.20986938476562,25.25,0
-0.5552435517311096,-1.09538733959198,-0.3065403997898102,-6.239535808563232,0.5981104373931885,68.20991516113281,25.25,0
-0.507463276386261,-1.1059962511062622,-0.3254688084125519,-6.866652965545654,0.5977484583854675,68.20994567871094,25.25,0
-0.3928340077400207,-1.0680222511291504,-0.2816382050514221,-7.19028377532959,0.5975161790847778,68.20996856689453,25.25,0
-0.3192715346813202,-1.0212616920471191,-0.2367169260978698,-7.308407306671143,0.5973671078681946,68.20997619628906,25.25,0
-0.3224433660507202,-0.9688623547554016,-0.2134868204593658,-7.151344299316406,0.5972714424133301,68.2099838256836,25.25,0
-0.3524677157402038,-0.9184421300888062,-0.1985790729522705,-6.706623077392578,0.5972100496292114,68.20999145507812,25.25,0
-0.3661378622055053,-0.8916831016540527,-0.19460991024971,-6.238515377044678,0.5971706509590149,68.20999145507812,25.25,0
-0.3525194525718689,-0.9080973267555236,-0.1808671802282333,-6.052753448486328,0.5971453189849854,68.20999145507812,25.25,0
-0.332584410905838,-0.9298266172409058,-0.1608523428440094,-6.073262691497803,0.5971291065216064,68.20999145507812,25.25,0
-0.2918023765087127,-0.9493690133094788,-0.1200191006064415,-5.950286388397217,0.5971186757087708,68.20999145507812,25.25,0
-0.2656308114528656,-1.0234856605529783,-0.0714235752820968,-5.591926097869873,0.5971119999885559,68.20999145507812,25.25,0
-0.2488353997468948,-1.1102339029312134,-0.0346399918198585,-5.232978343963623,0.5971077084541321,68.20999145507812,25.25,0
-0.2380570769309997,-1.132317304611206,-0.0054366295225918,-4.930974960327148,0.5971049666404724,68.20999145507812,25.25,0
-0.2423357218503952,-1.1688802242279053,0.0021088584326207,-4.364578723907471,0.5971031785011292,68.20999145507812,25.25,0
-0.28426593542099,-1.1419641971588137,0.0461355410516262,-3.3884778022766118,0.5971020460128784,68.20999145507812,25.25,0
-0.3503587543964386,-1.1134955883026123,0.1079759746789932,-2.461136102676392,0.5961834192276001,68.28881072998047,25.25,0
-0.403968870639801,-1.061639428138733,0.1756504774093628,-2.063063144683838,0.5955939292907715,68.33939361572266,25.25,0
-0.4271771907806396,-1.1123276948928833,0.2302756309509277,-1.836263418197632,0.5952156186103821,68.37185668945312,25.25,0
-0.3972887694835663,-1.1728453636169434,0.2541353702545166,-0.8452286124229431,0.5949728488922119,68.39268493652344,25.25,0
-0.3053370416164398,-1.1724977493286133,0.2638493776321411,1.3455983400344849,0.594817042350769,68.40605163574219,25.25,0
-0.2071432918310165,-1.1386879682540894,0.3036699295043945,4.130836486816406,0.5947170853614807,68.41463470458984,25.25,0
-0.166519284248352,-1.0722086429595947,0.3348222374916076,6.469958782196045,0.5946528911590576,68.4201431274414,25.25,0
-0.1740357875823974,-0.9455794095993042,0.3548139929771423,7.831352233886719,0.5946117043495178,68.42367553710938,25.25,0
-0.1900549978017807,-0.8363271951675415,0.3564479947090149,8.37183666229248,0.5945852994918823,68.42594146728516,25.25,0
-0.2171285152435302,-0.7662153840065002,0.3183121979236603,8.435665130615234,0.5945683717727661,68.42739868164062,25.25,0
-0.2624916136264801,-0.7212216854095459,0.2714477479457855,8.261672019958496,0.5945574641227722,68.42832946777344,25.25,0
-0.3027985990047455,-0.6923472881317139,0.2301772832870483,8.07477855682373,0.5945504903793335,68.42892456054688,25.25,0
-0.3566541671752929,-0.7018062472343445,0.1924967318773269,7.96200704574585,0.5945460200309753,68.42931365966797,25.25,0
-0.3968133330345154,-0.7078765034675598,0.1739132851362228,7.69617748260498,0.5945431590080261,68.42955780029297,25.25,0
-0.4337807297706604,-0.7453586459159851,0.1619874984025955,6.97028398513794,0.5945413112640381,68.42971801757812,25.25,0
-0.4631020724773407,-0.8421835899353027,0.1487364470958709,5.744941234588623,0.5945401191711426,68.42981719970703,25.25,0
-0.4875165820121765,-0.9323091506958008,0.1346349120140075,4.306558132171631,0.5945393443107605,68.42988586425781,25.25,0
-0.4975866377353668,-0.9789509773254396,0.1255853623151779,3.0682199001312256,0.5945388674736023,68.42992401123047,25.25,0
-0.5040490031242371,-1.0200785398483276,0.1085823252797126,2.3559250831604004,0.5945385694503784,68.4299545288086,25.25,0
-0.5137939453125,-1.0016896724700928,0.0976707562804222,2.1173524856567383,0.5945383310317993,68.42996978759766,25.25,0
-0.514449954032898,-0.8835310935974121,0.1130594387650489,1.7528783082962036,0.5945382118225098,68.42997741699219,25.25,0
-0.4980776011943817,-0.7629215121269226,0.1285327821969986,0.605422854423523,0.594538152217865,68.42998504638672,25.25,0
-0.4875707626342773,-0.8814433217048645,0.1048760414123535,-1.094660758972168,0.5945380926132202,68.42999267578125,25.25,0
-0.4696325361728668,-1.080654859542847,0.0784989520907402,-2.504525899887085,0.5945380330085754,68.42999267578125,25.25,0
-0.4805119037628174,-1.1525195837020874,0.0615716576576232,-3.488112688064575,0.5945380330085754,68.42999267578125,25.25,0
-0.3923315107822418,-1.1034760475158691,0.0898931175470352,-4.56356143951416,0.5945380330085754,68.42999267578125,25.25,0
-0.3077535331249237,-1.0160249471664429,0.1360570639371872,-5.547493934631348,0.5945380330085754,68.42999267578125,25.25,0
-0.2590740323066711,-0.9375128149986268,0.2160623967647552,-5.777676582336426,0.5945380330085754,68.42999267578125,25.25,0
-0.2558231949806213,-0.9151171445846558,0.2562096714973449,-5.40950345993042,0.5945380330085754,68.42999267578125,25.25,0
-0.2873236238956451,-0.8839515447616577,0.2539850175380707,-5.234135150909424,0.5945380330085754,68.42999267578125,25.25,0
-0.2907454669475555,-0.8583534955978394,0.2413618117570877,-5.55866813659668,0.5945380330085754,68.42999267578125,25.25,0
-0.2593547701835632,-0.8419261574745178,0.2332609593868255,-6.07503604888916,0.5945380330085754,68.42999267578125,25.25,0
-0.2056233882904052,-0.831384003162384,0.2280623018741607,-6.374167919158936,0.5954558849334717,68.55180358886719,25.25,0
-0.1655438989400863,-0.8302164673805237,0.2247260957956314,-6.229371547698975,0.5960448980331421,68.62997436523438,25.25,0
-0.1734098345041275,-0.8518582582473755,0.2057917863130569,-5.606228351593018,0.5964229106903076,68.68013763427734,25.25,0
-0.2120443880558014,-0.8937355875968933,0.1712497472763061,-4.518476486206055,0.5966655015945435,68.71233367919922,25.25,0
-0.2536311447620392,-0.9374033808708192,0.1322893351316452,-3.103904962539673,0.5968211889266968,68.73299407958984,25.25,0
-0.2803191244602203,-1.0270023345947266,0.0681023597717285,-1.8772650957107544,0.5969210863113403,68.74625396728516,25.25,0
-0.3142392635345459,-1.0956974029541016,0.0213130768388509,-1.2835373878479004,0.5969851613044739,68.7547607421875,25.25,0
-0.3751916885375976,-1.1229885816574097,-0.0031158179044723,-1.0279072523117063,0.5970262885093689,68.76021575927734,25.25,0
-0.4478940963745117,-1.067731499671936,0.0147937703877687,-0.3013941049575805,0.5961348414421082,68.76371765136719,25.25,0
-0.4889525175094604,-0.9427062273025512,0.0486782118678092,1.3040990829467771,0.595562756061554,68.7659683227539,25.25,0
-0.4705192744731903,-0.8736677765846252,0.081618845462799,3.394854784011841,0.5951955914497375,68.76741027832031,25.25,0
-0.4474943280220032,-0.8797428011894226,0.091562695801258,5.195151329040527,0.5949599742889404,68.7683334350586,25.25,0
-0.4439137876033783,-0.9564124941825868,0.0699552148580551,6.1856794357299805,0.59480881690979,68.76892852783203,25.25,0
-0.4024315774440765,-0.9328436255455016,0.0616865530610084,6.373521327972412,0.5947117805480957,68.7693099975586,25.25,0
-0.3534195721149444,-0.8841318488121033,0.0619779750704765,5.938767910003662,0.5946494936943054,68.7695541381836,25.25,0
-0.3163687288761139,-0.8304803371429443,0.0789583176374435,4.918175220489502,0.5946095585823059,68.76971435546875,25.25,0
-0.3149827420711517,-0.7960498929023743,0.0954530984163284,3.446390390396118,0.5950428247451782,68.76981353759766,25.21,0
-0.3476799130439758,-0.7571610808372498,0.1060384958982467,1.9035935401916504,0.5953208804130554,68.76988220214844,25.21,0
-0.3798586428165436,-0.737802267074585,0.1016360521316528,0.5982486009597778,0.5954993367195129,68.7699203491211,25.21,0
-0.4173024296760559,-0.7253788709640503,0.0988108143210411,-0.3505065143108368,0.5956138372421265,68.76995086669922,25.21,0
-0.4525272250175476,-0.7006129026412964,0.1025955155491828,-0.8447204828262329,0.5956873297691345,68.76996612548828,25.21,0
-0.4863280355930328,-0.6959151029586792,0.1106220930814743,-0.864524781703949,0.5957344770431519,68.76997375488281,25.21,0
-0.5248127579689026,-0.7096936702728271,0.1157730892300605,-0.5225590467453003,0.5957647562026978,68.76998138427734,25.21,0
-0.5607056021690369,-0.7857092618942261,0.1078831478953361,0.0587350092828273,0.5957841873168945,68.76998901367188,25.21,0
-0.5837395787239075,-0.8848716616630554,0.0916242897510528,0.7542078495025635,0.5948784351348877,68.76998901367188,25.21,0
-0.5817281007766724,-0.9597039222717284,0.0867880657315254,1.2936692237854004,0.5942971706390381,68.76998901367188,25.21,0
-0.5748394727706909,-0.9797380566596984,0.0892822295427322,1.34251070022583,0.5939241647720337,68.76998901367188,25.21,0
-0.5480276942253113,-0.9478126168251038,0.1356650441884994,0.7110779285430908,0.5936847925186157,68.76998901367188,25.21,0
-0.558810293674469,-0.9609113931655884,0.1318442076444625,-0.378411203622818,0.5935311913490295,68.76998901367188,25.21,0
-0.5601321458816528,-1.042088508605957,0.0958055704832077,-1.1778947114944458,0.593432605266571,68.76998901367188,25.21,0
-0.5161982774734497,-1.1725521087646484,0.0390914045274257,-1.114162564277649,0.5933693051338196,68.76998901367188,25.21,0
-0.465612918138504,-1.222689509391785,0.0082932887598872,-0.5573720932006836,0.5933287143707275,68.76998901367188,25.21,0
-0.3435857594013214,-1.1541048288345337,0.0333110280334949,-0.2681249380111694,0.5946798324584961,68.93120574951172,25.21,0
-0.2204935699701309,-1.0709067583084106,0.0941481664776802,-0.3117876052856445,0.5955469012260437,69.03466796875,25.21,0
-0.1470978558063507,-0.983928382396698,0.1443854868412017,-0.1570964306592941,0.596103310585022,69.10106658935547,25.21,0
-0.1223878115415573,-0.928110659122467,0.1710271388292312,0.3792496919631958,0.5964604020118713,69.1436767578125,25.21,0
-0.1457147449254989,-0.8866922855377197,0.1545375734567642,0.8345056176185608,0.5966895222663879,69.1710205078125,25.21,0
-0.183075726032257,-0.8545145392417908,0.1047710925340652,0.728996753692627,0.5968365669250488,69.18856811523438,25.21,0
-0.2238451838493347,-0.828266978263855,0.0616382807493209,0.0809099748730659,0.5969309210777283,69.1998291015625,25.21,0
-0.2556064426898956,-0.8058249950408936,0.0451536737382411,-0.7111653089523315,0.5969914793968201,69.2070541381836,25.21,0
-0.2480001151561737,-0.7970207929611206,0.0457703508436679,-1.2660470008850098,0.595653235912323,69.2116928100586,25.21,0
-0.2319232672452926,-0.7913708090782166,0.0461660996079444,-1.3606101274490356,0.5947943925857544,69.21466827392578,25.21,0
-0.2104105204343795,-0.7989404797554016,0.0352245196700096,-0.9806385636329652,0.5942432284355164,69.2165756225586,25.21,0
-0.1910071074962616,-0.8317871689796448,0.0170072950422763,-0.4286931455135345,0.5938895344734192,69.21780395507812,25.21,0
-0.1897506564855575,-0.9032462239265442,-0.0226723421365022,-0.1282249838113784,0.5936625599861145,69.21858978271484,25.21,0
-0.2225309908390045,-0.960300087928772,-0.0593319982290267,-0.1145305931568145,0.5935168862342834,69.2190933227539,25.21,0
-0.2435675263404846,-0.9913161993026732,-0.0884558334946632,-0.0770817175507545,0.5934234261512756,69.21942138671875,25.21,0
-0.2850564420223236,-1.212740421295166,-0.146330252289772,0.0436803512275218,0.5933634638786316,69.2196273803711,25.21,0
-0.3676593601703644,-1.1421223878860474,-0.1330907493829727,0.0137012340128421,0.5937842130661011,69.21976470947266,25.23,0
-0.3814847469329834,-1.0184348821640017,-0.0966055318713188,-0.1416755020618438,0.5940542817115784,69.2198486328125,25.23,0
-0.2112283110618591,-1.246936917304993,-0.1123758405447006,-0.1088320612907409,0.5942275524139404,69.21990203857422,25.23,0
-0.141151949763298,-1.2928165197372437,-0.1224963143467903,0.1522775441408157,0.5943387746810913,69.21994018554688,25.23,0
