acc_x,acc_y,acc_z,bvp,eda,hr,temp,label
0.0,0.0,0.0,0.0,0.0,0.0,35.97,0
-0.0338541641831398,-0.1536458283662796,0.0572916641831398,14.716666221618652,0.1354499906301498,13.916666030883787,35.97,0
-0.0792682915925979,-0.3597561120986938,0.138338416814804,37.81219482421875,0.3171512186527252,32.58536529541016,35.97,0
-0.1187707632780075,-0.5390365719795227,0.2188019156455993,57.145450592041016,0.4751999974250793,48.82392120361328,35.97,0
-0.1422517448663711,-0.6698313355445862,0.2721661925315857,66.98637390136719,0.5905051231384277,60.67082214355469,35.97,0
-0.169128805398941,-0.7583848834037781,0.2918268740177154,69.2538070678711,0.6685715317726135,68.6916732788086,35.97,0
-0.1923170983791351,-0.7998295426368713,0.3213863372802734,68.31065368652344,0.7197943329811096,73.95450592041016,35.97,0
-0.1961763501167297,-0.8322505354881287,0.3349512219429016,66.47504425048828,0.7529688477516174,77.36298370361328,35.97,0
-0.2098427265882492,-0.8699057698249817,0.3213286399841308,61.68983840942383,0.7729636430740356,79.55863189697266,35.99,0
-0.2354106158018112,-0.8885137438774109,0.3237621188163757,52.48066711425781,0.7858151793479919,80.96986389160156,35.99,0
-0.2406361699104309,-0.8836734294891357,0.3141318261623382,40.32754898071289,0.7940678596496582,81.8760986328125,35.99,0
-0.2495877593755722,-0.8749691843986511,0.3079500198364258,27.32849502563477,0.7993653416633606,82.45781707763672,35.99,0
-0.2441378831863403,-0.8693826794624329,0.3095800280570984,13.296632766723633,0.8027653098106384,82.83116912841797,35.99,0
-0.2518356740474701,-0.8657974004745483,0.2938330471515655,-3.4934210777282715,0.8049473166465759,83.0707778930664,35.99,0
-0.2735689878463745,-0.8690942525863647,0.2781296372413635,-22.393739700317383,0.8063476085662842,83.22454833984375,35.99,0
-0.2875162661075592,-0.8768078088760376,0.2736497819423675,-40.86410903930664,0.8072462677955627,83.32322692871094,35.99,0
-0.2964668571949005,-0.8929534554481506,0.2595793008804321,-55.4257926940918,0.8114954829216003,83.38655853271484,35.99,0
-0.2966130673885345,-0.8697282075881958,0.2449519038200378,-62.06581115722656,0.8142223358154297,83.42720031738281,35.99,0
-0.2911091446876526,-0.866019070148468,0.2299671024084091,-57.53535461425781,0.8159723281860352,83.45327758789062,35.99,0
-0.3099681138992309,-0.908420979976654,0.2203507125377655,-42.96310424804688,0.8170953392982483,83.47001647949219,35.99,0
-0.3332662880420685,-0.9468276500701904,0.2085817009210586,-24.12480926513672,0.8178160190582275,83.48075866699219,35.99,0
-0.3706088066101074,-0.9826703667640686,0.1898334771394729,-7.507099628448486,0.8182785511016846,83.48765563964844,35.99,0
-0.4057686328887939,-1.0056722164154053,0.1610086262226104,2.3976824283599854,0.8185753226280212,83.49208068847656,35.99,0
-0.4339299499988556,-1.026031255722046,0.1425104886293411,3.9927587509155273,0.8187658190727234,83.49491882324219,35.99,0
-0.4408067166805267,-1.0279009342193604,0.1418350040912628,-0.8267937898635864,0.8184287548065186,83.49674224853516,35.99,0
-0.4284265041351318,-1.0179052352905271,0.1469992846250534,-7.44854211807251,0.8182124495506287,83.49790954589844,35.99,0
-0.3756994009017944,-1.0114905834197998,0.1615089774131775,-12.206725120544434,0.8180736303329468,83.4986572265625,35.99,0
-0.3138733208179474,-0.9961784482002258,0.1652226895093917,-14.382521629333496,0.8179845809936523,83.49913787841797,35.99,0
-0.26859912276268,-0.9807541966438292,0.1676059365272522,-14.227567672729492,0.8179274201393127,83.49944305419922,35.99,0
-0.2507402896881103,-0.9764536023139954,0.1747331321239471,-10.66019344329834,0.8178907632827759,83.49964141845703,35.99,0
-0.2504750788211822,-0.9736937284469604,0.1737091839313507,-3.093724489212036,0.8178672194480896,83.49977111816406,35.99,0
-0.2726959884166717,-0.9719225764274596,0.1506609767675399,6.347696781158447,0.8178520798683167,83.4998550415039,35.99,0
-0.2925538420677185,-0.9875792860984802,0.1302721947431564,14.746079444885254,0.8155474066734314,79.61997985839844,35.99,0
-0.3052974641323089,-1.025615692138672,0.111590065062046,20.07835578918457,0.8140683770179749,77.13009643554688,35.99,0
-0.3022800385951996,-1.06122088432312,0.0996009558439254,23.199369430541992,0.8131192326545715,75.53223419189453,35.99,0
-0.2891480922698974,-1.072874665260315,0.0975048094987869,26.302106857299805,0.8125101327896118,74.5068130493164,35.99,0
-0.2023519277572631,-1.0803533792495728,0.1017573922872543,28.927379608154297,0.8121192455291748,73.84876251220703,35.99,0
-0.1074667200446128,-1.0963484048843384,0.1100842356681823,27.10478782653809,0.8118683695793152,73.42646026611328,35.99,0
-0.0241837576031684,-1.073026418685913,0.1098301485180854,18.52996826171875,0.8117073774337769,73.15544891357422,35.99,0
0.034860223531723,-1.013277530670166,0.1040693148970604,5.836913585662842,0.8116040825843811,72.98152923583984,35.99,0
0.0559579320251941,-0.9805318713188172,0.1115678921341896,-6.174356460571289,0.8115378022193909,72.86991882324219,35.99,0
0.024715032428503,-0.9427242875099182,0.1331733763217926,-15.028922080993652,0.8114952445030212,72.79829406738281,35.99,0
-0.0401170589029789,-0.9016682505607604,0.1302452087402343,-21.252243041992188,0.8114679455757141,72.75233459472656,35.99,0
-0.0873203426599502,-0.8641252517700195,0.122768297791481,-25.4072265625,0.8114504218101501,72.72283935546875,35.99,0
-0.1344060152769088,-0.8456301093101501,0.1347633749246597,-25.816633224487305,0.8114391565322876,72.70391082763672,35.99,0
-0.1702206581830978,-0.8393587470054626,0.1480588912963867,-16.81482696533203,0.8114319443702698,72.69176483154297,35.99,0
-0.1988022178411483,-0.8465297222137451,0.1621889621019363,3.8404507637023926,0.8114272952079773,72.68396759033203,35.99,0
-0.2115464359521865,-0.8679249882698059,0.182452380657196,29.21208953857422,0.8114243149757385,72.67896270751953,35.99,0
-0.2197249382734298,-0.8928507566452026,0.1954562813043594,47.44306945800781,0.8109630942344666,72.67575073242188,35.99,0
-0.2305712103843689,-0.8920533657073975,0.2038014382123947,51.44370651245117,0.8106671571731567,72.67369079589844,35.99,0
-0.2487272769212722,-0.8747483491897583,0.1979613304138183,43.191707611083984,0.8104771971702576,72.67237091064453,35.99,0
-0.2827698886394501,-0.8580451607704163,0.1830179244279861,29.51282119750977,0.8103553056716919,72.67152404785156,35.99,0
-0.3158120214939117,-0.8641193509101868,0.1566347926855087,16.381671905517578,0.8102771043777466,72.67097473144531,35.99,0
-0.3426143229007721,-0.8792129755020142,0.1397036164999008,7.442546844482422,0.8102269172668457,72.67062377929688,35.99,0
-0.3654122948646545,-0.9168880581855774,0.1232403889298439,4.074013233184815,0.8101946711540222,72.67040252685547,35.99,0
-0.38004270195961,-0.9970434904098512,0.1238707825541496,4.036749839782715,0.8101739883422852,72.67025756835938,35.99,0
-0.4733982682228088,-1.2444047927856443,0.1858508437871933,3.414546012878418,0.8092429041862488,72.670166015625,35.99,0
-0.5445040464401245,-1.296789288520813,0.2256260812282562,0.6686644554138184,0.8086453676223755,72.67010498046875,35.99,0
-0.5285601615905762,-1.28002667427063,0.2175648957490921,-2.680565595626831,0.8082618713378906,72.6700668334961,35.99,0
-0.3559928238391876,-1.3252471685409546,0.2011961489915847,-5.492684841156006,0.808015763759613,72.6700439453125,35.99,0
-0.1388913244009018,-1.3598648309707642,0.207484945654869,-8.056846618652344,0.807857871055603,72.67002868652344,35.99,0
-0.0051658358424901,-1.3261027336120603,0.2115207314491272,-10.300668716430664,0.8077565431594849,72.6700210571289,35.99,0
-0.0201084595173597,-1.2036762237548828,0.2085129022598266,-11.690468788146973,0.8076915144920349,72.67001342773438,35.99,0
-0.0576866455376148,-1.0859254598617554,0.21218042075634,-12.302921295166016,0.8076497912406921,72.67000579833984,35.99,0
-0.2385398596525192,-0.9655776023864746,0.1417629569768905,-12.481003761291504,0.8053276538848877,71.08650207519531,35.99,0
-0.2482433170080185,-0.8603564500808716,0.1189641803503036,-11.900266647338867,0.8038374185562134,70.07030487060547,35.99,0
-0.1816993653774261,-0.7536471486091614,0.1211265549063682,-10.137543678283691,0.8028810620307922,69.41816711425781,35.99,0
-0.1781797111034393,-0.7131561040878296,0.1057209223508834,-7.515978336334228,0.8022673726081848,68.99966430664062,35.99,0
-0.1927143186330795,-0.6871712803840637,0.0902367010712623,-4.970207691192627,0.801873505115509,68.73109436035156,35.99,0
-0.2020418047904968,-0.6816912889480591,0.0747020468115806,-2.870743989944458,0.8016207814216614,68.5587387084961,35.99,0
-0.202429860830307,-0.6893700957298279,0.0647327974438667,-0.3590919077396393,0.8014585971832275,68.44812774658203,35.99,0
-0.1802878081798553,-0.7166889905929565,0.0639328807592392,3.459608316421509,0.8013544678688049,68.37714385986328,35.99,0
-0.1716760843992233,-0.773405134677887,0.0578217655420303,7.816160678863525,0.8026648163795471,68.33159637451172,35.97,0
-0.1773451268672943,-0.8265956044197083,0.0539000034332275,10.619110107421877,0.8035057187080383,68.30236053466797,35.97,0
-0.2201676070690155,-0.899914562702179,0.0569810159504413,10.54777717590332,0.8040453791618347,68.28359985351562,35.97,0
-0.2644419372081756,-0.9693575501441956,0.0701537802815437,8.176908493041992,0.8043916821479797,68.27156066894531,35.97,0
-0.3208435177803039,-1.1314753293991089,0.0898028537631034,4.846220970153809,0.8046138882637024,68.26383972167969,35.97,0
-0.3738321363925934,-1.3586642742156982,0.1024124994874,1.2399210929870603,0.8047565221786499,68.25888061523438,35.97,0
-0.4358260631561279,-1.4708744287490845,0.1161024197936058,-2.299635410308838,0.8048480153083801,68.25569915771484,35.97,0
-0.4868057370185852,-1.3021800518035889,0.1360833644866943,-5.044018745422363,0.8049067854881287,68.25365447998047,35.97,0
-0.4803371429443359,-1.1603350639343262,0.1601015329360962,-6.525765419006348,0.8054034113883972,68.2523422241211,35.97,0
-0.3586327135562897,-1.1084915399551392,0.2146994322538375,-7.222302436828613,0.8057221174240112,68.25150299072266,35.97,0
-0.2021609544754028,-1.0472325086593628,0.2721283137798309,-7.819767951965332,0.8059266209602356,68.25096130371094,35.97,0
-0.0849530696868896,-0.9855288863182068,0.3033851087093353,-8.514870643615723,0.806057870388031,68.25061798095703,35.97,0
-0.0657135397195816,-0.9067466855049132,0.2618683874607086,-9.398021697998049,0.8061420917510986,68.25039672851562,35.97,0
-0.0925511345267295,-0.8337976932525635,0.1960409283638,-10.853256225585938,0.8061961531639099,68.25025177001953,35.97,0
-0.2105339020490646,-0.7757876515388489,0.1146122366189956,-12.937149047851562,0.8062308430671692,68.25016021728516,35.97,0
-0.375812828540802,-0.7665490508079529,0.0903448611497879,-14.61839771270752,0.8062531352043152,68.2500991821289,35.97,0
-0.4986726641654968,-0.7662180066108704,0.097162552177906,-14.167567253112791,0.8039724230766296,68.25006103515625,35.97,0
-0.5327348113059998,-0.7827988862991333,0.1351244002580642,-10.82589626312256,0.8025087714195251,68.25003814697266,35.97,0
-0.5210072994232178,-0.7990373373031616,0.1650839000940323,-5.639796733856201,0.8015695214271545,68.2500228881836,35.97,0
-0.4742968678474426,-0.8150559663772583,0.2290923744440078,-0.3555708229541778,0.800966739654541,68.25001525878906,35.97,0
-0.405136376619339,-0.8253358006477356,0.298158198595047,3.959845781326294,0.8005799055099487,68.25000762939453,35.97,0
-0.3495576083660126,-0.8431283831596375,0.3424806892871856,7.091072082519531,0.8003316521644592,68.25000762939453,35.97,0
-0.3082925677299499,-0.8937310576438904,0.3597287535667419,9.000201225280762,0.8001723289489746,68.25000762939453,35.97,0
-0.2874088287353515,-0.9765849113464355,0.3707975745201111,8.896234512329102,0.8000701069831848,68.25000762939453,35.97,0
-0.3187890350818634,-1.108124613761902,0.4226830899715423,5.211112976074219,0.7995452284812927,68.73365020751953,35.97,0
-0.3837092220783233,-1.1925392150878906,0.4615780115127563,-2.201634645462036,0.799208402633667,69.04402923583984,35.97,0
-0.4253712594509125,-1.2131249904632568,0.4697452187538147,-10.064802169799805,0.7989922165870667,69.24320983886719,35.97,0
-0.3905320465564728,-1.1423691511154177,0.4302042424678802,-13.83553409576416,0.7988535165786743,69.37103271484375,35.97,0
-0.3457831442356109,-1.1025599241256714,0.3824380338191986,-11.898961067199709,0.7987644672393799,69.45306396484375,35.97,0
-0.311468094587326,-1.1161969900131226,0.3237955570220947,-6.203038215637207,0.7987073659896851,69.50570678710938,35.97,0
-0.323033332824707,-1.1137529611587524,0.2693688571453094,-0.183222234249115,0.7986707091331482,69.53948974609375,35.97,0
-0.3416507840156555,-1.0897934436798096,0.2176476269960403,2.619506359100342,0.7986471652984619,69.56116485595703,35.97,0
-0.3368050754070282,-1.0352331399917605,0.1340759396553039,0.2086097747087478,0.7995502948760986,69.57508087158203,35.99,0
-0.3169020414352417,-1.000219464302063,0.0748466700315475,-5.616159915924072,0.8001298308372498,69.5840072631836,35.99,0
-0.2817383408546448,-0.9889453053474426,0.0424345098435878,-10.224727630615234,0.8005017638206482,69.58973693847656,35.99,0
-0.2479767352342605,-0.9705146551132202,-0.0007568475557491,-10.43082332611084,0.8007404804229736,69.59341430664062,35.99,0
-0.2263104915618896,-0.9754801988601683,-0.0284745749086141,-6.715397834777832,0.8008936643600464,69.59577178955078,35.99,0
-0.2124063372611999,-0.9786668419837952,-0.0462622158229351,-1.2894444465637207,0.800991952419281,69.59728240966797,35.99,0
-0.2146790027618408,-0.9639185070991516,-0.0632750764489173,4.360077857971191,0.8010550141334534,69.59825897216797,35.99,0
-0.2273330241441726,-0.9376605749130248,-0.0741929486393928,9.60852336883545,0.8010954856872559,69.59888458251953,35.99,0
-0.2410514205694198,-0.926407516002655,-0.0700038596987724,13.9905424118042,0.8006625175476074,69.59928131103516,35.99,0
-0.244257315993309,-0.9247837066650392,-0.0617177709937095,17.501272201538086,0.8003847002983093,69.59954071044922,35.99,0
-0.2519124448299408,-0.9125460982322692,-0.0396069139242172,21.31267738342285,0.8002064228057861,69.59970092773438,35.99,0
-0.2624228596687317,-0.9102904796600342,-0.019819663837552,27.280288696289062,0.8000919818878174,69.59980773925781,35.99,0
-0.269167810678482,-0.9424296021461488,0.0152697516605257,35.75297546386719,0.8000185489654541,69.5998764038086,35.99,0
-0.2958874404430389,-0.9854457378387452,0.0489836707711219,43.40070724487305,0.7999714016914368,69.59992218017578,35.99,0
-0.3410234451293945,-1.007453203201294,0.0818148702383041,44.71167755126953,0.7999411821365356,69.5999526977539,35.99,0
-0.3867824375629425,-0.954403042793274,0.1308729201555252,36.98345947265625,0.7999217510223389,69.59996795654297,35.99,0
-0.3993546068668365,-0.9371518492698668,0.1623555421829223,22.870454788208008,0.7985321283340454,69.5999755859375,35.99,0
-0.3458471894264221,-0.9876565337181092,0.1377770900726318,7.425808429718018,0.7976403832435608,69.59998321533203,35.99,0
-0.1939559429883957,-1.0648497343063354,0.2563506364822387,-5.717160224914551,0.7970681190490723,69.59999084472656,35.99,0
-0.1188719868659973,-1.0919967889785769,0.4052153825759887,-14.814337730407717,0.7967008352279663,69.59999084472656,35.99,0
0.0748547092080116,-1.0702338218688965,0.6854747533798218,-19.158447265625,0.7964651584625244,69.59999084472656,35.99,0
0.0032552510965615,-1.0170831680297852,0.6806025505065918,-19.284393310546875,0.7963138818740845,69.59999084472656,35.99,0
-0.1826375275850296,-0.9605830311775208,0.4871515035629272,-16.900405883789062,0.7962168455123901,69.59999084472656,35.99,0
-0.329921692609787,-0.9579111337661744,0.3406146764755249,-13.629368782043455,0.7961545586585999,69.59999084472656,35.99,0
-0.4020490944385528,-0.9617942571640016,0.2465757578611374,-10.276304244995115,0.7970324754714966,69.86152648925781,35.99,0
-0.3923585414886474,-0.9362973570823668,0.1750314533710479,-7.443810939788818,0.7975958585739136,70.02935791015625,35.99,0
-0.358150839805603,-0.9143370985984802,0.1347162127494812,-5.841034412384033,0.7979574203491211,70.1370620727539,35.99,0
-0.3194049894809723,-0.9058420658111572,0.1088442057371139,-5.561223030090332,0.7981894016265869,70.20618438720703,35.99,0
-0.3057356774806976,-0.9283792972564696,0.1202299147844314,-5.628853797912598,0.7983382940292358,70.25054168701172,35.99,0
-0.3137568235397339,-0.9596357345581056,0.1443299353122711,-4.676299095153809,0.7984338402748108,70.27900695800781,35.99,0
-0.3245021104812622,-1.013280987739563,0.1653937101364135,-2.2665514945983887,0.7984951734542847,70.29727935791016,35.99,0
-0.3202022612094879,-1.086891770362854,0.1901067793369293,0.4083969593048095,0.7985345125198364,70.30900573730469,35.99,0
-0.3118450939655304,-1.1509243249893188,0.1891728788614273,1.372684121131897,0.7971826195716858,70.3165283203125,35.97,0
-0.3176774978637695,-1.0744634866714478,0.1493891328573227,-0.6846758127212524,0.79631507396698,70.32135772705078,35.97,0
-0.3270181715488434,-1.030993103981018,0.112662672996521,-5.952969551086426,0.7957583069801331,70.32445526123047,35.97,0
-0.3554035723209381,-1.1374428272247314,0.1226803883910179,-13.289020538330078,0.7954010367393494,70.3264389038086,35.97,0
-0.3792174756526947,-1.2113538980484009,0.1347069591283798,-19.8848934173584,0.7951717376708984,70.32771301269531,35.97,0
-0.416890949010849,-1.1692214012145996,0.0864471718668937,-22.684715270996094,0.795024573802948,70.32852935791016,35.97,0
-0.4018831849098205,-1.063814401626587,0.0442812703549861,-21.1675968170166,0.7949301600456238,70.32905578613281,35.97,0
-0.369860976934433,-0.9849746823310852,0.0228193961083889,-17.71843719482422,0.7948695421218872,70.32939147949219,35.97,0
-0.3101265430450439,-0.9399776458740234,0.0258397236466407,-14.849353790283203,0.7957488894462585,70.3296127319336,35.97,0
-0.2773902118206024,-0.9111011624336244,0.0221802219748497,-13.086957931518556,0.7963131666183472,70.32975006103516,35.97,0
-0.2731752395629883,-0.9093632102012634,0.0086362157016992,-11.780407905578612,0.7966753244400024,70.32984161376953,35.97,0
-0.2648725211620331,-0.9418345093727112,-5.554828385356814e-05,-10.608759880065918,0.7969077229499817,70.32990264892578,35.97,0
-0.2483487725257873,-0.9570749402046204,-0.0168289709836244,-9.448450088500977,0.7970568537712097,70.32994079589844,35.97,0
-0.2209514677524566,-0.9668554067611694,-0.0331909619271755,-7.6971259117126465,0.797152578830719,70.32996368408203,35.97,0
-0.203369453549385,-0.984327495098114,-0.0324955992400646,-4.581314563751221,0.7972139716148376,70.3299789428711,35.97,0
-0.2144774198532104,-1.0067355632781982,-0.0152560304850339,0.0156007371842861,0.7972533702850342,70.32998657226562,35.97,0
-0.2439969778060913,-1.015518069267273,0.0126006556674838,5.4734392166137695,0.7945243716239929,70.32999420166016,35.97,0
-0.2573431432247162,-1.0267518758773804,0.0248796977102756,11.018033981323242,0.7927730679512024,70.32999420166016,35.97,0
-0.2603101730346679,-1.0563522577285769,0.0215641316026449,16.625469207763672,0.7916492223739624,70.32999420166016,35.97,0
-0.2622142434120178,-1.0753480195999146,0.0194363929331302,23.276351928710938,0.7909279465675354,70.32999420166016,35.97,0
-0.2858272790908813,-1.0595495700836182,0.0348642542958259,31.474592208862305,0.7904651165008545,70.32999420166016,35.97,0
-0.317774087190628,-0.9878355264663696,0.0671560689806938,39.20414352416992,0.7901681065559387,70.32999420166016,35.97,0
-0.3438734710216522,-0.9642046689987184,0.1382590681314468,42.57744598388672,0.789977490901947,70.32999420166016,35.97,0
-0.327035903930664,-0.9882241487503052,0.3070399165153503,39.443607330322266,0.7898551821708679,70.32999420166016,35.97,0
-0.2882416546344757,-1.009236216545105,0.3705715537071228,31.840089797973636,0.7902355790138245,70.46613311767578,35.97,0
-0.3920945525169372,-1.061905026435852,0.3609625399112701,24.119606018066406,0.7904797196388245,70.55349731445312,35.97,0
-0.4195569455623626,-1.028531551361084,0.410773754119873,18.9178466796875,0.7906363606452942,70.60956573486328,35.97,0
-0.3979963064193725,-0.9847232699394226,0.4371419548988342,15.576075553894045,0.7907369136810303,70.64554595947266,35.97,0
-0.3729643821716308,-0.9566096067428588,0.4092813432216644,12.163287162780762,0.7908014059066772,70.66864013671875,35.97,0
-0.3680958747863769,-0.9273723363876344,0.3690109252929687,7.9776611328125,0.7908428311347961,70.68345642089844,35.97,0
-0.3649715483188629,-0.8918161988258362,0.3151788115501404,3.7474772930145264,0.790869414806366,70.69296264648438,35.97,0
-0.3461732268333435,-0.8522050380706787,0.2526435852050781,0.1837183088064193,0.7908864617347717,70.69906616210938,35.97,0
-0.3229140043258667,-0.8211870789527893,0.2069143056869506,-2.823395013809204,0.7931927442550659,70.7029800415039,35.97,0
-0.2911942303180694,-0.7900859713554382,0.1719701141119003,-5.587927341461182,0.7946727871894836,70.70549774169922,35.97,0
-0.2596427500247955,-0.7645293474197388,0.1439471691846847,-7.809866905212402,0.7956225872039795,70.70710754394531,35.97,0
-0.2449926137924194,-0.7593240737915039,0.1259636580944061,-8.93842601776123,0.7962321043014526,70.70814514160156,35.97,0
-0.2971665263175964,-0.8063636422157288,0.1312161982059478,-9.279335021972656,0.7966232895851135,70.70880889892578,35.97,0
-0.3530398309230804,-0.8421486616134644,0.1401847451925277,-10.103565216064451,0.7968743443489075,70.70923614501953,35.97,0
-0.4224827587604522,-0.8875045776367188,0.1459402441978454,-12.409466743469238,0.7970354557037354,70.70951080322266,35.97,0
-0.4894383251667022,-0.9837846755981444,0.1440360248088836,-16.08896255493164,0.7971388101577759,70.70968627929688,35.97,0
-0.5436021089553833,-1.112744927406311,0.1316184550523758,-20.07315826416016,0.7939919233322144,70.70980072021484,35.97,0
-0.5223835706710815,-1.0835487842559814,0.1460406631231308,-22.54042053222656,0.7919724583625793,70.70986938476562,35.97,0
-0.486375629901886,-1.0088346004486084,0.1552960127592086,-21.52640151977539,0.790676474571228,70.70991516113281,35.97,0
-0.4856588840484619,-1.0336583852767944,0.1500400155782699,-16.626728057861328,0.789844810962677,70.70994567871094,35.97,0
-0.5019922256469727,-1.083175539970398,0.141069233417511,-9.953561782836914,0.7893110513687134,70.70996856689453,35.97,0
-0.5180718302726746,-1.1037572622299194,0.124116763472557,-4.463779926300049,0.788968563079834,70.70997619628906,35.97,0
-0.472413033246994,-1.0665854215621948,0.1020420938730239,-1.578452467918396,0.7887487411499023,70.7099838256836,35.97,0
-0.4151229858398437,-1.02593731880188,0.0878758430480957,-0.8409963250160217,0.788607656955719,70.70999145507812,35.97,0
-0.3447708785533905,-0.9830584526062012,0.084382526576519,-1.055593967437744,0.7885171175003052,70.70999145507812,35.97,0
-0.294025182723999,-0.949943482875824,0.0821407213807106,-1.2219709157943726,0.788459062576294,70.70999145507812,35.97,0
-0.2558617293834686,-0.9342899918556212,0.0807020589709281,-0.9382413625717164,0.7884217500686646,70.70999145507812,35.97,0
-0.2369683980941772,-0.9410377740859984,0.0685832574963569,-0.2868426442146301,0.7883978486061096,70.70999145507812,35.97,0
-0.219245970249176,-0.9565636515617372,0.0496105626225471,0.750973105430603,0.7883824706077576,70.70999145507812,35.97,0
-0.1910794079303741,-0.9833205938339232,0.0430327504873275,2.409357070922852,0.7883726358413696,70.70999145507812,35.97,0
-0.1506126374006271,-0.9725027680397034,0.0276159420609474,4.43732500076294,0.7883663177490234,70.70999145507812,35.97,0
-0.1302411705255508,-0.987951636314392,0.0121245477348566,6.028946876525879,0.7883622646331787,70.70999145507812,35.97,0
-0.1395590305328369,-1.0258547067642212,0.0077808368951082,6.881977081298828,0.7874414324760437,70.81388854980469,35.97,0
-0.1679297983646392,-1.0501787662506104,0.0049932934343814,7.844981670379639,0.7868505120277405,70.88056182861328,35.97,0
-0.2253209352493286,-1.0993751287460327,-0.0079911407083272,10.268600463867188,0.7864713072776794,70.92335510253906,35.97,0
-0.2677490413188934,-1.114153265953064,-0.0219215769320726,14.664922714233398,0.7862279415130615,70.95081329345703,35.97,0
-0.3173680603504181,-1.045268177986145,-0.0084702325984835,19.750415802001957,0.78607177734375,70.96843719482422,35.97,0
-0.3436129093170166,-0.9786705374717712,0.0113576157018542,23.19312286376953,0.7859715223312378,70.97974395751953,35.97,0
-0.3548575639724731,-0.9639208912849426,0.029679762199521,23.761632919311523,0.7859072089195251,70.98699951171875,35.97,0
-0.3452804088592529,-0.999237596988678,0.0582311861217021,21.94468307495117,0.7858659029006958,70.99165344238281,35.97,0
-0.3335365653038025,-1.0219018459320068,0.0877493917942047,18.174135208129883,0.7844622731208801,70.99464416503906,35.97,0
-0.2980111837387085,-1.0084575414657593,0.0954969301819801,12.232743263244627,0.7835615277290344,70.9965591430664,35.97,0
-0.2640174925327301,-0.955047607421875,0.1116643995046615,4.934053897857666,0.7829834818840027,70.99779510498047,35.97,0
-0.180626779794693,-0.9151744246482848,0.1724197268486023,-1.5948513746261597,0.7826125025749207,70.99858856201172,35.97,0
-0.1998824924230575,-0.9231727123260498,0.2393978685140609,-5.942359924316406,0.7823744416236877,70.99909210205078,35.97,0
-0.374575138092041,-0.9227077960968018,0.2264028340578079,-8.27735424041748,0.7822216749191284,70.99942016601562,35.97,0
-0.5090739130973816,-0.9224094152450562,0.206867828965187,-9.044973373413086,0.7821236252784729,70.99962615966797,35.97,0
-0.5729964375495911,-0.911022424697876,0.1719402819871902,-8.337424278259277,0.7820606827735901,70.99976348876953,35.97,0
-0.6028226613998413,-0.9149104356765748,0.1495257914066314,-6.790674209594727,0.782938539981842,70.99984741210938,35.97,0
-0.6107678413391113,-0.9341988563537598,0.1183481439948082,-5.733572959899902,0.783501923084259,70.9999008178711,35.97,0
-0.520704448223114,-0.9353815317153932,0.1543178707361221,-5.965160369873047,0.7838634252548218,70.99993896484375,35.97,0
-0.4237225353717804,-0.9137493968009948,0.1997922658920288,-7.256621360778809,0.7840954065322876,70.99996185302734,35.97,0
-0.3111051619052887,-0.8270960450172424,0.2625617682933807,-9.084945678710938,0.7842442989349365,70.9999771118164,35.97,0
-0.2668226659297943,-0.7546936273574829,0.2972458302974701,-10.802809715270996,0.7843398451805115,70.99998474121094,35.97,0
-0.3055780231952667,-0.7250232100486755,0.3139063119888305,-11.40367603302002,0.7844011783599854,70.99999237060547,35.97,0
-0.4088178277015686,-0.7451668977737427,0.3190002739429474,-10.406402587890623,0.7844405174255371,70.99999237060547,35.97,0
-0.5198533535003662,-0.8028761148452759,0.2942804098129272,-8.659394264221191,0.7840064764022827,70.99999237060547,35.97,0
-0.7198584079742432,-0.8902905583381653,0.144070029258728,-7.3340582847595215,0.7837279438972473,70.99999237060547,35.97,0
-0.8370145559310913,-0.9463881254196168,0.0308803338557481,-6.565933227539063,0.7835491895675659,70.99999237060547,35.97,0
-0.8394275903701782,-0.999181628227234,-0.0249649733304977,-5.553521156311035,0.7834344506263733,70.99999237060547,35.97,0
-0.7626072764396667,-1.021865963935852,-0.0272166319191455,-3.707233190536499,0.7833608388900757,70.99999237060547,35.97,0
-0.6293418407440186,-1.0140323638916016,0.0385116748511791,-1.5085229873657229,0.7833136320114136,70.99999237060547,35.97,0
-0.4990375339984894,-0.9362341165542604,0.1310722976922989,-0.3053067624568939,0.7832832932472229,70.99999237060547,35.97,0
-0.4266112744808197,-0.8583188056945801,0.1960701495409011,-1.113067626953125,0.7832638621330261,70.99999237060547,35.97,0
-0.4137189090251922,-0.7691327929496765,0.2433798015117645,-3.626936674118042,0.7855467200279236,71.07881164550781,35.97,0
-0.411043107509613,-0.6951050162315369,0.2401537597179412,-6.526337623596191,0.7870117425918579,71.12939453125,35.97,0
-0.4093259274959564,-0.6531960368156433,0.2156923711299896,-8.619874000549316,0.7879518866539001,71.16185760498047,35.97,0
-0.3858328461647033,-0.6486923694610596,0.166407823562622,-9.619457244873049,0.7885552644729614,71.18268585205078,35.97,0
-0.3539630174636841,-0.6569977402687073,0.1291820555925369,-10.071056365966797,0.7889424562454224,71.19605255126953,35.97,0
-0.2999241650104522,-0.6679254174232483,0.1052927076816558,-10.783610343933104,0.789190948009491,71.20463562011719,35.97,0
-0.2708429098129272,-0.7085248231887817,0.1011574417352676,-11.817681312561035,0.7893503904342651,71.21014404296875,35.97,0
-0.2857668697834015,-0.7849591374397278,0.1041014418005943,-11.617887496948242,0.7894527316093445,71.21367645263672,35.97,0
-0.4184952676296234,-0.9347702264785768,0.1115885078907013,-7.917843818664551,0.7872230410575867,71.2159423828125,35.97,0
-0.5316615700721741,-1.0309103727340698,0.0884044021368026,-0.0190370064228773,0.7857921719551086,71.21739959716797,35.97,0
-0.5315141081809998,-1.1765742301940918,0.0511350817978382,10.173046112060549,0.784873902797699,71.21833038330078,35.97,0
-0.4586484134197235,-1.2924439907073977,0.0496088750660419,19.32901763916016,0.7842845916748047,71.21892547607422,35.97,0
-0.3783007562160492,-1.2436515092849731,0.0654227659106254,24.63158226013184,0.7839064002037048,71.21931457519531,35.97,0
-0.2371738702058792,-1.1451659202575684,0.075571209192276,25.121828079223636,0.7836636900901794,71.21955871582031,35.97,0
-0.1410089880228042,-1.1267458200454712,0.0820838958024978,21.932680130004883,0.7835079431533813,71.21971893310547,35.97,0
-0.0848936736583709,-1.098131537437439,0.1198500096797943,17.242128372192383,0.783407986164093,71.21981811523438,35.97,0
-0.1216531693935394,-1.0293885469436646,0.1272928118705749,12.970935821533203,0.7833438515663147,71.21988677978516,35.97,0
-0.1844277083873748,-0.962882161140442,0.1152758449316024,10.448467254638672,0.7833027243614197,71.21992492675781,35.97,0
-0.2750927805900574,-0.9034088253974916,0.0795751735568046,10.406025886535645,0.7832763195037842,71.21995544433594,35.97,0
-0.3444719314575195,-0.8596445322036743,0.051066767424345,12.38144874572754,0.783259391784668,71.219970703125,35.97,0
-0.388995498418808,-0.8371568918228149,0.0551628097891807,14.75259494781494,0.7832484841346741,71.21997833251953,35.97,0
-0.3839814960956573,-0.8563122749328613,0.074584737420082,16.306503295898438,0.7832415103912354,71.21998596191406,35.97,0
-0.3639704883098602,-0.8742028474807739,0.098244160413742,17.206981658935547,0.7832370400428772,71.2199935913086,35.97,0
-0.3567263484001159,-0.8800861835479736,0.1414162814617157,17.405105590820312,0.783234179019928,71.2199935913086,35.97,0
-0.3464797139167785,-0.8782640099525452,0.180317223072052,15.067437171936035,0.785986602306366,71.2199935913086,35.97,0
-0.3399040102958679,-0.893887996673584,0.210879385471344,8.017847061157227,0.7877529263496399,71.2199935913086,35.97,0
-0.3636729717254638,-0.9375011920928956,0.2472857385873794,-3.28799057006836,0.7888864874839783,71.2199935913086,35.97,0
-0.3733287453651428,-0.9878807067871094,0.2818447947502136,-14.878342628479004,0.7896139025688171,71.2199935913086,35.97,0
-0.4075141251087188,-1.126569151878357,0.3376094400882721,-21.62850952148437,0.790080726146698,71.2199935913086,35.97,0
-0.4574412107467651,-1.2379624843597412,0.3957870900630951,-20.844459533691406,0.7903802990913391,71.2199935913086,35.97,0
-0.461492657661438,-1.2422749996185305,0.3883399665355682,-13.78877067565918,0.7905725836753845,71.2199935913086,35.97,0
-0.3465393781661987,-1.2506402730941772,0.3611697256565094,-4.474514007568359,0.7906959652900696,71.2199935913086,35.97,0
-0.2111934721469879,-1.2728019952774048,0.3437334299087524,2.4629693031311035,0.7903162240982056,71.35613250732422,35.97,0
-0.1299340426921844,-1.2814263105392456,0.3269460499286651,4.0776472091674805,0.7900725603103638,71.44349670410156,35.97,0
-0.1393619328737259,-1.292558670043945,0.3217706382274627,1.1264479160308838,0.7899161577224731,71.49956512451172,35.97,0
-0.2013899534940719,-1.243725061416626,0.3240471482276916,-2.852520704269409,0.7898157835006714,71.5355453491211,35.97,0
-0.2411959618330001,-1.1620064973831177,0.3255080580711365,-5.198204517364502,0.7897513508796692,71.55863952636719,35.97,0
-0.2667411863803863,-1.0927709341049194,0.3208478093147278,-5.947606086730957,0.7897100448608398,71.57345581054688,35.97,0
-0.2439502030611038,-1.0707305669784546,0.3122593760490417,-6.077436447143555,0.7896835207939148,71.58296203613281,35.97,0
-0.2181287109851837,-1.0509885549545288,0.2787589430809021,-5.813244342803955,0.789666473865509,71.58906555175781,35.97,0
-0.1847646534442901,-1.0215259790420532,0.2012825459241867,-5.206626892089844,0.79057377576828,71.59297943115234,35.97,0
-0.1633535176515579,-0.9690319299697876,0.117976002395153,-4.623875617980957,0.7911560535430908,71.59549713134766,35.97,0
-0.149613082408905,-0.9017576575279236,0.06451465934515,-3.834320545196533,0.7915297150611877,71.59710693359375,35.97,0
-0.1351974904537201,-0.7858138084411621,0.0414017960429191,-1.82294762134552,0.7917695045471191,71.59814453125,35.97,0
-0.1259463876485824,-0.6890166401863098,0.0377648398280143,1.7069451808929443,0.7919234037399292,71.59880828857422,35.97,0
-0.1368028819561004,-0.615702211856842,0.0354308485984802,5.584386348724365,0.792022168636322,71.59923553466797,35.97,0
-0.1269766390323639,-0.6022399067878723,0.0339330285787582,7.972393035888672,0.7920855283737183,71.5995101928711,35.97,0
-0.1318662613630294,-0.6103938817977905,0.0329718142747879,7.319507122039795,0.7921261787414551,71.59968566894531,35.97,0
-0.2189707607030868,-0.7051910161972046,0.0211594123393297,3.5651443004608154,0.7916929721832275,71.59980010986328,35.97,0
-0.2972605228424072,-0.861188530921936,0.0303722154349088,-0.9829872846603394,0.7914149761199951,71.59986877441406,35.97,0
-0.3475023806095123,-1.2635785341262815,0.0530777871608734,-3.607945203781128,0.7912365794181824,71.59991455078125,35.97,0
-0.4413202404975891,-1.482624888420105,0.0508555918931961,-4.232049465179443,0.7911220788955688,71.59994506835938,35.97,0
-0.5798959732055664,-1.4216763973236084,0.0326361916959285,-4.679137229919434,0.7910485863685608,71.59996795654297,35.97,0
-0.5512726306915283,-1.265009880065918,0.1217039674520492,-5.65390682220459,0.7910014390945435,71.5999755859375,35.97,0
-0.4041550159454345,-1.2148503065109253,0.223644733428955,-6.476499557495117,0.7909711599349976,71.59998321533203,35.97,0
-0.2705589830875397,-1.1602696180343628,0.2890644371509552,-6.699873447418213,0.7909517288208008,71.59999084472656,35.97,0
-0.1344447582960128,-1.035678505897522,0.2414826601743698,-6.270009517669678,0.7900214195251465,71.59999084472656,35.97,0
-0.1030722334980964,-0.9613208770751952,0.1717629879713058,-5.17732048034668,0.7894244194030762,71.59999084472656,35.97,0
-0.155710220336914,-0.9192002415657043,0.0710431709885597,-3.888553142547608,0.78904128074646,71.59999084472656,35.97,0
-0.2118813395500183,-0.8865718245506287,-0.015984097495675,-3.2334601879119877,0.7887954115867615,71.59999084472656,35.97,0
-0.2703198194503784,-0.8432416915893555,-0.0942242890596389,-3.3253674507141118,0.788637638092041,71.59999084472656,35.97,0
-0.352604478597641,-0.8322282433509827,-0.1108476966619491,-3.502573251724243,0.7885363698005676,71.59999084472656,35.97,0
-0.43899667263031,-0.8307582139968872,-0.1047223210334777,-3.691527843475342,0.7884714007377625,71.59999084472656,35.97,0
-0.53922039270401,-0.8745970129966736,-0.0392158851027488,-4.840987205505371,0.7884296774864197,71.59999084472656,35.97,0
-0.6035382151603699,-0.9083280563354492,0.0364090241491794,-7.301863193511963,0.7884029150009155,71.87226867675781,35.97,0
-0.6392159461975098,-0.924376904964447,0.1465162485837936,-9.561800956726074,0.7883857488632202,72.04700469970703,35.97,0
-0.572547435760498,-1.0130449533462524,0.2451656013727188,-9.718789100646973,0.7883747220039368,72.15914154052734,35.97,0
-0.4513946175575256,-1.1371203660964966,0.3084730803966522,-7.884943962097168,0.7883676290512085,72.2311019897461,35.97,0
-0.412830114364624,-1.1551692485809326,0.3882845938205719,-6.410734176635742,0.7883630990982056,72.27728271484375,35.97,0
-0.5056349039077759,-1.0491987466812134,0.4339052438735962,-7.693033218383789,0.7883601784706116,72.30691528320312,35.97,0
-0.5707894563674927,-0.9867907166481018,0.4967686235904693,-12.005367279052734,0.7883583307266235,72.32593536376953,35.97,0
-0.6126018762588501,-1.0530985593795776,0.5595018267631531,-17.434629440307617,0.788357138633728,72.33814239501953,35.97,0
-0.6338369250297546,-1.1236399412155151,0.5549781918525696,-21.466951370239254,0.7842249274253845,72.3459701538086,35.95,0
-0.6082799434661865,-1.1801049709320068,0.4960974156856537,-22.661041259765625,0.7815731167793274,72.35099792480469,35.95,0
-0.5694878101348877,-1.1995476484298706,0.4583111107349396,-21.0341796875,0.7798713445663452,72.3542251586914,35.95,0
-0.4886155426502228,-1.1952314376831057,0.4452576041221618,-17.46085548400879,0.7787792682647705,72.35629272460938,35.95,0
-0.4143252670764923,-1.142081618309021,0.4032939672470093,-12.72080135345459,0.7780784368515015,72.35762023925781,35.95,0
-0.3666500449180603,-1.0911798477172852,0.3651685714721679,-7.317990303039551,0.7776286602020264,72.35847473144531,35.95,0
-0.3360548317432403,-1.0641117095947266,0.3407018780708313,-1.7800482511520386,0.7773399949073792,72.35902404785156,35.95,0
-0.3108228147029876,-1.0411431789398191,0.3194027841091156,3.353800058364868,0.7771547436714172,72.359375,35.95,0
-0.2666414976119995,-1.0040122270584106,0.2889409363269806,7.579877853393555,0.7793309092521667,72.3595962524414,35.95,0
-0.2047018110752105,-0.9130104184150696,0.2470011860132217,10.485390663146973,0.7807274460792542,72.3597412109375,35.95,0
-0.1593547165393829,-0.8154262900352478,0.2144888937473297,11.622718811035156,0.7816236615180969,72.35983276367188,35.95,0
-0.1246557831764221,-0.7024224400520325,0.1768310517072677,11.564423561096191,0.7821987867355347,72.35989379882812,35.95,0
-0.1135835498571395,-0.618707537651062,0.1526644080877304,12.462064743041992,0.7825678586959839,72.35993194580078,35.95,0
-0.1288691312074661,-0.592972993850708,0.1203623265027999,17.136587142944336,0.7828047275543213,72.35995483398438,35.95,0
-0.1498740762472152,-0.6100446581840515,0.0884371623396873,26.75702667236328,0.7829567193984985,72.35997009277344,35.95,0
-0.1801471710205078,-0.6601847410202026,0.067949429154396,40.04944610595703,0.7830542922019958,72.35997772216797,35.95,0
-0.2387591153383255,-0.8267083168029785,0.0603993572294712,54.28680038452149,0.78311687707901,72.3599853515625,35.95,0
-0.2931662201881408,-1.039931297302246,0.0779452547430992,62.8144760131836,0.7831570506095886,72.35999298095703,35.95,0
-0.3336793482303619,-1.3614920377731323,0.0892051979899406,59.86441421508789,0.7831827998161316,72.35999298095703,35.95,0
-0.3428850173950195,-1.3887224197387695,0.1468111425638198,45.29966354370117,0.7831993699073792,72.35999298095703,35.95,0
-0.3319993615150451,-1.3334262371063232,0.189377099275589,22.49668884277344,0.7832099795341492,72.35999298095703,35.95,0
-0.3138180077075958,-1.3819069862365725,0.2726712226867676,-3.2178523540496826,0.7832167744636536,72.35999298095703,35.95,0
-0.2909547090530395,-1.3794325590133667,0.3317223787307739,-25.280122756958008,0.7832211256027222,72.35999298095703,35.95,0
-0.2818801403045654,-1.2882801294326782,0.2856513857841491,-38.44246292114258,0.7832239270210266,72.35999298095703,35.95,0
-0.2928499281406402,-1.1458171606063845,0.2057057172060012,-43.45360565185547,0.7823078632354736,72.56061553955078,35.95,0
-0.2998897135257721,-1.026403784751892,0.1488034129142761,-44.17241287231445,0.7817200422286987,72.68936920166016,35.95,0
-0.3044074475765228,-0.9329777956008912,0.0898956879973411,-43.03587341308594,0.7813428044319153,72.7719955444336,35.95,0
-0.3352955281734466,-0.8786201477050781,0.063287653028965,-40.47222900390625,0.7811006903648376,72.82501983642578,35.95,0
-0.4054976999759674,-0.8381387591362,0.0630054697394371,-36.8315315246582,0.7809453010559082,72.85904693603516,35.95,0
-0.4897338449954986,-0.8345512747764587,0.0852154791355133,-32.34201431274414,0.780845582485199,72.8808822631836,35.95,0
-0.560585081577301,-0.8322489857673645,0.1330552250146865,-27.04624557495117,0.780781626701355,72.8948974609375,35.95,0
-0.6004555225372314,-0.8307715654373169,0.2029404491186142,-21.616405487060547,0.7807405591011047,72.90389251708984,35.95,0
-0.6036509871482849,-0.8298234343528748,0.2421909868717193,-17.644617080688477,0.7811731100082397,72.90966033935547,35.93,0
-0.5777127742767334,-0.8292149305343628,0.2729775011539459,-15.962735176086426,0.7814506888389587,72.91336059570312,35.93,0
-0.5106871724128723,-0.8568133115768433,0.2927345037460327,-14.95505142211914,0.7816288471221924,72.91574096679688,35.93,0
-0.4676739871501922,-0.8969154953956604,0.3054134249687195,-12.861017227172852,0.7817431688308716,72.91726684570312,35.93,0
-0.52403724193573,-1.0010195970535278,0.3471366763114929,-10.918896675109863,0.7818165421485901,72.91824340820312,35.93,0
-0.6161856651306152,-1.0958164930343628,0.3795100152492523,-11.725371360778809,0.7818636298179626,72.91886901855469,35.93,0
-0.6809189915657043,-1.1678472757339478,0.3834920525550842,-14.865365982055664,0.7818938493728638,72.91927337646484,35.93,0
-0.6161034107208252,-1.1972790956497192,0.3468630611896515,-17.28526496887207,0.7819132208824158,72.9195327758789,35.93,0
-0.5465196371078491,-1.2217645645141602,0.3009655773639679,-16.79973030090332,0.7810074687004089,72.9197006225586,35.93,0
-0.4794736504554748,-1.265466809272766,0.2099357098340988,-13.07036590576172,0.7804262042045593,72.91980743408203,35.93,0
-0.4140563011169433,-1.3215012550354004,0.1347246617078781,-6.883126258850098,0.7800531983375549,72.91987609863281,35.93,0
-0.3328907787799835,-1.379852056503296,0.1424362808465957,-0.010626146569848,0.779813826084137,72.919921875,35.93,0
-0.2304234653711319,-1.3613204956054688,0.1977651268243789,5.710971355438232,0.779660165309906,72.91995239257812,35.93,0
-0.1590680629014969,-1.3046457767486572,0.233271986246109,10.016879081726074,0.7795615792274475,72.91996765136719,35.93,0
-0.1244718208909034,-1.2346885204315186,0.2336671501398086,13.765371322631836,0.779498279094696,72.91997528076172,35.93,0
-0.1022699475288391,-1.173000693321228,0.2115296423435211,16.76564598083496,0.779457688331604,72.91998291015625,35.93,0
-0.1104131639003753,-1.1166197061538696,0.1525408774614334,17.39415740966797,0.7789727449417114,72.91999053955078,35.93,0
-0.1436278820037841,-1.069242000579834,0.086696408689022,15.013837814331056,0.7786614894866943,72.91999053955078,35.93,0
-0.1705409437417984,-1.0332399606704712,0.0444412156939506,11.795310020446776,0.778461754322052,72.91999053955078,35.93,0
-0.1990077495574951,-0.970951497554779,0.0173242650926113,11.094805717468262,0.7783336043357849,72.91999053955078,35.93,0
-0.2004827857017517,-0.9085872769355774,0.011117716319859,14.575346946716309,0.7782513499259949,72.91999053955078,35.93,0
-0.1790382862091064,-0.8237833380699158,0.0183302592486143,21.831729888916016,0.7781985402107239,72.91999053955078,35.93,0
-0.1540808826684951,-0.7581654787063599,0.0453499518334865,32.202667236328125,0.7781646847724915,72.91999053955078,35.93,0
-0.1324668824672699,-0.716055691242218,0.0794829577207565,45.54680633544922,0.7781429290771484,72.91999053955078,35.93,0
-0.1353895962238311,-0.6946298480033875,0.1125831082463264,60.76673126220703,0.7772107720375061,73.1421127319336,35.93,0
-0.1540585458278656,-0.7144666314125061,0.1450204253196716,74.04134368896484,0.7766125798225403,73.28466033935547,35.93,0
-0.2052236199378967,-0.805565595626831,0.1826301515102386,79.46129608154297,0.776228666305542,73.37613677978516,35.93,0
-0.2996339499950409,-0.903212070465088,0.2347547858953476,73.08384704589844,0.7759823203086853,73.43484497070312,35.93,0
-0.3826121389865875,-0.9266915321350098,0.2794009149074554,56.624114990234375,0.7758241891860962,73.47251892089844,35.93,0
-0.4190694391727447,-0.9809437394142152,0.2968567013740539,35.98700714111328,0.7757227420806885,73.49669647216797,35.93,0
-0.4592589735984802,-1.110921859741211,0.3640365600585937,16.60276222229004,0.7756576538085938,73.51220703125,35.93,0
-0.4234747886657715,-1.2391165494918823,0.4407353699207306,1.2432701587677002,0.7756158709526062,73.52216339111328,35.93,0
-0.3669238984584808,-1.1926356554031372,0.5123473405838013,-9.229769706726074,0.7778843641281128,73.52855682373047,35.99,0
-0.353023886680603,-1.1124268770217896,0.4743371605873108,-15.43129062652588,0.7793402075767517,73.53265380859375,35.99,0
-0.3273103535175323,-1.0385624170303345,0.4331510961055755,-19.253437042236328,0.7802744507789612,73.53528594970703,35.99,0
-0.3108088970184326,-0.9855627417564392,0.4235135614871979,-22.24724006652832,0.7808740139007568,73.53697204589844,35.99,0
-0.3785880506038666,-0.9627461433410645,0.3893398940563202,-24.114749908447266,0.781258761882782,73.53805541992188,35.99,0
-0.5172469615936279,-0.9481037259101868,0.3058336675167084,-23.47176742553711,0.7815057039260864,73.53874969482422,35.99,0
-0.63981693983078,-0.944304883480072,0.229853093624115,-19.791828155517575,0.7816641330718994,73.53919982910156,35.99,0
-0.6904864311218262,-0.930671453475952,0.1922886818647384,-14.399396896362305,0.7817658185958862,73.53948974609375,35.99,0
-0.7062098383903503,-0.9219222664833068,0.1849753260612487,-10.1112699508667,0.7813721895217896,73.5396728515625,35.99,0
-0.6883113384246826,-0.9275031089782716,0.2138686776161193,-9.688071250915527,0.7811195254325867,73.53978729248047,35.99,0
-0.6152495741844177,-0.9254868030548096,0.2380085438489914,-13.593770027160645,0.7809574007987976,73.53986358642578,35.99,0
-0.5403739213943481,-0.9241928458213806,0.2423045784235,-19.48575782775879,0.7808533906936646,73.53990936279297,35.99,0
-0.4587363600730896,-0.973742425441742,0.2170726507902145,-24.60677719116211,0.7807866334915161,73.5399398803711,35.99,0
-0.4175416231155395,-1.044724941253662,0.2008802443742752,-27.78567695617676,0.7807437777519226,73.53996276855469,35.99,0
-0.4470829665660858,-1.1574506759643557,0.1904888898134231,-29.03396224975586,0.7807163000106812,73.53997802734375,35.99,0
-0.4604431092739105,-1.173813819885254,0.1894180923700332,-29.046873092651367,0.7806986570358276,73.53998565673828,35.99,0
-0.4410280287265777,-1.1507281064987185,0.1775353699922561,-29.176965713500977,0.7779330611228943,73.53999328613281,35.99,0
-0.4061774313449859,-1.2198796272277832,0.1419208496809005,-30.20266914367676,0.7761582136154175,73.53999328613281,35.99,0
-0.3838123381137848,-1.2978438138961792,0.1302610486745834,-31.42337226867676,0.7750192284584045,73.53999328613281,35.99,0
-0.3750574886798858,-1.3254855871200562,0.111582912504673,-31.95238494873047,0.7742882966995239,73.53999328613281,35.99,0
-0.3470480144023895,-1.2872467041015625,0.0660097151994705,-32.07691955566406,0.7738192677497864,73.53999328613281,35.99,0
-0.3122798204421997,-1.2235227823257446,0.03116568736732,-32.70855712890625,0.7735182642936707,73.53999328613281,35.99,0
-0.2619787454605102,-1.1434440612792969,0.0088047944009304,-34.12419128417969,0.7733250856399536,73.53999328613281,35.99,0
-0.2241006195545196,-1.0920541286468506,-0.0055451383814215,-35.11864471435547,0.7732011079788208,73.53999328613281,35.99,0
-0.2053903937339782,-1.0534772872924805,-0.0147540988400578,-33.35292053222656,0.7722033262252808,73.60089874267578,35.99,0
-0.1989810317754745,-1.011927604675293,-0.0318594276905059,-27.40479850769043,0.7715629935264587,73.63998413085938,35.99,0
-0.1892700940370559,-0.9796655774116516,-0.0372388698160648,-18.32483291625977,0.7711520791053772,73.66506958007812,35.99,0
-0.1886359453201294,-0.947766125202179,-0.0406910851597785,-8.488930702209473,0.7708883881568909,73.68116760253906,35.99,0
-0.1882289797067642,-0.9216971397399902,-0.0429065190255641,0.4993689060211181,0.7707191705703735,73.69149780273438,35.99,0
-0.1991633623838424,-0.9329563975334167,-0.0275349337607622,8.237958908081055,0.7706105709075928,73.69812774658203,35.99,0
-0.2285715192556381,-0.9513775110244752,0.0159163102507591,14.877202987670898,0.7705408930778503,73.70237731933594,35.99,0
-0.2586395442485809,-0.952003538608551,0.0605941414833068,20.893348693847656,0.770496129989624,73.70510864257812,35.99,0
-0.3115220963954925,-0.9691986441612244,0.1340479999780655,27.30496025085449,0.7723035216331482,73.70686340332031,35.97,0
-0.3454590737819671,-0.974635660648346,0.2203708738088607,35.36039733886719,0.7734633684158325,73.7079849243164,35.97,0
-0.3056623637676239,-0.9221470952033995,0.2981590330600738,44.983055114746094,0.7742077112197876,73.70870971679688,35.97,0
-0.2913186848163605,-0.8548763394355774,0.3928611874580383,53.53715133666992,0.7746853828430176,73.70917510986328,35.97,0
-0.3212981522083282,-0.8117058277130127,0.4648311138153076,57.16732025146485,0.7749919295310974,73.70947265625,35.97,0
-0.3741239011287689,-0.8175880908966064,0.494223952293396,53.76841735839844,0.7751886248588562,73.70966339111328,35.97,0
-0.335253357887268,-0.8493518829345703,0.5410754680633545,44.43279266357422,0.7753148674964905,73.70978546142578,35.97,0
-0.2767218351364136,-0.8641383051872253,0.5879353880882263,32.24028778076172,0.7753958702087402,73.7098617553711,35.97,0
-0.2167685627937317,-0.8456385135650635,0.6348007321357727,19.826560974121094,0.7749889492988586,73.70990753173828,35.97,0
-0.1838917881250381,-0.8281686305999756,0.6480828523635864,8.127099990844727,0.7747278213500977,73.7099380493164,35.97,0
-0.196380004286766,-0.8449463248252869,0.6118243932723999,-2.6876566410064697,0.7745602130889893,73.7099609375,35.97,0
-0.2659697532653808,-0.8892999291419983,0.5661646723747253,-11.637770652770996,0.7744526267051697,73.70997619628906,35.97,0
-0.3386173248291015,-0.9289590716362,0.5200695991516113,-16.955110549926758,0.7743836045265198,73.7099838256836,35.97,0
-0.4300205409526825,-0.943214476108551,0.4457062184810638,-17.719951629638672,0.7743393182754517,73.70999145507812,35.97,0
-0.4886778593063354,-0.9411672353744508,0.3811907470226288,-15.140514373779297,0.7743108868598938,73.70999145507812,35.97,0
-0.5039296746253967,-0.9174623489379884,0.3397884368896484,-11.96258544921875,0.7742926478385925,73.70999145507812,35.97,0
-0.4913263022899627,-0.896652102470398,0.318816602230072,-10.310091972351074,0.7742809653282166,73.70999145507812,35.97,0
-0.4272604286670685,-0.883297324180603,0.3053580820560455,-10.39962387084961,0.7742734551429749,73.70999145507812,35.97,0
-0.3469622135162353,-0.8915203213691711,0.2911233901977539,-11.367053985595703,0.774268627166748,73.70999145507812,35.97,0
-0.289833664894104,-0.8967973589897156,0.2875861823558807,-12.503786087036133,0.7742655277252197,73.70999145507812,35.97,0
-0.2699651718139648,-0.9001838564872742,0.2741206586360931,-13.466142654418944,0.7742635607719421,73.70999145507812,35.97,0
-0.2684102654457092,-0.9303459525108336,0.2542836964130401,-14.123135566711426,0.7742623090744019,73.70999145507812,35.97,0
-0.3177923858165741,-1.0392667055130005,0.2359557002782821,-14.573416709899902,0.774261474609375,73.70999145507812,35.97,0
-0.4166562855243683,-1.1147634983062744,0.2241938561201095,-14.894624710083008,0.774260938167572,73.70999145507812,35.97,0
-0.4801014363765716,-1.124028563499451,0.1998524516820907,-14.778325080871582,0.7756377458572388,73.91061401367188,35.97,0
-0.4816324710845947,-1.0572032928466797,0.1338515728712082,-13.761473655700684,0.7765213251113892,74.03936767578125,35.97,0
-0.449028342962265,-1.1150785684585571,0.0803004577755928,-11.872928619384766,0.7770883440971375,74.12199401855469,35.97,0
-0.4169093668460846,-1.191404104232788,0.0571299865841865,-10.008939743041992,0.7774522304534912,74.17501831054688,35.97,0
-0.3795039355754852,-1.2459831237792969,0.0478582866489887,-9.597323417663574,0.7776857614517212,74.20904541015625,35.97,0
-0.3443037271499634,-1.25301992893219,0.0307126939296722,-11.303587913513184,0.7778356075286865,74.23088073730469,35.97,0
-0.2769320607185364,-1.195960283279419,0.0141118643805384,-13.673967361450195,0.7779317498207092,74.2448959350586,35.97,0
-0.2057079225778579,-1.136951565742493,0.0146539565175771,-13.79793643951416,0.7779934406280518,74.25389099121094,35.97,0
-0.1655981540679931,-1.0878876447677612,0.0150018399581313,-10.094292640686035,0.776655912399292,74.25965881347656,35.97,0
-0.1566513329744339,-1.0508034229278564,0.0152250919491052,-3.6691970825195312,0.7757975459098816,74.26335906982422,35.97,0
-0.1509097814559936,-1.021407127380371,0.0097705880180001,3.610308885574341,0.7752466797828674,74.26573944091797,35.97,0
-0.1528229564428329,-0.996944546699524,-0.0049253473989665,11.251832008361816,0.7748931646347046,74.26726531982422,35.97,0
-0.148452952504158,-0.9756481051445008,-0.0255519021302461,19.4803524017334,0.7746663093566895,74.26824188232422,35.97,0
-0.1512463092803955,-0.9675790071487428,-0.0387888364493846,27.56251716613769,0.774520754814148,74.26886749267578,35.97,0
-0.1866255700588226,-0.9735962748527528,-0.0304902177304029,34.08906936645508,0.7744273543357849,74.26927185058594,35.97,0
-0.2205254882574081,-0.983055591583252,-0.0027735428884625,38.64643859863281,0.7743673920631409,74.26953125,35.97,0
-0.28146493434906,-0.9947238564491272,0.0430022925138473,42.466739654541016,0.7738699913024902,74.26969909667969,35.97,0
-0.3373656868934631,-1.0469940900802612,0.1059652343392372,47.103759765625,0.773550808429718,74.26980590820312,35.97,0
-0.3620440065860748,-1.0693424940109253,0.1631645560264587,51.48031997680664,0.773345947265625,74.2698745727539,35.97,0
-0.349892258644104,-1.0221089124679563,0.2278606593608856,50.70278549194336,0.7732145190238953,74.2699203491211,35.97,0
-0.3364962041378021,-0.9302216172218324,0.2861722111701965,40.6060905456543,0.7731301784515381,74.26995086669922,35.97,0
-0.2775194048881531,-0.8376669883728027,0.3403865396976471,23.515024185180664,0.7730759978294373,74.26996612548828,35.97,0
-0.2004870772361755,-0.8342484831809998,0.3583848476409912,6.27028751373291,0.7730412483215332,74.26997375488281,35.97,0
-0.1566499322652816,-0.8656413555145264,0.3587395846843719,-6.928023815155029,0.7730189561843872,74.26998138427734,35.97,0
-0.1788977533578872,-0.9137763381004332,0.375760555267334,-16.38673210144043,0.7711682319641113,74.26998901367188,35.97,0
-0.2155662178993225,-0.9390688538551332,0.3978791832923889,-22.947599411010746,0.7699805498123169,74.26998901367188,35.97,0
-0.2838801145553589,-0.9385067820549012,0.4288669526576996,-26.004396438598636,0.7692183256149292,74.26998901367188,35.97,0
-0.3389155864715576,-0.921352744102478,0.4655464589595794,-25.16091537475586,0.7687292098999023,74.26998901367188,35.97,0
-0.3574408888816833,-0.8991487622261047,0.4890852570533752,-21.42037773132324,0.7684153318405151,74.26998901367188,35.97,0
-0.3525360226631164,-0.8737039566040039,0.4985933303833008,-16.605260848999023,0.7682138681411743,74.26998901367188,35.97,0
-0.3381928205490112,-0.851777195930481,0.4934995174407959,-12.641047477722168,0.7680845856666565,74.26998901367188,35.97,0
-0.3177926242351532,-0.8433036208152771,0.4678394794464111,-11.247050285339355,0.7680016160011292,74.26998901367188,35.97,0
-0.3047009408473968,-0.8602568507194519,0.4345790445804596,-13.085968017578123,0.7711619138717651,74.642578125,35.97,0
-0.3018972277641296,-0.8823320269584656,0.4076366126537323,-16.95301055908203,0.7731900215148926,74.88168334960938,35.97,0
-0.3168913125991821,-0.8909008502960205,0.3735532164573669,-20.70288848876953,0.774491548538208,75.0351333618164,35.97,0
-0.3265136480331421,-0.8908020257949829,0.3404848873615265,-23.16308212280273,0.7753267884254456,75.13360595703125,35.97,0
-0.3382864892482757,-0.8795430660247803,0.3248613178730011,-24.466035842895508,0.7758628129959106,75.1968002319336,35.97,0
-0.3402438461780548,-0.8443288207054138,0.3148350119590759,-24.786306381225582,0.7762067914009094,75.23735046386719,35.97,0
-0.3359021842479706,-0.8161326050758362,0.2972051501274109,-23.852577209472656,0.7764275670051575,75.26337432861328,35.97,0
-0.3387137353420257,-0.904395580291748,0.2523046731948852,-21.83108139038086,0.7765692472457886,75.28007507324219,35.97,0
-0.3685068786144256,-1.033808708190918,0.2290879040956497,-19.73130416870117,0.7752830386161804,75.2907943725586,35.97,0
-0.4771907925605774,-1.08886981010437,0.2141887247562408,-18.3730411529541,0.7744576334953308,75.29767608642578,35.97,0
-0.4741668105125427,-1.0458359718322754,0.1486495435237884,-17.551542282104492,0.7739279270172119,75.30209350585938,35.97,0
-0.4554328620433807,-1.0462082624435425,0.1065902709960937,-16.669675827026367,0.7735880017280579,75.30492401123047,35.97,0
-0.4602038264274597,-1.0968271493911743,0.107587918639183,-15.333491325378418,0.7733698487281799,75.3067398071289,35.97,0
-0.4744611084461212,-1.1461046934127808,0.1082281544804573,-12.838768005371094,0.7732298374176025,75.30790710449219,35.97,0
-0.4332306385040283,-1.1665326356887815,0.114236794412136,-8.303668975830078,0.7731399536132812,75.30865478515625,35.97,0
-0.3731846511363983,-1.1404577493667605,0.1404838860034942,-2.0041871070861816,0.7730823159217834,75.30913543701172,35.97,0
-0.3178572654724121,-1.10693097114563,0.1573277711868286,4.363549709320068,0.772127091884613,75.30944061279297,35.97,0
-0.2655580043792724,-1.06862211227417,0.1569416522979736,9.245327949523926,0.7715141177177429,75.30963897705078,35.97,0
-0.2319953590631485,-1.044037699699402,0.1510960906744003,12.378172874450684,0.7711207270622253,75.30976867675781,35.97,0
-0.2272501140832901,-1.0338586568832395,0.164138063788414,14.374321937561035,0.7708682417869568,75.30985260009766,35.97,0
-0.2354004383087158,-1.021728515625,0.1669098734855651,15.87028980255127,0.7707062363624573,75.30990600585938,35.97,0
-0.2406308352947235,-0.991553008556366,0.1686886698007583,17.36770248413086,0.770602285861969,75.3099365234375,35.97,0
-0.2215963155031204,-0.9330036640167236,0.1754279732704162,19.478662490844727,0.7705355286598206,75.3099594116211,35.97,0
-0.1869899481534958,-0.8954300880432129,0.1797528713941574,22.886171340942383,0.7704927325248718,75.30997467041016,35.97,0
-0.1591838002204895,-0.8713175058364868,0.1881261169910431,27.98196601867676,0.7709241509437561,75.30998229980469,35.97,0
-0.169328287243843,-0.8614412546157837,0.2158906757831573,34.440643310546875,0.7712010145187378,75.30998992919922,35.97,0
-0.1926317662000656,-0.8551032543182373,0.2449039220809936,40.559452056884766,0.7713786959648132,75.30998992919922,35.97,0
-0.2019888162612915,-0.8846225142478943,0.2635229527950287,43.311065673828125,0.7714927196502686,75.30998992919922,35.97,0
-0.1967980861663818,-0.9203596115112304,0.2586782574653625,40.60942077636719,0.7715659141540527,75.30998992919922,35.97,0
-0.2046625316143036,-1.0216624736785889,0.2331781089305877,33.68092727661133,0.7716128826141357,75.30998992919922,35.97,0
-0.2544916570186615,-1.0474883317947388,0.2448024600744247,25.727277755737305,0.7716430425643921,75.30998992919922,35.97,0
-0.3032624423503876,-1.036073088645935,0.2634578347206116,18.634754180908203,0.7716623544692993,75.30998992919922,35.97,0
-0.3177674114704132,-1.0679317712783811,0.2698320150375366,12.481768608093262,0.7725929617881775,75.6216812133789,35.97,0
-0.3046847581863403,-1.1219635009765625,0.2683248221874237,7.307895660400391,0.7731902003288269,75.82170104980469,35.97,0
-0.251506894826889,-1.1622357368469238,0.267357587814331,3.550527572631836,0.7735734581947327,75.95006561279297,35.97,0
-0.2453692704439163,-1.1153091192245483,0.2723346352577209,1.2288295030593872,0.7738193869590759,76.03244018554688,35.97,0
-0.2470282614231109,-1.0404120683670044,0.2531375288963318,-0.1679556369781494,0.7739772200584412,76.0853042602539,35.97,0
-0.2201040387153625,-0.9643586277961732,0.218426838517189,-1.3007819652557373,0.7740785479545593,76.11923217773438,35.97,0
-0.2028256207704544,-0.9211496710777284,0.1961515098810196,-2.8732526302337646,0.7741435766220093,76.14100646972656,35.97,0
-0.2253239750862121,-0.899018406867981,0.1706609427928924,-5.433629035949707,0.774185299873352,76.15497589111328,35.97,0
-0.2733487784862518,-0.901609182357788,0.1431070119142532,-8.950418472290039,0.7709988355636597,76.1639404296875,35.97,0
-0.3097660839557647,-0.9200651049613952,0.1198267117142677,-12.754963874816896,0.7689539790153503,76.16969299316406,35.97,0
-0.3331366181373596,-0.9263113141059875,0.0936912074685096,-16.142301559448242,0.7676416635513306,76.17338562011719,35.97,0
-0.3537322580814361,-0.9359174966812134,0.0769189447164535,-19.08277130126953,0.7667995095252991,76.1757583618164,35.97,0
-0.3725471496582031,-0.964473307132721,0.0885465741157531,-22.062480926513672,0.7662590742111206,76.17727661132812,35.97,0
-0.3958170115947723,-0.9939943552017212,0.1128018349409103,-24.89899253845215,0.7659122347831726,76.17825317382812,35.97,0
-0.4107502698898315,-1.0185370445251465,0.128367468714714,-26.31447029113769,0.7656896710395813,76.17887878417969,35.97,0
-0.437126874923706,-1.1238515377044678,0.1943343430757522,-25.50320625305176,0.7655468583106995,76.17928314208984,35.97,0
-0.4708471894264221,-1.2026318311691284,0.2758525013923645,-23.6534481048584,0.7636187672615051,76.1795425415039,35.97,0
-0.4812914133071899,-1.1300374269485474,0.3169706165790558,-22.85329818725586,0.7623814344406128,76.17970275878906,35.97,0
-0.3928317427635193,-1.0666571855545044,0.3321623206138611,-23.7405948638916,0.761587381362915,76.1798095703125,35.97,0
-0.2968789935111999,-1.065167784690857,0.3419114649295807,-24.833066940307617,0.7610778212547302,76.17987823486328,35.97,0
-0.2408998161554336,-1.131385326385498,0.3593634665012359,-23.94707298278809,0.7607507705688477,76.17992401123047,35.97,0
-0.1937800496816635,-1.201868772506714,0.3649653792381286,-20.007287979125977,0.7605409026145935,76.1799545288086,35.97,0
-0.1747368574142456,-1.196721076965332,0.3069848418235779,-13.849811553955078,0.7604061961174011,76.17996978759766,35.97,0
-0.2240915447473526,-1.137439846992493,0.2809718251228332,-7.472894191741943,0.7603197693824768,76.17997741699219,35.97,0
-0.2725578546524048,-1.104994297027588,0.3034625947475433,-2.481329679489136,0.7616414427757263,76.17998504638672,35.97,0
-0.2868674397468567,-1.0897704362869265,0.3514825105667114,0.8294467329978943,0.7624896168708801,76.17999267578125,35.97,0
-0.2904527187347412,-1.080000638961792,0.3711033761501312,3.0042684078216557,0.763033926486969,76.17999267578125,35.97,0
-0.264764666557312,-1.0513397455215454,0.3333149552345276,4.364118099212647,0.7633832693099976,76.17999267578125,35.97,0
-0.209095150232315,-0.9601758122444152,0.269880086183548,4.799716949462891,0.7636074423789978,76.17999267578125,35.97,0
-0.162174105644226,-0.8568898439407349,0.2123779207468032,4.595611572265625,0.7637513279914856,76.17999267578125,35.97,0
-0.1320628821849823,-0.7178357839584351,0.1586830168962478,4.754817008972168,0.7638436555862427,76.17999267578125,35.97,0
-0.1183370053768158,-0.6118056178092957,0.1242247223854065,6.0571489334106445,0.7639029026031494,76.17999267578125,35.97,0
-0.1375173926353454,-0.5549570918083191,0.1021113768219947,8.204133033752441,0.7653180360794067,76.53466796875,35.97,0
-0.1722173690795898,-0.5800504684448242,0.0879203006625175,10.43459701538086,0.7662262320518494,76.76228332519531,35.97,0
-0.2112791389226913,-0.6521317362785339,0.1068021580576896,12.790285110473633,0.7668090462684631,76.9083480834961,35.97,0
-0.2811289131641388,-0.8887136578559875,0.1189194470643997,16.240203857421875,0.7671830654144287,77.00208282470703,35.97,0
-0.3035633862018585,-1.1468960046768188,0.070717878639698,21.33097076416016,0.7674230933189392,77.06224060058594,35.97,0
-0.3739382922649383,-1.3573647737503052,-0.0721705928444862,26.60775756835937,0.7675771117210388,77.10084533691406,35.97,0
-0.4526875019073486,-1.2741183042526243,-0.0015327396104112,29.195180892944336,0.7676759362220764,77.12561798095703,35.97,0
-0.4976264238357544,-1.2318910360336304,0.1501562893390655,28.14721298217773,0.7677393555641174,77.14151763916016,35.97,0
-0.4648901224136352,-1.2439764738082886,0.2642948925495147,26.3067684173584,0.7659440040588379,77.15171813964844,35.95,0
-0.4102952182292938,-1.212547779083252,0.292760282754898,27.067432403564453,0.7647918462753296,77.15826416015625,35.95,0
-0.3640637993812561,-1.1084120273590088,0.1822789162397384,30.041889190673828,0.7640524506568909,77.16246795654297,35.95,0
-0.3679817616939544,-1.0079970359802246,0.0554005913436412,31.628293991088867,0.763577938079834,77.16516876220703,35.95,0
-0.3537027835845947,-0.9323609471321106,-0.0148270605131983,28.916894912719727,0.7632734179496765,77.16690063476562,35.95,0
-0.327746033668518,-0.8670287728309631,-0.0263084769248962,21.638214111328125,0.7630780339241028,77.16800689697266,35.95,0
-0.3054907023906708,-0.8251023292541504,-0.0168832652270793,11.503747940063477,0.7629526257514954,77.1687240600586,35.95,0
-0.3191973865032196,-0.7981963753700256,-0.0164324827492237,1.2275782823562622,0.7628721594810486,77.16918182373047,35.95,0
-0.3783735036849975,-0.8201140761375427,0.0286389980465173,-6.431100845336914,0.7632794380187988,77.16947174072266,35.95,0
-0.4107515811920166,-0.8565707206726074,0.0855521485209465,-10.170915603637695,0.7635408043861389,77.16966247558594,35.95,0
-0.4371277391910553,-0.8799664974212646,0.1556623876094818,-10.879937171936035,0.7637085318565369,77.16978454589844,35.95,0
-0.4484566450119018,-0.8781872391700745,0.2006551027297973,-10.26375675201416,0.7638161778450012,77.16986083984375,35.95,0
-0.4557268917560577,-0.8770453929901123,0.218333289027214,-8.979848861694336,0.7638852596282959,77.16990661621094,35.95,0
-0.4827836155891418,-0.9098992347717284,0.2072870284318924,-6.812444686889648,0.7639296054840088,77.16993713378906,35.95,0
-0.5113425850868225,-0.9981562495231628,0.1890026330947876,-4.464982032775879,0.7639580368995667,77.16996002197266,35.95,0
-0.5520612001419067,-1.1611522436141968,0.2444420456886291,-4.237494945526123,0.7639762759208679,77.16997528076172,35.95,0
-0.5669965147972107,-1.2265692949295044,0.3136065304279327,-8.200721740722656,0.7644472718238831,77.16998291015625,35.95,0
-0.5262011885643005,-1.1957790851593018,0.425165593624115,-15.842097282409668,0.7647495269775391,77.16999053955078,35.95,0
-0.4048589169979095,-1.131237506866455,0.5135511159896851,-24.09918212890625,0.7649434804916382,77.16999053955078,35.95,0
-0.2989995777606964,-1.1457961797714231,0.5478807687759399,-29.630971908569336,0.765067994594574,77.16999053955078,35.95,0
-0.2310651391744613,-1.2391057014465332,0.5195315480232239,-30.726890563964844,0.765147864818573,77.16999053955078,35.95,0
-0.2154576033353805,-1.2989864349365234,0.4733498096466064,-27.55742454528809,0.7651991248130798,77.16999053955078,35.95,0
-0.378972589969635,-1.3374143838882446,0.4045285880565643,-21.647096633911133,0.7652320265769958,77.16999053955078,35.95,0
-0.0584762394428253,-1.233326435089111,0.4611230492591858,-14.952302932739258,0.7652531266212463,77.16999053955078,35.95,0
0.1639931797981262,-1.1217466592788696,0.480648785829544,-8.77153491973877,0.7652666568756104,77.48526000976562,35.95,0
0.1444258093833923,-1.0053589344024658,0.3868215680122375,-3.3469655513763428,0.7652753591537476,77.68758392333984,35.95,0
0.047901976853609,-0.9306679964065552,0.2930220067501068,1.5385805368423462,0.7652809619903564,77.81742095947266,35.95,0
-0.1595835983753204,-0.927517831325531,0.1824468821287155,5.748615264892578,0.765284538269043,77.90074157714844,35.95,0
-0.2927359044551849,-0.9143006801605223,0.0946928113698959,8.805047988891602,0.7652868628501892,77.95421600341797,35.95,0
-0.3557942807674408,-0.8666342496871948,0.0327795222401618,10.752161026000977,0.7652883529663086,77.98853302001953,35.95,0
-0.3178926706314087,-0.8080558180809021,0.0042426874861121,12.546257019042969,0.765289306640625,78.01055145263672,35.95,0
-0.2711785137653351,-0.7592679858207703,-0.0084728365764021,15.43873691558838,0.7652899026870728,78.02468872070312,35.95,0
-0.2076134085655212,-0.7111654877662659,0.0001603959390195,20.26850128173828,0.7666674256324768,78.03376007080078,35.97,0
-0.1724187582731247,-0.6914916038513184,0.0224940311163663,27.351791381835938,0.7675514817237854,78.03958129882812,35.97,0
-0.1610284000635147,-0.7068548798561096,0.0424242466688156,35.82394027709961,0.7681187987327576,78.0433120727539,35.97,0
-0.1873053759336471,-0.8062785863876343,0.0496165379881858,43.0700798034668,0.7684828639030457,78.04570770263672,35.97,0
-0.2097661942243576,-0.9428540468215942,0.0542321354150772,46.1044921875,0.7687165141105652,78.04724884033203,35.97,0
-0.2353758066892624,-1.2656068801879885,0.0292052887380123,43.11859893798828,0.7688664197921753,78.04823303222656,35.97,0
-0.3189838826656341,-1.5231109857559204,-0.0260399226099252,33.28851318359375,0.7689626216888428,78.04886627197266,35.97,0
-0.4062253832817077,-1.5484179258346558,-0.0558953434228897,17.712007522583008,0.7690243721008301,78.04927062988281,35.97,0
-0.5293852686882019,-1.295965313911438,-0.0078815417364239,0.8695999383926392,0.7686047554016113,78.04953002929688,35.97,0
-0.5244555473327637,-1.1731401681900024,0.0565175972878932,-12.21023941040039,0.7683354616165161,78.04969787597656,35.97,0
-0.375749796628952,-1.183882474899292,0.13143190741539,-20.2960262298584,0.7681626081466675,78.0498046875,35.97,0
-0.2467323690652847,-1.1068096160888672,0.1515187323093414,-24.997787475585938,0.7680516839027405,78.04987335205078,35.97,0
-0.1919252723455429,-1.0349576473236084,0.1308226436376571,-27.398906707763672,0.7679805159568787,78.04991912841797,35.97,0
-0.1679487824440002,-0.9720538258552552,0.0839544385671615,-28.05849266052246,0.7679348587989807,78.0499496459961,35.97,0
-0.1581598371267318,-0.920490264892578,0.0370838046073913,-27.922895431518555,0.7679055333137512,78.04997253417969,35.97,0
-0.2078555971384048,-0.8650085926055908,-0.0041906209662556,-27.24116897583008,0.7678866982460022,78.04998016357422,35.97,0
-0.2901274263858795,-0.8182080984115601,-0.0306781698018312,-25.388559341430664,0.7660385370254517,78.04998779296875,35.97,0
-0.3709136247634887,-0.7881742715835571,-0.0252852570265531,-22.54092788696289,0.7648525238037109,78.04999542236328,35.97,0
-0.4619419872760772,-0.7800958156585693,0.0117622502148151,-20.01129722595215,0.7640913724899292,78.04999542236328,35.97,0
-0.5203587412834167,-0.786107063293457,0.0691238567233085,-18.64945411682129,0.7636029124259949,78.04999542236328,35.97,0
-0.5690428018569946,-0.8123558759689331,0.1731085181236267,-17.95462989807129,0.7632894515991211,78.04999542236328,35.97,0
-0.6226765513420105,-0.8459941744804382,0.2678287625312805,-17.09673500061035,0.7630882859230042,78.04999542236328,35.97,0
-0.6347044706344604,-0.8619834780693054,0.3118214309215545,-16.238086700439453,0.7629591822624207,78.04999542236328,35.97,0
-0.5752500295639038,-0.917026698589325,0.3344556391239166,-16.597028732299805,0.7628763318061829,78.04999542236328,35.97,0
-0.5035089254379272,-0.9691436290740968,0.3881653845310211,-19.14530372619629,0.7628231644630432,78.33660125732422,35.97,0
-0.4182852208614349,-1.0417736768722534,0.4394265413284302,-23.385173797607425,0.7627890706062317,78.5205307006836,35.97,0
-0.4643534719944,-1.1107745170593262,0.4835185408592224,-27.50686454772949,0.7627671957015991,78.63856506347656,35.97,0
-0.5331018567085266,-1.1382620334625244,0.5062164664268494,-29.54647445678711,0.7627531290054321,78.71430969238281,35.97,0
-0.5436339378356934,-1.1223152875900269,0.4927938282489776,-28.462217330932617,0.762744128704071,78.76292419433594,35.97,0
-0.5224039554595947,-1.1176793575286863,0.4505932927131653,-24.31279945373535,0.7627383470535278,78.79412078857422,35.97,0
-0.480790913105011,-1.1203020811080933,0.4235114157199859,-17.88465690612793,0.7627346515655518,78.81414031982422,35.97,0
-0.4093038737773895,-1.1387784481048584,0.3725451827049255,-10.714255332946776,0.7627322673797607,78.82698822021484,35.97,0
-0.3690253794193268,-1.156233310699463,0.3286424577236175,-4.876715660095215,0.7650260925292969,78.83523559570312,35.97,0
-0.3431769609451294,-1.1394460201263428,0.3172615170478821,-1.3096469640731812,0.7664981484413147,78.84052276611328,35.97,0
-0.3041978478431701,-1.1006839275360107,0.3043601214885711,1.1371257305145264,0.7674428224563599,78.84391784667969,35.97,0
-0.2567921876907348,-1.0534175634384155,0.2568963170051574,3.6710362434387207,0.7680490612983704,78.84609985351562,35.97,0
-0.2319677323102951,-1.0118892192840576,0.204045683145523,5.8202104568481445,0.7684381008148193,78.84749603271484,35.97,0
-0.2160368263721466,-0.9852387309074402,0.17012919485569,7.002385139465332,0.7686877846717834,78.84839630126953,35.97,0
-0.2114110738039016,-0.9625381827354432,0.1427657753229141,8.087051391601562,0.7688480019569397,78.84896850585938,35.97,0
-0.2196380794048309,-0.936774730682373,0.1196077316999435,10.08360195159912,0.7689508199691772,78.84933471679688,35.97,0
-0.2193199247121811,-0.8978501558303833,0.1215395554900169,12.83372974395752,0.7680985927581787,78.84957122802734,35.97,0
-0.2023224234580993,-0.8392839431762695,0.1115837395191192,16.131946563720703,0.7675516605377197,78.84972381591797,35.97,0
-0.1970121711492538,-0.7849062085151672,0.1051946654915809,20.96414375305176,0.7672007083892822,78.84982299804688,35.97,0
-0.193604364991188,-0.7556074857711792,0.106692299246788,28.27827835083008,0.766975462436676,78.84988403320312,35.97,0
-0.2361996322870254,-0.7591963410377502,0.118848942220211,37.160099029541016,0.7668309211730957,78.84992218017578,35.97,0
-0.2747303545475006,-0.7782927751541138,0.154639258980751,45.163536071777344,0.7667381763458252,78.8499526977539,35.97,0
-0.3274460434913635,-0.8689166307449341,0.2335851639509201,49.43986511230469,0.7666786313056946,78.84996795654297,35.97,0
-0.3500803709030151,-0.9326715469360352,0.2954436540603637,47.526817321777344,0.7666404247283936,78.8499755859375,35.97,0
-0.3478124737739563,-1.012770175933838,0.3575319647789001,39.36326599121094,0.7652387619018555,78.84998321533203,35.97,0
-0.34075927734375,-1.0305862426757812,0.4197677671909332,28.1737117767334,0.76433926820755,78.84999084472656,35.97,0
-0.3306351900100708,-0.9524552226066588,0.4765004515647888,17.284934997558594,0.7637619972229004,78.84999084472656,35.97,0
-0.3241381347179413,-0.9694885015487672,0.4793215692043304,7.818002223968506,0.7633915543556213,78.84999084472656,35.97,0
-0.3199686706066131,-1.0140061378479004,0.4699364602565765,0.7323835492134094,0.7631538510322571,78.84999084472656,35.97,0
-0.3228907287120819,-1.0537705421447754,0.4471203088760376,-2.6289262771606445,0.7630012631416321,78.84999084472656,35.97,0
-0.3191681802272796,-1.0345067977905271,0.4268804490566253,-3.120123863220215,0.7629033327102661,78.84999084472656,35.97,0
-0.3055837154388428,-0.954971194267273,0.3915005624294281,-3.188148498535156,0.7628405094146729,78.84999084472656,35.97,0
-0.3024637401103973,-0.8927342891693115,0.3576002418994903,-3.317784547805786,0.7618820071220398,79.10794067382812,35.97,0
-0.3116570711135864,-0.8527941703796387,0.3302471935749054,-1.810313820838928,0.7612668871879578,79.27347564697266,35.97,0
-0.3567412495613098,-0.8327606916427612,0.3014980256557464,2.005241870880127,0.7608721256256104,79.37970733642578,35.97,0
-0.4304558634757995,-0.8255021572113037,0.2550595998764038,5.886876106262207,0.7606188058853149,79.44788360595703,35.97,0
-0.4889572262763977,-0.8208440542221069,0.2196603119373321,5.984724521636963,0.7604562044143677,79.49163055419922,35.97,0
-0.5153045058250427,-0.8066591620445251,0.1913453191518783,0.0968600809574127,0.7603518962860107,79.51970672607422,35.97,0
-0.5266148447990417,-0.8087517023086548,0.1731743812561035,-9.990548133850098,0.760284960269928,79.53772735595703,35.97,0
-0.5394709706306458,-0.8548767566680908,0.1671110987663269,-19.899757385253903,0.7602419853210449,79.54928588867188,35.97,0
-0.5253301858901978,-0.9012705087661744,0.1856111288070678,-26.77480697631836,0.7615915536880493,79.55670928955078,35.97,0
-0.4882665872573852,-0.9142500162124634,0.2030811607837677,-31.226226806640625,0.7624576091766357,79.56147003173828,35.97,0
-0.4644812941551208,-0.9897527694702148,0.2310857325792312,-34.86030960083008,0.7630134224891663,79.56452941894531,35.97,0
-0.4604128301143646,-1.0997816324234009,0.2826440930366516,-37.47547912597656,0.7633700966835022,79.56649017333984,35.97,0
-0.468997448682785,-1.1703917980194092,0.3717090487480163,-37.63831329345703,0.7635989785194397,79.5677490234375,35.97,0
-0.4521154761314392,-1.0589677095413208,0.3560947477817535,-34.57939910888672,0.7637458443641663,79.56855773925781,35.97,0
-0.4468793570995331,-0.9650710225105286,0.3124877214431762,-28.65045166015625,0.7638401389122009,79.56907653808594,35.97,0
-0.4491169154644012,-1.0559533834457395,0.2509166002273559,-21.10896873474121,0.763900637626648,79.56940460205078,35.97,0
-0.456150621175766,-1.1814497709274292,0.211403802037239,-13.901195526123049,0.7625623345375061,79.56961822509766,35.97,0
-0.4382733404636383,-1.2507905960083008,0.180448979139328,-8.723945617675781,0.7617034912109375,79.56975555419922,35.97,0
-0.404409646987915,-1.2561051845550537,0.1549861878156662,-5.895879745483398,0.7611523270606995,79.56983947753906,35.97,0
-0.3322978913784027,-1.1811468601226809,0.121852308511734,-4.439247608184815,0.7607985734939575,79.56990051269531,35.97,0
-0.2692274153232574,-1.1050540208816528,0.0949911177158355,-3.210693836212158,0.7605715990066528,79.56993865966797,35.97,0
-0.2287524044513702,-1.0506242513656616,0.0833509266376495,-1.7845802307128906,0.7604259252548218,79.56996154785156,35.97,0
-0.2363645136356353,-1.0156943798065186,0.0646853744983673,-0.4967947006225586,0.760332465171814,79.56997680664062,35.97,0
-0.2580428421497345,-1.0044739246368408,0.0303158015012741,0.2042418122291565,0.7602724432945251,79.56998443603516,35.97,0
-0.271954745054245,-0.997273325920105,-0.0029361613560467,0.5251539945602417,0.7588568329811096,79.56999206542969,35.97,0
-0.264089286327362,-0.9814568758010864,-0.0298731308430433,1.401038646697998,0.7579483389854431,79.56999206542969,35.97,0
-0.2478461414575576,-0.9657089710235596,-0.0471597276628017,3.6397762298583984,0.757365345954895,79.56999206542969,35.97,0
-0.2318244576454162,-0.93880957365036,-0.0526554957032203,6.960904121398926,0.7569912075996399,79.56999206542969,35.97,0
-0.2327382117509842,-0.9327426552772522,-0.056182362139225,10.518077850341797,0.7567511200904846,79.56999206542969,35.97,0
-0.2389223724603653,-0.9344469904899596,-0.0528479292988777,14.370035171508787,0.7565970420837402,79.56999206542969,35.97,0
-0.2372932434082031,-0.941138505935669,-0.0507080815732479,19.611330032348636,0.7564981579780579,79.56999206542969,35.97,0
-0.2418455332517624,-0.939835011959076,-0.0437370762228965,26.63628387451172,0.7564346790313721,79.56999206542969,35.97,0
-0.2839513421058655,-0.8942162990570068,0.0223120339214801,33.73111343383789,0.7554761171340942,79.78852844238281,35.97,0
-0.3781457245349884,-0.8369519710540771,0.2158384472131729,37.69304275512695,0.7548609375953674,79.92877960205078,35.97,0
-0.4609853625297546,-0.8225941061973572,0.4072058796882629,36.16219329833984,0.75446617603302,80.01878356933594,35.97,0
-0.4301804602146148,-0.886151134967804,0.3900701105594635,29.5372257232666,0.7542128562927246,80.0765380859375,35.97,0
-0.427204966545105,-0.9885138869285583,0.3678778111934662,20.402650833129883,0.7540502548217773,80.11360168457031,35.97,0
-0.4700776636600494,-1.070997714996338,0.3704293966293335,11.155073165893556,0.7539459466934204,80.13739013671875,35.97,0
-0.4416131377220154,-1.0959422588348389,0.3384802043437958,2.7485334873199463,0.7538790106773376,80.15265655517578,35.97,0
-0.4401395618915558,-1.10635244846344,0.3067815005779266,-4.634629726409912,0.7538360357284546,80.1624526977539,35.97,0
-0.4112050533294678,-1.124228596687317,0.3816012740135193,-10.651698112487791,0.755185604095459,80.16873931884766,35.95,0
-0.3366588056087494,-1.1245049238204956,0.4743984937667846,-14.846285820007324,0.7560516595840454,80.17277526855469,35.95,0
-0.2384393364191055,-1.0295201539993286,0.4779726564884186,-17.104639053344727,0.7566074132919312,80.17536163330078,35.95,0
-0.2369832545518875,-0.929379940032959,0.4186908304691314,-17.629615783691406,0.7569640874862671,80.1770248413086,35.95,0
-0.2472443729639053,-0.8539201617240906,0.3750493824481964,-16.71977996826172,0.7571929693222046,80.17809295654297,35.95,0
-0.2538293600082397,-0.783103346824646,0.3022606372833252,-15.082621574401855,0.7573398351669312,80.17877960205078,35.95,0
-0.2692507803440094,-0.7376571893692017,0.2331579029560089,-14.04990005493164,0.7574341297149658,80.17921447753906,35.95,0
-0.3127340078353882,-0.7420790791511536,0.1888117492198944,-14.75570297241211,0.7574946284294128,80.17949676513672,35.95,0
-0.3462368249893188,-0.8176878690719604,0.2051351219415664,-17.168315887451172,0.7556970119476318,80.17967987060547,35.95,0
-0.3285525739192962,-0.8774048089981079,0.210012748837471,-20.31083869934082,0.7545434236526489,80.17979431152344,35.95,0
-0.272421658039093,-0.9101299047470092,0.2075451612472534,-22.864913940429688,0.7538031339645386,80.17987060546875,35.95,0
-0.2531933784484863,-0.9759131669998168,0.2003638297319412,-23.39337539672852,0.7533280253410339,80.17991638183594,35.95,0
-0.2968315184116363,-1.124486804008484,0.2573307752609253,-21.08140563964844,0.7530231475830078,80.17994689941406,35.95,0
-0.4088025987148285,-1.0854862928390503,0.2659000158309936,-16.631343841552734,0.7528274655342102,80.17996978759766,35.95,0
-0.4806591868400574,-0.9876868724822998,0.2266170680522918,-11.368059158325195,0.7527018785476685,80.17997741699219,35.95,0
-0.4819903969764709,-0.9529137015342712,0.1510275602340698,-5.744110584259033,0.7526212930679321,80.17998504638672,35.95,0
-0.460453599691391,-1.014564871788025,0.1081163436174392,0.0468041226267814,0.7525696158409119,80.17999267578125,35.95,0
-0.4298391938209533,-1.1101068258285522,0.1309583634138107,4.834270000457764,0.752536416053772,80.17999267578125,35.95,0
-0.3878015279769897,-1.1042468547821045,0.1456170529127121,7.358456134796143,0.7525151371955872,80.17999267578125,35.95,0
-0.33283531665802,-1.0724973678588867,0.1438286155462265,7.810413837432861,0.7525014877319336,80.17999267578125,35.95,0
-0.2807678282260895,-1.0185357332229614,0.1314853429794311,7.45200777053833,0.7524927258491516,80.17999267578125,35.95,0
-0.2417561560869217,-0.9727107286453248,0.1179663687944412,7.2685770988464355,0.752487063407898,80.17999267578125,35.95,0
-0.2279162555932998,-0.9489006996154784,0.1036928966641426,7.509119510650635,0.7524834275245667,80.17999267578125,35.95,0
-0.2190345972776413,-0.961609661579132,0.0777396783232688,8.161463737487793,0.7524811029434204,80.17999267578125,35.95,0
-0.2077370882034301,-0.975363314151764,0.0498888492584228,9.27870273590088,0.7543160319328308,80.36628723144531,35.95,0
-0.1948892176151275,-0.9897873401641846,0.0152224684134125,10.737276077270508,0.7554935812950134,80.48583984375,35.95,0
-0.1866441965103149,-1.0158371925354004,0.02096445299685,12.010066032409668,0.7562493085861206,80.56256103515625,35.95,0
-0.1533641517162323,-1.0325545072555542,0.0470404252409935,12.776713371276855,0.7567342519760132,80.61180114746094,35.95,0
-0.1599958091974258,-1.0432827472686768,0.0189922880381345,13.601882934570312,0.7570455074310303,80.64339447021484,35.95,0
-0.1810449361801147,-1.0893518924713137,-0.015800716355443,15.725675582885742,0.7572452425956726,80.6636734008789,35.95,0
-0.2449330240488052,-1.1581008434295654,-0.0213355384767055,20.36307716369629,0.7573733925819397,80.67668914794922,35.95,0
-0.3139216005802154,-1.157437801361084,0.0031014040578156,27.577281951904297,0.7574556469917297,80.6850357055664,35.95,0
-0.4141722321510315,-0.9946768283843994,0.0971524640917778,34.62518310546875,0.7561312913894653,80.69039916992188,35.97,0
-0.472909539937973,-0.8510417342185974,0.174302339553833,36.9842414855957,0.755281388759613,80.69384002685547,35.97,0
-0.4770171344280243,-0.7980494499206543,0.2182149291038513,32.95948791503906,0.7547360062599182,80.696044921875,35.97,0
-0.395686537027359,-0.8815953135490417,0.2072110772132873,25.450592041015625,0.7543860077857971,80.69746398925781,35.97,0
-0.3043088018894195,-0.9631990790367126,0.2113449871540069,17.74784278869629,0.7541613578796387,80.69837188720703,35.97,0
-0.2120811939239502,-0.9539921879768372,0.2419867664575576,10.29685878753662,0.7540172338485718,80.6989517211914,35.97,0
-0.1976770162582397,-0.9144970774650574,0.2784442007541656,2.5273776054382324,0.7539247274398804,80.69932556152344,35.97,0
-0.2164221256971359,-0.8835536241531372,0.3074382841587066,-5.281698226928711,0.7538653612136841,80.69956970214844,35.97,0
-0.2676360607147217,-0.8525003790855408,0.3316427767276764,-12.732847213745115,0.7519908547401428,80.69972229003906,35.97,0
-0.311697781085968,-0.8381699323654175,0.3527736067771911,-19.456321716308597,0.7507879137992859,80.69982147216797,35.97,0
-0.339974045753479,-0.8289734721183777,0.3607363700866699,-24.27978515625,0.750015914440155,80.69988250732422,35.97,0
-0.3413268029689789,-0.8174739480018616,0.3378575444221496,-25.85261344909668,0.749520480632782,80.69992065429688,35.97,0
-0.3309993743896484,-0.8044964671134949,0.3119796812534332,-24.14995384216309,0.74920254945755,80.699951171875,35.97,0
-0.3299696147441864,-0.8241571187973022,0.3009705543518066,-20.50290870666504,0.7489985227584839,80.69996643066406,35.97,0
-0.3461020886898041,-0.8591653108596802,0.3274921774864197,-16.385486602783203,0.7488675713539124,80.6999740600586,35.97,0
-0.3228683471679687,-0.8704359531402588,0.3053278028964996,-12.689885139465332,0.748783528804779,80.69998168945312,35.97,0
-0.3695337772369385,-0.8776688575744629,0.1903440356254577,-9.723553657531738,0.7496477961540222,80.69998931884766,35.97,0
-0.4386653900146484,-0.8767127394676208,0.1333473920822143,-7.182234287261963,0.750202476978302,80.69998931884766,35.97,0
-0.5446056127548218,-0.9320768713951112,0.0295969359576702,-4.623474597930908,0.7505584359169006,80.69998931884766,35.97,0
-0.6405807733535767,-1.0179864168167114,-0.0593752339482307,-2.827359437942505,0.7507868409156799,80.69998931884766,35.97,0
-0.7245632410049438,-1.05632483959198,-0.1108746752142906,-3.627219676971436,0.7509334087371826,80.69998931884766,35.97,0
-0.7168828248977661,-0.9801682829856871,-0.1495218276977539,-7.0997314453125,0.7510274648666382,80.69998931884766,35.97,0
-0.6783673167228699,-0.9312953948974608,-0.1743233501911163,-10.402962684631348,0.7510878443717957,80.69998931884766,35.97,0
-0.6032703518867493,-0.9783004522323608,-0.2014350891113281,-10.74582862854004,0.7511265873908997,80.69998931884766,35.97,0
-0.5494796633720398,-1.0140633583068848,-0.2356271594762802,-8.106965065002441,0.7516103982925415,80.8504638671875,35.97,0
-0.526155412197113,-1.0146228075027466,-0.2743629813194275,-4.260365962982178,0.7519208788871765,80.94702911376953,35.97,0
-0.4887961745262146,-0.981395184993744,-0.2768303155899048,-0.9785955548286438,0.7521201372146606,81.00899505615234,35.97,0
-0.4424300491809845,-0.9432783126831056,-0.2728159129619598,0.3607845604419708,0.7522479891777039,81.04876708984375,35.97,0
-0.4070771634578705,-0.9076215624809264,-0.2366530746221542,-0.7321820855140686,0.7523300051689148,81.07428741455078,35.97,0
-0.3675964176654815,-0.8903368711471558,-0.1910547465085983,-3.1997950077056885,0.7523826360702515,81.09066772460938,35.97,0
-0.3198688328266144,-0.8848423361778259,-0.1505968123674392,-5.155954837799072,0.7524164319038391,81.10118103027344,35.97,0
-0.2892400324344635,-0.892511785030365,-0.0798510387539863,-5.494165897369385,0.7524381279945374,81.10792541503906,35.97,0
-0.2527908980846405,-0.8974335789680481,-0.0176571570336818,-4.399987697601318,0.7510749101638794,81.11225128173828,35.97,0
-0.2126066237688064,-0.8726032376289368,0.0334508493542671,-2.418827772140503,0.750200092792511,81.11502838134766,35.97,0
-0.1980142146348953,-0.845473051071167,0.0774445757269859,0.1960325986146927,0.7496386766433716,81.11681365966797,35.97,0
-0.2054429650306701,-0.8560513257980347,0.1224705353379249,3.3465378284454346,0.7492783665657043,81.11795806884766,35.97,0
-0.2605902850627899,-0.8908287286758423,0.1457678377628326,7.435497283935547,0.7490471601486206,81.11869049072266,35.97,0
-0.3351650834083557,-0.952331244945526,0.1775120198726654,13.58122730255127,0.7488988041877747,81.1191635131836,35.97,0
-0.416609525680542,-1.0533756017684937,0.2314702570438385,21.895946502685547,0.7488036155700684,81.11946105957031,35.97,0
-0.4688758850097656,-1.1350133419036863,0.2660975456237793,29.55694580078125,0.7487425208091736,81.1196517944336,35.97,0
-0.5248085260391235,-1.0698504447937012,0.3331015408039093,32.23780822753906,0.7496215105056763,81.1197738647461,35.97,0
-0.4431496262550354,-0.9888482689857484,0.3761008381843567,28.06489372253418,0.7501856088638306,81.11985778808594,35.97,0
-0.3403656780719757,-0.97045236825943,0.3980975449085235,19.468542098999023,0.7505475878715515,81.11991119384766,35.97,0
-0.2352204173803329,-1.0202224254608154,0.4178115427494049,11.017767906188965,0.7507798671722412,81.11994171142578,35.97,0
-0.1677442491054535,-1.0521620512008667,0.4360606372356415,5.694859981536865,0.7509289383888245,81.11996459960938,35.97,0
-0.1580285727977752,-0.9886924028396606,0.470162957906723,3.31787109375,0.751024603843689,81.11997985839844,35.97,0
-0.1853802651166916,-0.9255701303482056,0.4304723441600799,1.964420199394226,0.7510859966278076,81.11998748779297,35.97,0
-0.2253240942955017,-0.8850619196891785,0.3826100826263428,0.2037920206785202,0.7511253952980042,81.1199951171875,35.97,0
-0.2677510678768158,-0.8422727584838867,0.3351015150547027,-2.136988401412964,0.7511507272720337,81.1199951171875,35.97,0
-0.2949782609939575,-0.8092153668403625,0.2934176921844482,-4.595714092254639,0.7511669397354126,81.1199951171875,35.97,0
-0.3236466646194458,-0.7880010008811951,0.2554718852043152,-6.793368339538574,0.7511773705482483,81.1199951171875,35.97,0
-0.3532399237155914,-0.785582423210144,0.2143271267414093,-8.705257415771484,0.7511840462684631,81.1199951171875,35.97,0
-0.3722311854362488,-0.7896280884742737,0.1879227757453918,-10.770520210266112,0.751188337802887,81.1199951171875,35.97,0
-0.3844186961650848,-0.7922243475914001,0.1709779947996139,-13.697298049926758,0.7511910796165466,81.1199951171875,35.97,0
-0.3866421580314636,-0.7938904762268066,0.1712993532419204,-17.674924850463867,0.7511928677558899,81.1199951171875,35.97,0
-0.3880690336227417,-0.8229485750198364,0.1771033555269241,-21.75371360778809,0.7511940002441406,81.1199951171875,35.97,0
-0.4057780504226684,-0.880780816078186,0.1752302646636963,-24.464393615722656,0.7516536116600037,81.27762603759766,35.97,0
-0.4339359998703003,-0.9514808654785156,0.1684304475784301,-24.99662399291992,0.7519485950469971,81.3787841796875,35.97,0
-0.49678835272789,-1.092014193534851,0.1864578127861023,-23.743932723999023,0.7521378993988037,81.4437026977539,35.97,0
-0.542721152305603,-1.187798261642456,0.2148200571537017,-22.35248374938965,0.752259373664856,81.48536682128906,35.97,0
-0.521818220615387,-1.1205180883407593,0.2554123997688293,-22.44474029541016,0.7523373365402222,81.51210021972656,35.97,0
-0.4300350546836853,-1.0437549352645874,0.287060022354126,-22.973262786865234,0.7523873448371887,81.52925872802734,35.97,0
-0.3711339235305786,-1.0392749309539795,0.3129674196243286,-20.349647521972656,0.7524194717407227,81.54026794433594,35.97,0
-0.3613234162330627,-1.097975492477417,0.329593300819397,-12.883686065673828,0.7524400949478149,81.54733276367188,35.97,0
-0.3662231564521789,-1.1468416452407837,0.3290672600269317,-3.2595674991607666,0.7492401003837585,81.55187225341797,35.99,0
-0.3917586207389831,-1.1110278367996216,0.3399252295494079,4.618360996246338,0.747186541557312,81.5547866821289,35.99,0
-0.380156934261322,-1.0488601922988892,0.3804799020290375,9.211810111999512,0.7458686828613281,81.55665588378906,35.99,0
-0.3615160882472992,-0.9977689981460572,0.4009077847003937,11.034692764282228,0.7450229525566101,81.55785369873047,35.99,0
-0.3271623849868774,-0.953786075115204,0.3804305791854858,11.07600212097168,0.7444801926612854,81.55862426757812,35.99,0
-0.3051161468029022,-0.9311581254005432,0.3560939431190491,10.468396186828612,0.744131863117218,81.55911254882812,35.99,0
-0.2853703796863556,-0.92223459482193,0.3404760956764221,10.286259651184082,0.7439083456993103,81.55943298339844,35.99,0
-0.2559053599834442,-0.8829213380813599,0.308062344789505,10.767664909362791,0.7437649369239807,81.55963897705078,35.99,0
-0.2369963973760604,-0.8464968204498291,0.2760655283927917,11.262896537780762,0.7445911169052124,81.55976867675781,35.99,0
-0.2192639410495758,-0.7951327562332153,0.244336262345314,11.476813316345217,0.7451213002204895,81.55985260009766,35.99,0
-0.202286496758461,-0.7621702551841736,0.2295720130205154,12.35568618774414,0.7454615235328674,81.55990600585938,35.99,0
-0.1913913488388061,-0.7466146349906921,0.2089016288518905,15.29136085510254,0.7456798553466797,81.5599365234375,35.99,0
-0.1955950111150741,-0.7534252405166626,0.1844410151243209,20.91193389892578,0.7458199858665466,81.5599594116211,35.99,0
-0.2038904577493667,-0.7745892405509949,0.1687435954809188,28.53137969970703,0.7459099292755127,81.55997467041016,35.99,0
-0.2036162316799163,-0.8385510444641113,0.1474743485450744,35.46316909790039,0.7459676265716553,81.55998229980469,35.99,0
-0.197842463850975,-0.9299780130386353,0.1170316487550735,37.31780624389648,0.7460046410560608,81.55998992919922,35.99,0
-0.2165282964706421,-1.0894105434417725,0.0751041769981384,31.59721946716309,0.7460284233093262,81.55998992919922,35.99,0
-0.3012908399105072,-1.146942973136902,0.0593930855393409,21.086938858032227,0.7460436820983887,81.55998992919922,35.99,0
-0.3668821156024933,-1.1670706272125244,0.054908387362957,11.379255294799805,0.7460534572601318,81.55998992919922,35.99,0
-0.3921815156936645,-1.2191717624664309,0.0912147834897041,5.618741035461426,0.7460597157478333,81.55998992919922,35.99,0
-0.3972216546535492,-1.2358139753341677,0.1313074678182602,3.5233852863311768,0.746063768863678,81.55998992919922,35.99,0
-0.3556739389896393,-1.1849185228347778,0.1514388620853424,3.6224846839904794,0.7460663318634033,81.55998992919922,35.99,0
-0.2898265719413757,-1.0794856548309326,0.1139780655503273,4.0156779289245605,0.746068000793457,81.55998992919922,35.99,0
-0.2363739758729934,-1.0006293058395386,0.0843401104211807,2.741829395294189,0.746069073677063,81.55998992919922,35.99,0
-0.2076689600944519,-0.950023889541626,0.0541246272623539,-0.522552490234375,0.7456104755401611,81.7606201171875,35.99,0
-0.2004432827234268,-0.9231460094451904,0.0291362963616848,-4.140039443969727,0.7453161478042603,81.88937377929688,35.99,0
-0.2293929010629654,-0.928288459777832,0.0019046732923015,-6.493777275085449,0.7451273202896118,81.97200012207031,35.99,0
-0.2871555089950561,-0.9539796710014344,-0.0323643386363983,-7.208939075469971,0.7450061440467834,82.0250244140625,35.99,0
-0.3410175740718841,-0.9816623330116272,-0.0487584434449672,-6.442647933959961,0.7449283599853516,82.05905151367188,35.99,0
-0.3811809122562408,-0.9938297271728516,-0.0368881374597549,-4.342309951782227,0.7448784112930298,82.08088684082031,35.99,0
-0.4013576507568359,-1.0016380548477173,-0.0236726831644773,-1.3464490175247192,0.7448464035987854,82.09490203857422,35.99,0
-0.4199036955833435,-0.9842578768730164,0.0183948818594217,1.8049452304840088,0.7448258399963379,82.10389709472656,35.99,0
-0.4318054914474487,-0.9787020683288574,0.045391421765089,4.21424674987793,0.7438948154449463,82.10966491699219,35.99,0
-0.4730300009250641,-1.008723258972168,0.0683140233159065,4.793102741241455,0.7432973384857178,82.11336517333984,35.99,0
-0.6674187779426575,-1.1455425024032593,0.133404403924942,2.653193473815918,0.7429139018058777,82.1157455444336,35.99,0
-0.7865685224533081,-1.1885629892349243,0.1751756519079208,-2.259661912918091,0.7426677942276001,82.11727142333984,35.99,0
-0.6895009279251099,-1.0986177921295166,0.2523620128631592,-9.303126335144045,0.7425099015235901,82.11824798583984,35.99,0
-0.5376441478729248,-0.9793205857276917,0.3746668398380279,-17.31981086730957,0.7424085736274719,82.1188735961914,35.99,0
-0.4681800901889801,-0.9363491535186768,0.447557270526886,-24.191259384155277,0.742343544960022,82.11927795410156,35.99,0
-0.5075686573982239,-1.043119192123413,0.4999319314956665,-27.49752426147461,0.7423018217086792,82.11953735351562,35.99,0
-0.4880638122558594,-1.145224690437317,0.5391407608985901,-26.6565055847168,0.7418157458305359,82.11970520019531,35.99,0
-0.4083734154701233,-1.20515239238739,0.530716061592102,-23.376117706298828,0.7415037751197815,82.11981201171875,35.99,0
-0.3404393792152405,-1.2044260501861572,0.5029184818267822,-19.70178604125977,0.741303563117981,82.11988067626953,35.99,0
-0.2744521498680115,-1.1871665716171265,0.4738840460777282,-16.69536590576172,0.74117511510849,82.11992645263672,35.99,0
-0.2265075594186782,-1.14250385761261,0.4440558552742004,-14.644210815429688,0.7410926818847656,82.11995697021484,35.99,0
-0.1957394778728485,-1.09704852104187,0.4137183129787445,-13.388800621032717,0.7410397529602051,82.1199722290039,35.99,0
-0.2095809429883957,-1.0566823482513428,0.3718582987785339,-12.586732864379885,0.7410057783126831,82.11997985839844,35.99,0
-0.224061369895935,-0.9971910715103148,0.3226038813591003,-12.111420631408691,0.7409840226173401,82.11998748779297,35.99,0
-0.2277563065290451,-0.9254263043403624,0.2797996699810028,-11.899539947509766,0.7441835999488831,82.1199951171875,35.99,0
-0.213334172964096,-0.8066007494926453,0.241134837269783,-11.623846054077148,0.7462369203567505,82.1199951171875,35.99,0
-0.1872855573892593,-0.7079542875289917,0.216321974992752,-10.89162254333496,0.7475546002388,82.1199951171875,35.99,0
-0.1649712920188903,-0.6278553009033203,0.1836051940917968,-9.443680763244627,0.7484002113342285,82.1199951171875,35.99,0
-0.1618468165397644,-0.5932457447052002,0.1514138877391815,-7.142348766326904,0.7489429116249084,82.1199951171875,35.99,0
-0.1710372567176818,-0.5934264063835144,0.1307553648948669,-3.953015089035034,0.749291181564331,82.1199951171875,35.99,0
-0.1937284767627716,-0.660715639591217,0.1174979135394096,0.1322013139724731,0.7495146989822388,82.1199951171875,35.99,0
-0.2138881683349609,-0.7542779445648193,0.1089900434017181,5.068202018737793,0.7496581077575684,82.1199951171875,35.99,0
-0.2212277352809906,-0.9990473985671996,0.0811390876770019,10.141773223876951,0.7483729720115662,82.30270385742188,35.99,0
-0.2987089157104492,-1.346450686454773,0.0520703941583633,13.956581115722656,0.7475482821464539,82.41996002197266,35.99,0
-0.393214076757431,-1.4910253286361694,0.0390135571360588,15.72401523590088,0.7470190525054932,82.49520874023438,35.99,0
-0.4594598114490509,-1.359894037246704,0.0474277511239051,16.037843704223633,0.746679425239563,82.54349517822266,35.99,0
-0.4515925347805023,-1.3149259090423584,0.1088052466511726,15.863070487976074,0.7464614510536194,82.5744857788086,35.99,0
-0.3681749403476715,-1.297263503074646,0.1817804276943206,15.49654769897461,0.7463215589523315,82.59437561035156,35.99,0
-0.2418712526559829,-1.201962113380432,0.2174161523580551,14.817095756530762,0.7462317943572998,82.60713958740234,35.99,0
-0.1832079142332077,-1.1072165966033936,0.201100692152977,13.693207740783691,0.746174156665802,82.61532592773438,35.99,0
-0.1735500395298004,-1.018425464630127,0.1458481699228286,12.194541931152344,0.7452189922332764,82.6205825805664,35.99,0
-0.206536591053009,-0.955846667289734,0.0879991874098777,10.971256256103516,0.7446060180664062,82.62395477294922,35.99,0
-0.2444987893104553,-0.9100894331932068,0.0452772639691829,10.902737617492676,0.7442126274108887,82.6261215209961,35.99,0
-0.3080451488494873,-0.8527361750602722,0.0066652428358793,12.25238800048828,0.7439602017402649,82.62751007080078,35.99,0
-0.3824121952056885,-0.8103324174880981,-0.0125159546732902,14.77724838256836,0.7437981963157654,82.62840270996094,35.99,0
-0.4637233316898346,-0.8111089468002319,0.0311524011194705,18.414548873901367,0.7436942458152771,82.62897491455078,35.99,0
-0.5159041285514832,-0.8339983820915222,0.0983606576919555,23.159832000732425,0.7436274886131287,82.62934112548828,35.99,0
-0.5773796439170837,-0.8878719210624695,0.2030665725469589,28.42269515991211,0.7435846924781799,82.62957763671875,35.99,0
-0.5832444429397583,-0.9448359608650208,0.2814563512802124,32.42704772949219,0.7449343800544739,82.62973022460938,35.99,0
-0.5422259569168091,-1.0149788856506348,0.3261646330356598,32.28838348388672,0.7458004951477051,82.62982940673828,35.99,0
-0.4655226767063141,-1.115970253944397,0.3884424567222595,26.094688415527344,0.7463563084602356,82.62989044189453,35.99,0
-0.4162989258766174,-1.1415963172912598,0.445202112197876,14.95119857788086,0.7467130422592163,82.62992858886719,35.99,0
-0.379112184047699,-1.0796728134155271,0.4760294258594513,1.1112794876098633,0.7469419836997986,82.62995147705078,35.99,0
-0.3552478551864624,-1.0063471794128418,0.479019284248352,-14.64892864227295,0.7470888495445251,82.62996673583984,35.99,0
-0.3455308973789215,-0.9592910408973694,0.4753402471542358,-30.917787551879883,0.7471831440925598,82.62997436523438,35.99,0
-0.3672839701175689,-1.0018641948699951,0.4505881369113922,-43.25697326660156,0.7472436428070068,82.6299819946289,35.99,0
-0.358852744102478,-1.1019562482833862,0.4514969885349273,-47.71478271484375,0.7477414011955261,82.62998962402344,35.99,0
-0.3198554217815399,-1.1773850917816162,0.4688735604286194,-44.83626174926758,0.7480608224868774,82.62998962402344,35.99,0
-0.2724380791187286,-1.197802186012268,0.4688293039798736,-37.90531539916992,0.74826580286026,82.62998962402344,35.99,0
-0.2420083731412887,-1.1941113471984863,0.4576053321361542,-29.62407875061035,0.7483973503112793,82.62998962402344,35.99,0
-0.2224803417921066,-1.163753867149353,0.4280113577842712,-21.84126281738281,0.748481810092926,82.62998962402344,35.99,0
-0.2211439162492752,-1.1106855869293213,0.36983522772789,-15.75401496887207,0.7485359907150269,82.62998962402344,35.99,0
-0.2258840501308441,-1.0542383193969729,0.3269033432006836,-11.274356842041016,0.7485707402229309,82.62998962402344,35.99,0
-0.245719313621521,-0.9732314944267272,0.2993521392345428,-7.582743167877197,0.7485930323600769,82.62998962402344,35.99,0
-0.258448451757431,-0.9044526815414428,0.2760735750198364,-4.339529514312744,0.7467712759971619,82.80195617675781,35.99,0
-0.238628402352333,-0.8211299777030945,0.2555369734764099,-1.5990277528762815,0.7456021904945374,82.91231536865234,35.99,0
-0.1979201734066009,-0.7228760719299316,0.2367599904537201,0.969330668449402,0.7448519468307495,82.98313903808594,35.99,0
-0.1606004238128662,-0.6430290341377258,0.224710002541542,4.0362548828125,0.7443704605102539,83.0285873413086,35.99,0
-0.1366507560014724,-0.5805922746658325,0.2057814598083496,8.010672569274902,0.7440614700317383,83.05775451660156,35.99,0
-0.1268790066242218,-0.5517194867134094,0.1880364418029785,13.144262313842772,0.7438631653785706,83.07646942138672,35.99,0
-0.1485969424247741,-0.5835705399513245,0.159855380654335,20.186079025268555,0.7437359094619751,83.08848571777344,35.99,0
-0.1961209028959274,-0.6935751438140869,0.1473681777715683,29.66697883605957,0.7436542510986328,83.09619140625,35.99,0
-0.2434123754501342,-0.8257452845573425,0.1393546015024185,40.190086364746094,0.7454379200935364,83.10113525390625,36.0,0
-0.3017501831054687,-1.100888729095459,0.1342119574546814,48.11112976074219,0.746582567691803,83.10430908203125,36.0,0
-0.3615791201591491,-1.3950132131576538,0.1365094780921936,49.22848892211914,0.7473171353340149,83.1063461303711,36.0,0
-0.4727449715137481,-1.5445810556411743,0.1883638650178909,41.53723907470703,0.7477885484695435,83.10765838623047,36.0,0
-0.6224536299705505,-1.4446429014205933,0.2216410189867019,27.401386260986328,0.7480911016464233,83.1084976196289,36.0,0
-0.6177681088447571,-1.3301284313201904,0.1982141882181167,12.32899284362793,0.7482852339744568,83.10903930664062,36.0,0
-0.3404702544212341,-1.2510418891906738,0.2447557151317596,0.9260154962539672,0.7484098076820374,83.10938262939453,36.0,0
-0.1065387204289436,-1.1890931129455566,0.3082100450992584,-5.288325786590576,0.7484897971153259,83.10960388183594,36.0,0
0.0771717131137847,-1.0765669345855713,0.2873558700084686,-6.854511260986328,0.7476232647895813,83.10974884033203,36.0,0
0.0607199110090732,-1.0043540000915527,0.162017360329628,-5.165502071380615,0.7470671534538269,83.1098403930664,36.0,0
-0.0170111991465091,-0.9580119252204896,0.0423979014158248,-1.7529188394546509,0.7467102408409119,83.10990142822266,36.0,0
-0.2124366760253906,-0.9282722473144532,-0.0903447344899177,2.722763776779175,0.7464812397956848,83.10993957519531,36.0,0
-0.3938272595405578,-0.8867959380149841,-0.19792240858078,8.425233840942383,0.7463342547416687,83.1099624633789,36.0,0
-0.5494177341461182,-0.8153966665267944,-0.2165796011686325,14.574641227722168,0.746239960193634,83.10997772216797,36.0,0
-0.6716578006744385,-0.7527834177017212,-0.1389883160591125,18.370508193969727,0.7461794018745422,83.1099853515625,36.0,0
-0.7501044273376465,-0.7237973809242249,-0.061205830425024,16.496639251708984,0.7461405396461487,83.10999298095703,36.0,0
-0.8228380680084229,-0.7555757761001587,0.0166993662714958,8.132529258728027,0.7451974153518677,83.10999298095703,36.0,0
-0.8415254950523376,-0.8207514882087708,0.1114766299724578,-3.816266059875488,0.7445921897888184,83.10999298095703,36.0,0
-0.7023780941963196,-0.8793708682060242,0.1778969913721084,-15.24960231781006,0.7442037463188171,83.10999298095703,36.0,0
-0.5123213529586792,-0.9673693776130676,0.2373150885105133,-24.43546867370605,0.7439544796943665,83.10999298095703,36.0,0
-0.4015494287014007,-1.0518306493759155,0.2698484361171722,-32.171871185302734,0.7437945008277893,83.10999298095703,36.0,0
-0.4088312089443207,-1.1396195888519287,0.2515420317649841,-39.27544784545898,0.7436918616294861,83.10999298095703,36.0,0
-0.4750797748565674,-1.1959575414657593,0.2230007201433181,-45.81886291503906,0.7436259984970093,83.10999298095703,36.0,0
-0.5063987374305725,-1.17613422870636,0.2158800959587097,-51.80575180053711,0.7435837388038635,83.10999298095703,36.0,0
-0.4817152321338653,-1.17460834980011,0.2337015867233276,-56.285491943359375,0.7412612438201904,83.30703735351562,36.0,0
-0.4490814805030823,-1.2128134965896606,0.2507361769676208,-56.55580139160156,0.7397708296775818,83.43348693847656,36.0,0
-0.4001501202583313,-1.2709180116653442,0.2504724264144897,-50.5063362121582,0.7388143539428711,83.51464080810547,36.0,0
-0.3631510138511657,-1.3026083707809448,0.2391076236963272,-39.304935455322266,0.7382005453109741,83.56671905517578,36.0,0
-0.3170160353183746,-1.2501744031906128,0.1814343780279159,-26.538450241088867,0.7378066182136536,83.60013580322266,36.0,0
-0.2594203948974609,-1.1717430353164673,0.1164341419935226,-15.189406394958496,0.7375538349151611,83.62158203125,36.0,0
-0.2168610394001007,-1.1102148294448853,0.0691229552030563,-6.168694019317627,0.7373915910720825,83.63534545898438,36.0,0
-0.1895488947629928,-1.0371428728103638,0.0387613587081432,0.7129660248756409,0.7372874617576599,83.64418029785156,36.0,0
-0.1776193082332611,-0.990249514579773,0.0192770343273878,5.344173908233643,0.7390571236610413,83.64984893798828,35.99,0
-0.1923546940088272,-0.96015602350235,0.0067731160670518,7.513719081878662,0.7401927709579468,83.65348815917969,35.99,0
-0.2074087858200073,-0.9240504503250122,-0.0068489522673189,8.200241088867188,0.7409215569496155,83.65582275390625,35.99,0
-0.2114718556404113,-0.8840866684913635,-0.0211885869503021,9.565115928649902,0.741389274597168,83.65731811523438,35.99,0
-0.2084815353155136,-0.8360490798950195,-0.0359887145459651,13.020468711853027,0.7416893839836121,83.65827941894531,35.99,0
-0.2065625190734863,-0.8332102298736572,-0.0454865843057632,18.13263702392578,0.7418819665908813,83.65889739990234,35.99,0
-0.2165265530347824,-0.8929639458656311,-0.0459839962422847,24.55525016784668,0.7420055866241455,83.65929412841797,35.99,0
-0.2397142201662063,-1.0040814876556396,-0.0519009791314601,34.172584533691406,0.7420849204063416,83.6595458984375,35.99,0
-0.2601925134658813,-1.0697925090789795,-0.0501003824174404,49.34028625488281,0.7412176132202148,83.65970611572266,35.99,0
-0.3013231754302978,-1.0503865480422974,0.0126306554302573,68.69683837890625,0.7406610250473022,83.6598129272461,35.99,0
-0.3501095473766327,-0.9931507706642152,0.0752789229154586,84.76223754882812,0.7403038144111633,83.65988159179688,35.99,0
-0.3702223002910614,-0.9172357320785522,0.0762985497713089,86.63512420654297,0.7400745749473572,83.65992736816406,35.99,0
-0.3719339370727539,-0.9860710501670836,0.0545617900788784,68.48754119873047,0.7399274706840515,83.65995788574219,35.99,0
-0.3730323910713196,-1.0694299936294556,0.0630034878849983,36.75038528442383,0.7398331165313721,83.65997314453125,35.99,0
-0.4017261862754822,-1.122925043106079,0.1020075306296348,5.889942646026611,0.7397725582122803,83.65998077392578,35.99,0
-0.5544868111610413,-1.179646134376526,0.1830158233642578,-13.649404525756836,0.7397336959838867,83.65998840332031,35.99,0
-0.7084975242614746,-1.132079839706421,0.7443997263908386,-20.57473564147949,0.7484304904937744,83.65999603271484,35.99,0
-0.7121705412864685,-1.0063923597335815,0.7128193974494934,-18.240781784057617,0.7540116310119629,83.65999603271484,35.99,0
-0.6753432750701904,-0.903342306613922,0.5861952900886536,-10.949959754943848,0.7575932741165161,83.65999603271484,35.99,0
-0.612525224685669,-0.8316129446029663,0.3817841708660126,-3.8636393547058105,0.7598917484283447,83.65999603271484,35.99,0
-0.549821138381958,-0.7855811715126038,0.2226160019636154,-0.9926924109458924,0.7613667845726013,83.65999603271484,35.99,0
-0.4703968167304992,-0.756040632724762,0.081286609172821,-1.941110372543335,0.7623133659362793,83.65999603271484,35.99,0
-0.3858402073383331,-0.7482787370681763,0.0297739692032337,-3.660348653793335,0.7629208564758301,83.65999603271484,35.99,0
-0.3203811049461365,-0.7432976365089417,0.0135094448924064,-5.831264495849609,0.7633106708526611,83.65999603271484,35.99,0
-0.2447865754365921,-0.7568943500518799,0.0198651328682899,-11.143771171569824,0.7516258358955383,83.817626953125,35.99,0
-0.2018721252679824,-0.7768154740333557,0.0407371707260608,-20.098857879638672,0.7441272139549255,83.91878509521484,35.99,0
-0.2079187482595443,-0.8455774784088135,0.0877182930707931,-29.467702865600582,0.7393150329589844,83.98370361328125,35.99,0
-0.2621791064739227,-0.917693853378296,0.1066725179553031,-36.78056335449219,0.7362268567085266,84.0253677368164,35.99,0
-0.3025980591773987,-0.9975606203079224,0.0908473804593086,-42.65220260620117,0.7342450022697449,84.0521011352539,35.99,0
-0.3677210211753845,-1.0991945266723633,0.0974850431084632,-48.01811218261719,0.7329732179641724,84.06925964355469,35.99,0
-0.3983176350593567,-1.1308306455612185,0.1353313624858856,-52.60090255737305,0.7321570515632629,84.08026885986328,35.99,0
-0.3843661546707153,-1.0615684986114502,0.165216714143753,-56.53424835205078,0.7316332459449768,84.08733367919922,35.99,0
-0.3810106515884399,-0.9947289228439332,0.1396132260560989,-60.34817123413086,0.7349692583084106,84.09187316894531,35.97,0
-0.3900528252124786,-1.024606227874756,0.111986830830574,-62.92111587524414,0.7371100783348083,84.09478759765625,35.97,0
-0.4630288779735565,-1.099757432937622,0.1166488975286483,-61.44469451904297,0.7384839653968811,84.0966567993164,35.97,0
-0.5378496050834656,-1.1311918497085571,0.1196407452225685,-54.070072174072266,0.7393656373023987,84.09785461425781,35.97,0
-0.5298874974250793,-1.112180233001709,0.1103651896119117,-41.93944549560547,0.7399314641952515,84.09862518310547,35.97,0
-0.4408112466335296,-1.0440019369125366,0.0820215716958046,-28.44050025939941,0.7402945756912231,84.09911346435547,35.97,0
-0.3556583523750305,-0.9778579473495485,0.0638322755694389,-16.693056106567383,0.7405275702476501,84.09943389892578,35.97,0
-0.2786210179328918,-0.9242149591445924,0.074550524353981,-7.860911846160889,0.7406771183013916,84.09963989257812,35.97,0
-0.2347806692123413,-0.906583309173584,0.0870266556739807,-1.555251955986023,0.738018810749054,84.09976959228516,35.97,0
-0.2066464573144912,-0.9400505423545836,0.111826442182064,2.7851288318634038,0.7363128662109375,84.099853515625,35.97,0
-0.1773959994316101,-0.99511456489563,0.1333392858505249,5.240938663482666,0.7352180480957031,84.09990692138672,35.97,0
-0.1474291831254959,-1.0136581659317017,0.141547217965126,6.043099403381348,0.7345154881477356,84.09993743896484,35.97,0
-0.1226004362106323,-1.025558352470398,0.1300212740898132,6.536384582519531,0.7340646386146545,84.09996032714844,35.97,0
-0.1010690033435821,-1.0443907976150513,0.1114290431141853,8.705138206481934,0.7337753176689148,84.0999755859375,35.97,0
-0.0984469130635261,-1.0956608057022097,0.0491176508367061,13.539774894714355,0.7335896492004395,84.09998321533203,35.97,0
-0.1527419537305832,-1.117367386817932,-0.0300546381622552,20.156871795654297,0.7334704995155334,84.09999084472656,35.97,0
-0.2267698049545288,-1.030537486076355,-0.0808628499507904,26.294944763183597,0.7333940267562866,84.09999084472656,35.97,0
-0.3414499163627624,-0.8852506279945374,-0.0910775437951088,29.58197784423828,0.7333449125289917,84.09999084472656,35.97,0
-0.4150449931621551,-0.8367960453033447,-0.0864371955394744,29.30899429321289,0.7333134412765503,84.09999084472656,35.97,0
-0.5070562958717346,-0.8784717917442322,-0.0890570655465126,27.324607849121094,0.7332932353019714,84.09999084472656,35.97,0
-0.5325171947479248,-0.9220101833343506,-0.1075316667556762,26.14070701599121,0.7332802414894104,84.09999084472656,35.97,0
-0.4816832542419433,-0.9387550950050354,-0.113789826631546,25.939828872680664,0.7332718968391418,84.09999084472656,35.97,0
-0.3818876445293426,-0.9439032077789308,-0.0898170843720436,25.16963768005371,0.7332665324211121,84.09999084472656,35.97,0
-0.3066490292549133,-0.9360114336013794,-0.0688349828124046,23.733154296875,0.7332631349563599,84.09999084472656,35.97,0
-0.2079852372407913,-0.9421424865722656,-0.0273810066282749,22.736068725585938,0.7318837642669678,84.23612976074219,35.97,0
-0.0886907652020454,-0.9572725892066956,0.1447639018297195,21.51940155029297,0.7309985756874084,84.32350158691406,35.97,0
-0.1184921488165855,-0.950188934803009,0.2104544043540954,18.399192810058597,0.730430543422699,84.37957000732422,35.97,0
-0.204790249466896,-0.9400452375411988,0.2190241366624832,13.953505516052246,0.7300660014152527,84.4155502319336,35.97,0
-0.2769647240638733,-0.933535635471344,0.2021325975656509,10.462821006774902,0.7298320531845093,84.43864440917969,35.97,0
-0.3120866119861603,-0.9517492055892944,0.2192814499139785,8.545132637023926,0.7296819090843201,84.45346069335938,35.97,0
-0.2786480784416199,-0.957839846611023,0.2750687897205353,6.906056880950928,0.729585587978363,84.46296691894531,35.97,0
-0.2347980439662933,-0.961748480796814,0.3220654428005218,4.9657135009765625,0.7295237183570862,84.46907043457031,35.97,0
-0.2122553884983062,-0.9810501337051392,0.3354318737983703,3.720512866973877,0.7317793965339661,84.47298431396484,35.99,0
-0.2145821303129196,-0.9878390431404114,0.3216185867786407,3.903040409088135,0.7332269549369812,84.47550201416016,35.99,0
-0.260857492685318,-0.9977935552597046,0.2343851625919342,4.768934726715088,0.7341559529304504,84.47711181640625,35.99,0
-0.307347685098648,-1.048964023590088,0.1672082245349884,5.066669940948486,0.7347521185874939,84.4781494140625,35.99,0
-0.3203890919685364,-1.070606708526611,0.12969571352005,3.821126699447632,0.7351347208023071,84.47881317138672,35.99,0
-0.3175627589225769,-1.0788979530334473,0.1000245660543441,0.1879913955926895,0.735380232334137,84.47924041748047,35.99,0
-0.3101512193679809,-1.0618276596069336,0.0809833332896232,-5.686712741851807,0.7355377674102783,84.4795150756836,35.99,0
-0.3165904581546783,-0.9669063687324524,0.0687637627124786,-11.627800941467283,0.7356388568878174,84.47969055175781,35.99,0
-0.343113899230957,-0.9115891456604004,0.0497264005243778,-14.985462188720703,0.7338677048683167,84.47980499267578,35.99,0
-0.3769284188747406,-0.920871913433075,0.0431070886552333,-15.520891189575195,0.73273104429245,84.47987365722656,35.99,0
-0.4266175031661987,-0.971611261367798,0.0388591960072517,-15.280539512634276,0.7320016026496887,84.47991943359375,35.99,0
-0.4585051238536834,-1.0153683423995972,0.0249375943094491,-15.3412504196167,0.7315335273742676,84.47994995117188,35.99,0
-0.4397843182086944,-1.0210580825805664,0.0104057388380169,-14.380672454833984,0.7312331199645996,84.47997283935547,35.99,0
-0.366194874048233,-0.9911227822303772,0.0290689021348953,-11.12386989593506,0.731040358543396,84.47998046875,35.99,0
-0.3021760880947113,-0.9663142561912536,0.0578391700983047,-6.257345676422119,0.7309166193008423,84.47998809814453,35.99,0
-0.2610925137996673,-0.9559913277626038,0.0930955931544303,-1.0599795579910278,0.7308372259140015,84.47999572753906,35.99,0
-0.2459229826927185,-0.960562229156494,0.1157211363315582,3.9520363807678223,0.731245219707489,84.47999572753906,35.99,0
-0.2529813647270202,-0.9578977823257446,0.1302409023046493,8.27547550201416,0.7315070033073425,84.47999572753906,35.99,0
-0.2687065899372101,-0.9617856740951538,0.1339610815048217,11.032096862792969,0.7316750288009644,84.47999572753906,35.99,0
-0.2676025927066803,-0.9530851244926452,0.1307507008314132,12.052379608154297,0.731782853603363,84.47999572753906,35.99,0
-0.2501007914543152,-0.9586971998214722,0.123092696070671,12.467105865478516,0.7318520545959473,84.47999572753906,35.99,0
-0.2388691306114196,-0.979092001914978,0.1237760037183761,13.990736961364746,0.7318964600563049,84.47999572753906,35.99,0
-0.2428568452596664,-1.0089735984802246,0.1130189597606659,17.601709365844727,0.7319249510765076,84.47999572753906,35.99,0
-0.2398181557655334,-1.0449432134628296,0.0893223881721496,22.6776065826416,0.7319432497024536,84.47999572753906,35.99,0
-0.2378681004047393,-1.068026423454285,0.0461264178156852,27.99142265319824,0.733332097530365,84.59822082519531,35.99,0
-0.3541699349880218,-1.071644306182861,-0.0375720150768756,33.156986236572266,0.7342234253883362,84.6740951538086,35.99,0
-0.4903812706470489,-1.079563856124878,-0.0632959753274917,37.5718002319336,0.7347953915596008,84.72278594970703,35.99,0
-0.421056181192398,-1.0454617738723757,-0.0574130378663539,38.98627471923828,0.7351624369621277,84.7540283203125,35.99,0
-0.2366229891777038,-0.9955881237983704,0.0079378141090273,35.2617301940918,0.73539799451828,84.77407836914062,35.99,0
-0.1350576877593994,-0.9971687197685242,0.0442784540355205,26.301088333129883,0.7355491518974304,84.78694915771484,35.99,0
-0.0922700241208076,-1.0037808418273926,0.0955886542797088,13.202801704406738,0.7356461882591248,84.79520416259766,35.99,0
-0.0872024595737457,-1.0080240964889526,0.1285165846347808,-2.099382877349853,0.735708475112915,84.80050659179688,35.99,0
-0.0951459407806396,-0.9883560538291932,0.1272567361593246,-16.07164764404297,0.732535183429718,84.80390930175781,35.97,0
-0.1226347088813781,-0.9421476125717164,0.1208504661917686,-25.38217163085937,0.7304987907409668,84.80609130859375,35.97,0
-0.1626665145158767,-0.90129816532135,0.1055437475442886,-29.716310501098636,0.7291919589042664,84.80748748779297,35.97,0
-0.1939543932676315,-0.8862788677215576,0.1125140935182571,-31.06826400756836,0.7283532619476318,84.80838775634766,35.97,0
-0.214033156633377,-0.8822381496429443,0.1281828135251999,-31.104711532592773,0.7278150320053101,84.80896759033203,35.97,0
-0.2325163185596466,-0.8964383602142334,0.1438358724117279,-30.522645950317383,0.7274696826934814,84.80933380126953,35.97,0
-0.2555733025074005,-0.9167467951774596,0.1482833325862884,-29.808765411376957,0.7272480130195618,84.8095703125,35.97,0
-0.2815654873847961,-0.929779589176178,0.1511374562978744,-29.271821975708008,0.7271057963371277,84.80972290039062,35.97,0
-0.3038435578346252,-0.9157521724700928,0.1585668325424194,-28.787521362304688,0.7265552282333374,84.80982208251953,35.97,0
-0.3125425577163696,-0.9011523723602296,0.1633345782756805,-28.061145782470703,0.7262018918991089,84.80988311767578,35.97,0
-0.3013317584991455,-0.8805875182151794,0.1663942486047744,-26.84265899658203,0.7259751558303833,84.80992126464844,35.97,0
-0.2829417586326599,-0.8617924451828003,0.1739555448293686,-24.749483108520508,0.7258296608924866,84.80995178222656,35.97,0
-0.2655423581600189,-0.8609263896942139,0.1844057291746139,-21.425037384033203,0.7257362604141235,84.80996704101562,35.97,0
-0.2991586029529571,-0.9723260998725892,0.2191009223461151,-17.13130760192871,0.7256763577461243,84.80997467041016,35.97,0
