acc_x,acc_y,acc_z,bvp,eda,hr,temp,label
0.0,0.0,0.0,0.0,0.0,0.0,23.21,0
-0.0026041665114462,-0.0052083330228924,0.1692708283662796,20.189998626708984,0.1946048289537429,18.149999618530277,23.21,0
-0.0144817074760794,-0.0080030485987663,0.396341472864151,41.45756149291992,0.4556601047515869,42.49756240844727,23.21,0
-0.0098629565909504,-0.0154173588380217,0.6088039875030518,54.31149673461914,0.6827332377433777,63.67574691772461,23.21,0
-0.0225079283118248,-0.0421792976558208,0.7371158599853516,60.29660415649414,0.8483953475952148,79.12638092041016,23.21,0
-0.0310691073536872,-0.0383393764495849,0.8294781446456909,61.4185791015625,0.960555613040924,89.58710479736328,23.21,0
-0.0255803205072879,-0.0413729101419448,0.8845279812812805,58.245391845703125,1.0341488122940063,96.45085144042967,23.21,0
-0.0276048351079225,-0.0600755810737609,0.914601743221283,52.2374267578125,1.081811547279358,100.89616394042967,23.21,0
-0.0233187954872846,-0.055352795869112,0.9227941036224364,45.80204391479492,1.1093053817749023,103.75970458984376,23.21,0
-0.0205639768391847,-0.0579119026660919,0.9280596375465392,40.16549301147461,1.1269768476486206,105.60022735595705,23.21,0
-0.0299879293888807,-0.0539587587118148,0.9482303857803344,34.76582717895508,1.1383246183395386,106.7821273803711,23.21,0
-0.0416345186531543,-0.0626156777143478,0.949983775615692,28.942607879638672,1.145608901977539,107.54080200195312,23.21,0
-0.0435118861496448,-0.0625742375850677,0.9511091113090516,23.059314727783203,1.1502840518951416,108.02772521972656,23.21,0
-0.044716726988554,-0.0625476390123367,0.9630267024040222,17.750268936157227,1.1532844305038452,108.34021759033205,23.21,0
-0.0454899407923221,-0.0737260431051254,0.9762725830078124,13.057029724121094,1.1552098989486694,108.54076385498048,23.21,0
-0.0459861457347869,-0.0753019973635673,0.979175329208374,8.791257858276367,1.1564455032348633,108.66946411132812,23.21,0
-0.0519023537635803,-0.0707155913114547,0.9754403829574584,5.075680255889893,1.1870766878128052,108.7520523071289,23.21,0
-0.0501012653112411,-0.0733700692653656,0.9786412715911864,2.053535223007202,1.20673406124115,108.8050537109375,23.21,0
-0.0489454306662082,-0.0806713327765464,0.9806954264640808,-0.4877770543098449,1.219349026679993,108.83907318115234,23.21,0
-0.0705947801470756,-0.0741613134741783,0.9820136427879332,-2.602292776107788,1.2274445295333862,108.86090087890624,23.21,0
-0.1068791821599006,-0.064385786652565,0.9716640710830688,-3.916276693344116,1.2326397895812988,108.87490844726562,23.21,0
-0.1245666518807411,-0.0581124164164066,0.970620095729828,-4.379762649536133,1.235973834991455,108.88389587402344,23.21,0
-0.1247218996286392,-0.0596843026578426,0.9699501395225524,-4.444334030151367,1.2381134033203125,108.88966369628906,23.21,0
-0.1304192990064621,-0.0662908256053924,0.9695201516151428,-4.285148143768311,1.2394864559173584,108.89336395263672,23.21,0
-0.1396733373403549,-0.0705305114388465,0.9636464715003968,-3.778160572052002,1.2637790441513062,108.89574432373048,23.19,0
-0.1232209578156471,-0.0620557442307472,0.9654748439788818,-3.1697816848754883,1.2793686389923096,108.89727020263672,23.19,0
-0.1182605400681495,-0.0566171295940876,0.9666482210159302,-2.8940017223358154,1.2893731594085691,108.89824676513672,23.19,0
-0.1150772273540496,-0.0531269386410713,0.9618034362792968,-2.99288010597229,1.2957934141159058,108.89887237548828,23.19,0
-0.1186321377754211,-0.0564849078655242,0.958694338798523,-3.099325656890869,1.2999136447906494,108.89927673339844,23.19,0
-0.1153156980872154,-0.0642376318573951,0.9566990733146667,-2.440373420715332,1.3025577068328855,108.8995361328125,23.19,0
-0.1299807280302047,-0.0860062092542648,0.9442231059074402,-0.0900700762867927,1.3042545318603516,108.8997039794922,23.19,0
-0.1561852097511291,-0.111171580851078,0.9362167119979858,4.398921966552734,1.3053433895111084,108.89981079101562,23.19,0
-0.1618061959743499,-0.1217234879732132,0.9030898213386536,11.209784507751465,1.314305067062378,108.95362091064452,23.19,0
-0.1542178690433502,-0.1061040014028549,0.8314509391784668,20.74309539794922,1.3200562000274658,108.98815155029295,23.19,0
-0.1493481248617172,-0.1016780883073806,0.7854772210121155,32.901248931884766,1.323746919631958,109.01030731201172,23.19,0
-0.1294296830892563,-0.121228888630867,0.7615717053413391,46.51817321777344,1.326115369796753,109.02452850341795,23.19,0
-0.1222449392080307,-0.139373242855072,0.7406327128410339,60.52669906616211,1.3276352882385254,109.03365325927734,23.19,0
-0.1680141538381576,-0.1566150188446045,0.6992064118385315,75.00507354736328,1.3286107778549194,109.03951263427734,23.19,0
-0.1749951094388961,-0.1788753420114517,0.6950125098228455,90.3581771850586,1.3292367458343506,109.04327392578124,23.19,0
-0.1570839881896972,-0.2043562829494476,0.6979188919067383,106.3406982421875,1.3296384811401367,109.04568481445312,23.19,0
-0.1959696263074875,-0.2598929107189178,0.6997840404510498,122.58384704589844,1.3363226652145386,109.04723358154295,23.19,0
-0.2489130645990371,-0.3459130823612213,0.712176501750946,139.12680053710938,1.3406121730804443,109.04822540283205,23.19,0
-0.2604980170726776,-0.4514958560466766,0.7369226217269897,155.17430114746094,1.343364953994751,109.04885864257812,23.19,0
-0.2511392533779144,-0.5416439175605774,0.741607666015625,169.1053924560547,1.345131516456604,109.0492706298828,23.19,0
-0.2115466892719268,-0.6218868494033813,0.7278209328651428,180.46380615234372,1.346265196800232,109.04953002929688,23.19,0
-0.1413562595844268,-0.7517509460449219,0.7301689982414246,187.4842834472656,1.3469927310943604,109.04969787597656,23.19,0
-0.1243009567260742,-0.8686769008636475,0.737273633480072,182.6391143798828,1.3474596738815308,109.0498046875,23.19,0
-0.0797692015767097,-0.9884954690933228,0.7586262822151184,156.9344482421875,1.3477593660354614,109.04987335205078,23.19,0
-0.0511912815272808,-1.0373992919921875,0.7555358409881592,107.88739776611328,1.3557555675506592,109.04991912841795,23.19,0
-0.0272538419812917,-1.0519895553588867,0.7367592453956604,39.93403625488281,1.360887050628662,109.0499496459961,23.19,0
-0.0230877213180065,-1.0277661085128784,0.6967206597328186,-36.261627197265625,1.3641802072525024,109.04997253417967,23.19,0
-0.0372074693441391,-1.006623148918152,0.6542328596115112,-103.0259246826172,1.3662935495376587,109.04998016357422,23.19,0
-0.0910509079694747,-0.9706637263298036,0.5933799743652344,-144.98651123046875,1.3676496744155884,109.04998779296876,23.19,0
-0.1479956209659576,-0.9475870132446288,0.5263392329216003,-161.4031219482422,1.3685200214385986,109.04999542236328,23.19,0
-0.1845394670963287,-0.93277770280838,0.4777185916900635,-162.17942810058594,1.369078516960144,109.04999542236328,23.19,0
-0.2191867530345916,-0.9232739806175232,0.4521144330501556,-155.23301696777344,1.3694369792938232,109.04999542236328,23.19,0
-0.2358236014842987,-0.9115772247314452,0.4468787014484405,-143.99697875976562,1.3733391761779783,109.04999542236328,23.19,0
-0.2073157578706741,-0.9040709137916564,0.4267253875732422,-131.1079559326172,1.3758432865142822,109.04999542236328,23.19,0
-0.1890210658311844,-0.9048516154289246,0.3578144013881683,-117.96780395507812,1.3774503469467163,109.04999542236328,23.19,0
-0.1996716856956482,-0.9333414435386658,0.3079935312271118,-103.99654388427734,1.37848162651062,109.04999542236328,23.19,0
-0.2400932759046554,-0.9516245722770692,0.2984124720096588,-89.18025207519531,1.379143476486206,109.04999542236328,23.19,0
-0.2380446642637252,-0.9689554572105408,0.309057205915451,-75.2403564453125,1.3795682191848757,109.04999542236328,23.19,0
-0.2087411135435104,-0.9576863050460817,0.327083945274353,-63.26009750366211,1.3798407316207886,109.04999542236328,23.19,0
-0.2067290991544723,-0.916867733001709,0.3442502319812774,-52.30454635620117,1.3800156116485596,109.04999542236328,23.19,0
-0.1942423582077026,-0.8906727433204651,0.3552665710449219,-41.25067138671875,1.3815053701400757,109.01416778564452,23.19,0
-0.1750335395336151,-0.8514712452888489,0.367933988571167,-30.570772171020508,1.382461428642273,108.99118041992188,23.19,0
-0.157108649611473,-0.8319117426872253,0.3816609978675842,-21.44209289550781,1.3830749988555908,108.97642517089844,23.19,0
-0.1344099342823028,-0.8585439920425415,0.3904702067375183,-13.93226432800293,1.383468747138977,108.96695709228516,23.19,0
-0.1142454296350479,-0.9204172492027284,0.3961234390735626,-6.86661434173584,1.3837213516235352,108.96088409423828,23.19,0
-0.1125005632638931,-0.9713194966316224,0.3885557949542999,0.7236506938934326,1.3838834762573242,108.9569854736328,23.19,0
-0.1281741261482238,-0.975996732711792,0.3892970979213714,8.138274192810059,1.383987545967102,108.95448303222656,23.19,0
-0.1438302993774414,-0.9454116821289062,0.3897728323936462,12.763997077941896,1.3840543031692505,108.95287322998048,23.19,0
-0.1594752967357635,-0.9145883917808532,0.3900781273841858,12.361316680908203,1.3905235528945925,108.95184326171876,23.19,0
-0.1303309351205825,-0.917198896408081,0.3902740478515625,7.836051940917969,1.3946752548217771,108.95117950439452,23.19,0
-0.1116277649998664,-0.9188741445541382,0.3903997838497162,2.212822437286377,1.3973395824432373,108.95075225830078,23.19,0
-0.08283182233572,-0.8919603228569031,0.4128715693950653,-2.699899673461914,1.3990492820739746,108.9504852294922,23.19,0
-0.0643522441387176,-0.8634930849075317,0.4328904449939728,-6.73033332824707,1.400146484375,108.95030975341795,23.19,0
-0.069286435842514,-0.8228332996368408,0.4345418512821197,-9.80406379699707,1.4008506536483765,108.9501953125,23.19,0
-0.0948440134525299,-0.791142463684082,0.4188083112239837,-12.056048393249512,1.4013025760650637,108.95012664794922,23.19,0
-0.1056476235389709,-0.7652072906494141,0.4199069738388061,-14.002802848815918,1.4015926122665403,108.95008087158205,23.19,0
-0.106982983648777,-0.7317702770233154,0.4318075776100158,-15.46707248687744,1.4059101343154907,108.9500503540039,23.19,0
-0.130231037735939,-0.7159101366996765,0.4450424909591675,-15.761893272399902,1.40868079662323,108.95002746582033,23.19,0
-0.1731391698122024,-0.705731987953186,0.4871225357055664,-14.965883255004885,1.4104589223861694,108.95001983642578,23.19,0
-0.2062729150056839,-0.6880046725273132,0.5085293054580688,-13.842429161071776,1.4115999937057495,108.95001220703124,23.19,0
-0.2499273419380188,-0.6766282916069031,0.5166691541671753,-12.741708755493164,1.41233229637146,108.95000457763672,23.19,0
-0.3115288913249969,-0.7197076082229614,0.5050995349884033,-11.26507568359375,1.4128022193908691,108.95000457763672,23.19,0
-0.3566589951515198,-0.7697445154190063,0.486479252576828,-8.909504890441895,1.4131038188934326,108.95000457763672,23.19,0
-0.3912186622619629,-0.8634308576583862,0.4689320623874664,-5.821502208709717,1.4132972955703735,108.95000457763672,23.19,0
-0.4077993035316467,-0.9459444284439088,0.4576712846755981,-2.7148709297180176,1.4152575731277466,108.95000457763672,23.19,0
-0.4296353459358215,-0.9765058159828186,0.450444757938385,-0.1802448779344558,1.416515588760376,108.95000457763672,23.19,0
-0.4492462277412414,-0.9625316858291626,0.4570027589797973,1.646956443786621,1.417322874069214,108.95000457763672,23.19,0
-0.4618313908576965,-0.9143794775009156,0.4556135237216949,2.8159663677215576,1.4178409576416016,108.95000457763672,23.19,0
-0.4531144797801971,-0.8666848540306091,0.4323309063911438,3.3691282272338867,1.4181734323501587,108.95000457763672,23.19,0
-0.4419226944446563,-0.8640660643577576,0.4285849928855896,3.4554224014282227,1.4183868169784546,108.95000457763672,23.19,0
-0.4067515730857849,-0.8791787624359131,0.4429744184017181,3.238525152206421,1.4185237884521484,108.95000457763672,23.19,0
-0.3505941331386566,-0.8832794427871704,0.4242198467254638,2.5906074047088623,1.4186116456985474,108.95000457763672,23.19,0
-0.3201532959938049,-0.8971065878868103,0.4009886980056762,1.171689748764038,1.419127345085144,108.88909912109376,23.19,0
-0.2726292610168457,-0.9115778207778932,0.39727583527565,-1.0536952018737793,1.419458270072937,108.85001373291016,23.19,0
-0.2197399586439132,-0.9152668714523317,0.3948931097984314,-3.638991117477417,1.419670581817627,108.8249282836914,23.19,0
-0.157809779047966,-0.9064387083053588,0.4045595824718475,-5.964444160461426,1.4198068380355835,108.80883026123048,23.19,0
-0.1012732312083244,-0.895175576210022,0.4051651954650879,-7.521272659301758,1.4198943376541138,108.79850006103516,23.19,0
-0.0929802060127258,-0.8935452699661255,0.4055538475513458,-8.06536865234375,1.4199504852294922,108.7918701171875,23.19,0
-0.1100493147969245,-0.8869012594223022,0.4281943440437317,-7.726683139801025,1.4199864864349363,108.7876205444336,23.19,0
-0.1098077371716499,-0.8826375603675842,0.4539192616939544,-6.939704895019531,1.4200096130371094,108.7848892211914,23.19,0
-0.0984571576118469,-0.8631080389022827,0.4704280197620392,-6.130148410797119,1.422319412231445,108.78313446044922,23.19,0
-0.1023685559630394,-0.8449773192405701,0.4866201877593994,-5.51389217376709,1.4238017797470093,108.78201293945312,23.19,0
-0.1160742193460464,-0.8389398455619812,0.4970113933086395,-5.157822608947754,1.4247530698776243,108.78128814697266,23.19,0
-0.1416630446910858,-0.8406631350517273,0.5092776417732239,-4.993803977966309,1.425363540649414,108.78082275390624,23.19,0
-0.1636822521686554,-0.8529645800590515,0.5227471590042114,-4.741661071777344,1.425755262374878,108.78052520751952,23.19,0
-0.205801784992218,-0.950423300266266,0.5257933735847473,-4.157105922698975,1.4260066747665403,108.78033447265624,23.19,0
-0.238429456949234,-1.0129667520523071,0.5389438271522522,-3.423714637756348,1.4261679649353027,108.78021240234376,23.19,0
-0.2537702322006225,-1.0027235746383667,0.536187469959259,-2.9566490650177,1.4262715578079224,108.78013610839844,23.19,0
-0.2356261909008026,-0.9457700848579408,0.4840386211872101,-2.796633720397949,1.4272562265396118,108.78009033203124,23.19,0
-0.2183846235275268,-0.931611716747284,0.4113880693912506,-2.6007981300354004,1.4278881549835205,108.78005981445312,23.19,0
-0.2129177451133728,-0.9617100954055786,0.3423740267753601,-2.184933423995972,1.4282937049865725,108.78003692626952,23.19,0
-0.2206049710512161,-0.9306455254554749,0.3092803359031677,-1.7102659940719604,1.4285539388656616,108.78002166748048,23.19,0
-0.2311359643936157,-0.8771234750747681,0.2936404943466186,-1.3949040174484253,1.4287209510803225,108.78001403808594,23.19,0
-0.2714807987213135,-0.8147872090339661,0.2780059576034546,-1.3322433233261108,1.4288281202316284,108.7800064086914,23.19,0
-0.3197628855705261,-0.7523922920227051,0.2567770481109619,-1.4389169216156006,1.4288969039916992,108.7800064086914,23.19,0
-0.3563453257083893,-0.689959704875946,0.2599468827247619,-1.442887544631958,1.428941011428833,108.7800064086914,23.19,0
-0.3406374156475067,-0.6666874289512634,0.3011655211448669,-1.02985680103302,1.426674246788025,108.7800064086914,23.17,0
-0.3417525291442871,-0.6741436719894409,0.3388128280639648,-0.1844202429056167,1.4252196550369265,108.7800064086914,23.17,0
-0.3816525638103485,-0.6901242136955261,0.3909615874290466,0.7414679527282715,1.424286127090454,108.7800064086914,23.17,0
-0.424051433801651,-0.6891840696334839,0.4356231987476349,1.357145071029663,1.4236871004104614,108.7800064086914,23.17,0
-0.4736516773700714,-0.6885807514190674,0.4978711009025574,1.5444618463516235,1.4233026504516602,108.7800064086914,23.17,0
-0.5278733372688293,-0.7609646320343018,0.5770026445388794,1.406725525856018,1.42305588722229,108.7800064086914,23.17,0
-0.5514741539955139,-0.8298075199127197,0.6277847290039062,1.0890493392944336,1.4228975772857666,108.7800064086914,23.17,0
-0.5778153538703918,-0.8851824998855591,0.6379826068878174,0.8171141743659973,1.4227960109710691,108.7800064086914,23.17,0
-0.6003173589706421,-0.9710989594459534,0.6557225584983826,0.760826826095581,1.4250258207321167,108.72268676757812,23.17,0
-0.5979645252227783,-1.00944185256958,0.6391181945800781,0.7462003231048584,1.4264568090438845,108.68589782714844,23.17,0
-0.5908568501472473,-1.0228525400161743,0.5780825018882751,0.3964691758155823,1.427375078201294,108.66229248046876,23.17,0
-0.5583066940307617,-1.0146654844284058,0.5221199989318848,-0.3975977003574371,1.427964448928833,108.64714050292967,23.17,0
-0.520624577999115,-0.94223815202713,0.4358265101909637,-1.3370931148529053,1.428342580795288,108.63742065429688,23.17,0
-0.490844577550888,-0.9237473607063292,0.3636549711227417,-1.9292595386505127,1.4285852909088137,108.63117980957033,23.17,0
-0.4717334806919098,-0.97905433177948,0.3005461096763611,-1.9151945114135744,1.4287410974502563,108.6271743774414,23.17,0
-0.4482735395431518,-1.0089493989944458,0.2376553863286972,-1.6123971939086914,1.4288409948349,108.62460327148438,23.17,0
-0.4276205003261566,-1.0337320566177368,0.1861001998186111,-1.4825656414031982,1.427986979484558,108.62295532226562,23.17,0
-0.40317103266716,-1.0720272064208984,0.1474172621965408,-1.4422380924224854,1.4274388551712036,108.62189483642578,23.17,0
-0.387480765581131,-1.0854073762893677,0.1169950142502784,-1.255142331123352,1.4270870685577393,108.6212158203125,23.17,0
-0.3942049741744995,-1.0660051107406616,0.0918739885091781,-1.0885015726089478,1.4268614053726196,108.62078094482422,23.17,0
-0.3985202014446258,-1.047956109046936,0.0813505351543426,-0.9672307968139648,1.4267165660858154,108.62049865722656,23.17,0
-0.4068872332572937,-1.0307754278182983,0.0745971873402595,-0.4702448844909668,1.4266235828399658,108.62032318115234,23.17,0
-0.4122567176818847,-1.019749879837036,0.0758610516786575,0.3681654930114746,1.4265639781951904,108.62020874023438,23.17,0
-0.4157025516033172,-1.012674331665039,0.0766721293330192,0.95994770526886,1.4265257120132446,108.62013244628906,23.17,0
-0.4067183434963226,-1.024927020072937,0.0883881822228431,1.232242226600647,1.4265011548995972,108.62008666992188,23.17,0
-0.3841594457626343,-1.0607789754867554,0.1127001941204071,1.6326873302459717,1.426485300064087,108.62005615234376,23.17,0
-0.3696824610233307,-1.0781888961791992,0.1283022463321685,2.0867116451263428,1.426475167274475,108.62003326416016,23.17,0
-0.3547941744327545,-1.0501770973205566,0.1439125090837478,2.1452109813690186,1.4264687299728394,108.62002563476562,23.17,0
-0.3452397286891937,-1.0210052728652954,0.1707236021757125,1.953467607498169,1.426464557647705,108.6200180053711,23.17,0
-0.3111193776130676,-0.9071222543716432,0.1991249769926071,2.023876905441284,1.4264618158340454,108.62001037597656,23.17,0
-0.3228095471858978,-0.7668654322624207,0.2453402131795883,2.273268222808838,1.4264601469039917,108.62001037597656,23.17,0
-0.3247138559818268,-0.69364994764328,0.2973895967006683,2.118046522140503,1.4264590740203855,108.62001037597656,23.17,0
-0.3091425895690918,-0.7306311130523682,0.3587807714939117,1.427309274673462,1.4246222972869873,108.62001037597656,23.17,0
-0.2823565304279327,-0.7711567878723145,0.3925803005695343,0.6508543491363525,1.4234435558319092,108.62001037597656,23.17,0
-0.186797946691513,-0.8027616143226624,0.4366619884967804,0.134657397866249,1.42268705368042,108.62001037597656,23.17,0
-0.1422672718763351,-0.8342393636703491,0.4817444086074829,-0.2073558270931244,1.4222016334533691,108.62001037597656,23.17,0
-0.1416789144277572,-0.8656355142593384,0.5050779581069946,-0.5558129549026489,1.421890139579773,108.62001037597656,23.17,0
-0.1468991190195083,-0.8969792723655701,0.5144543051719666,-0.9585614204406738,1.4216902256011963,108.62001037597656,23.17,0
-0.1502491384744644,-0.9170939326286316,0.5316670536994934,-1.4283941984176636,1.42156183719635,108.62001037597656,23.17,0
-0.1635945439338684,-0.9132090210914612,0.5483109354972839,-1.9090346097946167,1.4214794635772705,108.62001037597656,23.17,0
-0.1721588522195816,-0.8939225673675537,0.5477964878082275,-2.149413108825684,1.420967698097229,108.56985473632812,23.17,0
-0.1832527071237564,-0.8871434330940247,0.5474663376808167,-1.8916778564453125,1.4206392765045166,108.53766632080078,23.17,0
-0.2015676498413086,-0.8995862603187561,0.5528522729873657,-1.1029101610183716,1.4204285144805908,108.51700592041016,23.17,0
-0.2189189046621322,-0.9075713753700256,0.5451130867004395,0.0588870085775852,1.420293211936951,108.50374603271484,23.17,0
-0.2524450421333313,-0.9070979952812196,0.512157678604126,1.245118260383606,1.4202064275741575,108.4952392578125,23.17,0
-0.2851557433605194,-0.9011964201927184,0.457422137260437,2.0493640899658203,1.4201507568359375,108.48978424072266,23.17,0
-0.3229409158229828,-0.9533869028091432,0.4222960174083709,2.4150145053863525,1.4201149940490725,108.4862823486328,23.17,0
-0.341591477394104,-1.076444149017334,0.4109496474266052,2.6639983654022217,1.4200921058654783,108.4840316772461,23.17,0
-0.3759514391422272,-1.1498173475265503,0.3924726545810699,2.974250078201294,1.420995593070984,108.48258972167967,23.17,0
-0.4259905517101288,-1.068155288696289,0.3246374130249023,3.1840994358062744,1.4215754270553589,108.4816665649414,23.17,0
-0.4581027626991272,-0.9877604246139526,0.2475180327892303,3.064405679702759,1.4219474792480469,108.48107147216795,23.17,0
-0.4675149917602539,-0.9473631381988524,0.1980272531509399,2.5541014671325684,1.422186255455017,108.4806900024414,23.17,0
-0.4903485476970672,-0.9662206768989564,0.160669133067131,1.7537176609039309,1.4223394393920898,108.4804458618164,23.17,0
-0.49380624294281,-1.023104548454285,0.1422926187515258,0.810168445110321,1.4224377870559692,108.48028564453124,23.17,0
-0.423254132270813,-1.1155871152877808,0.1137063130736351,-0.1679350137710571,1.4225009679794312,108.48018646240234,23.17,0
-0.3611845374107361,-1.169339299201965,0.0897634923458099,-1.0356580018997192,1.4225414991378784,108.48011779785156,23.17,0
-0.3269495964050293,-1.2038344144821167,0.0855939164757728,-1.656999111175537,1.4207310676574707,108.4800796508789,23.17,0
-0.3329684734344482,-1.2203736305236816,0.0773203447461128,-2.037827253341675,1.4195692539215088,108.48004913330078,23.17,0
-0.3592221438884735,-1.230987548828125,0.0608152970671653,-2.292968511581421,1.4188235998153689,108.48003387451172,23.17,0
-0.3872657716274261,-1.2210055589675903,0.0502233058214187,-2.4853639602661133,1.4183450937271118,108.4800262451172,23.17,0
-0.3828714787960052,-1.2145997285842896,0.0490237511694431,-2.615997552871704,1.418038010597229,108.48001861572266,23.17,0
-0.3856492340564728,-1.1992932558059692,0.0314606204628944,-2.735656499862671,1.4178409576416016,108.48001098632812,23.17,0
-0.3930296003818512,-1.2174593210220337,0.0257873889058828,-2.980827808380127,1.4177144765853882,108.48001098632812,23.17,0
-0.3809725940227508,-1.251508355140686,0.0333421863615512,-3.3746144771575928,1.417633295059204,108.48001098632812,23.17,0
-0.3564417660236358,-1.256565809249878,0.0549837425351142,-3.6094114780426025,1.4171222448349,108.48001098632812,23.21,0
-0.3295037448406219,-1.2150291204452517,0.0800675973296165,-3.4054155349731445,1.4167943000793457,108.48001098632812,23.21,0
-0.3178142607212066,-1.1715799570083618,0.0905671939253807,-2.9735662937164307,1.4165838956832886,108.48001098632812,23.21,0
-0.3103125989437103,-1.0765235424041748,0.1364896446466446,-2.6211962699890137,1.4164488315582275,108.48001098632812,23.21,0
-0.2719118297100067,-0.9539462327957152,0.2107422351837158,-2.262510061264038,1.416362166404724,108.48001098632812,23.21,0
-0.1800951361656189,-0.7801210284233093,0.2807843685150146,-1.7385547161102295,1.4163066148757937,108.48001098632812,23.21,0
-0.1043791398406028,-0.7525365948677063,0.3369289338588714,-1.0942089557647705,1.4162708520889282,108.48001098632812,23.21,0
-0.0110067771747708,-0.7572256326675415,0.4065459370613098,-0.3618556261062622,1.4162479639053345,108.48001098632812,23.21,0
0.0377186760306358,-0.7658325433731079,0.4680154323577881,0.4771318137645721,1.4139379262924194,108.43343353271484,23.21,0
0.046596772968769,-0.765758216381073,0.5074630379676819,1.3308123350143433,1.4124555587768557,108.4035415649414,23.21,0
0.0019142546225339,-0.7713082432746887,0.5327782034873962,2.111522912979126,1.411504149436951,108.38436126708984,23.21,0
-0.0323581881821155,-0.8140543699264526,0.5434262752532959,2.727180242538452,1.4108936786651611,108.3720474243164,23.21,0
-0.0375589467585086,-0.8582797050476074,0.5502595901489258,3.011214017868042,1.4105018377304075,108.36415100097656,23.21,0
-0.0520920418202877,-0.909052073955536,0.5602425932884216,2.978535890579224,1.4102504253387451,108.35907745361328,23.21,0
-0.0614185445010662,-0.9416348338127136,0.5666490793228149,2.82500958442688,1.410089135169983,108.35582733154295,23.21,0
-0.0674037560820579,-0.9401534795761108,0.5707604289054871,2.647668600082397,1.4099855422973633,108.3537368774414,23.21,0
-0.0936358198523521,-0.9336050748825072,0.5678010582923889,2.4693751335144043,1.4108372926712036,108.3523941040039,23.21,0
-0.1104700490832328,-0.935000479221344,0.5659019351005554,2.387199878692627,1.411383867263794,108.3515396118164,23.21,0
-0.1268710643053054,-0.9247003793716432,0.5590853691101074,2.330881834030152,1.411734700202942,108.35099029541016,23.21,0
-0.1485918462276458,-0.901297092437744,0.5491131544113159,2.008134126663208,1.4119597673416138,108.3506317138672,23.21,0
-0.1849220842123031,-0.8862782120704651,0.5147246718406677,1.4391731023788452,1.412104249000549,108.35040283203124,23.21,0
-0.2250300645828247,-0.9662043452262878,0.4870583415031433,1.131367802619934,1.4121969938278198,108.35025787353516,23.21,0
-0.2619646191596985,-1.056680679321289,0.4749014675617218,1.3673278093338013,1.4122564792633057,108.35016632080078,23.21,0
-0.3080581724643707,-1.1427321434020996,0.4391110241413116,1.7050472497940063,1.412294626235962,108.35010528564452,23.21,0
-0.3320405781269073,-1.1139883995056152,0.3881538808345794,1.4667890071868896,1.4123191833496094,108.35006713867188,23.21,0
-0.3586266636848449,-0.9835867881774902,0.316268116235733,0.5185568332672119,1.41233491897583,108.35004425048828,23.21,0
-0.3700903058052063,-0.9502825140953064,0.2757337391376495,-0.652428388595581,1.412345051765442,108.35002899169922,23.21,0
-0.3774470090866089,-0.951300859451294,0.2553188800811767,-1.5830280780792236,1.4123514890670776,108.35002136230467,23.21,0
-0.3317881524562835,-1.0079320669174194,0.2254244834184646,-2.2124764919281006,1.412355661392212,108.35001373291016,23.21,0
-0.2689002752304077,-1.0722635984420776,0.1950444281101226,-2.5913422107696533,1.412358283996582,108.35000610351562,23.21,0
-0.2061513662338256,-1.113547921180725,0.175548255443573,-2.5980265140533447,1.4123599529266355,108.35000610351562,23.21,0
-0.171480506658554,-1.134443998336792,0.1574389636516571,-2.301379680633545,1.4123610258102417,108.35000610351562,23.21,0
-0.1716218441724777,-1.1366584300994873,0.1402196884155273,-2.0393574237823486,1.4109846353530884,108.35000610351562,23.17,0
-0.1885058581829071,-1.121286153793335,0.1403649002313614,-1.914197564125061,1.410101294517517,108.35000610351562,23.17,0
-0.1937432736158371,-1.100225567817688,0.1460558623075485,-1.751477837562561,1.4095344543457031,108.35000610351562,23.17,0
-0.2027021199464798,-1.0699167251586914,0.1553057581186294,-1.629140853881836,1.409170627593994,108.35000610351562,23.17,0
-0.186060294508934,-1.0448685884475708,0.1836329102516174,-1.7190130949020386,1.4089372158050537,108.35000610351562,23.17,0
-0.1585872024297714,-1.0399895906448364,0.2074094265699386,-1.9235734939575195,1.4087873697280884,108.35000610351562,23.17,0
-0.0905765891075134,-0.9920763969421388,0.2282655984163284,-2.101422071456909,1.4086912870407104,108.35000610351562,23.17,0
-0.0413335189223289,-0.9109484553337096,0.25284543633461,-2.262128591537476,1.4086295366287231,108.35000610351562,23.17,0
-0.0265254732221364,-0.9092652201652528,0.2910104691982269,-2.333017587661743,1.4081310033798218,108.30342864990234,23.17,0
-0.0170225221663713,-0.91938054561615,0.2931114733219147,-2.1420600414276123,1.4078110456466677,108.2735366821289,23.17,0
-0.0557062700390815,-0.9482630491256714,0.2776664495468139,-1.654091715812683,1.407605767250061,108.25435638427734,23.17,0
-0.0805312693119049,-0.9500048756599426,0.3069391548633575,-1.061500906944275,1.4074740409851074,108.24205017089844,23.17,0
-0.0908647552132606,-0.91193825006485,0.3369202315807342,-0.6131412386894226,1.407389521598816,108.2341537475586,23.17,0
-0.1142895147204399,-0.9266937375068665,0.3505626022815704,-0.2680886089801788,1.4073352813720703,108.22908020019533,23.17,0
-0.1013333052396774,-1.0145317316055298,0.3649152517318725,0.2829432487487793,1.4073004722595217,108.225830078125,23.17,0
-0.0930187553167343,-1.037314534187317,0.3741259574890136,1.073638081550598,1.407278060913086,108.22373962402344,23.17,0
-0.1156718283891677,-0.9847618937492372,0.380036860704422,1.821092963218689,1.4086405038833618,108.22239685058594,23.17,0
-0.1470025926828384,-0.911852240562439,0.4062212407588959,2.4118263721466064,1.4095147848129272,108.22154235839844,23.17,0
-0.1559133231639862,-0.8706607818603516,0.4398182034492492,2.898402452468872,1.4100759029388428,108.2209930419922,23.17,0
-0.1168495193123817,-0.8330309391021729,0.4165965914726257,3.250067234039306,1.410435914993286,108.22063446044922,23.17,0
-0.0973783954977989,-0.8032844662666321,0.3737054169178009,3.500823497772217,1.410667061805725,108.22040557861328,23.17,0
-0.1184695959091186,-0.7897926568984985,0.3349847793579101,3.711900472640991,1.4108153581619265,108.2202606201172,23.17,0
-0.1487980335950851,-0.7811344265937805,0.3101361095905304,3.6646461486816406,1.4109104871749878,108.2201690673828,23.17,0
-0.2186410427093505,-0.8035669326782227,0.2941896617412567,3.1291778087615967,1.4109715223312378,108.22010803222656,23.17,0
-0.2522667348384857,-0.9243205189704896,0.3455316722393036,2.3592185974121094,1.4105517864227295,108.2200698852539,23.17,0
-0.2570524215698242,-1.0186065435409546,0.3784800171852112,1.8113644123077397,1.4102824926376345,108.22004699707033,23.17,0
-0.3161013424396515,-1.0343316793441772,0.3380488455295563,1.556512713432312,1.4101096391677856,108.22003173828124,23.17,0
-0.3707888722419739,-1.0500209331512451,0.3232980072498321,1.3177294731140137,1.4099987745285034,108.22002410888672,23.17,0
-0.3946886360645294,-1.1160671710968018,0.3754072785377502,0.9387899041175842,1.4099276065826416,108.2200164794922,23.17,0
-0.3428528308868408,-1.06888747215271,0.4200435578823089,0.5738007426261902,1.4098819494247437,108.22000885009766,23.17,0
-0.3095875978469848,-1.0050235986709597,0.4151019155979156,0.4470489621162414,1.4098526239395142,108.22000885009766,23.17,0
-0.2098710536956787,-1.0368105173110962,0.411930650472641,0.4337759017944336,1.4098337888717651,108.22000885009766,23.17,0
-0.1346831619739532,-1.0851984024047852,0.4042977392673492,0.1207390800118446,1.4102805852890017,108.22000885009766,23.19,0
-0.1536051928997039,-1.0882620811462402,0.3826060593128204,-0.6461968421936035,1.410567283630371,108.22000885009766,23.19,0
-0.1489549428224563,-1.123814821243286,0.3910766839981079,-1.5252903699874878,1.4107513427734375,108.22000885009766,23.19,0
-0.117981806397438,-1.1354349851608276,0.4077081978321075,-2.064363956451416,1.4108694791793823,108.22000885009766,23.19,0
-0.1093005761504173,-1.0869144201278689,0.4071857929229736,-2.1022088527679443,1.4109452962875366,108.22000885009766,23.19,0
-0.09253391623497,-1.0557767152786257,0.418046087026596,-1.8040636777877808,1.4109939336776731,108.22000885009766,23.19,0
-0.0649807155132293,-1.002207636833191,0.4082222878932953,-1.5661578178405762,1.4110251665115356,108.22000885009766,23.19,0
-0.0528964325785636,-0.9062545895576476,0.4075157046318054,-1.7108373641967771,1.4110451936721802,108.22000885009766,23.19,0
-0.022750336676836,-0.8390796780586243,0.4126600325107574,-2.04729962348938,1.4115173816680908,108.19134521484376,23.19,0
-0.0034043076448142,-0.767981767654419,0.3767769336700439,-2.080510377883911,1.4118202924728394,108.1729507446289,23.19,0
-0.0133802369236946,-0.7167574763298035,0.3425536751747131,-1.6360881328582764,1.412014722824097,108.16114807128906,23.19,0
-0.0421733111143112,-0.6950802206993103,0.3261889517307281,-0.9926260113716124,1.4121395349502563,108.15357208251952,23.19,0
-0.0942376926541328,-0.714755654335022,0.326882541179657,-0.4901246130466461,1.4122196435928345,108.14871215820312,23.19,0
-0.1444429457187652,-0.7497733235359192,0.3329254388809204,-0.2285519540309906,1.4122710227966309,108.14559173583984,23.19,0
-0.1878573298454284,-0.8394189476966858,0.320010095834732,-0.0786025524139404,1.4123040437698364,108.14358520507812,23.19,0
-0.2157181799411773,-0.9249371886253356,0.3005262315273285,0.1680945307016372,1.412325143814087,108.14230346679688,23.19,0
-0.2447932213544845,-1.0637844800949097,0.2600337266921997,0.5843559503555298,1.411420464515686,108.1414794921875,23.19,0
-0.2970385551452636,-1.1640841960906982,0.2172546535730362,1.105851411819458,1.4108399152755735,108.14094543457033,23.19,0
-0.3417621552944183,-1.2396464347839355,0.1842037290334701,1.5730725526809692,1.4104673862457275,108.14060974121094,23.19,0
-0.3536698520183563,-1.271344542503357,0.1517979949712753,1.758265733718872,1.410228252410889,108.14038848876952,23.19,0
-0.3445182144641876,-1.2636977434158323,0.1365996301174163,1.6299142837524414,1.4100748300552368,108.14025115966795,23.19,0
-0.2994607985019684,-1.1860193014144895,0.1548350751399994,1.397077560424805,1.409976363182068,108.1401596069336,23.19,0
-0.264947772026062,-1.1081808805465698,0.1609397530555725,1.2046654224395752,1.409913182258606,108.14009857177734,23.19,0
-0.2483970671892166,-1.019044280052185,0.1256729662418365,1.138507604598999,1.4098726511001587,108.14006042480467,23.19,0
-0.2601668834686279,-0.917059361934662,0.0974429994821548,1.4041528701782229,1.4098466634750366,108.1400375366211,23.19,0
-0.2789156138896942,-0.8404157757759094,0.0793266296386718,1.9293036460876465,1.4098299741744995,108.14002227783205,23.19,0
-0.3133385777473449,-0.7688392400741577,0.0788961350917816,2.1588380336761475,1.40981924533844,108.1400146484375,23.19,0
-0.3522225618362427,-0.7173077464103699,0.0954131931066513,1.675606608390808,1.409812331199646,108.14000701904295,23.19,0
-0.3771760761737823,-0.6954333186149597,0.1228062137961387,0.6418161392211914,1.4098079204559326,108.14000701904295,23.19,0
-0.3987875878810882,-0.7205800414085388,0.1627765744924545,-0.4586852490901947,1.4098050594329834,108.14000701904295,23.19,0
-0.4126566052436828,-0.75910884141922,0.2052205801010131,-1.1577585935592651,1.40980327129364,108.14000701904295,23.19,0
-0.4215569496154785,-0.8733987808227539,0.266045331954956,-1.2660388946533203,1.4098020792007446,108.14000701904295,23.19,0
-0.4384642243385315,-0.9915257096290588,0.3050791621208191,-1.0596686601638794,1.4093424081802368,108.14000701904295,23.21,0
-0.4045321345329284,-1.0449416637420654,0.3245310485363006,-1.0060487985610962,1.4090474843978882,108.14000701904295,23.21,0
-0.3659631609916687,-1.084818720817566,0.3650030195713043,-1.2474968433380127,1.4088581800460815,108.14000701904295,23.21,0
-0.3636029064655304,-1.149593949317932,0.4245622456073761,-1.4597655534744265,1.4087367057800293,108.14000701904295,23.21,0
-0.367686003446579,-1.1127941608428955,0.5019683837890625,-1.3165465593338013,1.408658742904663,108.14000701904295,23.21,0
-0.3759040832519531,-1.0276025533676147,0.5292520523071289,-1.0311777591705322,1.4086086750030518,108.14000701904295,23.21,0
-0.3307980000972748,-1.0121159553527832,0.5523589253425598,-1.0844944715499878,1.4085766077041626,108.14000701904295,23.21,0
-0.2290804386138916,-1.0749486684799194,0.555992066860199,-1.494880437850952,1.4085559844970703,108.14000701904295,23.21,0
-0.1526084095239639,-1.1208688020706177,0.5471280217170715,-1.8263115882873533,1.409001708030701,107.9680404663086,23.21,0
-0.0867397412657737,-1.1391421556472778,0.5358418226242065,-1.841963291168213,1.409287691116333,107.85768127441406,23.21,0
0.0059109479188919,-1.162064552307129,0.5230011940002441,-1.622722864151001,1.4094712734222412,107.786865234375,23.21,0
0.0541732758283615,-1.1151992082595823,0.4923697412014007,-1.2706549167633057,1.4095890522003174,107.74141693115234,23.21,0
-0.0156146790832281,-1.0179505348205566,0.4615166783332824,-0.8942498564720154,1.4096646308898926,107.71224975585938,23.21,0
-0.0659983456134796,-0.9499440789222716,0.4529125094413757,-0.584625780582428,1.4097131490707395,107.69353485107422,23.21,0
-0.0815383568406105,-0.8671170473098755,0.419402003288269,-0.3142753839492798,1.4097442626953125,107.6815185546875,23.21,0
-0.0915110483765602,-0.797170102596283,0.3755057752132416,-0.0333027876913547,1.409764289855957,107.67381286621094,23.21,0
-0.0811176225543022,-0.7298910617828369,0.3417379260063171,0.179252415895462,1.4083999395370483,107.66886901855467,23.21,0
-0.0912410393357276,-0.6811174750328064,0.3256654441356659,0.269084632396698,1.407524347305298,107.66569519042967,23.21,0
-0.1145309880375862,-0.6610129475593567,0.3209488093852997,0.3303163647651672,1.406962513923645,107.66365814208984,23.21,0
-0.1630637943744659,-0.7096865773200989,0.3235197365283966,0.4806711971759796,1.406601905822754,107.66234588623048,23.21,0
-0.2054048925638198,-0.7689113616943359,0.3251695930957794,0.7347936630249023,1.4063705205917358,107.66150665283205,23.21,0
-0.2437725216150283,-0.8852872848510742,0.326228380203247,0.9229528307914734,1.4062219858169556,107.66096496582033,23.21,0
-0.2683946490287781,-1.049535036087036,0.3381034135818481,0.8251653909683228,1.4061267375946045,107.6606216430664,23.21,0
-0.3009890615940094,-1.1381464004516602,0.3457241058349609,0.5223785042762756,1.406065583229065,107.660400390625,23.21,0
-0.3331018090248108,-1.1502299308776855,0.3842012882232666,0.3244847357273102,1.4064855575561523,107.6602554321289,23.21,0
-0.3313188254833221,-1.1523866653442385,0.4032959640026092,0.373034119606018,1.4067550897598269,107.66016387939452,23.21,0
-0.2685990929603576,-1.1537706851959229,0.3595720827579498,0.5474933385848999,1.4069280624389648,107.66010284423828,23.21,0
-0.177969217300415,-1.1378655433654783,0.2923281788825989,0.6415383219718933,1.4070390462875366,107.66006469726562,23.21,0
-0.1477970480918884,-1.082876443862915,0.2435771375894546,0.5621705651283264,1.407110333442688,107.66004180908205,23.21,0
-0.1788142472505569,-0.9972075819969176,0.2066937536001205,0.4109247624874115,1.4071561098098757,107.66002655029295,23.21,0
-0.2099148631095886,-0.9310346841812134,0.1886218935251236,0.2780381441116333,1.407185435295105,107.66001892089844,23.21,0
-0.2746556401252746,-0.8493843078613281,0.1826221942901611,0.0028826678171753,1.407204270362854,107.6600112915039,23.21,0
-0.3218003213405609,-0.7633991837501526,0.1787719279527664,-0.5391190052032471,1.4049209356307983,107.6600112915039,23.21,0
-0.3520550429821014,-0.7026211023330688,0.176301047205925,-1.1556376218795776,1.4034557342529297,107.6600112915039,23.21,0
-0.4106552302837372,-0.6636171936988831,0.2250953465700149,-1.5942747592926023,1.4025154113769531,107.6600112915039,23.21,0
-0.4594569802284241,-0.6497822999954224,0.278799831867218,-1.8399410247802732,1.401911973953247,107.6600112915039,23.21,0
-0.5075684785842896,-0.6632949709892273,0.3580464720726013,-1.9546046257019043,1.4015246629714966,107.6600112915039,23.21,0
-0.482465922832489,-0.7223466038703918,0.4648801386356354,-1.9565376043319704,1.4012761116027832,107.6600112915039,23.21,0
-0.4439654350280761,-0.788231372833252,0.5614287257194519,-1.846718192100525,1.4011166095733645,107.6600112915039,23.21,0
-0.4080624878406524,-0.8808923959732056,0.6289858222007751,-1.6078612804412842,1.4010143280029297,107.6600112915039,23.21,0
-0.4130109250545501,-0.9683457612991332,0.661144495010376,-1.20021390914917,1.4018669128417969,107.44863891601562,23.21,0
-0.4665665030479431,-1.0524572134017944,0.6929776668548584,-0.6054297089576721,1.4024139642715454,107.31298828125,23.21,0
-0.5009353756904602,-1.0672506093978882,0.6854174733161926,0.1345260888338089,1.4027650356292725,107.22593688964844,23.21,0
-0.500600278377533,-1.0151686668395996,0.6301857829093933,0.8673326373100281,1.4029903411865234,107.17007446289062,23.21,0
-0.427614152431488,-0.9593544006347656,0.5331657528877258,1.3519359827041626,1.4031349420547483,107.13422393798828,23.21,0
-0.3415914475917816,-0.940329372882843,0.4876972138881683,1.5196235179901123,1.403227686882019,107.11121368408205,23.21,0
-0.2807892560958862,-0.9057290554046632,0.4809092283248901,1.5161758661270142,1.4032872915267944,107.09645080566406,23.21,0
-0.2921498715877533,-0.8667312860488892,0.4541620016098022,1.435146689414978,1.4033255577087402,107.08697509765624,23.21,0
-0.2938426733016968,-0.8584980368614197,0.4146060645580292,1.250591516494751,1.4019725322723389,107.08089447021484,23.21,0
-0.2893312573432922,-0.8868010640144348,0.3724280297756195,1.0605031251907349,1.4011043310165403,107.07698822021484,23.21,0
-0.2808383107185364,-0.9161598682403564,0.3509583473205566,1.003001689910889,1.4005471467971802,107.0744857788086,23.21,0
-0.3033769130706787,-0.9294028878211976,0.3427781164646148,0.9947611689567566,1.4001895189285278,107.0728759765625,23.21,0
-0.3346342146396637,-0.9211081862449646,0.3487240672111511,0.9178213477134703,1.3999600410461426,107.07184600830078,23.21,0
-0.3546933233737945,-0.904589593410492,0.3469420671463012,0.8684458136558533,1.3998128175735474,107.07118225097656,23.21,0
-0.3675661087036133,-0.8771955966949463,0.323407381772995,0.9299063682556152,1.3997182846069336,107.0707550048828,23.21,0
-0.3870226740837097,-0.8708112239837646,0.3139019608497619,0.9371050596237184,1.3996576070785522,107.07048797607422,23.21,0
-0.332335501909256,-0.8779096603393555,0.3413885831832886,0.7518482208251953,1.3996187448501587,107.0703125,23.21,0
-0.2468604445457458,-0.865671694278717,0.3590278923511505,0.4574148952960968,1.399593710899353,107.07019805908205,23.21,0
-0.1696163713932037,-0.8354269862174988,0.370347797870636,0.1860652714967727,1.3995777368545532,107.07012939453124,23.21,0
-0.136838898062706,-0.8160176873207092,0.3720144927501678,0.0190938580781221,1.399567484855652,107.07008361816406,23.21,0
-0.1437930762767791,-0.7867685556411743,0.3842796087265014,0.0659919753670692,1.399560809135437,107.07005310058594,23.21,0
-0.193038061261177,-0.7568026185035706,0.4313350915908813,0.4149377048015594,1.3995566368103027,107.07003021240234,23.21,0
-0.219042882323265,-0.7151811122894287,0.4447392523288727,1.0007110834121704,1.399553894996643,107.0700225830078,23.21,0
-0.2357312738895416,-0.7164596915245056,0.4197546243667602,1.5485904216766355,1.3995521068572998,107.07001495361328,23.21,0
-0.224049836397171,-0.8068445920944214,0.3813298344612121,1.7353893518447876,1.3972560167312622,107.07000732421876,23.19,0
-0.2277489006519317,-0.904032826423645,0.3622688055038452,1.4611828327178955,1.395782470703125,107.07000732421876,23.19,0
-0.2357205301523208,-0.9496093392372132,0.3892209529876709,0.912625014781952,1.3948369026184082,107.07000732421876,23.19,0
-0.2520318031311035,-0.9396733045578004,0.412115067243576,0.2309951931238174,1.3942301273345947,107.07000732421876,23.19,0
-0.2680972218513489,-0.9221013784408568,0.4212094247341156,-0.5790234208106995,1.3938406705856323,107.07000732421876,23.19,0
-0.2784070670604706,-0.8940314054489136,0.4046545624732971,-1.3711224794387815,1.3935906887054443,107.07000732421876,23.19,0
-0.2850233316421509,-0.8872132897377014,0.3996283710002899,-1.9296021461486816,1.3934303522109983,107.07000732421876,23.19,0
-0.3004648387432098,-0.877240002155304,0.4411850273609161,-2.3560712337493896,1.3933274745941162,107.07000732421876,23.19,0
-0.304776519536972,-0.8764374852180481,0.4958425760269165,-2.855456829071045,1.3928024768829346,106.6866683959961,23.19,0
-0.3075435161590576,-0.8759225010871887,0.547711968421936,-3.2547502517700195,1.392465591430664,106.44066619873048,23.19,0
-0.3093192279338836,-0.903580904006958,0.5865965485572815,-3.2458832263946533,1.392249345779419,106.28279113769533,23.19,0
-0.3104587495326996,-0.9437215328216552,0.5891593098640442,-2.806701183319092,1.3921105861663818,106.18148040771484,23.19,0
-0.2943967282772064,-1.008665919303894,0.5292284488677979,-2.030463933944702,1.3920215368270874,106.11646270751952,23.19,0
-0.2616979479789734,-1.0559412240982056,0.4627794027328491,-1.002098560333252,1.3919644355773926,106.07473754882812,23.19,0
-0.3022892773151397,-1.1254642009735107,0.4313317537307739,0.0949213802814483,1.391927719116211,106.04796600341795,23.19,0
-0.3507295548915863,-1.2092645168304443,0.3831616044044494,1.139270305633545,1.3919042348861694,106.0307846069336,23.19,0
-0.3314357399940491,-1.2686405181884766,0.335455447435379,2.268043041229248,1.3932658433914185,106.0197525024414,23.19,0
-0.347042977809906,-1.217180252075195,0.2264715433120727,3.408003091812134,1.3941396474838257,106.0126724243164,23.19,0
-0.3626565635204315,-1.1561671495437622,0.1229453012347221,3.899531364440918,1.3947004079818726,106.00813293457033,23.19,0
-0.3670786917209625,-1.1394034624099731,0.0621058903634548,3.2154273986816406,1.3950603008270264,106.00521850585938,23.19,0
-0.3643187880516052,-1.134243369102478,0.0342582091689109,1.7231316566467283,1.3952912092208862,106.00334930419922,23.19,0
-0.3793409764766693,-1.1197363138198853,0.0219849459826946,0.2424058765172958,1.3954395055770874,106.0021514892578,23.19,0
-0.3889813423156738,-1.1104265451431274,0.0420975461602211,-0.8081507086753845,1.395534634590149,106.00138092041016,23.19,0
-0.3951679766178131,-1.1212453842163086,0.0773957520723342,-1.3067911863327026,1.395595669746399,106.00088500976562,23.19,0
-0.3991381824016571,-1.1281882524490356,0.1000481098890304,-1.0858210325241089,1.3951759338378906,106.00056457519533,23.19,0
-0.4016860425472259,-1.12704598903656,0.0977917611598968,-0.2740735411643982,1.394906520843506,106.00035858154295,23.19,0
-0.3977233469486236,-1.1207152605056765,0.0907459929585456,0.5907866358757019,1.3947336673736572,106.00022888183594,23.19,0
-0.38398477435112,-1.1222503185272217,0.0806266516447067,1.1601343154907229,1.3946226835250854,106.0001449584961,23.19,0
-0.3583748042583465,-1.1232354640960691,0.0853281915187835,1.4144490957260132,1.3945515155792236,106.00009155273438,23.19,0
-0.3363420367240906,-1.1182698011398315,0.093943141400814,1.3304558992385864,1.3945058584213257,106.00006103515624,23.19,0
-0.3166049122810364,-1.1206809282302856,0.1050694957375526,0.9218789339065552,1.3944765329360962,106.00003814697266,23.19,0
-0.2983409762382507,-1.1334238052368164,0.1178075224161148,0.3874019980430603,1.3944576978683472,106.0000228881836,23.19,0
-0.2754246890544891,-1.1136125326156616,0.1483731567859649,-0.0881498008966445,1.393986701965332,106.00001525878906,23.21,0
-0.2551205456256866,-1.0897033214569092,0.1735861897468567,-0.3861664235591888,1.3936845064163208,106.00000762939452,23.21,0
-0.2141016572713852,-1.0407731533050537,0.1897664666175842,-0.3158883154392242,1.3934905529022217,106.00000762939452,23.21,0
-0.1373981237411499,-0.8750259280204773,0.2505300045013428,0.1340431869029998,1.3933660984039309,106.00000762939452,23.21,0
-0.0769786611199379,-0.7350722551345825,0.3063178658485412,0.5839992165565491,1.3932862281799316,106.00000762939452,23.21,0
-0.0661937966942787,-0.7236269116401672,0.3533148467540741,0.6828786134719849,1.3932349681854248,106.00000762939452,23.21,0
-0.0424793697893619,-0.7722597122192383,0.4114636778831482,0.4382321834564209,1.3932020664215088,106.00000762939452,23.21,0
-0.0160652659833431,-0.8090671896934509,0.4487802684307098,0.0304518789052963,1.3931809663772583,106.00000762939452,23.21,0
0.0008857858483679,-0.8382858633995056,0.4839234352111816,-0.349463015794754,1.3922492265701294,105.66323852539062,23.21,0
-0.0162248760461807,-0.862634539604187,0.5120741128921509,-0.4678803980350494,1.391651272773743,105.4471206665039,23.21,0
-0.0607921630144119,-0.900651216506958,0.5357373356819153,-0.2393549233675003,1.3912675380706787,105.30843353271484,23.21,0
-0.0725995600223541,-0.9362436532974244,0.5845096707344055,-0.0103011801838874,1.3910212516784668,105.21942901611328,23.21,0
-0.0633835420012474,-0.9478892683982848,0.6270045042037964,-0.1857394874095916,1.3908631801605225,105.1623077392578,23.21,0
-0.0350781343877315,-0.9385694861412048,0.6486774682998657,-0.6315051913261414,1.3907617330551147,105.12565612792967,23.21,0
-0.0337066762149333,-0.9157952666282654,0.6513903737068176,-0.8996590971946716,1.39069664478302,105.10213470458984,23.21,0
-0.0888042971491813,-0.8675934076309204,0.6307402849197388,-0.8532077670097351,1.3906549215316772,105.0870361328125,23.21,0
-0.1633471995592117,-0.903833508491516,0.6398793458938599,-0.5332093238830566,1.391546368598938,105.0773468017578,23.21,0
-0.2335756421089172,-0.9438836574554444,0.6513420343399048,0.1056388989090919,1.3921184539794922,105.07112884521484,23.21,0
-0.2786442041397095,-0.9415966868400574,0.6642959117889404,0.8058035373687744,1.392485499382019,105.067138671875,23.21,0
-0.2627844214439392,-0.9289334416389464,0.678206741809845,1.054504632949829,1.3927210569381714,105.06458282470705,23.21,0
-0.3309753835201263,-1.004773497581482,0.6703405976295471,0.9310832619667052,1.3928722143173218,105.0629425048828,23.21,0
-0.5538651943206787,-1.0758343935012815,0.5309459567070007,1.027424693107605,1.392969250679016,105.0618896484375,23.21,0
-0.7025008201599121,-1.076655030250549,0.3575238883495331,1.3937699794769287,1.3930314779281616,105.06121063232422,23.21,0
-0.7363110780715942,-1.0323994159698486,0.2126449346542358,1.5106443166732788,1.3930714130401611,105.06077575683594,23.21,0
-0.7188241481781006,-1.0375853776931765,0.1140721812844276,1.1879817247390747,1.3921788930892944,105.06049346923828,23.21,0
-0.6852109432220459,-1.1472711563110352,0.0396183170378208,0.6477358341217041,1.391606092453003,105.06031799316406,23.21,0
-0.6300532817840576,-1.2064656019210815,0.0030336591880768,-0.0357249528169631,1.3912384510040283,105.0602035522461,23.21,0
-0.5778629183769226,-1.238855481147766,-0.00365094630979,-0.9364830255508424,1.391002535820007,105.06012725830078,23.21,0
-0.5275768637657166,-1.2652392387390137,0.0032548073213547,-1.8298043012619016,1.3908511400222778,105.0600814819336,23.21,0
-0.4785128235816955,-1.2709752321243286,-0.0035090262535959,-2.270531177520752,1.390753984451294,105.06005096435548,23.21,0
-0.4414285719394684,-1.2298740148544312,-0.0358385369181633,-2.1771938800811768,1.3906916379928589,105.06002807617188,23.21,0
-0.4344233572483063,-1.1699110269546509,-0.0509879812598228,-1.991905212402344,1.3906517028808594,105.06002044677734,23.21,0
-0.4243300259113312,-1.125832438468933,-0.0495144762098789,-2.077204465866089,1.389708161354065,105.0600128173828,23.21,0
-0.3954616189002991,-1.075154185295105,-0.0261777676641941,-2.2250916957855225,1.3891026973724363,105.06000518798828,23.21,0
-0.3769355416297912,-1.0258384943008425,-0.0056038354523479,-2.090712308883667,1.388714075088501,105.06000518798828,23.21,0
-0.3482532501220703,-0.9773972630500792,0.0355882011353969,-1.778773069381714,1.3884646892547607,105.06000518798828,23.21,0
-0.3186510503292084,-0.9407126903533936,0.09001175314188,-1.5750058889389038,1.3883047103881836,105.06000518798828,23.21,0
-0.2940562963485718,-0.9171706438064576,0.1361332088708877,-1.533804178237915,1.3882019519805908,105.06000518798828,23.21,0
-0.26707723736763,-0.8908671140670776,0.2049157172441482,-1.5467716455459597,1.3881360292434692,105.06000518798828,23.21,0
-0.2329703122377395,-0.8851826190948486,0.2658497095108032,-1.5156850814819336,1.3880937099456787,105.06000518798828,23.21,0
-0.1830935776233673,-0.8759368658065796,0.3273447155952453,-1.3130241632461548,1.3802626132965088,104.74473571777344,23.21,0
-0.106303371489048,-0.8252212405204773,0.4339819848537445,-0.9286051392555236,1.3752371072769165,104.54241180419922,23.21,0
-0.0402305163443088,-0.7646859884262085,0.5080134272575378,-0.6675768494606018,1.3720120191574097,104.4125747680664,23.21,0
0.0245623383671045,-0.7538268566131592,0.5443269610404968,-0.761591911315918,1.369942307472229,104.32925415039062,23.21,0
0.0717404335737228,-0.7804447412490845,0.5620331168174744,-0.8577511310577393,1.3686141967773438,104.2757797241211,23.21,0
0.046038880944252,-0.8535043001174927,0.5789936780929565,-0.3784916698932647,1.3677618503570557,104.24146270751952,23.21,0
0.012751780450344,-0.9227808117866516,0.6010735630989075,0.6885754466056824,1.3672147989273071,104.21944427490234,23.21,0
-0.0086099645122885,-0.96164071559906,0.615243136882782,1.8426752090454104,1.36686372756958,104.20531463623048,23.21,0
-0.0391120240092277,-0.9473943710327148,0.6075430512428284,2.7337779998779297,1.3689337968826294,104.1962432861328,23.21,0
-0.0586864911019802,-0.932654082775116,0.5970038175582886,3.359375238418579,1.3702622652053833,104.19042205810548,23.21,0
-0.0712482556700706,-0.9231946468353271,0.5846425890922546,3.696361303329468,1.3711148500442505,104.18669128417967,23.21,0
-0.1128963232040405,-0.9003307819366455,0.5655142664909363,3.5830225944519043,1.3716620206832886,104.18429565429688,23.21,0
-0.1508191972970962,-0.8800603151321411,0.5476410388946533,3.087544202804565,1.3720130920410156,104.18275451660156,23.21,0
-0.1975470185279846,-0.8614540696144104,0.5193777084350586,2.6764278411865234,1.3722383975982666,104.18177032470705,23.21,0
-0.2275342494249344,-0.8551114797592163,0.4956421852111816,2.68845534324646,1.3723829984664917,104.18113708496094,23.21,0
-0.2299849987030029,-0.8678344488143921,0.4636167585849762,2.8860504627227783,1.3724757432937622,104.18073272705078,23.21,0
-0.2315577566623687,-0.8927926421165466,0.4318691492080688,2.880300283432007,1.3780438899993896,104.18047332763672,23.21,0
-0.2381648272275924,-0.9312005043029784,0.4170931279659271,2.6831510066986084,1.3816171884536743,104.18030548095705,23.21,0
-0.225611537694931,-0.9502506852149964,0.4020129442214966,2.4491546154022217,1.3839102983474731,104.1801986694336,23.21,0
-0.2231533378362655,-0.9624759554862976,0.3699442446231842,2.191512107849121,1.3853819370269775,104.1801300048828,23.21,0
-0.2271735817193985,-1.0151036977767944,0.3605599701404571,1.8362953662872317,1.3863263130187988,104.18008422851562,23.21,0
-0.2745357453823089,-1.110452651977539,0.3657332062721252,1.139020323753357,1.386932373046875,104.1800537109375,23.21,0
-0.3105278313159942,-1.132457613945007,0.3746508657932281,-0.1575211286544799,1.3873213529586792,104.1800308227539,23.21,0
-0.333625465631485,-1.0850036144256592,0.3747759461402893,-1.7347424030303955,1.3875709772109983,104.18002319335938,23.21,0
-0.3204593360424042,-1.0657459497451782,0.3916495442390442,-2.7755727767944336,1.3872718811035156,104.18001556396484,23.21,0
-0.2616300880908966,-1.1093652248382568,0.4360646903514862,-2.9061315059661865,1.3870799541473389,104.18000793457033,23.21,0
-0.1119213849306106,-1.1821397542953491,0.4645677804946899,-2.448947668075561,1.3869566917419434,104.18000793457033,23.21,0
0.0233374573290348,-1.2288422584533691,0.4772616326808929,-1.8367042541503904,1.3868776559829712,104.18000793457033,23.21,0
0.1269321292638778,-1.1524555683135986,0.4686144888401031,-1.3470721244812012,1.3868268728256226,104.18000793457033,23.21,0
0.1598265767097473,-1.047457218170166,0.4406741559505462,-1.1260013580322266,1.3867943286895752,104.18000793457033,23.21,0
0.1025674939155578,-0.912902057170868,0.3779614865779876,-1.1525119543075562,1.3867734670639038,104.18000793457033,23.21,0
-0.0069491537287831,-0.7873678803443909,0.3097272217273712,-1.3558188676834106,1.386760115623474,104.18000793457033,23.21,0
-0.0940239578485488,-0.7012094855308533,0.265938401222229,-1.826634168624878,1.3853743076324463,103.87190246582033,23.21,0
-0.1555013358592987,-0.6683090925216675,0.2322394698858261,-2.547937631607056,1.3844850063323977,103.67417907714844,23.21,0
-0.1837584227323532,-0.6639888286590576,0.221808984875679,-3.189957618713379,1.383914351463318,103.54729461669922,23.21,0
-0.2410766184329986,-0.6556185483932495,0.2598975002765655,-3.422840118408203,1.383548140525818,103.4658660888672,23.21,0
-0.2890556752681732,-0.6782358884811401,0.3011338412761688,-3.1997029781341557,1.3833130598068235,103.41360473632812,23.21,0
-0.3478347659111023,-0.7207392454147339,0.3164013922214508,-2.6265974044799805,1.383162260055542,103.38007354736328,23.21,0
-0.3855557739734649,-0.7760043144226074,0.3261992335319519,-1.7715808153152466,1.3830654621124268,103.35855102539062,23.21,0
-0.4041651785373688,-0.8450568914413452,0.326889157295227,-0.7428152561187744,1.3830033540725708,103.34474182128906,23.21,0
-0.3937165439128876,-0.9845330715179444,0.3329296708106994,0.2362364828586578,1.383881688117981,103.33587646484376,23.21,0
-0.3534245491027832,-1.0796386003494265,0.3424039185047149,0.8967787027359009,1.384445309638977,103.33018493652344,23.21,0
-0.338763028383255,-1.1070852279663086,0.320495069026947,1.1666259765625,1.384806990623474,103.3265380859375,23.21,0
-0.4413096010684967,-1.096709966659546,0.2560552656650543,1.2860597372055054,1.3850390911102295,103.3241958618164,23.21,0
-0.5015202760696411,-1.1124428510665894,0.2147015035152435,1.5239213705062866,1.385188102722168,103.32269287109376,23.21,0
-0.4449978768825531,-1.0945504903793335,0.199358582496643,1.923765063285828,1.3852837085723877,103.3217315673828,23.21,0
-0.4031272828578949,-1.0438836812973022,0.1951101571321487,2.377403259277344,1.3853451013565063,103.32111358642578,23.21,0
-0.3594638109207153,-0.9665865302085876,0.2259704023599624,2.711513042449951,1.385384440422058,103.32071685791016,23.21,0
-0.3314431309700012,-0.9001883268356323,0.2513725161552429,2.707388401031494,1.383573293685913,103.3204574584961,23.21,0
-0.32465660572052,-0.846382200717926,0.2620763480663299,2.357231616973877,1.382411003112793,103.32029724121094,23.21,0
-0.3314969539642334,-0.7950592041015625,0.2577499151229858,1.8889060020446775,1.3816651105880735,103.3201904296875,23.21,0
-0.3414844870567322,-0.7677208781242371,0.266169011592865,1.3984850645065308,1.3811864852905271,103.32012176513672,23.21,0
-0.3478938937187195,-0.7501766681671143,0.2771696746349334,0.8293982744216919,1.380879282951355,103.32007598876952,23.21,0
-0.3632026314735412,-0.7053312063217163,0.2898270189762115,0.2277411371469497,1.380682110786438,103.3200454711914,23.21,0
-0.3730269074440002,-0.6765519380569458,0.3091453313827514,-0.330331414937973,1.3805556297302246,103.32003021240234,23.21,0
-0.3793315589427948,-0.7084630131721497,0.3495315909385681,-0.8425210118293762,1.3804744482040403,103.3200225830078,23.21,0
-0.3889752924442291,-0.7849195003509521,0.3922424912452698,-1.2894397974014282,1.381799817085266,103.32001495361328,23.19,0
-0.3671752214431762,-0.8899626135826111,0.4196518957614898,-1.6013245582580566,1.382650375366211,103.32000732421876,23.19,0
-0.358782947063446,-0.968568742275238,0.4484372138977051,-1.7441530227661133,1.383196234703064,103.32000732421876,23.19,0
-0.3701905906200409,-1.0526002645492554,0.4893010556697845,-1.7104220390319824,1.3835464715957642,103.32000732421876,23.19,0
-0.3383269608020782,-1.089733600616455,0.5155251026153564,-1.502481460571289,1.383771300315857,103.32000732421876,23.19,0
-0.312280923128128,-1.035194754600525,0.4987675547599792,-1.161247730255127,1.3839155435562134,103.32000732421876,23.19,0
-0.2339905649423599,-1.0337815284729004,0.4712202250957489,-0.8347863554954529,1.3840081691741943,103.32000732421876,23.19,0
-0.1557594537734985,-1.111243486404419,0.4647374749183655,-0.7040988802909851,1.3840675354003906,103.32000732421876,23.19,0
-0.1167507767677307,-1.1441607475280762,0.4493816792964935,-0.6703872680664062,1.3831874132156372,103.01190185546876,23.19,0
-0.1197061240673065,-1.098111867904663,0.4451249837875366,-0.3549818694591522,1.3826225996017456,102.81417846679688,23.19,0
-0.0992115959525108,-1.062962532043457,0.4591866135597229,0.4349695444107055,1.3822602033615112,102.68729400634766,23.19,0
-0.0580705180764198,-1.0068191289901731,0.4626127779483795,1.3825716972351074,1.3820276260375977,102.60586547851562,23.19,0
-0.0708529651165008,-0.9260072708129884,0.4368226230144501,1.9441148042678835,1.38187837600708,102.55360412597656,23.19,0
-0.0846537724137306,-0.8573535680770874,0.4202719628810882,1.831580758094788,1.3817825317382812,102.52007293701172,23.19,0
-0.0879125669598579,-0.8021000027656555,0.3984551727771759,1.1539076566696167,1.381721019744873,102.49855041503906,23.19,0
-0.0956016480922699,-0.7666414380073547,0.3788566291332245,0.310602456331253,1.3816815614700315,102.4847412109375,23.19,0
-0.0949382781982421,-0.7270928621292114,0.3718771934509277,-0.1983391046524047,1.382574439048767,102.4758758544922,23.19,0
-0.1113058924674987,-0.7129084467887878,0.3450070917606354,-0.0950394421815872,1.3831474781036377,102.47018432617188,23.19,0
-0.1162119135260582,-0.7261967658996582,0.3221656382083893,0.386831134557724,1.383515238761902,102.46653747558594,23.19,0
-0.1361536383628845,-0.790702223777771,0.2963117659091949,0.7892148494720459,1.3837512731552124,102.46419525146484,23.19,0
-0.1545488536357879,-0.8488914370536804,0.2741224467754364,0.9829552173614502,1.383902668952942,102.4626922607422,23.19,0
-0.1887449473142624,-0.914222776889801,0.2486870735883712,1.128782033920288,1.3839998245239258,102.46173095703124,23.19,0
-0.238678902387619,-1.028919696807861,0.2379618883132934,1.3190948963165283,1.3840621709823608,102.46111297607422,23.19,0
-0.2987125217914581,-1.1025255918502808,0.2422746270895004,1.5236259698867798,1.38410222530365,102.4607162475586,23.19,0
-0.3708252906799316,-1.099381685256958,0.2954222559928894,1.6190564632415771,1.3845869302749634,102.46045684814452,23.19,0
-0.4003097712993622,-1.097364068031311,0.3575182259082794,1.4259353876113892,1.3848979473114014,102.46029663085938,23.19,0
-0.3464601635932922,-1.1072648763656616,0.3357923328876495,0.8649271726608276,1.3850975036621094,102.46018981933594,23.19,0
-0.2671203911304474,-1.1192164421081543,0.2770677208900451,0.0212567448616027,1.385225534439087,102.46012115478516,23.19,0
-0.182618036866188,-1.1212884187698364,0.2393816262483596,-0.9357411861419678,1.385307788848877,102.46007537841795,23.19,0
-0.1507803946733474,-1.061042547225952,0.2319901883602142,-1.7146857976913452,1.3853604793548584,102.46004486083984,23.19,0
-0.1527399271726608,-0.99439138174057,0.2328445613384246,-2.082012414932251,1.3853943347930908,102.46002960205078,23.19,0
-0.176388531923294,-0.923629641532898,0.2277950793504715,-2.149360418319702,1.385416030883789,102.46002197265624,23.19,0
-0.2363470494747162,-0.8390344381332397,0.2189568430185318,-2.1746675968170166,1.3831346035003662,102.46001434326172,23.17,0
-0.2748249769210815,-0.7735505104064941,0.2132849693298339,-2.140752077102661,1.381670594215393,102.4600067138672,23.17,0
-0.2883223295211792,-0.7203311920166016,0.209645077586174,-1.9577713012695312,1.3807309865951538,102.4600067138672,23.17,0
-0.2857886254787445,-0.6805803179740906,0.2129069864749908,-1.8188493251800537,1.380128026008606,102.4600067138672,23.17,0
-0.2841626405715942,-0.6662660241127014,0.231793612241745,-1.8550872802734373,1.379741072654724,102.4600067138672,23.17,0
-0.277521401643753,-0.6794710159301758,0.2551095187664032,-1.806691288948059,1.3794927597045898,102.4600067138672,23.17,0
-0.2788572013378143,-0.7159340977668762,0.2644745409488678,-1.4675320386886597,1.3793333768844604,102.4600067138672,23.17,0
-0.2909099757671356,-0.8233006000518799,0.2648867070674896,-1.0313420295715332,1.379231095314026,102.4600067138672,23.17,0
-0.3098403215408325,-0.9313867092132568,0.2651512026786804,-0.6940991282463074,1.3796244859695437,102.16622924804688,23.17,0
-0.3443798124790191,-1.039934515953064,0.2765164971351623,-0.2949646711349487,1.3798768520355225,101.97770690917967,23.17,0
-0.4057296812534332,-1.1095943450927734,0.3117989599704742,0.362425297498703,1.380038857460022,101.85671997070312,23.17,0
-0.4506982862949371,-1.1654934883117676,0.3792234063148498,1.1640533208847046,1.3801428079605105,101.7790756225586,23.17,0
-0.4459699094295501,-1.072617530822754,0.4112969934940338,1.746561050415039,1.3802095651626587,101.729248046875,23.17,0
-0.4205444157123565,-1.0186128616333008,0.4206844270229339,1.82660973072052,1.3802523612976074,101.69727325439452,23.17,0
-0.3090656101703644,-1.0511291027069092,0.4379042685031891,1.4050804376602173,1.380279779434204,101.6767578125,23.17,0
-0.1983405202627182,-1.0775939226150513,0.4433571994304657,0.7727270126342773,1.3802974224090576,101.66358947753906,23.17,0
-0.132881298661232,-1.0721864700317385,0.4468565881252289,0.2451114058494568,1.3798497915267944,101.65513610839844,23.17,0
-0.0964711159467697,-1.0407273769378662,0.4435045123100281,-0.0146652236580848,1.379562497138977,101.64971160888672,23.17,0
-0.0787029340863227,-1.009343147277832,0.4301578104496002,0.0371621809899807,1.3793781995773315,101.64623260498048,23.17,0
-0.1064847558736801,-0.9556159377098083,0.4159948825836181,0.2961242794990539,1.3792599439620972,101.6439971923828,23.17,0
-0.1690957248210907,-0.8875502347946167,0.412503719329834,0.4802241325378418,1.379184007644653,101.64256286621094,23.17,0
-0.2092758417129516,-0.8382717967033386,0.4046654999256134,0.4013271629810333,1.379135251045227,101.6416473388672,23.17,0
-0.2070722579956054,-0.8010500073432922,0.399635374546051,0.1787320077419281,1.3791040182113647,101.64105987548828,23.17,0
-0.2000603526830673,-0.7715653777122498,0.3964073359966278,0.0394658222794532,1.3790839910507202,101.64067840576172,23.17,0
-0.1843649595975875,-0.7470461130142212,0.3943357765674591,0.1041435599327087,1.3790711164474487,101.64043426513672,23.17,0
-0.1966836601495742,-0.731311023235321,0.387408584356308,0.2817879021167755,1.3790627717971802,101.6402816772461,23.17,0
-0.2213824093341827,-0.7324087023735046,0.3829631209373474,0.270399659872055,1.37905752658844,101.6401824951172,23.17,0
-0.2484281957149505,-0.7834931015968323,0.3969036042690277,-0.0700882002711296,1.379054069519043,101.6401138305664,23.17,0
-0.2657846212387085,-0.8442649841308594,0.4058497846126556,-0.3960709869861603,1.379051923751831,101.64007568359376,23.17,0
-0.2657274305820465,-0.9448404312133788,0.4115909337997436,-0.2971664667129516,1.3790504932403564,101.64004516601562,23.17,0
-0.2656907439231872,-1.02057945728302,0.4208730459213257,0.1568055152893066,1.37904953956604,101.64002990722656,23.17,0
-0.2768627405166626,-1.0188044309616089,0.4324275553226471,0.6451802253723145,1.3790489435195925,101.64002227783205,23.17,0
-0.2728367447853088,-0.9560898542404176,0.4230492413043976,1.0123296976089478,1.3781306743621826,101.6400146484375,23.21,0
-0.2646553218364715,-0.9438320994377136,0.3890419006347656,1.1404677629470823,1.377541422843933,101.64000701904295,23.21,0
-0.2202205210924148,-0.975150227546692,0.333631306886673,0.8393638134002686,1.377163290977478,101.64000701904295,23.21,0
-0.2029003798961639,-0.9728572964668274,0.2980719804763794,0.2377190589904785,1.3769205808639526,101.64000701904295,23.21,0
-0.2085786312818527,-0.9433969259262084,0.2808498442173004,-0.1734600067138672,1.376764893531799,101.64000701904295,23.21,0
-0.2346137017011642,-0.8909043669700623,0.2641998827457428,-0.1435598284006118,1.3766649961471558,101.64000701904295,23.21,0
-0.2569192945957184,-0.8516198396682739,0.2591126561164856,0.0511745996773242,1.3766008615493774,101.64000701904295,23.21,0
-0.2712337374687195,-0.7984204292297363,0.2670435309410095,0.0973272770643234,1.3765597343444824,101.64000701904295,23.21,0
-0.2916154563426971,-0.736291229724884,0.2777308821678161,-0.027105351909995,1.3774511814117432,101.3139877319336,23.21,0
-0.3214885890483856,-0.7020180821418762,0.3013827204704284,-0.235931783914566,1.3780232667922974,101.10477447509766,23.21,0
-0.3350616693496704,-0.7136101722717285,0.3613433241844177,-0.4666740894317627,1.3783904314041138,100.97051239013672,23.21,0
-0.3381743431091308,-0.7266470789909363,0.4110181331634521,-0.5968383550643921,1.378625988960266,100.88434600830078,23.21,0
-0.3345741033554077,-0.7462089657783508,0.4596898853778839,-0.5370672345161438,1.3787771463394165,100.82904815673828,23.21,0
-0.3322636485099792,-0.8371315002441406,0.5245112776756287,-0.366154283285141,1.3788741827011108,100.79356384277344,23.21,0
-0.3363787233829498,-0.9122737050056458,0.5717076659202576,-0.2349767386913299,1.3789364099502563,100.77079010009766,23.21,0
-0.3614106476306915,-0.9493001103401184,0.5740067362785339,-0.1830377280712127,1.378976345062256,100.75617980957033,23.21,0
-0.377474695444107,-1.0234414339065552,0.5754821300506592,-0.1425411105155944,1.3785430192947388,100.7468032836914,23.21,0
-0.3765881061553955,-1.121401071548462,0.5596356391906738,0.0339154638350009,1.3782650232315063,100.74078369140624,23.21,0
-0.3648236095905304,-1.105897068977356,0.4766952097415924,0.3728574216365814,1.3780865669250488,100.73692321777344,23.21,0
-0.3516760468482971,-1.0343719720840454,0.3898821473121643,0.6333617568016052,1.37797212600708,100.73444366455078,23.21,0
-0.3376409411430359,-0.9548846483230592,0.3117794394493103,0.5891664624214172,1.3778985738754272,100.73284912109376,23.21,0
-0.3286340236663818,-0.9374608993530272,0.2616576254367828,0.3136067688465118,1.3778513669967651,100.73182678222656,23.21,0
-0.3508427739143371,-0.9990504384040833,0.2350900918245315,-0.0459429547190666,1.3778210878372192,100.73117065429688,23.21,0
-0.3818883895874023,-1.0721616744995115,0.2012472599744796,-0.5131312608718872,1.3778016567230225,100.73075103759766,23.21,0
-0.4018116593360901,-1.1190803050994873,0.1683333218097686,-1.0601434707641602,1.377330303192139,100.73048400878906,23.21,0
-0.3810106217861175,-1.1491899490356443,0.1416132897138595,-1.450592875480652,1.3770277500152588,100.73030853271484,23.21,0
-0.3564661741256714,-1.1629148721694946,0.1244659051299095,-1.4718759059906006,1.37683367729187,100.7302017211914,23.21,0
-0.3463127315044403,-1.1549293994903564,0.1134617030620575,-1.2311712503433228,1.3767091035842896,100.73013305664062,23.21,0
-0.3397968411445617,-1.1386091709136963,0.1063998341560363,-1.0193796157836914,1.376629114151001,100.73008728027344,23.21,0
-0.3300175368785858,-1.1281358003616333,0.0962701588869094,-0.9085420370101928,1.376577854156494,100.73005676269533,23.21,0
-0.3237417340278625,-1.1046212911605835,0.0897695198655128,-0.7012749910354614,1.376544952392578,100.73003387451172,23.21,0
-0.3141165375709533,-1.0839332342147827,0.0744022354483604,-0.3748038411140442,1.3765238523483276,100.7300262451172,23.21,0
-0.2967440783977508,-1.0706568956375122,0.0645403936505317,-0.1509631425142288,1.3760509490966797,100.73001861572266,23.19,0
-0.2911932170391083,-1.0677345991134644,0.0750049576163292,-0.0932968780398368,1.375747561454773,100.73001098632812,23.19,0
-0.2988265454769134,-1.0490659475326538,0.0929160565137863,-0.0813680216670036,1.375552773475647,100.73001098632812,23.19,0
-0.2981273829936981,-1.0034987926483154,0.0988125950098037,0.0051038987003266,1.3754278421401978,100.73001098632812,23.19,0
-0.2528965175151825,-0.9630609154701232,0.0802055597305297,0.264803409576416,1.37534761428833,100.73001098632812,23.19,0
-0.1846855282783508,-0.8755346536636353,0.1018512845039367,0.764643132686615,1.375296115875244,100.73001098632812,23.19,0
-0.129716083407402,-0.7521920800209045,0.2220999747514724,1.325443983078003,1.3752630949020386,100.73001098632812,23.19,0
-0.0384621135890483,-0.7066245675086975,0.3160620033740997,1.5921868085861206,1.3752418756484983,100.73001098632812,23.19,0
0.0368927493691444,-0.7669463157653809,0.3931547403335571,1.3728662729263306,1.3752282857894895,100.4398193359375,23.19,0
0.107642263174057,-0.8168529272079468,0.4370306432247162,0.8022098541259766,1.3752195835113523,100.25358581542967,23.19,0
0.1530452221632003,-0.8600756525993347,0.4483943283557892,0.1816325485706329,1.3752139806747437,100.1340789794922,23.19,0
0.1094111651182174,-0.8934112787246704,0.4780780076980591,-0.263191670179367,1.3752104043960571,100.05738067626952,23.19,0
0.0422249175608158,-0.920401930809021,0.5027250647544861,-0.4734202027320862,1.3752081394195557,100.00816345214844,23.19,0
-0.0344779938459396,-0.9769074320793152,0.5353354215621948,-0.554594099521637,1.3752065896987915,99.97657775878906,23.19,0
-0.0781037360429763,-1.0131694078445437,0.5786539912223816,-0.6926686763763428,1.375205636024475,99.95630645751952,23.19,0
-0.09490467607975,-1.030842423439026,0.6344422101974487,-0.9424929022789,1.3752050399780271,99.94329833984376,23.19,0
-0.100088782608509,-1.0085973739624023,0.6534505486488342,-1.135058879852295,1.3742867708206177,99.93495178222656,23.19,0
-0.1202089637517929,-0.9719306826591492,0.654453456401825,-1.0723427534103394,1.3736975193023682,99.92959594726562,23.19,0
-0.1555120348930359,-0.9372045397758484,0.6383037567138672,-0.7526541948318481,1.373319387435913,99.92615509033205,23.19,0
-0.1893630623817443,-0.926114857196808,0.6167442798614502,-0.3217942714691162,1.3730766773223877,99.9239501953125,23.19,0
-0.2334778010845184,-0.9301936626434326,0.5805175304412842,0.1875742822885513,1.3729209899902344,99.92253112792967,23.19,0
-0.2617881000041961,-0.9552022814750672,0.5348781943321228,0.8476372361183167,1.3728210926055908,99.92162322998048,23.19,0
-0.2799560129642486,-0.9768491983413696,0.4831984043121338,1.6509805917739868,1.3727569580078125,99.9210433959961,23.19,0
-0.3084084689617157,-1.0691097974777222,0.4388377368450165,2.531943082809448,1.3727158308029177,99.92066955566406,23.19,0
-0.3434609472751617,-1.2066861391067505,0.4159673750400543,3.348074197769165,1.3740664720535278,99.92042541503906,23.19,0
-0.3603578209877014,-1.1886169910430908,0.37330162525177,3.707021713256836,1.3749332427978516,99.92027282714844,23.19,0
-0.404787927865982,-1.1210435628890991,0.2955412268638611,3.206528186798096,1.3754894733428955,99.92017364501952,23.19,0
-0.4165072739124298,-1.1560475826263428,0.2456390857696533,2.0362696647644043,1.3758465051651,99.92011260986328,23.19,0
-0.384843647480011,-1.2120978832244873,0.1912236660718917,0.919842541217804,1.3760756254196167,99.92007446289062,23.19,0
-0.3813170790672302,-1.2368721961975098,0.1451074331998825,0.3108611404895782,1.3762226104736328,99.9200439453125,23.19,0
-0.3342717289924621,-1.26396644115448,0.1155126988887786,0.0096162995323538,1.3763169050216677,99.92002868652344,23.19,0
-0.2984829843044281,-1.2701584100723269,0.0965204983949661,-0.3234257698059082,1.3763774633407593,99.9200210571289,23.19,0
-0.2867113649845123,-1.2741320133209229,0.0731368511915206,-0.6697083115577698,1.3764163255691528,99.92001342773438,23.19,0
-0.2959503531455993,-1.2822798490524292,0.0525327958166599,-0.8990976214408875,1.376441240310669,99.92000579833984,23.19,0
-0.2962816059589386,-1.2931064367294312,0.039310298860073,-1.049889087677002,1.3764572143554688,99.92000579833984,23.19,0
-0.2852986454963684,-1.305652141571045,0.0476181842386722,-1.1645712852478027,1.37646746635437,99.92000579833984,23.19,0
-0.2446637600660324,-1.2801165580749512,0.0529497079551219,-1.2095071077346802,1.376474142074585,99.92000579833984,23.19,0
-0.2409777343273162,-1.230142593383789,0.0451756231486797,-1.252674579620361,1.3764783143997192,99.92000579833984,23.19,0
-0.2666011154651642,-1.1756811141967771,0.0401866622269153,-1.3663588762283323,1.376481056213379,99.92000579833984,23.19,0
-0.2830447256565094,-1.1519263982772827,0.0369850359857082,-1.4966360330581665,1.3764828443527222,99.92000579833984,23.19,0
-0.2824017405509949,-1.1366820335388184,0.0461259633302688,-1.6124836206436155,1.3751068115234375,99.65489196777344,23.19,0
-0.2763913571834564,-1.087714672088623,0.0743831843137741,-1.7262362241744995,1.3742238283157349,99.48475646972656,23.19,0
-0.2669364511966705,-1.050692439079285,0.1093103662133216,-1.7956535816192627,1.3736571073532104,99.37557220458984,23.19,0
-0.244075521826744,-1.026933670043945,0.165311262011528,-1.8473668098449707,1.373293399810791,99.30550384521484,23.19,0
-0.2238069176673889,-1.0228822231292725,0.2124449610710144,-1.8984662294387815,1.3730599880218506,99.2605438232422,23.19,0
-0.2052019089460373,-0.9419134259223938,0.265083760023117,-1.741382360458374,1.3729102611541748,99.231689453125,23.19,0
-0.1372845470905304,-0.8731589913368225,0.3548420667648315,-1.174840211868286,1.3728141784667969,99.21317291259766,23.19,0
-0.0713079944252967,-0.8570252060890198,0.4068459868431091,-0.3777743875980377,1.3727525472640991,99.20128631591795,23.19,0
-0.0233702715486288,-0.8802581429481506,0.4905990958213806,0.2483789920806884,1.3727129697799685,99.19365692138672,23.19,0
0.0297844987362623,-0.8783743977546692,0.5667381286621094,0.4818271398544311,1.372687578201294,99.1887664794922,23.19,0
0.1142761409282684,-0.8659699559211731,0.6044042110443115,0.4310165047645569,1.3726712465286257,99.18562316894533,23.19,0
0.0957269445061683,-0.8636072874069214,0.6453694701194763,0.3590008318424225,1.372660756111145,99.18360900878906,23.19,0
0.0558342672884464,-0.8732866048812866,0.6716585755348206,0.4775837957859039,1.3726540803909302,99.18231964111328,23.19,0
0.0358312204480171,-0.9242804050445556,0.6997249722480774,0.9011933207511902,1.3726497888565063,99.18148803710938,23.19,0
0.0117988660931587,-0.9682008624076844,0.7289319038391113,1.5527945756912231,1.372647047042847,99.1809539794922,23.19,0
-0.0148192644119262,-1.0019842386245728,0.730881929397583,2.053354024887085,1.3726452589035034,99.18061065673828,23.19,0
-0.0542923472821712,-1.0012733936309814,0.6985467076301575,2.113056182861328,1.3721847534179688,99.18038940429688,23.19,0
-0.0852216705679893,-0.9840238690376282,0.6554047465324402,1.9507453441619875,1.3718892335891724,99.18025207519533,23.19,0
-0.1554502993822097,-0.9561607837677002,0.577338695526123,1.850166201591492,1.371699571609497,99.18016052246094,23.19,0
-0.1725301146507263,-0.943877637386322,0.5272404551506042,1.6530649662017822,1.3715778589248655,99.18009948730467,23.19,0
-0.2114798426628112,-0.9303972721099854,0.4950902462005615,1.171901822090149,1.37149977684021,99.18006134033205,23.19,0
-0.2588666379451751,-0.9329418540000916,0.4800558686256408,0.6409992575645447,1.3714497089385986,99.18003845214844,23.19,0
-0.2668856382369995,-0.928977072238922,0.4648098945617676,0.4364344477653503,1.37141752243042,99.18002319335938,23.19,0
-0.3112162053585052,-0.9544215798377992,0.4270370602607727,0.631170928478241,1.3713968992233276,99.18001556396484,23.19,0
-0.3508605659008026,-1.0435214042663574,0.3916010558605194,0.949600636959076,1.370465874671936,99.18000793457033,23.21,0
-0.3595086932182312,-1.106298327445984,0.3520669639110565,0.9998998045921326,1.3698683977127075,99.18000793457033,23.21,0
-0.3986452221870422,-1.0010428428649902,0.2875118255615234,0.5413659811019897,1.3694849014282229,99.18000793457033,23.21,0
-0.429358571767807,-0.9446914792060852,0.240486279129982,-0.3117763996124267,1.3692388534545898,99.18000793457033,23.21,0
-0.4266775250434875,-0.9477128386497498,0.2159057706594467,-1.1172194480895996,1.369080901145935,99.18000793457033,23.21,0
-0.4193592071533203,-0.955249547958374,0.2001314163208007,-1.4513951539993286,1.368979573249817,99.18000793457033,23.21,0
-0.3754783272743225,-0.988075077533722,0.1956061124801635,-1.2646013498306274,1.3689144849777222,99.18000793457033,23.21,0
-0.3193292319774627,-1.0147383213043213,0.1927020400762558,-0.9082778692245485,1.3688727617263794,99.18000793457033,23.21,0
-0.2665026485919952,-1.048642635345459,0.2020339220762252,-0.8085827231407166,1.3660913705825806,98.92564392089844,23.21,0
-0.1990149319171905,-1.0759981870651243,0.2136203646659851,-1.106444239616394,1.3643064498901367,98.7624053955078,23.21,0
-0.1613029688596725,-1.0879557132720947,0.2210558652877807,-1.4695582389831543,1.3631609678268433,98.65764617919922,23.21,0
-0.1538949310779571,-1.0844337940216064,0.2146320044994354,-1.4589687585830688,1.3624258041381836,98.59042358398438,23.21,0
-0.1715319752693176,-1.0597825050354004,0.2049117535352707,-1.1548192501068115,1.3619540929794312,98.54727935791016,23.21,0
-0.1884481906890869,-1.0383650064468384,0.2098694145679474,-1.0850237607955933,1.3616513013839722,98.51959228515624,23.21,0
-0.1769129484891891,-1.0134248733520508,0.2130509465932846,-1.5847845077514648,1.3614569902420044,98.50182342529295,23.21,0
-0.1751080602407455,-1.0142130851745603,0.220690444111824,-2.460801601409912,1.3613322973251345,98.49042510986328,23.21,0
-0.1627542376518249,-1.0147188901901243,0.2423863559961319,-3.230768203735352,1.363547682762146,98.4831085205078,23.21,0
-0.149228498339653,-0.9814568758010864,0.2675051093101501,-3.628159046173096,1.3649693727493286,98.4784164428711,23.21,0
-0.1349506825208664,-0.9657089710235596,0.2892226576805115,-3.793617010116577,1.3658816814422607,98.47540283203124,23.21,0
-0.1201902255415916,-0.9500051140785216,0.308757483959198,-3.932041645050049,1.3664672374725342,98.47346496582033,23.21,0
-0.1219133660197258,-0.9399272799491882,0.321293830871582,-3.981466293334961,1.3668429851531982,98.47222137451172,23.21,0
-0.1342147290706634,-0.8774821758270264,0.3517300188541412,-3.8125598430633545,1.3670841455459597,98.47142791748048,23.21,0
-0.1197179332375526,-0.7870285511016846,0.3824577629566192,-3.431889772415161,1.3672388792037964,98.47091674804688,23.21,0
-0.1216102764010429,-0.7625672221183777,0.4133726060390472,-2.929652214050293,1.3673381805419922,98.47058868408205,23.21,0
-0.1116291210055351,-0.8476293087005615,0.4723964035511017,-2.456876754760742,1.3660247325897217,98.47037506103516,23.21,0
-0.0716371461749076,-0.9134128093719482,0.5102744698524475,-1.999426007270813,1.365181803703308,98.4702377319336,23.21,0
-0.0179837215691804,-0.9220422506332396,0.5289846658706665,-1.0574142932891846,1.3646409511566162,98.47015380859376,23.21,0
-0.0003453691897448,-0.8883956670761108,0.535394012928009,0.7759381532669067,1.3642938137054443,98.47010040283205,23.21,0
0.01097390986979,-0.8612054586410522,0.5283116102218628,3.045163869857788,1.364071011543274,98.47006225585938,23.21,0
-0.0153486728668212,-0.8549519181251526,0.4845821261405945,5.020895481109619,1.3639280796051023,98.47003936767578,23.21,0
-0.0378387682139873,-0.8453409671783447,0.4341279566287994,6.514508724212647,1.3638362884521484,98.47002410888672,23.21,0
-0.0746627151966095,-0.8559665679931641,0.3905538320541382,7.361963748931885,1.3637773990631104,98.4700164794922,23.21,0
-0.1150875240564346,-0.8683832287788391,0.351394921541214,7.096149444580078,1.366034984588623,98.47000885009766,23.23,0
-0.1802142560482025,-0.8595581650733948,0.3262649774551391,5.8651227951049805,1.3674838542938232,98.47000885009766,23.23,0
-0.2667910456657409,-0.8818836212158203,0.315735787153244,4.645211696624756,1.3684135675430298,98.47000885009766,23.23,0
-0.3335466086864471,-0.9130041599273682,0.3201743066310882,4.077297687530518,1.3690102100372314,98.47000885009766,23.23,0
-0.3763864636421203,-0.9329755306243896,0.3230226933956146,3.9815361499786377,1.3693931102752686,98.47000885009766,23.23,0
-0.3814875185489654,-0.9345964789390564,0.3192528486251831,4.052637100219727,1.3696388006210327,98.47000885009766,23.23,0
-0.3567722141742706,-0.9748210906982422,0.322431355714798,4.2129082679748535,1.3697965145111084,98.47000885009766,23.23,0
-0.3577046692371368,-1.0230259895324707,0.335666686296463,4.290682792663574,1.369897723197937,98.47000885009766,23.23,0
-0.3639008402824402,-1.1043411493301392,0.3553559184074402,3.989501953125,1.3695037364959717,98.26580047607422,23.23,0
-0.3734749853610992,-1.066960096359253,0.3791868686676025,3.154940128326416,1.3692508935928345,98.13475036621094,23.23,0
-0.3628257811069488,-1.0261777639389038,0.4000779986381531,1.942259669303894,1.369088649749756,98.05065155029295,23.23,0
-0.3112095296382904,-1.0727771520614624,0.447071373462677,0.6875486373901367,1.368984580039978,97.9966812133789,23.23,0
-0.2444985508918762,-1.0858886241912842,0.4828267693519592,-0.3791806697845459,1.36891770362854,97.96204376220705,23.23,0
-0.1681006401777267,-1.0719116926193235,0.5169680714607239,-1.2822833061218262,1.3688747882843018,97.9398193359375,23.23,0
-0.0854862183332443,-1.0405510663986206,0.544475793838501,-2.0767970085144043,1.3688472509384155,97.92555236816406,23.23,0
-0.0380668118596077,-1.0092300176620483,0.5509331226348877,-2.583087682723999,1.368829607963562,97.91639709472656,23.23,0
-0.0244290884584188,-0.9387500286102296,0.5158926248550415,-2.585564136505127,1.3692772388458252,97.9105224609375,23.23,0
-0.0324705056846141,-0.8655311465263367,0.4542212188243866,-2.2718865871429443,1.3695645332336426,97.90675354003906,23.23,0
-0.0264354757964611,-0.7961523532867432,0.4146440625190735,-2.056256055831909,1.369748830795288,97.90433502197266,23.23,0
-0.005769217852503,-0.7180424332618713,0.3892457187175751,-1.968032956123352,1.3698670864105225,97.9027862548828,23.23,0
0.0018954223487526,-0.6735137104988098,0.3729465305805206,-1.7287050485610962,1.3699430227279663,97.90178680419922,23.23,0
-0.0323702730238437,-0.678524374961853,0.3456933200359344,-1.3673288822174072,1.3699917793273926,97.9011459350586,23.23,0
-0.0655555725097656,-0.7377176880836487,0.3226060271263122,-1.13541841506958,1.3700230121612549,97.9007339477539,23.23,0
-0.10364530980587,-0.803693413734436,0.3133876919746399,-0.9722613096237184,1.3700430393218994,97.90047454833984,23.23,0
-0.1616757661104202,-0.8852173089981079,0.2962763607501983,-0.7027580142021179,1.3714330196380615,97.90030670166016,23.23,0
-0.210111916065216,-0.9711212515830994,0.2796975076198578,-0.4259116053581238,1.37232506275177,97.90019989013672,23.23,0
-0.2467932254076004,-1.1549983024597168,0.2802537083625793,-0.2446649521589279,1.3728975057601929,97.90013122558594,23.23,0
-0.2591376304626465,-1.2450110912322998,0.2750128507614136,-0.0208740066736936,1.3732649087905884,97.90008544921876,23.23,0
-0.2726573348045349,-1.2132117748260498,0.2884429097175598,0.2732103168964386,1.3735007047653198,97.90005493164062,23.23,0
-0.2925290465354919,-1.0920448303222656,0.2914637625217438,0.4476063847541809,1.3736519813537598,97.90003204345705,23.23,0
-0.2940860092639923,-1.0310802459716797,0.2654134929180145,0.5702714920043945,1.373749017715454,97.9000244140625,23.23,0
-0.2391074448823928,-1.0423365831375122,0.2151093035936355,0.9355969429016112,1.3738113641738892,97.90001678466795,23.23,0
-0.2094231396913528,-1.0271692276000977,0.1716314107179641,1.5068038702011108,1.3747695684432983,97.90000915527344,23.21,0
-0.2183623313903808,-0.9782512187957764,0.1493275761604309,1.9199451208114624,1.3753844499588013,97.90000915527344,23.21,0
-0.2576856315135956,-0.924467384815216,0.1630031317472458,1.9486254453659055,1.3757790327072144,97.90000915527344,23.21,0
-0.2717255055904388,-0.8731586933135986,0.1885726451873779,1.5801125764846802,1.3760322332382202,97.90000915527344,23.21,0
-0.2527466416358948,-0.8066450357437134,0.2161772400140762,0.8850525617599487,1.3761948347091677,97.90000915527344,23.21,0
-0.2293715327978134,-0.7695581912994385,0.2282945066690445,0.116571307182312,1.3762991428375244,97.90000915527344,23.21,0
-0.2199685126543045,-0.7401602268218994,0.224875122308731,-0.4195866882801056,1.3763660192489624,97.90000915527344,23.21,0
-0.2363252937793731,-0.7156965136528015,0.2226807475090026,-0.7708271741867065,1.376408934593201,97.90000915527344,23.21,0
-0.2580176889896393,-0.6999971270561218,0.2268702983856201,-1.2362656593322754,1.376436471939087,97.73162841796876,23.21,0
-0.2719386219978332,-0.7123132348060608,0.2519500255584717,-1.857389092445373,1.37645423412323,97.62356567382812,23.21,0
-0.2976655960083008,-0.8097814321517944,0.2680447399616241,-2.3348071575164795,1.3764655590057373,97.5542221069336,23.21,0
-0.3085778951644897,-0.9059175252914428,0.2839711606502533,-2.4692227840423584,1.3764728307724,97.5097198486328,23.21,0
-0.3379718959331512,-0.9844054579734802,0.2885940670967102,-2.3691890239715576,1.3764774799346924,97.48116302490234,23.21,0
-0.345639705657959,-1.0403722524642944,0.2859629988670349,-2.244089365005493,1.3764804601669312,97.46283721923828,23.21,0
-0.3953426778316498,-1.0650930404663086,0.3066656291484833,-2.2211289405822754,1.376482367515564,97.4510726928711,23.21,0
-0.4104458689689636,-1.0865551233291626,0.381526917219162,-2.306706428527832,1.376483678817749,97.44351959228516,23.21,0
-0.4145404398441314,-1.02195942401886,0.4127752482891083,-2.3114688396453857,1.378320574760437,97.4386749267578,23.21,0
-0.4059725403785705,-0.9749078750610352,0.4272308647632599,-1.8702858686447144,1.379499435424805,97.4355697631836,23.21,0
-0.3556919693946838,-1.0062884092330933,0.4477031826972961,-0.8813925981521606,1.380255937576294,97.4335708618164,23.21,0
-0.2506537437438965,-1.0935999155044556,0.4552433788776397,0.2153745144605636,1.3807413578033447,97.43228912353516,23.21,0
-0.155257374048233,-1.093653678894043,0.4656800031661987,0.9550421833992004,1.381052851676941,97.43147277832033,23.21,0
-0.0716463774442672,-1.088090419769287,0.4723776280879974,1.3437365293502808,1.3812527656555176,97.43094635009766,23.21,0
0.0044014486484229,-1.0677268505096436,0.4710780084133148,1.6182562112808228,1.3813811540603638,97.43061065673828,23.21,0
0.0028245963621884,-1.0266698598861694,0.4646462202072143,1.8159226179122925,1.3814635276794434,97.43038940429688,23.21,0
-0.0541650764644146,-0.9723330140113832,0.4493231177330017,1.860374331474304,1.3815163373947144,97.43025207519533,23.21,0
-0.1019333228468895,-0.9262672066688538,0.4226962924003601,1.7706758975982666,1.3815501928329468,97.43016052246094,23.21,0
-0.1045993566513061,-0.8855092525482178,0.4056087434291839,1.6808693408966064,1.3815720081329346,97.43009948730467,23.21,0
-0.0839191675186157,-0.8369620442390442,0.3890451490879059,1.6984708309173584,1.381585955619812,97.43006134033205,23.21,0
-0.0650500431656837,-0.7946116924285889,0.3672200441360473,1.7814178466796875,1.3815948963165283,97.43003845214844,23.21,0
-0.0697342455387115,-0.7562381029129028,0.3420183956623077,1.777327299118042,1.3816006183624268,97.43002319335938,23.21,0
-0.1175224930047988,-0.7316121459007263,0.3202476501464844,1.5454174280166626,1.3816043138504028,97.43001556396484,23.21,0
-0.1649835556745529,-0.7270041704177856,0.3062764406204223,0.9774296879768372,1.3816066980361938,97.43000793457033,23.21,0
-0.2066368907690048,-0.7800247669219971,0.3141038417816162,0.1866013258695602,1.3820672035217283,97.43000793457033,23.17,0
-0.2389653772115707,-0.8476369976997375,0.3191270232200622,-0.4212189018726349,1.382362723350525,97.43000793457033,23.17,0
-0.2765052616596222,-1.0029821395874023,0.3223506212234497,-0.5676678419113159,1.3825523853302002,97.43000793457033,23.17,0
-0.3173895180225372,-1.0802825689315796,0.341212660074234,-0.3571313917636871,1.3826740980148315,97.43000793457033,23.17,0
-0.3436266779899597,-1.0795096158981323,0.3757083415985107,-0.0679704621434211,1.3827521800994873,97.43000793457033,23.17,0
-0.2988886535167694,-1.034231424331665,0.3698568046092987,-0.0292892288416624,1.3828022480010986,97.43000793457033,23.17,0
-0.2533850371837616,-1.0387611389160156,0.3325149714946747,-0.4702006578445434,1.3828344345092771,97.43000793457033,23.17,0
-0.1794012486934662,-1.092047929763794,0.2637689411640167,-1.211721897125244,1.3828550577163696,97.43000793457033,23.17,0
-0.165509358048439,-1.0870599746704102,0.2084561437368393,-1.8273080587387085,1.3828682899475098,97.23296356201172,23.17,0
-0.1845832169055938,-1.0502723455429075,0.178557351231575,-2.0898003578186035,1.382876753807068,97.10651397705078,23.17,0
-0.2192148268222808,-0.9874796867370604,0.1817611157894134,-2.02180290222168,1.3828822374343872,97.02536010742188,23.17,0
-0.2526349425315857,-0.9191941022872924,0.1894148886203766,-1.7775418758392334,1.3828856945037842,96.97328186035156,23.17,0
-0.2796798348426819,-0.841785728931427,0.1999244093894958,-1.5992937088012695,1.3828879594802856,96.93986511230467,23.17,0
-0.2746445834636688,-0.7809139490127563,0.2010710388422012,-1.6210421323776243,1.3828893899917605,96.91841888427734,23.17,0
-0.2658154666423797,-0.7418498992919922,0.2018068879842758,-1.6887377500534058,1.3828903436660769,96.90465545654295,23.17,0
-0.2657472193241119,-0.7111830711364746,0.2134746611118316,-1.5709649324417114,1.3828909397125244,96.89582061767578,23.17,0
-0.276898980140686,-0.6915028691291809,0.2265601456165313,-1.2553526163101196,1.381973147392273,96.89015197753906,23.17,0
-0.3008488714694977,-0.712459921836853,0.2629465162754059,-0.920255482196808,1.3813841342926023,96.88651275634766,23.17,0
-0.3274140655994415,-0.7874844670295715,0.2974927425384521,-0.6693836450576782,1.381006121635437,96.8841781616211,23.17,0
-0.3556576371192932,-0.8748152852058411,0.3308580815792084,-0.4868930876255035,1.3807635307312012,96.88268280029295,23.17,0
-0.401771605014801,-1.0204236507415771,0.3858566880226135,-0.3697811663150787,1.380607843399048,96.88172149658205,23.17,0
-0.4425604343414306,-1.1250622272491455,0.4379449486732483,-0.2659648656845093,1.3805079460144043,96.881103515625,23.17,0
-0.4687363803386688,-1.16422438621521,0.4993610680103302,-0.0811165496706962,1.380443811416626,96.88070678710938,23.17,0
-0.4519479274749756,-1.1109875440597534,0.5499699115753174,0.0804993733763694,1.380402684211731,96.88045501708984,23.17,0
-0.4131852090358734,-1.0208454132080078,0.5488611459732056,0.0122515354305505,1.3817538022994995,96.88029479980467,23.17,0
-0.3491250872611999,-0.9070196747779846,0.4809763133525848,-0.2715785503387451,1.3826208114624023,96.88018798828124,23.17,0
-0.2968194484710693,-0.8675594925880432,0.426216185092926,-0.5719493627548218,1.3831772804260254,96.88011932373048,23.17,0
-0.2968393564224243,-0.9262028336524964,0.3910742700099945,-0.7253017425537109,1.38353431224823,96.88007354736328,23.17,0
-0.2912543416023254,-0.9918256402015686,0.3741199970245361,-0.6051773428916931,1.3837634325027466,96.88004302978516,23.17,0
-0.2596813440322876,-1.0339386463165283,0.3744352757930755,-0.1913263201713562,1.3839105367660522,96.8800277709961,23.17,0
-0.1890396326780319,-1.032975435256958,0.3970286846160888,0.3751957714557647,1.3840049505233765,96.88002014160156,23.17,0
-0.1381080746650695,-1.0211617946624756,0.4115278422832489,0.910720705986023,1.3840655088424685,96.88001251220705,23.17,0
-0.1502053290605545,-0.9855915307998656,0.3816481530666351,1.2436420917510986,1.3818089962005615,96.8800048828125,23.21,0
-0.1971530765295028,-0.9515690803527832,0.3288864195346832,1.2674152851104736,1.3803609609603882,96.8800048828125,23.21,0
-0.249672532081604,-0.9297354221343994,0.2894292175769806,1.114290475845337,1.3794316053390503,96.8800048828125,23.21,0
-0.2721809446811676,-0.9213215708732604,0.2641078531742096,1.0840927362442017,1.3788352012634275,96.8800048828125,23.21,0
-0.2642344534397125,-0.9327154159545898,0.2590536177158355,1.2044340372085571,1.3784525394439695,96.8800048828125,23.21,0
-0.2423415333032608,-0.9400272965431212,0.289396733045578,1.1956803798675537,1.3782069683074951,96.8800048828125,23.21,0
-0.2114985883235931,-0.9503174424171448,0.3032714128494262,0.9571953415870668,1.378049373626709,96.8800048828125,23.21,0
-0.1805098205804824,-0.968116581439972,0.3121753931045532,0.7432456016540527,1.3779481649398804,96.8800048828125,23.21,0
-0.155025228857994,-0.9795390367507936,0.3066939115524292,0.7492479681968689,1.3792604207992554,96.69371032714844,23.21,0
-0.1386706829071045,-0.9868693351745604,0.3031762242317199,0.8605772256851196,1.380102515220642,96.57415771484376,23.21,0
-0.1393708288669586,-0.9747801423072816,0.3177120983600616,0.9857605695724488,1.3806428909301758,96.4974365234375,23.21,0
-0.1846023350954055,-0.843870997428894,0.3382359147071838,1.2416422367095947,1.380989670753479,96.4481964111328,23.21,0
-0.2248248606920242,-0.6982855200767517,0.3402113914489746,1.570650935173035,1.3812122344970703,96.4166030883789,23.21,0
-0.2002574056386947,-0.677628219127655,0.3022947013378143,1.6134086847305298,1.381355047225952,96.39632415771484,23.21,0
-0.1621003150939941,-0.7371426224708557,0.2667663991451263,1.128539800643921,1.3814467191696167,96.38330841064452,23.21,0
-0.1264177560806274,-0.8313132524490356,0.2551619410514831,0.2728273570537567,1.3815056085586548,96.37496185302734,23.21,0
-0.1594964861869812,-0.8805509805679321,0.2868992686271667,-0.5844210982322693,1.382002353668213,96.36959838867188,23.21,0
-0.2031155973672866,-0.90655118227005,0.3184620141983032,-1.1094757318496704,1.3823211193084717,96.36615753173828,23.21,0
-0.2758900225162506,-0.9400299191474916,0.3443149626255035,-1.1741498708724976,1.3825256824493408,96.36395263671876,23.21,0
-0.3281902372837066,-0.9671124219894408,0.3609058856964111,-0.9577085971832277,1.3826569318771362,96.36253356933594,23.21,0
-0.3225691020488739,-0.9788946509361268,0.3939440846443176,-0.7794007062911987,1.382741093635559,96.36162567138672,23.21,0
-0.290972888469696,-0.9752602577209472,0.431939423084259,-0.7652851343154907,1.3827952146530151,96.36104583740234,23.21,0
-0.2539029419422149,-0.9673301577568054,0.4619204103946686,-0.8027999997138977,1.3828299045562744,96.36067199707033,23.21,0
-0.2077224850654602,-0.9398499727249146,0.4923560321331024,-0.7946317195892334,1.3828521966934204,96.36042785644533,23.21,0
-0.1724887490272522,-0.9054214358329772,0.5230833888053894,-0.7356511354446411,1.383325695991516,96.36027526855467,23.21,0
-0.1666710972785949,-0.9001204967498779,0.531606912612915,-0.6046538352966309,1.383629560470581,96.36017608642578,23.21,0
-0.1797309815883636,-0.9359030723571776,0.5090879201889038,-0.3593714237213135,1.383824586868286,96.36011505126952,23.21,0
-0.1881120651960373,-0.9700618386268616,0.4778432250022888,-0.0479125417768955,1.3839497566223145,96.36007690429688,23.21,0
-0.1990883350372314,-0.9919829368591307,0.4242055416107178,0.1662941575050354,1.3840301036834717,96.36004638671876,23.21,0
-0.2117300480604171,-1.04523503780365,0.3785884082317352,0.2141952961683273,1.3840816020965576,96.36003112792967,23.21,0
-0.247831642627716,-1.1689735651016235,0.3661072850227356,0.3058392703533172,1.3841147422790527,96.36002349853516,23.21,0
-0.2933906614780426,-1.1420241594314575,0.3357065320014953,0.536614716053009,1.3841359615325928,96.36001586914062,23.21,0
-0.3282256126403808,-1.0799473524093628,0.2770126461982727,0.5055843591690063,1.383690357208252,96.3600082397461,23.19,0
-0.361776202917099,-1.0625011920928955,0.200161874294281,-0.0982889682054519,1.3834043741226196,96.3600082397461,23.19,0
-0.3945026099681854,-1.090489625930786,0.150843471288681,-0.833329975605011,1.3832207918167114,96.3600082397461,23.19,0
-0.4490911662578583,-1.1420376300811768,0.102400429546833,-1.118743062019348,1.3831030130386353,96.3600082397461,23.19,0
-0.4561340808868408,-1.1863137483596802,0.0601169280707836,-0.986638069152832,1.38302743434906,96.3600082397461,23.19,0
-0.4382627308368683,-1.2203253507614136,0.0329818092286586,-0.647497832775116,1.382978916168213,96.3600082397461,23.19,0
-0.3764139711856842,-1.2253587245941162,0.032361377030611,-0.0572692528367042,1.38294780254364,96.3600082397461,23.19,0
-0.3255274295806885,-1.2117955684661863,0.0375609919428825,0.5722857713699341,1.3829277753829956,96.3600082397461,23.19,0
-0.304066926240921,-1.180700421333313,0.0408978052437305,0.6717789769172668,1.3824560642242432,96.1916275024414,23.19,0
-0.295892596244812,-1.1495497226715088,0.0430391803383827,0.1588333547115326,1.3821532726287842,96.08356475830078,23.19,0
-0.2906467616558075,-1.12955904006958,0.0444133915007114,-0.3638047277927398,1.3819589614868164,96.01422119140624,23.19,0
-0.2872802913188934,-1.1111323833465576,0.0564908310770988,-0.434093177318573,1.3818342685699463,95.96971893310548,23.19,0
-0.285119891166687,-1.1049050092697144,0.069839209318161,-0.1066123992204666,1.3817542791366575,95.941162109375,23.19,0
-0.2781356871128082,-1.1177020072937012,0.0840032026171684,0.3937345445156097,1.381702899932861,95.92283630371094,23.19,0
-0.2680558562278747,-1.0587410926818848,0.1098861619830131,0.8330534100532532,1.381669998168945,95.91107177734376,23.19,0
-0.2615872025489807,-1.0041099786758425,0.1376919001340866,0.9788451194763184,1.3816488981246948,95.9035186767578,23.19,0
-0.2126538008451461,-0.9690508842468262,0.1835249066352844,0.8502861261367798,1.3811759948730469,95.89867401123048,23.19,0
-0.1644578427076339,-0.9129653573036194,0.2297312021255493,0.7534540891647339,1.38087260723114,95.89556884765624,23.19,0
-0.1335284560918808,-0.7818107008934021,0.3097637295722961,0.8811893463134766,1.3806778192520142,95.89356994628906,23.19,0
-0.0632997825741767,-0.7368276119232178,0.3835150897502899,1.0061534643173218,1.380552887916565,95.8922882080078,23.19,0
-0.0126332873478531,-0.7415466904640198,0.4532355666160583,0.6277785301208496,1.3804726600646973,95.89147186279295,23.19,0
-0.0025095425080507,-0.8005529046058655,0.5147714614868164,-0.3888770937919616,1.380421161651611,95.89094543457033,23.19,0
0.0151828434318304,-0.8440174460411072,0.5598594546318054,-1.4497216939926147,1.3803881406784058,95.89060974121094,23.19,0
0.0321345701813697,-0.8887038230895996,0.5887943506240845,-1.8152440786361692,1.3803669214248655,95.89038848876952,23.19,0
-0.0017689801752567,-0.9341742992401124,0.5849719643592834,-1.43361234664917,1.380353331565857,95.89025115966795,23.19,0
-0.0403196513652801,-0.974550187587738,0.582518994808197,-0.7910371422767639,1.3803446292877195,95.8901596069336,23.19,0
-0.0762547999620437,-1.0228521823883057,0.5865426063537598,-0.2174534797668457,1.3803390264511108,95.89009857177734,23.19,0
-0.0993159115314483,-1.0482518672943115,0.5779291391372681,0.1685523837804794,1.3803354501724243,95.89006042480467,23.19,0
-0.1141152083873748,-1.0197696685791016,0.5668037533760071,0.2120619118213653,1.3803331851959229,95.8900375366211,23.19,0
-0.1180147677659988,-0.9679048657417296,0.5540663599967957,-0.1075260266661644,1.3803316354751587,95.89002227783205,23.19,0
-0.1149195060133934,-0.9290232062339784,0.5346966981887817,-0.4129312634468078,1.3803306818008425,95.8900146484375,23.19,0
-0.1241286918520927,-0.915266752243042,0.5166685581207275,-0.3079864382743835,1.3803300857543943,95.89000701904295,23.19,0
-0.1412341743707656,-0.906438648700714,0.5106969475746155,0.1570270359516143,1.381247878074646,95.89000701904295,23.21,0
-0.1802003532648086,-0.900773286819458,0.5068646669387817,0.6130791902542114,1.3818368911743164,95.89000701904295,23.21,0
-0.1940110623836517,-0.8915398120880127,0.4764164686203003,0.8090177178382874,1.382214903831482,95.89000701904295,23.21,0
-0.2084717452526092,-0.8744187355041504,0.4456810355186462,0.7663787007331848,1.3824574947357178,95.89000701904295,23.21,0
-0.2345451116561889,-0.9585936069488524,0.4203590154647827,0.7640934586524963,1.382613182067871,95.89000701904295,23.21,0
-0.2680708169937134,-1.0741877555847168,0.4041087925434112,1.1208845376968384,1.3827130794525146,95.89000701904295,23.21,0
-0.3231723308563232,-1.1259782314300537,0.3712892532348633,1.7439358234405518,1.382777214050293,95.89000701904295,23.21,0
-0.4089132845401764,-0.996878981590271,0.2830542623996734,2.097200870513916,1.382818341255188,95.89000701904295,23.21,0
-0.4639368951320648,-0.9196282625198364,0.226430132985115,1.7757718563079834,1.3823858499526978,95.72520446777344,23.21,0
-0.4656612277030945,-0.982008695602417,0.1900920271873474,0.8708949685096741,1.382108211517334,95.61944580078124,23.21,0
-0.4779633581638336,-1.0388342142105105,0.1667723208665847,-0.2543543875217438,1.3819301128387451,95.55157470703124,23.21,0
-0.4634670615196228,-1.097692608833313,0.1406115293502807,-1.2487503290176392,1.381815791130066,95.50801849365234,23.21,0
-0.4093819558620453,-1.1802467107772827,0.1182252541184425,-1.851070761680603,1.3817424774169922,95.48006439208984,23.21,0
-0.3578799366950989,-1.2444207668304443,0.1094568073749542,-1.9904075860977173,1.3816953897476196,95.46212768554688,23.21,0
-0.30243781208992,-1.2856040000915527,0.1038297265768051,-1.850541114807129,1.3816651105880735,95.45061492919922,23.21,0
-0.272456020116806,-1.306435227394104,0.0946208164095878,-1.7285397052764893,1.381645679473877,95.44322967529295,23.21,0
-0.2700087428092956,-1.297412395477295,0.088711068034172,-1.739810585975647,1.3820922374725342,95.43849182128906,23.21,0
-0.2740360200405121,-1.2804265022277832,0.0849185287952423,-1.7470436096191406,1.3823788166046145,95.4354476928711,23.21,0
-0.276620477437973,-1.2639281749725342,0.0768869221210479,-1.6406254768371582,1.3825626373291016,95.4334945678711,23.21,0
-0.2894745767116546,-1.2421449422836304,0.0661349222064018,-1.515011191368103,1.3826806545257568,95.43224334716795,23.21,0
-0.2977236211299896,-1.2225680351257324,0.0592349097132682,-1.4415643215179443,1.3827563524246216,95.4314422607422,23.21,0
-0.2974196076393127,-1.2100046873092651,0.0604046545922756,-1.3765175342559814,1.3828049898147583,95.43092346191406,23.21,0
-0.2636378407478332,-1.151562213897705,0.07235087454319,-1.2846181392669678,1.3828362226486206,95.43059539794922,23.21,0
-0.241958662867546,-1.0860683917999268,0.0856150463223457,-1.1862341165542605,1.3828562498092651,95.43038177490234,23.21,0
-0.2168506532907486,-1.0160492658615112,0.1221161037683487,-1.101601481437683,1.381032943725586,95.43024444580078,23.21,0
-0.1839444637298584,-0.9543217420578004,0.1567359268665313,-1.018628478050232,1.379862904548645,95.43016052246094,23.21,0
-0.1180449649691581,-0.8307419419288635,0.178952932357788,-0.7611743807792664,1.3791120052337646,95.43009948730467,23.21,0
-0.1093411073088646,-0.6898600459098816,0.2491882741451263,-0.0514036454260349,1.3786301612854004,95.43006134033205,23.21,0
-0.0981577038764953,-0.6106457114219666,0.3166523873806,1.1241841316223145,1.3783209323883057,95.43003845214844,23.21,0
-0.0685897395014762,-0.638179361820221,0.3823380470275879,2.3121001720428467,1.3781224489212036,95.43002319335938,23.21,0
-0.0552124939858913,-0.6950332522392273,0.4412846565246582,3.027862787246704,1.3779951333999634,95.43001556396484,23.21,0
-0.0130411013960838,-0.837876558303833,0.5071020722389221,3.243582963943481,1.3779133558273315,95.43000793457033,23.21,0
0.0476087182760238,-0.9631317853927612,0.5605354309082031,3.2100563049316406,1.3774019479751587,95.43000793457033,23.21,0
0.080932505428791,-1.0435134172439575,0.5948259234428406,3.020159721374512,1.3770737648010254,95.43000793457033,23.21,0
0.0743289217352867,-1.078304409980774,0.5888426899909973,2.6618449687957764,1.3768631219863892,95.43000793457033,23.21,0
0.0532977990806102,-1.106228947639465,0.5794052481651306,2.281430959701538,1.3767279386520386,95.43000793457033,23.21,0
0.0062145860865712,-1.107356071472168,0.5733488202095032,1.9871470928192136,1.3766412734985352,95.43000793457033,23.21,0
-0.0631851330399513,-1.0521016120910645,0.5638643503189087,1.6012510061264038,1.376585602760315,95.43000793457033,23.21,0
-0.1133196502923965,-1.0054469108581543,0.5577777624130249,0.9738520979881288,1.3765498399734497,95.43000793457033,23.21,0
-0.1398953199386596,-0.9531155228614808,0.5426762104034424,0.3383561670780182,1.376526951789856,95.43000793457033,23.21,0
-0.1625478267669677,-0.9139344692230223,0.5217893719673157,-0.0013995956396684,1.3783483505249023,95.26162719726562,23.21,0
-0.1938782334327697,-0.9167792201042176,0.4915920794010162,-0.1370360404253006,1.3795171976089478,95.153564453125,23.21,0
-0.225179836153984,-0.9353981614112854,0.4666154086589813,-0.3100615441799164,1.3802672624588013,95.08422088623048,23.21,0
-0.2732562720775604,-0.9753355979919434,0.4393912553787231,-0.3494478166103363,1.380748629570007,95.03971862792967,23.21,0
-0.3153045177459717,-1.0121606588363647,0.3883337378501892,-0.0093009378761053,1.381057620048523,95.01116180419922,23.21,0
-0.3310931026935577,-1.0525861978530884,0.3555679619312286,0.3845319449901581,1.381255865097046,94.99283599853516,23.21,0
-0.3244319856166839,-1.123311161994934,0.3345407545566559,0.2861787974834442,1.3813830614089966,94.98107147216795,23.21,0
-0.3089617192745209,-1.1407095193862915,0.3210467100143432,-0.2534211575984955,1.3814647197723389,94.97351837158205,23.21,0
-0.3382182121276855,-1.1126903295516968,0.2955936789512634,-0.7430083751678467,1.379221796989441,94.96867370605467,23.21,0
-0.3346022367477417,-1.1450892686843872,0.2848571836948395,-0.9855457544326782,1.3777823448181152,94.96556854248048,23.21,0
-0.3434772789478302,-1.1770765781402588,0.2835648953914642,-1.1232794523239136,1.3768585920333862,94.96356964111328,23.21,0
-0.3267816603183746,-1.231190800666809,0.265942245721817,-1.2116689682006836,1.3762657642364502,94.96228790283205,23.21,0
-0.2824807167053222,-1.2939070463180542,0.2546330392360687,-1.1465846300125122,1.3758853673934937,94.9614715576172,23.21,0
-0.1476932168006897,-1.3733391761779783,0.2585709989070892,-0.8683673143386841,1.3756412267684937,94.96094512939452,23.21,0
-0.0052166143432259,-1.32915198802948,0.2834892570972442,-0.5214424133300781,1.375484585762024,94.96060943603516,23.21,0
0.0582277961075305,-1.2504152059555054,0.2994803488254547,-0.3597097396850586,1.3753840923309326,94.96038818359376,23.21,0
0.0541605725884437,-1.1271153688430786,0.3153402805328369,-0.3777266144752502,1.3739423751831057,94.9602508544922,23.21,0
0.0347571372985839,-1.008804202079773,0.3143227398395538,-0.342715322971344,1.373017191886902,94.9601593017578,23.21,0
-0.0280748400837183,-0.8824989795684814,0.2856808602809906,-0.2629258632659912,1.372423529624939,94.96009826660156,23.21,0
-0.0739945620298385,-0.8014435768127441,0.2617023587226867,-0.473249614238739,1.372042536735535,94.9600601196289,23.21,0
-0.0922676473855972,-0.738231360912323,0.2519121170043945,-1.002306580543518,1.371798038482666,94.96003723144533,23.21,0
-0.0872009396553039,-0.6976653933525085,0.2624226212501526,-1.4707976579666138,1.3716410398483276,94.96002197265624,23.21,0
-0.0839494168758392,-0.6828280091285706,0.2803632318973541,-1.6997966766357422,1.3715403079986572,94.96001434326172,23.21,0
-0.1098516508936882,-0.6900995373725891,0.2918764650821686,-1.8145118951797483,1.3714756965637207,94.9600067138672,23.21,0
-0.1544630825519561,-0.7899281978607178,0.304862767457962,-1.848721265792847,1.3741885423660278,94.9600067138672,23.19,0
-0.1942876726388931,-0.909970223903656,0.3131966292858124,-1.7237892150878906,1.3759294748306274,94.9600067138672,23.19,0
-0.231040358543396,-1.0149950981140137,0.3185448348522186,-1.4573211669921875,1.3770467042922974,94.9600067138672,23.19,0
-0.2602238953113556,-1.082394003868103,0.3275747895240783,-1.117936134338379,1.3777636289596558,94.9600067138672,23.19,0
-0.2901477515697479,-1.1816245317459106,0.3221741318702698,-0.6493580937385559,1.3782237768173218,94.9600067138672,23.19,0
-0.2925578355789184,-1.278891682624817,0.2683283388614654,0.0525967180728912,1.378519058227539,94.9600067138672,23.19,0
-0.2773111760616302,-1.3301165103912354,0.2225776463747024,0.9329800009727478,1.3787086009979248,94.9600067138672,23.19,0
-0.256331205368042,-1.2902185916900637,0.1932174861431121,1.7702350616455078,1.3788301944732666,94.9600067138672,23.19,0
-0.2540630102157593,-1.2366255521774292,0.1687780618667602,2.3863539695739746,1.3798264265060425,94.7880401611328,23.19,0
-0.2638029456138611,-1.168645977973938,0.1363009214401245,2.7674131393432617,1.380465745925903,94.67768096923828,23.19,0
-0.2868468165397644,-1.0914340019226074,0.0930678620934486,2.9510512351989746,1.380876064300537,94.60686492919922,23.19,0
-0.3072328269481659,-1.0194926261901855,0.0541278235614299,2.922013998031616,1.3811393976211548,94.56141662597656,23.19,0
-0.3259131610393524,-0.9341403841972352,0.0179427973926067,2.684842586517334,1.3813083171844482,94.5322494506836,23.19,0
-0.3434988856315613,-0.8625729084014893,-0.0052786702290177,2.292607069015503,1.3814167976379397,94.51353454589844,23.19,0
-0.3715777099132538,-0.7886561751365662,-0.0089853210374712,1.793695092201233,1.381486415863037,94.50151824951172,23.19,0
-0.3951948583126068,-0.7468184232711792,0.0054292874410748,1.2800630331039429,1.381531000137329,94.49381256103516,23.19,0
-0.4159487783908844,-0.747958242893219,0.0258753020316362,0.9217828512191772,1.3778871297836304,94.4888687133789,23.19,0
-0.451658546924591,-0.8662430047988892,0.0837785750627517,0.7312676310539246,1.3755487203598022,94.4856948852539,23.19,0
-0.4577817022800445,-0.9645424485206604,0.1321331113576889,0.4871983528137207,1.374048113822937,94.48365783691406,23.19,0
-0.500895619392395,-1.022027611732483,0.163164272904396,0.1299445033073425,1.3730850219726562,94.48234558105467,23.19,0
-0.534161388874054,-1.0813093185424805,0.2446537911891937,-0.0599121339619159,1.372467041015625,94.48150634765624,23.19,0
-0.5611072182655334,-1.1641350984573364,0.3417312800884247,0.0761942639946937,1.3720704317092896,94.48096466064452,23.19,0
-0.4776395857334137,-1.0885391235351562,0.4432144463062286,0.210112988948822,1.3718159198760986,94.48062133789062,23.19,0
-0.3513037860393524,-0.989646017551422,0.5083404779434204,-0.1159418672323226,1.371652603149414,94.48040008544922,23.19,0
-0.1582732498645782,-0.9989531636238098,0.5725257396697998,-0.9413881897926332,1.3752202987670898,94.48025512695312,23.19,0
-0.0959728881716728,-1.072099208831787,0.6025205850601196,-1.9153515100479128,1.377509832382202,94.48016357421876,23.19,0
-0.1063720732927322,-1.1246379613876345,0.5937806963920593,-2.672940492630005,1.3789790868759155,94.4801025390625,23.19,0
-0.1522300839424133,-1.1863431930541992,0.5713785886764526,-2.879676342010498,1.3799220323562622,94.48006439208984,23.19,0
-0.0920947343111038,-1.2427353858947754,0.5681977868080139,-2.3424060344696045,1.380527138710022,94.48004150390624,23.19,0
0.0192677378654479,-1.2173491716384888,0.5717542767524719,-1.2918493747711182,1.3809154033660889,94.4800262451172,23.19,0
0.0179626997560262,-1.1114933490753174,0.5404499769210815,-0.2056664079427719,1.38116455078125,94.48001861572266,23.19,0
0.0003318772651255,-1.0435611009597778,0.5091651678085327,0.6776772141456604,1.3813245296478271,94.48001098632812,23.19,0
-0.0445692166686058,-0.9775750637054444,0.4387083947658539,1.2767994403839111,1.3795911073684692,94.48001098632812,23.19,0
-0.0789819285273552,-0.9072401523590088,0.3766999542713165,1.4140839576721191,1.3784786462783811,94.48001098632812,23.19,0
-0.1066638007760047,-0.8341143727302551,0.3201131820678711,0.9934595227241516,1.3777647018432615,94.48001098632812,23.19,0
-0.1076351106166839,-0.7703931331634521,0.3005923926830292,0.2148012071847915,1.377306580543518,94.48001098632812,23.19,0
-0.1026606634259224,-0.7183049321174622,0.2880650460720062,-0.5320945978164673,1.3770126104354858,94.48001098632812,23.19,0
-0.116261675953865,-0.6848777532577515,0.2744279503822326,-0.8537759780883789,1.376823902130127,94.48001098632812,23.19,0
-0.1249900236725807,-0.6802194118499756,0.2656764388084411,-0.6052255034446716,1.3767027854919434,94.48001098632812,23.19,0
-0.1417869180440902,-0.7220121622085571,0.2656580209732055,0.0522579401731491,1.3766250610351562,94.48001098632812,23.19,0
-0.1805550754070282,-0.8831789493560791,0.2712439596652984,0.7966247797012329,1.376575231552124,94.32237243652344,23.19,0
-0.2054342478513717,-1.064975380897522,0.2804264724254608,1.2886468172073364,1.3765432834625244,94.2212142944336,23.19,0
-0.2549869120121002,-1.136859655380249,0.3031125962734222,1.443182349205017,1.3765227794647217,94.1562957763672,23.19,0
-0.2867869734764099,-1.1494041681289673,0.3456601202487945,1.5495195388793943,1.3765095472335815,94.11463165283205,23.19,0
-0.228825569152832,-1.1686500310897827,0.3617691397666931,1.7288204431533811,1.3765010833740234,94.08789825439452,23.19,0
-0.1804337203502655,-1.1810009479522705,0.2657492458820343,1.6504263877868652,1.3764957189559937,94.07073974609376,23.19,0
-0.1269875317811966,-1.2057204246520996,0.1761403381824493,1.1630433797836304,1.376492261886597,94.05973052978516,23.19,0
-0.1206777095794677,-1.199192762374878,0.1242322772741317,0.6281492710113525,1.3764899969100952,94.05266571044922,23.19,0
-0.1446173042058944,-1.1614171266555786,0.0965184494853019,0.3207108080387115,1.381537914276123,94.04812622070312,23.19,0
-0.1991647779941558,-1.1035882234573364,0.0843310803174972,0.1341622173786163,1.384777307510376,94.0452117919922,23.19,0
-0.2621590793132782,-1.00490140914917,0.065314382314682,-0.1252743750810623,1.386856198310852,94.04334259033205,23.19,0
-0.3025851845741272,-0.9135810732841492,0.0475127846002578,-0.5819544196128845,1.3881902694702148,94.04214477539062,23.19,0
-0.3061372339725494,-0.838183581829071,0.0360887460410594,-1.3264299631118774,1.3890464305877686,94.04137420654295,23.19,0
-0.3028189539909363,-0.7842000722885132,0.0287574548274278,-2.291421890258789,1.389595866203308,94.04088592529295,23.19,0
-0.3118850290775299,-0.7495565414428711,0.0296504274010658,-3.218799591064453,1.389948487281799,94.04056549072266,23.19,0
-0.3344964385032654,-0.7329220771789551,0.0526145845651626,-3.813937187194824,1.3901747465133667,94.04035949707033,23.19,0
-0.3602026998996734,-0.7278448343276978,0.0785472095012664,-3.9414994716644287,1.3857295513153076,94.04022979736328,23.19,0
-0.3878950476646423,-0.7749665379524231,0.1287759244441986,-3.7797462940216064,1.3828768730163574,94.04014587402344,23.19,0
-0.4056664109230041,-0.838793158531189,0.1834009140729904,-3.5792129039764404,1.381046175956726,94.04009246826172,23.19,0
-0.4226688146591186,-0.9637200236320496,0.2520427405834198,-3.174663782119751,1.3798713684082031,94.0400619506836,23.19,0
-0.416786640882492,-1.088673114776611,0.3128864169120788,-2.2594361305236816,1.379117488861084,94.0400390625,23.19,0
-0.4018162488937378,-1.1520674228668213,0.3631279468536377,-1.0487276315689087,1.3786336183547974,94.04002380371094,23.19,0
-0.420197993516922,-1.203945875167847,0.4681411385536194,-0.0783054828643798,1.3783230781555176,94.0400161743164,23.19,0
-0.3928099274635315,-1.220445156097412,0.5691192150115967,0.4656389653682709,1.3781238794326782,94.04000854492188,23.19,0
-0.3248538672924042,-1.0854912996292114,0.6003344655036926,0.6714081168174744,1.380750298500061,94.04000854492188,23.19,0
-0.2252658307552337,-1.0436677932739258,0.6091710925102234,0.6243301630020142,1.3824357986450195,94.04000854492188,23.19,0
-0.0997804477810859,-1.0784034729003906,0.609244167804718,0.6156136989593506,1.383517503738403,94.04000854492188,23.19,0
-0.0360444784164428,-1.1734658479690552,0.5589110851287842,1.047094225883484,1.3842116594314575,94.04000854492188,23.19,0
-0.0287290457636117,-1.2120803594589231,0.4986213147640228,1.9437792301177976,1.3846571445465088,94.04000854492188,23.19,0
-0.0352299697697162,-1.2144697904586792,0.459930807352066,2.981372356414795,1.3849430084228516,94.04000854492188,23.19,0
-0.0338041149079799,-1.1712210178375244,0.4462970197200775,3.8084557056427,1.3851264715194702,94.04000854492188,23.19,0
-0.0496824085712432,-1.104282021522522,0.4431454241275787,4.084867477416992,1.3852441310882568,94.04000854492188,23.19,0
-0.0654699578881263,-1.033335566520691,0.4299273490905761,3.63888430595398,1.3811882734298706,93.8823699951172,23.19,0
-0.0811992734670639,-0.9710128903388976,0.3990536630153656,2.686318874359131,1.3785854578018188,93.78121185302734,23.19,0
-0.102488987147808,-0.8806378245353699,0.340056300163269,1.548378586769104,1.3769150972366333,93.71629333496094,23.19,0
-0.1161515042185783,-0.7890536189079285,0.3077929615974426,0.3953701257705688,1.375843167304993,93.67462921142578,23.19,0
-0.1137237697839737,-0.7246823906898499,0.2926859557628631,-0.4269635677337646,1.3751552104949951,93.64789581298828,23.19,0
-0.1177635639905929,-0.6777748465538025,0.2941867113113403,-0.5641892552375793,1.3747137784957886,93.6307373046875,23.19,0
-0.1315516233444214,-0.6532700657844543,0.3007475733757019,-0.2295088917016983,1.3744304180145264,93.6197280883789,23.19,0
-0.1459977775812149,-0.687924325466156,0.3105557560920715,0.0963295400142669,1.3742486238479614,93.61266326904295,23.19,0
-0.1496707201004028,-0.7325544953346252,0.3280456066131592,0.4415717422962188,1.3741319179534912,93.60812377929688,23.19,0
-0.1688211262226104,-0.8059777617454529,0.3448673784732818,1.0787070989608765,1.374057054519653,93.60520935058594,23.19,0
-0.2035018503665924,-0.9594542980194092,0.3612603843212127,1.83509373664856,1.3740090131759644,93.60334014892578,23.19,0
-0.2425512671470642,-1.119522213935852,0.3885737955570221,2.245265007019043,1.3739781379699707,93.60214233398438,23.19,0
-0.250817596912384,-1.171864628791809,0.4396886229515075,2.057084798812866,1.3739583492279053,93.60137176513672,23.19,0
-0.2169380336999893,-1.1382817029953003,0.4277089834213257,1.341614007949829,1.373945713043213,93.60088348388672,23.19,0
-0.1728049963712692,-1.139121174812317,0.3808367252349853,0.4167312681674957,1.3739376068115234,93.6005630493164,23.19,0
-0.1220918521285057,-1.1340621709823608,0.300376832485199,-0.3666817843914032,1.3739323616027832,93.60035705566406,23.19,0
-0.1063403934240341,-1.1140222549438477,0.2431445270776748,-0.9697432518005372,1.3771421909332275,93.60022735595705,23.19,0
-0.1186231151223182,-1.0619773864746094,0.2288072258234024,-1.5824556350708008,1.379202127456665,93.6001434326172,23.19,0
