acc_x,acc_y,acc_z,bvp,eda,hr,temp,label
0.0,0.0,0.0,0.0,0.0,0.0,26.19,2
-0.0677083283662796,-0.1302083283662796,0.0729166641831398,0.9366666078567504,1.0641719102859497,22.848331451416016,26.19,2
-0.1627286672592163,-0.2964939177036285,0.1665396392345428,1.0851218700408936,2.491719961166382,53.49853515625,26.19,2
-0.2354132086038589,-0.4511004984378814,0.2529588937759399,1.3545846939086914,3.73344087600708,80.158935546875,26.19,2
-0.2831023037433624,-0.5852471590042114,0.283977210521698,4.069094657897949,4.63934326171875,99.60913848876952,26.19,2
-0.348328173160553,-0.7144981622695923,0.3049779236316681,8.58767318725586,5.252677440643311,112.77774047851562,26.19,2
-0.507740318775177,-0.6993499994277954,0.2576735615730285,11.040738105773926,5.6551127433776855,121.41824340820312,26.19,2
-0.4212864339351654,-0.7788086533546448,0.3163061738014221,8.583782196044922,5.915750503540039,127.01426696777344,26.19,2
-0.4270871877670288,-0.8020427823066711,0.3317149579524994,2.278501510620117,5.84389066696167,130.61907958984375,26.19,2
-0.4084369838237762,-0.8169763684272766,0.347213476896286,-4.695915699005127,5.797703266143799,132.93603515625,26.19,2
-0.3852677345275879,-0.8265660405158997,0.3571659028530121,-9.729738235473633,5.7680439949035645,134.4238739013672,26.19,2
-0.3983813226222992,-0.8271244764328003,0.3467627763748169,-11.943653106689451,5.749005317687988,135.37893676757812,26.19,2
-0.39560267329216,-0.821885347366333,0.3456834554672241,-12.121465682983398,5.736785888671875,135.99191284179688,26.19,2
-0.3938194215297699,-0.8185230493545532,0.3449907898902893,-11.382942199707031,5.728943824768066,136.3852996826172,26.19,2
-0.387077271938324,-0.8219630122184753,0.3445462584495544,-9.823477745056152,5.723911285400391,136.63775634765625,26.19,2
-0.3883482813835144,-0.8241705894470215,0.3442609906196594,-7.611788749694824,5.720681667327881,136.79977416992188,26.19,2
-0.394761711359024,-0.8199895024299622,0.3440779149532318,-5.726715087890625,5.796646595001221,136.90374755859375,26.17,2
-0.4044752418994903,-0.822904109954834,0.3439604341983795,-3.5389389991760254,5.845396518707275,136.97047424316406,26.17,2
-0.4107088446617126,-0.8247745037078857,0.3438850343227386,0.3800179958343506,5.876681327819824,137.01329040527344,26.17,2
-0.4091114401817322,-0.8259748220443726,0.3438366651535034,4.865395545959473,5.896758556365967,137.040771484375,26.17,2
-0.4080862998962402,-0.8267451524734497,0.3438056111335754,8.252578735351562,5.909642696380615,137.05841064453125,26.17,2
-0.413026213645935,-0.8328372836112976,0.343785673379898,13.879880905151367,5.917911052703857,137.06973266601562,26.17,2
-0.4105985760688782,-0.8311491012573242,0.3437728881835937,25.29401016235352,5.923217296600342,137.07699584960938,26.17,2
-0.4090406596660614,-0.8244678974151611,0.3493624627590179,38.652000427246094,5.92662239074707,137.08164978027344,26.17,2
-0.4080408811569214,-0.8201802968978882,0.3473517596721649,45.62297439575195,6.058717727661133,137.0846405029297,26.17,2
-0.4129970669746399,-0.8230265378952026,0.340463638305664,41.79930114746094,6.143489360809326,137.08656311035156,26.17,2
-0.4161776602268219,-0.8360486626625061,0.3360432386398315,29.6796989440918,6.197890758514404,137.08779907226562,26.17,2
-0.4126209914684295,-0.844405472278595,0.3276087045669555,13.264445304870604,6.232802391052246,137.08859252929688,26.17,2
-0.4103385210037231,-0.8497684001922607,0.3221958875656128,-5.499096393585205,6.25520658493042,137.08909606933594,26.17,2
-0.4088737666606903,-0.8476122617721558,0.3187222480773926,-27.091602325439453,6.2695841789245605,137.08941650390625,26.17,2
-0.4023360013961792,-0.8462285995483398,0.3220908641815185,-50.49241638183594,6.278810977935791,137.08963012695312,26.17,2
-0.3981404602527618,-0.8453406095504761,0.3242526352405548,-73.4845199584961,6.284732341766357,137.0897674560547,26.17,2
-0.4010457694530487,-0.8447707891464233,0.325639933347702,-93.00794219970705,6.309648513793945,138.22193908691406,26.17,2
-0.4029102325439453,-0.8444050550460815,0.3265302181243896,-95.74576568603516,6.325638294219971,138.94850158691406,26.17,2
-0.3985089659690857,-0.8441703915596008,0.3326993286609649,-78.05294036865234,6.335899353027344,139.41477966308594,26.17,2
-0.3956844806671142,-0.8496175408363342,0.331060528755188,-50.97119903564453,6.342484474182129,139.71400451660156,26.17,2
-0.399469643831253,-0.8475154638290405,0.3244110643863678,-25.71002769470215,6.346710205078125,139.90603637695312,26.17,2
-0.4074965417385101,-0.8461664319038391,0.3145460486412048,-7.897451877593994,6.349421977996826,140.02926635742188,26.17,2
-0.4126477241516113,-0.8453007340431213,0.2970197200775146,1.6312865018844604,6.351162433624268,140.1083526611328,26.17,2
-0.4215512275695801,-0.8335496187210083,0.2801745533943176,5.947829246520996,6.352279186248779,140.1591033935547,26.17,2
-0.421667218208313,-0.8148128986358643,0.2805598378181457,7.388802528381348,6.36034107208252,140.19166564941406,26.17,2
-0.4105460941791534,-0.7971909642219543,0.2808071076869964,6.235642433166504,6.365514755249023,140.2125701904297,26.17,2
-0.4146047532558441,-0.7802844643592834,0.2809657752513885,4.356351375579834,6.368834972381592,140.22598266601562,26.17,2
-0.4228071570396423,-0.752641499042511,0.2810676097869873,5.443178653717041,6.370965480804443,140.23458862304688,26.17,2
-0.428070992231369,-0.6957173943519592,0.2587418556213379,11.521671295166016,6.372332572937012,140.2401123046875,26.17,2
-0.4370467662811279,-0.6871756911277771,0.2332189232110977,21.31583404541016,6.3732099533081055,140.24365234375,26.17,2
-0.4819913506507873,-0.8384317755699158,0.2392308712005615,30.92579460144043,6.373773097991943,140.2459259033203,26.17,2
-0.4660519957542419,-0.9634881019592284,0.2598823308944702,34.62451934814453,6.374134540557861,140.2473907470703,26.17,2
-0.4334319233894348,-1.0325465202331543,0.2675374746322632,30.24857521057129,6.3780388832092285,140.24832153320312,26.25,2
-0.3845093846321106,-0.9872998595237732,0.3004389703273773,21.69389533996582,6.380544185638428,140.24891662597656,26.25,2
-0.3755047917366028,-0.9414697885513306,0.3215532600879669,14.02578830718994,6.382152080535889,140.24929809570312,26.25,2
-0.3977150321006775,-0.9008631706237792,0.3351031839847564,8.871971130371094,6.38318395614624,140.24954223632812,26.25,2
-0.3783816397190094,-0.8636085987091064,0.3661898374557495,5.675607204437256,6.383846282958984,140.2497100830078,26.25,2
-0.3547790348529815,-0.834102988243103,0.3693461418151855,3.989787817001343,6.384271144866943,140.24981689453125,26.25,2
-0.3396322429180145,-0.8263635635375977,0.348980575799942,3.112132787704468,6.384543895721436,140.2498779296875,26.25,2
-0.3355096876621246,-0.8213968276977539,0.3247155845165252,2.3733580112457275,6.384718894958496,140.2499237060547,26.25,2
-0.3384618461132049,-0.8294050097465515,0.3035459220409393,1.7201261520385742,6.37519121170044,140.2499542236328,26.25,2
-0.3459541499614715,-0.8569353222846985,0.2507760524749756,1.2507635354995728,6.369076728820801,140.24996948242188,26.25,2
-0.3563600480556488,-0.8746026754379272,0.2169113755226135,0.5912960767745972,6.365152835845947,140.24998474121094,26.25,2
-0.3462446331977844,-0.9027338624000548,0.2007767558097839,-0.5770879983901978,6.362634658813477,140.24998474121094,26.25,2
-0.3285575807094574,-0.95437353849411,0.1848247051239013,-1.7747116088867188,6.361018657684326,140.24998474121094,26.25,2
-0.3116092681884765,-1.0322951078414917,0.1410009562969207,-2.3068273067474365,6.359981536865234,140.24998474121094,26.25,2
-0.3063305914402008,-1.0767028331756592,0.1352684944868087,-2.300798892974853,6.359315872192383,140.24998474121094,26.25,2
-0.3085408210754394,-1.0884078741073608,0.1483830511569976,-2.429485321044922,6.358888626098633,140.24998474121094,26.25,2
-0.3267525434494018,-1.028746247291565,0.1679947674274444,-2.898987054824829,6.34484338760376,141.23519897460938,26.25,2
-0.3328420221805572,-0.9736654758453368,0.1805804371833801,-3.300598382949829,6.335830211639404,141.86744689941406,26.25,2
-0.3199565708637237,-0.9383178353309632,0.1886571943759918,-3.300384044647217,6.3300461769104,142.273193359375,26.25,2
-0.283698558807373,-0.9492203593254088,0.2050359398126602,-2.963484287261963,6.326333999633789,142.53358459472656,26.25,2
-0.260430246591568,-0.9618147611618042,0.2435357570648193,-2.5215792655944824,6.323951721191406,142.70068359375,26.25,2
-0.2510957717895508,-0.9307126998901368,0.2682427167892456,-2.109017372131348,6.322422981262207,142.80792236328125,26.25,2
-0.2563009858131408,-0.8939598798751831,0.2729026675224304,-1.6687126159667969,6.321442127227783,142.87673950195312,26.25,2
-0.2596413791179657,-0.8591784834861755,0.2646976113319397,-1.0673011541366575,6.320812702178955,142.9208984375,26.25,2
-0.2561872899532318,-0.8256622552871704,0.2874209582805633,-0.3625006377696991,6.313522815704346,142.94923400878906,26.25,2
-0.2595684230327606,-0.7929579019546509,0.2908079326152801,0.1507035791873932,6.308844566345215,142.96742248535156,26.25,2
-0.278531551361084,-0.7663723826408386,0.2705903947353363,0.2901719808578491,6.305842399597168,142.97909545898438,26.25,2
-0.3186898827552795,-0.7493113279342651,0.2632137238979339,0.1969633996486663,6.303915500640869,142.98658752441406,26.25,2
-0.3556567430496216,-0.7383624911308289,0.2696753442287445,-0.0097381100058555,6.302679061889648,142.99139404296875,26.25,2
-0.3849776983261108,-0.7313361763954163,0.2906153798103332,-0.3286811709403991,6.301885604858398,142.99447631835938,26.25,2
-0.4093919992446899,-0.7380226254463196,0.3040534853935241,-0.6336725354194641,6.3013763427734375,142.9964599609375,26.25,2
-0.4586463272571563,-0.7814980149269104,0.3014817535877228,-0.7111734747886658,6.301049709320068,142.9977264404297,26.25,2
-0.4846571385860443,-0.8205935955047607,0.2942335605621338,-0.6140235066413879,6.303135395050049,142.99853515625,26.27,2
-0.4733605086803436,-0.8512806296348572,0.2671909928321838,-0.7594676613807678,6.304473876953125,142.99905395507812,26.27,2
-0.4940998554229736,-0.9717337489128112,0.2386410981416702,-1.6553022861480713,6.305332660675049,142.9993896484375,26.27,2
-0.5465936064720154,-1.093815803527832,0.2203194200992584,-3.49484658241272,6.305883884429932,142.99960327148438,26.27,2
-0.5690855383872986,-1.060205578804016,0.1805727481842041,-5.85402774810791,6.306237697601318,142.99974060058594,26.27,2
-0.5219440460205078,-1.044234275817871,0.1494678407907486,-7.883905410766602,6.306464672088623,142.9998321533203,26.27,2
-0.4637024700641632,-1.073169231414795,0.1630931496620178,-8.79248046875,6.306610107421875,142.99989318847656,26.27,2
-0.4375219047069549,-1.086140275001526,0.166239321231842,-8.343770027160645,6.306703567504883,142.99993896484375,26.27,2
-0.3983296453952789,-1.0384865999221802,0.1514650285243988,-7.253316402435303,6.294828414916992,142.9999542236328,26.27,2
-0.3283961117267608,-0.9183407425880432,0.164374828338623,-6.908201217651367,6.28720760345459,142.99996948242188,26.27,2
-0.2891145646572113,-0.8132492303848267,0.1782573759555816,-8.033774375915527,6.2823166847229,142.99998474121094,26.27,2
-0.3030903339385986,-0.7290142178535461,0.1703730672597885,-9.80221462249756,6.279178142547607,142.99998474121094,26.27,2
-0.3176569640636444,-0.6973481178283691,0.1541178226470947,-10.74363899230957,6.277163982391357,142.99998474121094,26.27,2
-0.315809428691864,-0.7106132507324219,0.1492839157581329,-10.41632080078125,6.275871276855469,142.99998474121094,26.27,2
-0.3034282624721527,-0.7583104968070984,0.1405840218067169,-9.622306823730469,6.2750420570373535,142.99998474121094,26.27,2
-0.295482724905014,-0.8169087171554565,0.1294031590223312,-9.205902099609377,6.274509906768799,142.99998474121094,26.27,2
-0.3239703774452209,-0.8769047856330872,0.1278256922960281,-9.081979751586914,6.258560657501221,143.8956298828125,26.27,2
-0.353447675704956,-0.9937756657600404,0.1324111372232437,-8.647778511047363,6.248325347900391,144.4704132080078,26.27,2
-0.3779622912406921,-1.0687766075134275,0.1297560483217239,-7.817416667938232,6.241756916046143,144.83926391601562,26.27,2
-0.3769010305404663,-1.1225056648254397,0.1448454856872558,-7.123322486877441,6.237541675567627,145.0759735107422,26.27,2
-0.3594266474246979,-1.1737792491912842,0.1601267904043197,-6.613406181335449,6.234836578369141,145.22789001464844,26.27,2
-0.3482125997543335,-1.1339125633239746,0.1867267787456512,-5.164825439453125,6.233100414276123,145.32537841796875,26.27,2
-0.3074294328689575,-0.968384087085724,0.2093948870897293,-1.4121402502059937,6.2319865226745605,145.387939453125,26.27,2
-0.2812571227550506,-0.9461240768432616,0.2071486562490463,4.646761894226074,6.231271743774414,145.42808532714844,26.27,2
-0.2812545597553253,-0.9934144020080566,0.2057071477174759,11.021324157714844,6.229894638061523,145.45384216308594,26.27,2
-0.2756551504135132,-1.0013715028762815,0.2047820687294006,14.82554531097412,6.229011058807373,145.4703826904297,26.27,2
-0.2328773587942123,-0.9169135093688964,0.2041884064674377,14.855801582336426,6.2284440994262695,145.48098754882812,26.27,2
-0.2166205793619156,-0.8067355155944824,0.2038074284791946,12.836732864379885,6.2280802726745605,145.48779296875,26.27,2
-0.2341767847537994,-0.7360296249389648,0.209160715341568,11.225744247436523,6.227846622467041,145.49217224121094,26.27,2
-0.2958233058452606,-0.7130457162857056,0.2125961482524871,10.714961051940918,6.227696418762207,145.49497985839844,26.27,2
-0.3409822881221771,-0.6982960104942322,0.2148008048534393,10.960381507873535,6.22760009765625,145.4967803955078,26.27,2
-0.3587671518325805,-0.7056238055229187,0.2386067360639572,12.0672607421875,6.227538585662842,145.49794006347656,26.27,2
-0.3757782280445099,-0.7047286033630371,0.2706773281097412,13.916851043701172,6.216940879821777,145.49867248535156,26.25,2
-0.3978905081748962,-0.7153496742248535,0.296856164932251,15.594624519348145,6.210140228271484,145.4991455078125,26.25,2
-0.445667564868927,-0.7725456357002258,0.3080584704875946,16.588924407958984,6.205775737762451,145.49945068359375,26.25,2
-0.481925904750824,-0.8316417932510376,0.3152474462985992,17.438379287719727,6.202974796295166,145.49964904785156,26.25,2
-0.5051944255828857,-0.9535329341888428,0.2694809436798095,18.43491554260254,6.201177597045898,145.49977111816406,26.25,2
-0.5313223600387573,-1.1493089199066162,0.217719554901123,18.63736152648925,6.200024127960205,145.49984741210938,26.25,2
-0.5536875128746033,-1.196577787399292,0.1845020800828933,17.026147842407227,6.199284076690674,145.49990844726562,26.25,2
-0.47847580909729,-1.0757722854614258,0.1016094908118248,13.659907341003418,6.198809146881104,145.49993896484375,26.25,2
-0.4078181684017181,-1.0710173845291138,0.0372182466089725,8.934523582458496,6.195291042327881,145.4999542236328,26.25,2
-0.3904630243778229,-1.135139226913452,0.029482303187251,3.225860118865967,6.193033218383789,145.49996948242188,26.25,2
-0.3793255090713501,-1.058735728263855,0.0133222704753279,-2.3901350498199463,6.191584587097168,145.49998474121094,26.25,2
-0.338591456413269,-0.953726589679718,-0.0194394066929817,-6.832480430603027,6.190654754638672,145.49998474121094,26.25,2
-0.3012551367282867,-0.8583489060401917,-0.0180728659033775,-9.9735107421875,6.19005823135376,145.49998474121094,26.25,2
-0.2884903848171234,-0.8195320963859558,-0.0004025762318633,-11.903261184692385,6.189675331115723,145.49998474121094,26.25,2
-0.302689790725708,-0.7890239357948303,0.0221327468752861,-12.618607521057127,6.18942928314209,145.49998474121094,26.25,2
-0.3229976892471313,-0.7806410789489746,0.0198012981563806,-12.457890510559082,6.189271450042725,145.49998474121094,26.25,2
-0.3192368149757385,-0.7864570021629333,0.0127073330804705,-11.075772285461426,6.191465377807617,146.2272491455078,26.25,2
-0.3000299632549286,-0.8405693173408508,0.0305459313094615,-7.329912662506103,6.192873001098633,146.6939697265625,26.25,2
-0.293301910161972,-0.892088770866394,0.0643848106265068,-1.8700989484786987,6.193776607513428,146.9934844970703,26.25,2
-0.3057775497436523,-0.9699332118034364,0.0916984379291534,2.231985569000244,6.194356441497803,147.18569946289062,26.25,2
-0.33057701587677,-1.0758670568466189,0.0924334228038787,2.7292520999908447,6.194728374481201,147.30905151367188,26.25,2
-0.3520896732807159,-1.1606426239013672,0.1096984222531318,0.3435246646404266,6.194967269897461,147.38821411132812,26.25,2
-0.3770907819271087,-1.1030912399291992,0.1431691944599151,-2.498720407485962,6.195120334625244,147.4390106201172,26.25,2
-0.3931350708007812,-0.970995843410492,0.1646488159894943,-3.8175666332244873,6.195218563079834,147.4716033935547,26.25,2
-0.3810402750968933,-0.8974201679229736,0.1560420989990234,-3.166409730911255,6.197576999664307,147.49252319335938,26.25,2
-0.3620829880237579,-0.9733545780181884,0.1505188047885894,-1.1614536046981812,6.199090480804443,147.50595092773438,26.25,2
-0.3387217223644256,-1.0108894109725952,0.1413764953613281,1.6513891220092771,6.200061798095703,147.5145721435547,26.25,2
-0.2901431620121002,-0.9734015464782716,0.1187161654233932,5.032843112945557,6.200685024261475,147.5200958251953,26.25,2
-0.264566034078598,-0.92695289850235,0.1041740700602531,8.360037803649902,6.201085090637207,147.52365112304688,26.25,2
-0.287336528301239,-0.8859492540359497,0.1004395708441734,10.61346435546875,6.20134162902832,147.5259246826172,26.25,2
-0.3635248243808746,-0.8820266127586365,0.0868474319577217,11.29649543762207,6.201506614685059,147.5273895263672,26.25,2
-0.4124180972576141,-0.8739114999771118,0.0781247839331626,10.767529487609863,6.20161247253418,147.5283203125,26.25,2
-0.4102083444595337,-0.8519103527069092,0.0893204137682914,9.715137481689451,6.205811977386475,147.52891540527344,26.27,2
-0.3919969201087951,-0.8265957236289978,0.096505120396614,8.788992881774902,6.208507061004639,147.529296875,26.27,2
-0.3691143095493316,-0.7823613882064819,0.1179091781377792,8.760693550109863,6.210236549377441,147.529541015625,26.27,2
-0.3936139941215515,-0.7707676887512207,0.1204495206475257,10.207805633544922,6.21134614944458,147.5297088623047,26.27,2
-0.4317275881767273,-0.7745230793952942,0.116481989622116,12.723559379577637,6.212058544158936,147.52981567382812,26.27,2
-0.4841755628585815,-0.8273130059242249,0.0859469845890998,15.35189437866211,6.212515354156494,147.52987670898438,26.27,2
-0.5122358798980713,-0.9619504809379578,0.0439602769911289,17.604656219482422,6.212808609008789,147.52992248535156,26.27,2
-0.5246456265449524,-1.0539509057998655,0.0226134005934,19.00735855102539,6.212996959686279,147.5299530029297,26.27,2
-0.5046206116676331,-1.1801646947860718,-0.0358679927885532,18.82917594909668,6.208067893981934,147.52996826171875,26.27,2
-0.5029652714729309,-1.2723569869995115,-0.0845935344696044,17.23164176940918,6.204905033111572,147.5299835205078,26.27,2
-0.4795118570327759,-1.3147274255752563,-0.1438516527414322,14.981196403503418,6.202875137329102,147.5299835205078,26.27,2
-0.4364719092845917,-1.274744987487793,-0.1706845462322235,12.07888126373291,6.201572418212891,147.5299835205078,26.27,2
-0.3808624744415283,-1.1315332651138306,-0.159915491938591,8.87287712097168,6.2007365226745605,147.5299835205078,26.27,2
-0.3395777642726898,-1.0060416460037231,-0.1530045270919799,6.274478912353516,6.200200080871582,147.5299835205078,26.27,2
-0.3242791891098022,-0.9255083203315736,-0.1597650200128555,3.2348501682281494,6.199855804443359,147.5299835205078,26.27,2
-0.320059210062027,-0.9018155336380004,-0.1808968335390091,-2.0117781162261963,6.199634552001953,147.5299835205078,26.27,2
-0.3173510730266571,-0.8810130953788757,-0.200055792927742,-8.176753997802734,6.1967387199401855,148.21426391601562,26.27,2
-0.2876242697238922,-0.8564677834510803,-0.2123509049415588,-13.172027587890623,6.194880485534668,148.6533966064453,26.27,2
-0.2461562156677246,-0.8743026256561279,-0.2314367592334747,-17.37724494934082,6.193687915802002,148.93521118164062,26.27,2
-0.230739951133728,-0.9305301904678344,-0.2492827326059341,-20.46282958984375,6.192922592163086,149.11605834960938,26.27,2
-0.2712266445159912,-1.0057982206344604,-0.2271486073732376,-19.960254669189453,6.192431449890137,149.23211669921875,26.27,2
-0.3251975476741791,-1.087687611579895,-0.207346424460411,-16.35967445373535,6.1921162605285645,149.3065948486328,26.27,2
-0.3990173935890198,-1.0562728643417358,-0.1554540991783142,-13.887813568115234,6.191913604736328,149.35438537597656,26.27,2
-0.4072062969207763,-0.952146053314209,-0.1221525892615318,-14.30417537689209,6.191783905029297,149.3850555419922,26.27,2
-0.4012659192085266,-0.9804856181144714,-0.0895860493183136,-14.686015129089355,6.195831775665283,149.4047393798828,26.27,2
-0.4366381466388702,-1.1050300598144531,-0.0574911683797836,-12.333690643310549,6.198429584503174,149.41737365722656,26.27,2
-0.4313491284847259,-1.162564396858215,-0.0368945226073265,-8.183746337890625,6.200096607208252,149.42547607421875,26.27,2
-0.3159994482994079,-1.098726749420166,0.0099098682403564,-4.284562110900879,6.20116662979126,149.43067932128906,26.27,2
-0.2251813560724258,-1.0017815828323364,0.0679351016879081,-0.2919385731220245,6.201853275299072,149.43402099609375,26.27,2
-0.2060839533805847,-0.9507633447647096,0.0995745807886123,5.451624870300293,6.202293872833252,149.4361572265625,26.27,2
-0.2554038465023041,-0.9404138922691344,0.0974878817796707,12.601862907409668,6.202576637268066,149.43753051757812,26.27,2
-0.3038478493690491,-0.922576665878296,0.0737576633691787,19.02117156982422,6.202757835388184,149.43841552734375,26.27,2
-0.3349364101886749,-0.8831408619880676,0.0305400993674993,22.99741172790528,6.195988655090332,149.43898010253906,26.21,2
-0.3268983960151672,-0.8354421257972717,0.014001103118062,23.292110443115234,6.191644668579102,149.43934631347656,26.21,2
-0.3161422908306122,-0.7880384922027588,0.0145828761160373,19.36843490600586,6.188857078552246,149.4395751953125,26.21,2
-0.3204351961612701,-0.7296287417411804,0.0317495465278625,13.694195747375488,6.187067985534668,149.43972778320312,26.21,2
-0.3343856632709503,-0.7033402323722839,0.0427661277353763,11.14189910888672,6.185919761657715,149.4398193359375,26.21,2
-0.3993160128593445,-0.7648386359214783,0.0498359352350235,14.250894546508787,6.185183048248291,149.43988037109375,26.21,2
-0.4969623386859894,-0.893869161605835,-0.0016048118704929,20.9177474975586,6.1847100257873535,149.43992614746094,26.21,2
-0.554028332233429,-1.0158579349517822,-0.062605395913124,27.5427360534668,6.184406757354736,149.43995666503906,26.21,2
-0.6130411028862,-1.0717521905899048,-0.073763184249401,32.854713439941406,6.171817779541016,149.43997192382812,26.21,2
-0.6117277145385742,-1.051644206047058,-0.0921191573143005,38.3021240234375,6.16373872756958,149.4399871826172,26.21,2
-0.594091534614563,-1.1786843538284302,-0.1150945201516151,45.81044006347656,6.1585540771484375,149.4399871826172,26.21,2
-0.5939691662788391,-1.176244854927063,-0.141034334897995,55.63012313842773,6.155227184295654,149.4399871826172,26.21,2
-0.5547062158584595,-1.1354949474334717,-0.1576810181140899,66.06253814697266,6.153091907501221,149.4399871826172,26.21,2
-0.4903250932693481,-1.002986192703247,-0.140375018119812,75.40140533447266,6.151721477508545,149.4399871826172,26.21,2
-0.4490090012550354,-0.9011564254760742,-0.123671256005764,84.03132629394531,6.150842189788818,149.4399871826172,26.21,2
-0.4280924797058105,-0.8358079195022583,-0.0961584150791168,93.70738983154295,6.150278091430664,149.4399871826172,26.21,2
-0.4034739136695862,-0.8050665855407715,-0.0952955856919288,104.61727142333984,6.134308338165283,150.08485412597656,26.21,2
-0.3820773661136627,-0.7853385806083679,-0.1059374138712883,114.8429183959961,6.124059677124023,150.4987030029297,26.21,2
-0.3403574228286743,-0.7894715666770935,-0.1015711799263954,123.4472198486328,6.117482662200928,150.7642822265625,26.21,2
-0.3079861998558044,-0.8257105350494385,-0.0707803145051002,132.90621948242188,6.113262176513672,150.93470764160156,26.21,2
-0.2760166525840759,-0.9161399006843568,-0.0454227328300476,147.03366088867188,6.110553741455078,151.04408264160156,26.21,2
-0.2555004358291626,-1.030150055885315,-0.0347474701702594,163.4620361328125,6.108815670013428,151.11427307128906,26.21,2
-0.2535298764705658,-1.1201084852218628,-0.0334944762289524,168.4984130859375,6.107700347900391,151.15931701660156,26.21,2
-0.2690585851669311,-1.2058274745941162,-0.0326903760433197,146.2476043701172,6.106984615325928,151.18821716308594,26.21,2
-0.2958173453807831,-1.1936637163162231,0.0070100706070661,93.91419982910156,6.100557804107666,151.20677185058594,26.21,2
-0.3185873627662658,-1.0571088790893557,0.0772697255015373,22.15011978149414,6.096433162689209,151.2186737060547,26.21,2
-0.2940154075622558,-0.9806714653968812,0.1167605519294738,-58.55818557739258,6.093786239624023,151.226318359375,26.21,2
-0.2838443219661712,-0.9708027243614196,0.1253101676702499,-146.22804260253906,6.092087745666504,151.23121643066406,26.21,2
-0.2437304705381393,-0.9644695520401,0.1587857007980346,-245.9640655517578,6.090997695922852,151.23435974121094,26.21,2
-0.2123899310827255,-0.943611979484558,0.1858661323785781,-359.6126708984375,6.090298175811768,151.23638916015625,26.21,2
-0.2314617931842804,-0.8630535006523132,0.2032448053359985,-469.1203002929688,6.08984899520874,151.23768615722656,26.21,2
-0.3108743131160736,-0.8281490206718445,0.208799660205841,-539.582275390625,6.0895609855651855,151.23851013183594,26.21,2
-0.3562389314174652,-0.7945537567138672,0.206766664981842,-549.4442749023438,6.067800998687744,151.23904418945312,26.17,2
-0.3629602193832397,-0.7450053691864014,0.1886686831712722,-507.6269226074219,6.053836345672607,151.23939514160156,26.17,2
-0.34488245844841,-0.7132080793380737,0.1826522201299667,-435.2564086914063,6.044874668121338,151.23960876464844,26.17,2
-0.3220856487751007,-0.7039979696273804,0.1899867504835128,-346.37042236328125,6.03912353515625,151.23974609375,26.17,2
-0.3130537569522857,-0.7036852240562439,0.2002913951873779,-247.44461059570312,6.035432815551758,151.23983764648438,26.17,2
-0.3296487033367157,-0.7146800756454468,0.2180998772382736,-139.81521606445312,6.033064365386963,151.23989868164062,26.17,2
-0.3682872354984283,-0.833691418170929,0.2183327823877334,-26.14897346496582,6.0315446853637695,151.2399444580078,26.17,2
-0.3986810147762298,-0.9380549192428588,0.2072867006063461,79.15330505371094,6.030569076538086,151.23995971679688,26.17,2
-0.3957948982715606,-1.0778005123138428,0.177806869149208,154.24649047851562,6.018466949462891,151.23997497558594,26.17,2
-0.438724935054779,-1.2794365882873535,0.1868772804737091,193.1007843017578,6.010700702667236,151.239990234375,26.17,2
-0.4718727469444275,-1.3024773597717283,0.198295921087265,211.0957794189453,6.005716800689697,151.239990234375,26.17,2
-0.4035806953907013,-1.1885148286819458,0.1552437841892242,224.3134155273437,6.002518177032471,151.239990234375,26.17,2
-0.3485592603683471,-1.18255352973938,0.1220176219940185,231.4952545166016,6.0004658699035645,151.239990234375,26.17,2
-0.3020541071891784,-1.24030339717865,0.1174883097410202,223.1029815673828,5.999148368835449,151.239990234375,26.17,2
-0.2610142230987549,-1.1822017431259155,0.0697994604706764,205.0636444091797,5.998302936553955,151.239990234375,26.17,2
-0.2290794253349304,-1.0721443891525269,0.0335977263748645,197.2523193359375,5.997760772705078,151.239990234375,26.17,2
-0.1917921900749206,-0.9287448525428772,0.0551477335393428,209.052490234375,5.9886908531188965,151.79171752929688,26.17,2
-0.1790589243173599,-0.8199259638786316,0.0913683846592903,222.74420166015625,5.982870101928711,152.14578247070312,26.17,2
-0.1932785511016845,-0.7612878084182739,0.0978193879127502,212.68283081054688,5.979135036468506,152.3730010986328,26.17,2
-0.1744150221347808,-0.7460483312606812,0.0627748519182205,167.337158203125,5.976737976074219,152.51881408691406,26.17,2
-0.1511139422655105,-0.7418662905693054,0.0402852855622768,93.60518646240234,5.975199699401856,152.6123809814453,26.17,2
-0.1585517525672912,-0.7839646935462952,0.0258527770638465,29.96245384216309,5.974212646484375,152.67242431640625,26.17,2
-0.1913137733936309,-0.8277743458747864,0.0053952755406498,-6.827896118164063,5.973578929901123,152.71096801757812,26.17,2
-0.2739140689373016,-0.8894754648208618,-0.0245264954864978,-41.51873016357422,5.973172187805176,152.73570251464844,26.17,2
-0.3493132889270782,-0.9682561159133912,0.0178469512611627,-87.82039642333984,5.958680629730225,152.75157165527344,26.17,2
-0.3641135096549988,-1.057997465133667,0.0618331171572208,-119.9165496826172,5.949380874633789,152.76174926757812,26.17,2
-0.35681813955307,-1.2107504606246948,0.0788653567433357,-112.4445343017578,5.943412780761719,152.76828002929688,26.17,2
-0.4025163352489471,-1.112856388092041,0.1513711810111999,-77.81015014648438,5.939582824707031,152.77247619628906,26.17,2
-0.4094517230987549,-0.9996536374092102,0.1867057085037231,-50.03797149658203,5.937124729156494,152.77517700195312,26.17,2
-0.3635224997997284,-1.0389621257781982,0.1590013951063156,-49.06782150268555,5.935547351837158,152.7769012451172,26.17,2
-0.3452433049678802,-1.0361992120742798,0.1412223577499389,-63.34874725341797,5.934535026550293,152.77801513671875,26.17,2
-0.3111216723918915,-0.9504594802856444,0.1354105770587921,-66.7956314086914,5.93388557434082,152.7787322998047,26.17,2
-0.2892243564128876,-0.8786433339118958,0.1260831356048584,-43.24892807006836,5.957798480987549,152.77919006347656,26.21,2
-0.3087585866451263,-0.7989692687988281,0.1089017689228057,-1.193455696105957,5.973144054412842,152.77947998046875,26.21,2
-0.3660767078399658,-0.7422412633895874,0.120266854763031,35.55067825317383,5.982992172241211,152.7796630859375,26.21,2
-0.4028601944446563,-0.7114342451095581,0.1555491834878921,49.48307418823242,5.989312171936035,152.77978515625,26.21,2
-0.4040746092796325,-0.7084574103355408,0.2061802297830581,43.319942474365234,5.993367671966553,152.7798614501953,26.21,2
-0.4048539698123932,-0.728938102722168,0.2330745458602905,33.188438415527344,5.995970249176025,152.7799072265625,26.21,2
-0.4165496528148651,-0.758874773979187,0.2727248668670654,32.52980422973633,5.997640609741211,152.77993774414062,26.21,2
-0.424055278301239,-0.8060752749443054,0.2981701493263244,40.73038864135742,5.998712539672852,152.7799530029297,26.21,2
-0.4344697296619415,-0.8475614190101624,0.2921083867549896,45.54881286621094,5.982416152954102,152.77996826171875,26.21,2
-0.4187620282173157,-0.8741848468780518,0.2882182896137237,39.580665588378906,5.971957683563232,152.7799835205078,26.21,2
-0.4030839502811432,-0.9528457522392272,0.2857218384742737,28.19858360290528,5.965246200561523,152.7799835205078,26.21,2
-0.4266093075275421,-1.076096773147583,0.2953153252601623,20.650604248046875,5.960939407348633,152.7799835205078,26.21,2
-0.4249131977558136,-1.160789966583252,0.2007119208574295,19.38932037353516,5.958175182342529,152.7799835205078,26.21,2
-0.3902381062507629,-1.2151411771774292,0.1064142659306526,20.79034996032715,5.956401348114014,152.7799835205078,26.21,2
-0.3176056444644928,-1.2108362913131714,0.0850838720798492,20.89770126342773,5.955263137817383,152.7799835205078,26.21,2
-0.2653965353965759,-1.1688892841339111,0.0881885811686515,18.94243812561035,5.954532623291016,152.7799835205078,26.21,2
-0.2262939661741256,-1.0747967958450315,0.0565943568944931,17.193267822265625,5.949932098388672,152.76565551757812,26.21,2
-0.1788090914487838,-0.952838122844696,0.0419167764484882,16.762187957763672,5.946979999542236,152.7564697265625,26.21,2
-0.1539338082075119,-0.8689742684364319,0.0324975475668907,16.109375,5.945085525512695,152.7505645751953,26.21,2
-0.1659591495990753,-0.8207530379295349,-0.0015360421966761,14.762550354003906,5.943869590759277,152.7467803955078,26.21,2
-0.179274097084999,-0.7898074388504028,-0.0233768410980701,12.93452262878418,5.943089485168457,152.74435424804688,26.21,2
-0.2102099657058715,-0.7979372143745422,-0.0373930074274539,7.415735721588135,5.942588806152344,152.7427978515625,26.21,2
-0.2524539232254028,-0.7975566387176514,-0.0351922288537025,-3.720963954925537,5.942267417907715,152.74179077148438,26.21,2
-0.2795636653900146,-0.8085079789161682,-0.0449754446744918,-13.784072875976562,5.942061424255371,152.74114990234375,26.21,2
-0.3417433202266693,-0.8715136647224426,-0.0512537509202957,-15.065176010131836,5.935502052307129,152.74073791503906,26.21,2
-0.3928422033786773,-0.9343382120132446,-0.0440872572362422,-11.63479709625244,5.93129301071167,152.740478515625,26.21,2
-0.4256345331668854,-0.9522642493247986,-0.0282926633954048,-14.531381607055664,5.928591728210449,152.7403106689453,26.21,2
-0.4466787576675415,-0.9861592650413512,-0.0237543769180774,-26.23516082763672,5.926857948303223,152.74020385742188,26.21,2
-0.4545859396457672,-1.0750844478607178,-0.037635289132595,-38.485721588134766,5.925745487213135,152.74012756347656,26.21,2
-0.4652580916881561,-1.1769336462020874,-0.0577388070523738,-43.495697021484375,5.925031661987305,152.74008178710938,26.21,2
-0.4833024144172668,-1.1583280563354492,-0.0538467653095722,-41.00376510620117,5.924573421478272,152.74005126953125,26.21,2
-0.4445022642612457,-0.9672592282295228,-0.0009691093582659,-37.04367065429688,5.92427921295166,152.7400360107422,26.21,2
-0.3468314707279205,-1.006977677345276,0.0217691790312528,-39.9119987487793,5.921336650848389,152.74002075195312,26.17,2
-0.2897497713565826,-1.0380644798278809,0.0139702064916491,-51.17131805419922,5.919447898864746,152.74002075195312,26.17,2
-0.2531180083751678,-1.002036452293396,-0.0190235972404479,-58.23210144042969,5.918236255645752,152.74002075195312,26.17,2
-0.2464031875133514,-0.9957091212272644,-0.029001573100686,-46.72053146362305,5.917458534240723,152.74002075195312,26.17,2
-0.2588873207569122,-0.8964864015579224,0.0205728821456432,-21.30554962158203,5.916959285736084,152.74002075195312,26.17,2
-0.2948877811431885,-0.8272132277488708,0.063582457602024,-0.8578022122383118,5.916638851165772,152.74002075195312,26.17,2
-0.3235885798931122,-0.7995510101318359,0.0911835283041,5.980546951293945,5.916433334350586,152.74002075195312,26.17,2
-0.336409330368042,-0.7985923290252686,0.1200918555259704,6.693283557891846,5.916301250457764,152.74002075195312,26.17,2
-0.3334414064884186,-0.797977089881897,0.1442413330078125,10.37857723236084,5.908872127532959,152.74002075195312,26.17,2
-0.3259389996528625,-0.8087778091430664,0.1709346324205398,20.510610580444336,5.904104232788086,152.74002075195312,26.17,2
-0.3435154855251312,-0.8325024247169495,0.1768693029880523,37.162200927734375,5.901044845581055,152.74002075195312,26.17,2
-0.3603928387165069,-0.8477274775505066,0.1694822758436203,55.808719635009766,5.899081230163574,152.74002075195312,26.17,2
-0.3768215179443359,-0.8742913603782654,0.1367528438568115,67.80364227294922,5.897820949554443,152.74002075195312,26.17,2
-0.3761689364910126,-0.9473162889480592,0.1045534238219261,68.71947479248047,5.897012233734131,152.74002075195312,26.17,2
-0.4149345755577087,-1.089341640472412,0.072694145143032,63.274147033691406,5.896493434906006,152.74002075195312,26.17,2
-0.3950299322605133,-1.001356601715088,0.0690420120954513,58.46842575073242,5.89616060256958,152.74002075195312,26.17,2
-0.3038874268531799,-0.9616861939430236,0.0946871563792228,55.34856414794922,5.871617317199707,152.5286407470703,26.17,2
-0.2677885293960571,-1.0649768114089966,0.1279380619525909,51.29718399047852,5.8558669090271,152.3929901123047,26.17,2
-0.222231239080429,-1.187240481376648,0.082103282213211,45.666385650634766,5.84575891494751,152.30593872070312,26.17,2
-0.1482129842042923,-1.1929311752319336,-0.0200819075107574,36.63600540161133,5.839272499084473,152.2500762939453,26.17,2
-0.1454945355653762,-1.1126165390014648,0.0151014598086476,18.98250389099121,5.835109710693359,152.21421813964844,26.17,2
-0.166141077876091,-1.061075210571289,0.05447344109416,-5.838476181030273,5.8324384689331055,152.1912078857422,26.17,2
-0.2017819434404373,-1.022401213645935,0.0293601434677839,-25.21359062194824,5.830724239349365,152.1764373779297,26.17,2
-0.2190564274787902,-0.9863869547843932,0.0076461005955934,-30.34613609313965,5.829623699188232,152.16696166992188,26.17,2
-0.2077510952949524,-0.9072973132133484,0.0161023754626512,-27.56027603149414,5.827081680297852,152.160888671875,26.17,2
-0.2004959881305694,-0.834151029586792,0.0271269008517265,-28.47015190124512,5.825450420379639,152.156982421875,26.17,2
-0.207035630941391,-0.7928077578544617,0.0342018082737922,-36.93930816650391,5.824403285980225,152.15447998046875,26.17,2
-0.2280257195234298,-0.7718737721443176,0.0219487510621547,-47.55114364624024,5.823731422424316,152.1528778076172,26.17,2
-0.2470937222242355,-0.7752328515052795,0.0028898962773382,-50.850284576416016,5.823300361633301,152.15184020996094,26.17,2
-0.2761237919330597,-0.810975193977356,-0.0093409800902009,-42.001220703125,5.823023796081543,152.15118408203125,26.17,2
-0.3003513813018799,-0.8842925429344177,-0.0115922773256897,-27.9929141998291,5.822845935821533,152.1507568359375,26.17,2
-0.3270948231220245,-0.9425389170646667,-0.0186348054558038,-22.170185089111328,5.822731971740723,152.15048217773438,26.17,2
-0.349854975938797,-1.0526891946792605,-0.0287520680576562,-28.479034423828125,5.808887481689453,152.1503143310547,26.13,2
-0.370058923959732,-1.1681594848632812,-0.0296469703316688,-36.21416091918945,5.8000030517578125,152.1501922607422,26.13,2
-0.4334046244621277,-1.1303061246871948,0.0313542485237121,-36.88261413574219,5.794301509857178,152.15011596679688,26.13,2
-0.4068829417228699,-0.977265238761902,0.1152835190296173,-42.316444396972656,5.790642261505127,152.1500701904297,26.13,2
-0.3226895630359649,-0.9798123836517334,0.1467534005641937,-70.66664123535156,5.788294315338135,152.15003967285156,26.13,2
-0.2574635446071625,-0.970251441001892,0.1165689826011657,-112.51590728759766,5.786787509918213,152.1500244140625,26.13,2
-0.2100074738264084,-0.913735806941986,0.108393907546997,-130.65953063964844,5.785820484161377,152.15000915527344,26.13,2
-0.2131395488977432,-0.9110539555549622,0.0919520705938339,-103.18134307861328,5.7851996421813965,152.15000915527344,26.13,2
-0.259931743144989,-0.842159628868103,0.0925961956381797,-51.8497200012207,5.779293060302734,152.15000915527344,26.13,2
-0.3011558055877685,-0.7923493981361389,0.1098028793931007,-14.899133682250977,5.77550220489502,152.15000915527344,26.13,2
-0.333208829164505,-0.7603840827941895,0.1376384645700454,-3.044701099395752,5.773069381713867,152.15000915527344,26.13,2
-0.3593763709068298,-0.7510661482810974,0.1499039679765701,2.0979795455932617,5.77150821685791,152.15000915527344,26.13,2
-0.3593758940696716,-0.7730752825737,0.1745685786008834,15.766228675842283,5.770506381988525,152.15000915527344,26.13,2
-0.3481800258159637,-0.7760039567947388,0.2127880007028579,35.75835037231445,5.769863605499268,152.15000915527344,26.13,2
-0.3409951627254486,-0.7778834104537964,0.2541083395481109,54.08023452758789,5.769451141357422,152.15000915527344,26.13,2
-0.3475798666477203,-0.8238717317581177,0.2974186837673187,64.58425903320312,5.769186496734619,152.15000915527344,26.13,2
-0.3574033379554748,-0.8981665372848511,0.3196150064468384,63.97369384765625,5.74101448059082,151.9601287841797,26.13,2
-0.3637074828147888,-1.0410068035125732,0.300272673368454,57.86766052246094,5.722935676574707,151.83827209472656,26.13,2
-0.3901441991329193,-1.211042404174805,0.2878598868846893,57.359771728515625,5.711333751678467,151.76007080078125,26.13,2
-0.4406964182853699,-1.269781470298767,0.2910896241664886,62.6441535949707,5.703887939453125,151.7098846435547,26.13,2
-0.4675401449203491,-1.1563369035720823,0.231586754322052,61.43175506591797,5.69911003112793,151.6776885986328,26.13,2
-0.4511802494525909,-1.0723391771316528,0.1766079217195511,48.66640853881836,5.696043491363525,151.65701293945312,26.13,2
-0.4070947766304016,-1.091205358505249,0.1525212228298187,36.58008575439453,5.694075584411621,151.6437530517578,26.13,2
-0.3788032531738281,-1.120105862617493,0.1202704384922981,39.09860610961914,5.692812919616699,151.63523864746094,26.13,2
-0.3438540697097778,-1.082674860954285,0.0771826431155204,50.98609161376953,5.686493873596191,151.62977600097656,26.13,2
-0.3102301359176636,-0.9690893292427064,0.0327380560338497,47.32609939575195,5.682438850402832,151.6262664794922,26.13,2
-0.2942500114440918,-0.8850011229515076,0.0098138498142361,11.107657432556152,5.679836750030518,151.6240234375,26.13,2
-0.3063859939575195,-0.836635947227478,0.0007001898484304,-38.434940338134766,5.67816686630249,151.62257385253906,26.13,2
-0.3253697156906128,-0.8055979609489441,-0.0219417568296194,-63.26041793823242,5.67709493637085,151.62164306640625,26.13,2
-0.326356828212738,-0.7968751192092896,-0.0420698262751102,-54.01005935668945,5.676407337188721,151.6210479736328,26.13,2
-0.2934036552906036,-0.8136683702468872,-0.0549868643283844,-34.56740188598633,5.675965785980225,151.62066650390625,26.13,2
-0.2610606551170349,-0.824445366859436,-0.0576785020530223,-21.77853775024414,5.675682544708252,151.62042236328125,26.13,2
-0.2515003085136413,-0.8929369449615479,-0.0370147414505481,-12.596920013427734,5.669991970062256,151.62026977539062,26.17,2
-0.2677561342716217,-0.976075291633606,-0.012558382935822,-6.113561630249023,5.666340351104736,151.62017822265625,26.17,2
-0.2949815094470978,-1.0798087120056152,-0.0080592473968863,-6.843131065368652,5.663996696472168,151.6201171875,26.17,2
-0.3572353720664978,-1.107194423675537,0.0620013326406478,-10.650286674499512,5.662492752075195,151.6200714111328,26.17,2
-0.3747952282428741,-1.0072157382965088,0.1573421508073806,-9.772453308105469,5.661527633666992,151.6200408935547,26.17,2
-0.3580752611160278,-0.8702840805053711,0.2521130442619324,-6.751463413238525,5.660908222198486,151.62002563476562,26.17,2
-0.3081609308719635,-0.9335491061210632,0.2345627099275589,-11.476356506347656,5.660511016845703,151.62001037597656,26.17,2
-0.2481399178504943,-0.9741489887237548,0.2121043652296066,-27.8858585357666,5.6602559089660645,151.62001037597656,26.17,2
-0.2096218913793563,-0.9498236775398254,0.1920941174030304,-46.47016525268555,5.648616313934326,151.62001037597656,26.17,2
-0.2072943300008773,-0.917419731616974,0.1680571436882019,-49.05672454833984,5.641146659851074,151.62001037597656,26.17,2
-0.2729739248752594,-0.868635892868042,0.1638271510601043,-26.322872161865234,5.636353015899658,151.62001037597656,26.17,2
-0.3655032813549042,-0.8653181195259094,0.1723081320524215,8.149698257446289,5.633276462554932,151.62001037597656,26.17,2
-0.4416766166687011,-0.8463956117630005,0.1553596407175064,29.17952537536621,5.631302356719971,151.62001037597656,26.17,2
-0.473766952753067,-0.8118611574172974,0.1388852894306183,26.410364151000977,5.630035400390625,151.62001037597656,26.17,2
-0.4663718044757843,-0.784101128578186,0.1339107751846313,11.306095123291016,5.629222393035889,151.62001037597656,26.17,2
-0.4448327124118805,-0.7774819135665894,0.1531095206737518,0.0797018408775329,5.628700733184815,151.62001037597656,26.17,2
-0.4478034973144531,-0.790027379989624,0.1598323881626129,-0.3250223994255066,5.603117942810059,151.2832489013672,26.17,2
-0.460905522108078,-0.809273898601532,0.16414675116539,8.314367294311523,5.586700439453125,151.06712341308594,26.17,2
-0.4917047321796417,-0.8943963050842285,0.1501221358776092,19.9275131225586,5.576164722442627,150.92843627929688,26.17,2
-0.5002743601799011,-0.9994029402732848,0.1187308430671691,27.559289932250977,5.569403648376465,150.8394317626953,26.17,2
-0.5337626934051514,-1.245918869972229,0.1041834950447082,28.61998748779297,5.565064430236816,150.78231811523438,26.17,2
-0.4712869822978973,-1.1410232782363892,0.0724567472934722,27.541637420654297,5.56227970123291,150.74566650390625,26.17,2
-0.4032047986984253,-1.1408805847167969,0.0129119232296943,30.056018829345703,5.560492992401123,150.72213745117188,26.17,2
-0.3931002020835876,-1.2135601043701172,-0.0532893873751163,35.66775894165039,5.5593461990356445,150.70703125,26.17,2
-0.3922134339809418,-1.232212781906128,-0.1013713553547859,38.85347366333008,5.562741756439209,150.6973419189453,26.17,2
-0.3972421288490295,-1.1714118719100952,-0.1266298145055771,37.7380485534668,5.564920902252197,150.69113159179688,26.17,2
-0.3780781626701355,-1.0652201175689695,-0.1484370231628418,36.78578186035156,5.566318988800049,150.6871337890625,26.17,2
-0.3601820766925812,-0.9914745688438416,-0.1736271828413009,39.02640151977539,5.567216396331787,150.6845703125,26.17,2
-0.3486973941326141,-0.9441488981246948,-0.206586092710495,41.32053756713867,5.5677924156188965,150.6829376220703,26.17,2
-0.3357293903827667,-0.9305713176727296,-0.2277372330427169,40.421119689941406,5.568161964416504,150.681884765625,26.17,2
-0.2994184195995331,-0.9274557828903198,-0.2413108050823211,37.07101058959961,5.568398952484131,150.68121337890625,26.17,2
-0.2593227922916412,-0.9422497749328612,-0.2332282215356826,31.89382743835449,5.568551063537598,150.68077087402344,26.17,2
-0.2223961800336837,-0.962939202785492,-0.2280412912368774,24.383377075195312,5.563599109649658,150.6804962158203,26.17,2
-0.2266876846551895,-1.004205346107483,-0.2135170698165893,16.67246437072754,5.560421466827393,150.68031311035156,26.17,2
-0.2294417172670364,-1.041883111000061,-0.1930007040500641,11.448185920715332,5.558382034301758,150.68019104003906,26.17,2
-0.2480024248361587,-1.0772581100463867,-0.1742367148399353,7.880590438842773,5.55707311630249,150.68011474609375,26.17,2
-0.3046958148479461,-0.9264287948608398,-0.0614351257681846,4.670391082763672,5.556233406066895,150.68006896972656,26.17,2
-0.3466761410236358,-0.7960485816001892,0.0333455428481102,0.0236503276973962,5.555694580078125,150.68003845214844,26.17,2
-0.3568233847618103,-0.8859090209007263,0.0941703170537948,-14.25422191619873,5.555348873138428,150.68002319335938,26.17,2
-0.3465419709682464,-1.005151867866516,0.0940197333693504,-45.60383224487305,5.555126667022705,150.6800079345703,26.17,2
-0.2503795623779297,-1.064881682395935,0.0715320035815239,-86.16438293457031,5.559115886688232,150.6800079345703,26.17,2
-0.1382880955934524,-1.0248440504074097,0.1018828675150871,-115.99850463867188,5.561676025390625,150.6800079345703,26.17,2
-0.1055386662483215,-0.9655635356903076,0.1325558573007583,-118.59640502929688,5.563318729400635,150.6800079345703,26.17,2
-0.1404997110366821,-0.9611073136329652,0.1242511421442031,-90.00874328613281,5.564373016357422,150.6800079345703,26.17,2
-0.1685334742069244,-0.9638453722000122,0.113323874771595,-42.65829086303711,5.565049648284912,150.6800079345703,26.17,2
-0.203317254781723,-0.9712002873420716,0.0783225148916244,-1.1870096921920776,5.565484046936035,150.6800079345703,26.17,2
-0.2144439220428466,-0.9535291194915771,0.0446651056408882,15.954543113708496,5.565762519836426,150.6800079345703,26.17,2
-0.2215843796730041,-0.9197977185249328,0.0286634936928749,10.994630813598633,5.565941333770752,150.6800079345703,26.17,2
-0.2485578209161758,-0.8645641803741455,0.0575789995491504,0.2488275021314621,5.502707958221436,150.31100463867188,26.17,2
-0.2770633697509765,-0.8011295795440674,0.0761353075504303,-0.8219425678253174,5.462128162384033,150.07418823242188,26.17,2
-0.3289432227611542,-0.7772142291069031,0.0712503567337989,11.732098579406738,5.436086654663086,149.92221069335938,26.17,2
-0.3846278190612793,-0.8122467398643494,0.0457243770360946,29.425687789916992,5.419374465942383,149.82469177246094,26.17,2
-0.4259607791900635,-0.9130974411964417,0.0181477237492799,41.77637100219727,5.408649444580078,149.76210021972656,26.17,2
-0.519659161567688,-1.2185218334197998,-0.016342706978321,46.96882247924805,5.401766777038574,149.72193908691406,26.17,2
-0.5853871703147888,-1.2409946918487549,-0.0496722310781478,49.25492858886719,5.397349834442139,149.6961669921875,26.17,2
-0.470829963684082,-1.1938409805297852,-0.1382344961166381,50.51064682006836,5.394515514373779,149.67962646484375,26.17,2
-0.4197048246860504,-1.2531447410583496,-0.1726775616407394,51.3809814453125,5.411319255828857,149.66900634765625,26.17,2
-0.4148845374584198,-1.2968002557754517,-0.1835855841636657,53.84185791015625,5.422102928161621,149.66220092773438,26.17,2
-0.417388916015625,-1.2296537160873413,-0.2129768282175064,58.94994354248047,5.429023265838623,149.65782165527344,26.17,2
-0.3910072147846222,-1.1193896532058716,-0.2430339753627777,64.38831329345703,5.433464527130127,149.65501403808594,26.17,2
-0.340490311384201,-1.0094441175460815,-0.2679207026958465,67.55949401855469,5.436314582824707,149.65321350097656,26.17,2
-0.3248648047447204,-0.9276918768882751,-0.2670982480049133,68.60220336914062,5.438143730163574,149.6520538330078,26.17,2
-0.3260327875614166,-0.8976190686225891,-0.2665704488754272,69.7263412475586,5.43931770324707,149.6513214111328,26.17,2
-0.3323801159858703,-0.8895156383514404,-0.2774272859096527,72.05990600585938,5.440071105957031,149.65084838867188,26.17,2
-0.3196601271629333,-0.8899130821228027,-0.2955901324748993,69.99637603759766,5.453407287597656,149.65054321289062,26.17,2
-0.2611172199249267,-0.8845703601837158,-0.2848548889160156,53.29570770263672,5.461966037750244,149.6503448486328,26.17,2
-0.2347432971000671,-0.914728343486786,-0.2667700946331024,14.55527114868164,5.467458248138428,149.6502227783203,26.17,2
-0.2402091324329376,-0.9788641929626464,-0.2495665252208709,-38.49022674560547,5.470983028411865,149.650146484375,26.17,2
-0.2717056572437286,-1.115185022354126,-0.2329284995794296,-82.30146026611328,5.473245143890381,149.65008544921875,26.17,2
-0.3031138479709625,-1.1187013387680054,-0.1830667555332183,-106.15013885498048,5.474696636199951,149.65005493164062,26.17,2
-0.2840854227542877,-0.9418290853500366,-0.0894928351044654,-112.6488800048828,5.47562837600708,149.65003967285156,26.17,2
-0.2550807297229767,-0.9850603342056274,-0.0350402556359767,-108.01701354980467,5.476226329803467,149.6500244140625,26.17,2
-0.2700538337230682,-1.051988124847412,0.0166976023465394,-100.43376922607422,5.485332012176514,149.65000915527344,26.17,2
-0.2852604985237121,-1.0837429761886597,0.0778888538479805,-96.46292114257812,5.491175651550293,149.65000915527344,26.17,2
-0.2502370476722717,-1.0761325359344482,0.1059623286128044,-97.47216033935548,5.494925498962402,149.65000915527344,26.17,2
-0.1773810535669326,-0.9872819781303406,0.1127827167510986,-100.9894790649414,5.4973320960998535,149.65000915527344,26.17,2
-0.153017371892929,-0.9246650338172911,0.1339529752731323,-107.5493621826172,5.498876571655273,149.65000915527344,26.17,2
-0.1653710305690765,-0.8900788426399231,0.1475388258695602,-122.55699920654295,5.499867916107178,149.65000915527344,26.17,2
-0.2068855464458465,-0.8566878437995911,0.1450618952512741,-144.8560333251953,5.500504016876221,149.65000915527344,26.17,2
-0.2503204941749573,-0.8352594375610352,0.137874573469162,-159.7358856201172,5.500912189483643,149.65000915527344,26.17,2
-0.2558034360408783,-0.8383012413978577,0.1276643872261047,-146.3098602294922,5.479139804840088,149.4314727783203,26.17,2
-0.2481265366077423,-0.8178622126579285,0.1267098486423492,-101.9862823486328,5.46516752243042,149.29122924804688,26.17,2
-0.2599932551383972,-0.7935500741004944,0.1260972768068313,-50.470176696777344,5.45620059967041,149.2012176513672,26.17,2
-0.3011952936649322,-0.8059368133544922,0.120106391608715,-12.48048210144043,5.450446128845215,149.14346313476562,26.17,2
-0.3332341611385345,-0.8642658591270447,0.1106640174984932,11.11811637878418,5.44675350189209,149.1063995361328,26.17,2
-0.3370015323162079,-0.9576758146286012,0.0878111198544502,26.73882102966309,5.44438362121582,149.08261108398438,26.17,2
-0.3338214457035064,-1.1631630659103394,0.0451565720140934,38.21065139770508,5.442862987518311,149.0673370361328,26.17,2
-0.3597695231437683,-1.300630807876587,0.0233811140060424,47.21701431274414,5.441886901855469,149.0575408935547,26.17,2
-0.3988125920295715,-1.1705363988876345,0.0206024274230003,56.3823127746582,5.427030086517334,149.05125427246094,26.17,2
-0.4070748686790466,-1.0534627437591553,0.0132214520126581,67.40506744384766,5.417496204376221,149.04722595214844,26.17,2
-0.3787904679775238,-1.1350692510604858,0.0364736393094062,83.3779525756836,5.411377906799316,149.0446319580078,26.17,2
-0.3270525336265564,-1.1594507694244385,0.0122111337259411,110.07962036132812,5.407451152801514,149.04296875,26.17,2
-0.2490679174661636,-1.130315184593201,-0.0369457900524139,148.3774871826172,5.404931545257568,149.04190063476562,26.17,2
-0.1654352247714996,-0.9996621608734132,-0.0125141330063343,193.8556060791016,5.403314590454102,149.0412139892578,26.17,2
-0.139753445982933,-0.8990232348442078,0.0311535689979791,235.34341430664065,5.402276992797852,149.040771484375,26.17,2
-0.1624567806720733,-0.8344389796257019,0.0591769888997077,263.9490661621094,5.401610851287842,149.04049682617188,26.17,2
-0.1826242506504058,-0.7929925322532654,0.0491719357669353,272.8413391113281,5.397511005401611,149.04031372070312,26.21,2
-0.1451866030693054,-0.8055790066719055,0.0091646192595362,254.3834381103516,5.394879817962647,149.04019165039062,26.21,2
-0.093172401189804,-0.836047351360321,-0.0109119983389973,200.48594665527344,5.393191337585449,149.0401153564453,26.21,2
-0.0765860080718994,-0.8444046378135681,-0.0181982424110174,112.72862243652344,5.392107963562012,149.04006958007812,26.21,2
-0.1275173276662826,-0.8721590042114258,-0.0340696796774864,23.58747100830078,5.391412734985352,149.0400390625,26.21,2
-0.1769954413175583,-0.9291545748710632,-0.0386572815477848,-43.69955825805664,5.390966415405273,149.04002380371094,26.21,2
-0.2087476551532745,-0.9825243353843688,-0.0416013412177562,-88.53206634521484,5.390680313110352,149.04000854492188,26.21,2
-0.2291243970394134,-1.0335673093795776,-0.0266973469406366,-114.0034408569336,5.390496730804443,149.04000854492188,26.21,2
-0.2422010153532028,-1.0999103784561155,-0.0283283684402704,-120.92374420166016,5.388542652130127,149.04000854492188,26.21,2
-0.2729839384555816,-1.1928654909133911,-0.0517661646008491,-117.55120086669922,5.387288570404053,149.04000854492188,26.21,2
-0.3319230675697326,-1.1069766283035278,-0.0052316752262413,-114.15807342529295,5.386483669281006,149.04000854492188,26.21,2
-0.3529534935951233,-0.9678915143013,0.0582181327044963,-115.76375579833984,5.385967254638672,149.04000854492188,26.21,2
-0.2712874412536621,-1.0017857551574707,0.0709476917982101,-117.90837097167967,5.385635852813721,149.04000854492188,26.21,2
-0.2076833099126815,-1.068319320678711,0.0511279180645942,-117.8086395263672,5.385423183441162,149.04000854492188,26.21,2
-0.1780613958835601,-1.0158544778823853,0.0328109562397003,-120.25244140625,5.385286808013916,149.04000854492188,26.21,2
-0.1926383972167968,-0.9485989809036256,0.0434472821652889,-127.16951751708984,5.385199069976807,149.04000854492188,26.21,2
-0.2243841737508773,-0.8830471634864807,0.0614686124026775,-138.21835327148438,5.380552291870117,148.8537139892578,26.21,2
-0.2559523284435272,-0.8241864442825317,0.0842292085289955,-145.7423553466797,5.377570152282715,148.73416137695312,26.21,2
-0.2762109637260437,-0.7864130139350891,0.0988356545567512,-134.40982055664062,5.375656127929688,148.65744018554688,26.21,2
-0.2836140096187591,-0.7789655327796936,0.1082092300057411,-96.39875793457033,5.374427795410156,148.6082000732422,26.21,2
-0.2827670872211456,-0.7685884237289429,0.1198224276304245,-46.46526718139648,5.373639583587647,148.57659912109375,26.21,2
-0.287821352481842,-0.7675267457962036,0.1328728795051574,-5.134788513183594,5.373134136199951,148.5563201904297,26.21,2
-0.3134559988975525,-0.822823166847229,0.1412479132413864,23.341238021850582,5.372809410095215,148.54330444335938,26.21,2
-0.3355045914649963,-0.8751025795936584,0.1466225236654281,43.23841857910156,5.37260103225708,148.5349578857422,26.21,2
-0.3328607976436615,-0.9310435652732848,0.1276805400848388,53.10539627075195,5.367417812347412,148.52960205078125,26.21,2
-0.3255663812160492,-1.078898787498474,0.0875357985496521,53.171531677246094,5.364091873168945,148.5261688232422,26.21,2
-0.3432763516902923,-1.173783779144287,0.0841643065214157,54.002140045166016,5.361957550048828,148.52395629882812,26.21,2
-0.3378482758998871,-1.0835355520248413,0.0764029026031494,63.84987258911133,5.360587596893311,148.5225372314453,26.21,2
-0.2951804101467132,-1.0144238471984863,0.065824307501316,75.79780578613281,5.359708309173584,148.52163696289062,26.21,2
-0.2454075366258621,-1.1100163459777832,0.0758288949728012,79.10889434814453,5.35914421081543,148.52105712890625,26.21,2
-0.1686839759349823,-1.171362042427063,0.0038804246578365,76.7125473022461,5.3587822914123535,148.5206756591797,26.21,2
-0.1082516685128212,-1.1267635822296145,-0.0478897355496883,80.62022399902344,5.358550071716309,148.5204315185547,26.21,2
-0.0806652382016182,-0.9861873984336852,-0.0251350998878479,94.82505798339844,5.35518741607666,148.52027893066406,26.19,2
-0.0853529497981071,-0.9015714526176452,0.000663062906824,110.45402526855467,5.353029251098633,148.5201873779297,26.19,2
-0.0883612558245658,-0.8864542245864868,-0.0275633577257394,111.8963623046875,5.351644515991211,148.52012634277344,26.19,2
-0.0790962651371955,-0.8823506832122803,-0.0792640894651413,89.05874633789062,5.35075569152832,148.52008056640625,26.19,2
-0.0731505304574966,-0.8853150010108948,-0.101247102022171,54.98531723022461,5.350185394287109,148.52005004882812,26.19,2
-0.0973237678408622,-0.8872173428535461,-0.1153545305132865,40.53488540649414,5.349819660186768,148.52003479003906,26.19,2
-0.1352278590202331,-0.8884381651878357,-0.1244078651070594,55.16079330444336,5.349584579467773,148.52001953125,26.19,2
-0.1875413954257965,-0.8892216086387634,-0.1134244501590728,71.364501953125,5.349433898925781,148.52001953125,26.19,2
-0.2379065304994583,-0.9121154546737672,-0.1063759326934814,60.72980499267578,5.3530097007751465,148.52001953125,26.19,2
-0.2702279686927795,-0.9380030035972596,-0.1018525958061218,22.765321731567383,5.35530424118042,148.52001953125,26.19,2
-0.2965677976608276,-0.954616129398346,-0.0877542272210121,-31.6738224029541,5.356777191162109,148.52001953125,26.19,2
-0.307873398065567,-0.9708752632141112,-0.0843044817447662,-98.15431213378906,5.357722282409668,148.52001953125,26.19,2
-0.3151286840438843,-1.205220341682434,-0.1324706077575683,-168.23153686523438,5.358328819274902,148.52001953125,26.19,2
-0.3533713519573211,-1.3332184553146362,-0.1689786314964294,-226.9709014892578,5.358717918395996,148.52001953125,26.19,2
-0.3555222153663635,-1.0403094291687012,-0.0804518833756446,-264.8348083496094,5.358967781066895,148.52001953125,26.19,2
-0.2617403268814087,-0.9810860753059388,0.026739452034235,-292.329345703125,5.359127998352051,148.52001953125,26.19,2
-0.1903609782457351,-1.043839931488037,0.050746489316225,-323.7953491210937,5.37621545791626,148.31939697265625,26.19,2
-0.1165649443864822,-1.0561227798461914,-0.0569982193410396,-346.3708190917969,5.387181282043457,148.19064331054688,26.19,2
-0.0804024487733841,-1.052809715270996,-0.1205447912216186,-331.34161376953125,5.394218444824219,148.10801696777344,26.19,2
-0.1411620527505874,-0.9555214047431946,-0.0381742864847183,-276.5419616699219,5.3987345695495605,148.05499267578125,26.19,2
-0.2137407213449478,-0.8650984764099121,0.037077460438013,-204.6282196044922,5.401632785797119,148.02096557617188,26.19,2
-0.2547197639942169,-0.8182657957077026,0.0685763731598854,-127.65005493164062,5.403492450714111,147.99913024902344,26.19,2
-0.2810177505016327,-0.7994068264961243,0.0831927880644798,-44.58443832397461,5.404685974121094,147.985107421875,26.19,2
-0.2866987287998199,-0.8040975332260132,0.1037683114409446,40.94039916992188,5.405451774597168,147.9761199951172,26.19,2
-0.2623555958271026,-0.8406944274902344,0.1281680464744568,122.76628112792967,5.409615993499756,147.97035217285156,26.19,2
-0.2635268867015838,-0.8697779774665833,0.1438263952732086,197.5073089599609,5.412288188934326,147.96664428710938,26.19,2
-0.2866696417331695,-0.8884421586990356,0.1370816975831985,255.5746612548828,5.414003372192383,147.96426391601562,26.19,2
-0.3071191012859344,-0.93400639295578,0.0991666913032531,284.0867004394531,5.415103912353516,147.96273803710938,26.19,2
-0.3202424049377441,-1.0136268138885498,0.0692372471094131,284.2777709960937,5.415810108184815,147.96176147460938,26.19,2
-0.3398597240447998,-1.0871137380599976,0.061225801706314,274.12554931640625,5.416263103485107,147.9611358642578,26.19,2
-0.2796779274940491,-1.016720175743103,0.0392911955714225,268.5813293457031,5.416553974151611,147.96072387695312,26.19,2
-0.2186656147241592,-1.0555121898651123,0.0196170527487993,263.5616760253906,5.416740894317627,147.96046447753906,26.19,2
-0.1235336884856224,-1.181166648864746,-0.0489864237606525,248.7077178955078,5.415483474731445,147.96029663085938,26.23,2
-0.0512879341840744,-1.2338155508041382,-0.1154032871127128,226.43565368652344,5.414676666259766,147.96018981933594,26.23,2
-0.0329136438667774,-1.1164627075195312,-0.1412324756383896,211.3008270263672,5.414158821105957,147.9601287841797,26.23,2
-0.0547087267041206,-0.9963701963424684,-0.0962326452136039,210.2257537841797,5.4138264656066895,147.9600830078125,26.23,2
-0.0910866558551788,-0.9472906589508056,-0.0841476693749427,212.76373291015625,5.413613319396973,147.96005249023438,26.23,2
-0.1200296878814697,-0.9213919639587402,-0.115576647222042,198.661376953125,5.413476467132568,147.9600372314453,26.23,2
-0.1218103393912315,-0.8823806047439575,-0.1077570840716362,157.4505157470703,5.413388252258301,147.96002197265625,26.23,2
-0.1285508275032043,-0.8517475724220276,-0.08594561368227,108.69148254394533,5.413331985473633,147.96002197265625,26.23,2
-0.1608653664588928,-0.8432846069335938,-0.071948267519474,80.75044250488281,5.413754940032959,147.96002197265625,26.23,2
-0.1927985250949859,-0.8434513211250305,-0.0797589048743248,71.06658172607422,5.414026260375977,147.96002197265625,26.23,2
-0.2300847023725509,-0.8379605412483215,-0.0903690978884697,44.0766830444336,5.414200305938721,147.96002197265625,26.23,2
-0.2652083933353424,-0.90720796585083,-0.0971781089901924,-10.36294651031494,5.41431188583374,147.96002197265625,26.23,2
-0.2877487540245056,-0.9628425240516664,-0.1071455106139183,-56.15079116821289,5.414383411407471,147.96002197265625,26.23,2
-0.3190071582794189,-0.964958906173706,-0.1135420128703117,-83.81157684326172,5.414429664611816,147.96002197265625,26.23,2
-0.3446647822856903,-0.988708198070526,-0.1232446953654289,-113.27411651611328,5.414459228515625,147.96002197265625,26.23,2
-0.3891192376613617,-1.1382956504821775,-0.1406668722629547,-152.3943634033203,5.414478302001953,147.96002197265625,26.23,2
-0.440038651227951,-1.1223368644714355,-0.1070652231574058,-186.9037475585937,5.431475639343262,147.76296997070312,26.23,2
-0.4559224843978882,-0.9889443516731262,-0.0127305509522557,-202.38629150390625,5.442383289337158,147.6365203857422,26.23,2
-0.3597581088542938,-0.8809496164321899,0.0757968798279762,-203.47671508789065,5.44938325881958,147.5553741455078,26.23,2
-0.2308720499277115,-0.9236003160476683,0.07663094997406,-213.83511352539065,5.453875541687012,147.5032958984375,26.23,2
-0.1033781990408897,-0.9789599776268004,0.0155906863510608,-247.98956298828125,5.456758499145508,147.46987915039062,26.23,2
-0.0551466271281242,-0.9808999300003052,-0.0011903437552973,-282.7872619628906,5.458608627319336,147.44842529296875,26.23,2
-0.1193565428256988,-0.9597538113594056,0.0440183021128177,-278.6503601074219,5.459795951843262,147.43466186523438,26.23,2
-0.1773560941219329,-0.8958034515380859,0.0954217091202735,-224.96533203125,5.460557460784912,147.4258270263672,26.23,2
-0.2089790999889373,-0.837970495223999,0.1340072304010391,-157.52859497070312,5.437175750732422,147.42015075683594,26.23,2
-0.2236751466989517,-0.8120521903038025,0.1419758647680282,-118.59366607666016,5.422170639038086,147.41651916503906,26.23,2
-0.2275084555149078,-0.8010170459747314,0.1470896750688552,-113.1396713256836,5.412540912628174,147.4141845703125,26.23,2
-0.2355662286281585,-0.8275219798088074,0.1615669727325439,-112.77078247070312,5.406361103057861,147.41268920898438,26.23,2
-0.2575305700302124,-0.8669224381446838,0.1932487785816192,-83.54385375976562,5.402395248413086,147.41172790527344,26.23,2
-0.2716259956359863,-0.8978051543235779,0.2191781103610992,-24.53745079040528,5.399850368499756,147.41111755371094,26.23,2
-0.2974649667739868,-0.9232217073440552,0.2190247327089309,41.4705924987793,5.39821720123291,147.4107208251953,26.23,2
-0.3196446895599365,-0.956325888633728,0.2133285403251648,98.48348999023438,5.39716911315918,147.41046142578125,26.23,2
-0.4122472107410431,-1.1399056911468506,0.2152708172798156,133.03976440429688,5.384561538696289,147.41029357910156,26.21,2
-0.4884675145149231,-1.1625545024871826,0.2109194844961166,144.5255889892578,5.376471042633057,147.41018676757812,26.21,2
-0.4925990998744964,-1.0987203121185305,0.1745404005050659,154.2001190185547,5.371278762817383,147.41012573242188,26.21,2
-0.4056861400604248,-1.1249284744262695,0.1511944085359573,184.76661682128903,5.367946624755859,147.4100799560547,26.21,2
-0.3275192975997925,-1.180931806564331,0.1418100595474243,232.22979736328125,5.365808486938477,147.41004943847656,26.21,2
-0.2829540967941284,-1.1944804191589355,0.0910055339336395,268.4353942871094,5.364436149597168,147.4100341796875,26.21,2
-0.25435471534729,-1.0800241231918335,0.0416087917983531,257.0802917480469,5.363555431365967,147.41001892089844,26.21,2
-0.2415990531444549,-0.9729860424995422,0.0211043525487184,194.77203369140625,5.362990379333496,147.41001892089844,26.21,2
-0.2614020705223083,-0.8819040656089783,0.0303368810564279,118.35855102539062,5.34977388381958,147.41001892089844,26.21,2
-0.2853060662746429,-0.8290506601333618,0.030664013698697,56.3267707824707,5.341292381286621,147.41001892089844,26.21,2
-0.3006462752819061,-0.7727413177490234,0.008482851088047,11.739191055297852,5.335849761962891,147.41001892089844,26.21,2
-0.2769040763378143,-0.7478007674217224,-0.0057517434470355,-15.384199142456056,5.332356929779053,147.41001892089844,26.21,2
-0.2504721581935882,-0.7373930811882019,0.0019066367531195,-24.66514778137207,5.33011531829834,147.41001892089844,26.21,2
-0.233509674668312,-0.7531051635742188,0.0348102189600467,-26.45459175109864,5.328676700592041,147.41001892089844,26.21,2
-0.2338196784257888,-0.7967749238014221,0.0559258423745632,-30.436771392822266,5.32775354385376,147.41001892089844,26.21,2
-0.2452141791582107,-0.8807774186134338,0.0694766342639923,-38.17270660400391,5.327161312103272,147.41001892089844,26.21,2
-0.2749176025390625,-1.0018585920333862,0.083770528435707,-46.66960525512695,5.326781272888184,147.22372436523438,26.21,2
-0.3051750957965851,-1.124343752861023,0.0929435268044471,-57.044883728027344,5.326537132263184,147.1041717529297,26.21,2
-0.3693748116493225,-1.1973499059677124,0.1548079699277877,-72.16876983642578,5.326380252838135,147.02743530273438,26.21,2
-0.4329656064510345,-1.137843370437622,0.2224978804588318,-94.48865509033205,5.326279640197754,146.9781951904297,26.21,2
-0.4233945310115814,-1.0268844366073608,0.2267529517412185,-125.18106079101562,5.3262152671813965,146.94659423828125,26.21,2
-0.3108946681022644,-1.01165509223938,0.1847014129161834,-169.35025024414062,5.326173782348633,146.9263153076172,26.21,2
-0.2163076251745224,-0.9738929271697998,0.1633129268884658,-229.3583068847656,5.326147079467773,146.91329956054688,26.21,2
-0.1668026596307754,-0.9328660368919371,0.1383914798498153,-285.89910888671875,5.326130390167236,146.9049530029297,26.21,2
-0.1518265455961227,-0.9009395241737366,0.1056050062179565,-305.1271057128906,5.315102577209473,146.89959716796875,26.21,2
-0.2261823415756225,-0.8860487341880798,0.073368988931179,-270.6601867675781,5.30802583694458,146.8961639404297,26.21,2
-0.3522684574127197,-0.8485037684440613,0.0750728622078895,-198.3780670166016,5.3034844398498535,146.89395141601562,26.21,2
-0.4499765932559967,-0.81881183385849,0.0817640870809555,-118.58405303955078,5.300570011138916,146.8925323486328,26.21,2
-0.4902889430522918,-0.7885617017745972,0.0860581323504448,-51.96818542480469,5.298699378967285,146.89163208007812,26.21,2
-0.4993657767772674,-0.7691488862037659,0.1000093519687652,0.881321132183075,5.297499179840088,146.89105224609375,26.21,2
-0.4827996790409088,-0.7678864002227783,0.1145602166652679,47.74452209472656,5.29672908782959,146.8906707763672,26.21,2
-0.4385818541049957,-0.7838695645332336,0.1350936740636825,84.1705322265625,5.296234607696533,146.8904266357422,26.21,2
-0.4046076238155365,-0.7997244000434875,0.1482708603143692,101.00128173828124,5.283063888549805,146.89027404785156,26.23,2
-0.3940004706382751,-0.8434857726097107,0.1623249948024749,99.86872863769533,5.274611473083496,146.8901824951172,26.23,2
-0.3983889520168304,-0.8715693354606628,0.1545508056879043,86.64231872558594,5.269187450408936,146.89012145996094,26.23,2
-0.4124007821083069,-1.0071449279785156,0.1103773564100265,67.97627258300781,5.265706539154053,146.89007568359375,26.23,2
-0.4885660707950592,-1.1053451299667358,0.110018253326416,53.71537399291992,5.263472557067871,146.89004516601562,26.23,2
-0.5150534510612488,-1.0787999629974363,0.0817989334464073,48.7014274597168,5.2620391845703125,146.89002990722656,26.23,2
-0.5096604228019714,-1.1513292789459229,0.0021138747688382,50.11603546142578,5.2611188888549805,146.8900146484375,26.23,2
-0.4894061684608459,-1.203472137451172,-0.065816730260849,54.52760696411133,5.260528564453125,146.8900146484375,26.23,2
-0.4596148431301117,-1.2313365936279297,-0.1038129106163978,68.06343078613281,5.254641056060791,146.8900146484375,26.23,2
-0.4013120532035827,-1.137262940406799,-0.1225988939404487,98.64306640625,5.2508625984191895,146.8900146484375,26.23,2
-0.3471033573150635,-1.0545008182525637,-0.1346546560525894,140.99517822265625,5.248437881469727,146.8900146484375,26.23,2
-0.3123153448104858,-0.984595537185669,-0.1423913538455963,173.6269989013672,5.24688196182251,146.8900146484375,26.23,2
-0.3067837357521057,-0.9285387992858888,-0.147356316447258,177.09600830078125,5.245883464813232,146.8900146484375,26.23,2
-0.3088316321372986,-0.9037603735923768,-0.1561403274536132,154.10446166992188,5.245242595672607,146.8900146484375,26.23,2
-0.2877547442913055,-0.893456757068634,-0.1785707175731659,123.83367919921876,5.244831562042236,146.8900146484375,26.23,2
-0.2630332708358764,-0.8756489157676697,-0.1873674690723419,98.5537109375,5.244567394256592,146.8900146484375,26.23,2
-0.2527662217617035,-0.9090030789375304,-0.1930127292871475,75.49850463867188,5.238889694213867,146.7323760986328,26.23,2
-0.2517752051353454,-0.969592273235321,-0.2078310698270797,48.93065643310547,5.235246181488037,146.63121032714844,26.23,2
-0.2735303342342376,-1.025268316268921,-0.2173406332731247,20.1121826171875,5.232907772064209,146.5662841796875,26.23,2
-0.3042848408222198,-1.0609979629516602,-0.1898566782474517,-4.884230613708496,5.231407165527344,146.52462768554688,26.23,2
-0.3128257691860199,-0.9999605417251588,-0.1442301869392395,-23.37238883972168,5.230444431304932,146.49789428710938,26.23,2
-0.3351001441478729,-0.871225893497467,-0.0645697563886642,-37.9741096496582,5.2298264503479,146.48072814941406,26.23,2
-0.3661879003047943,-0.9005668759346008,-0.0246438290923833,-52.82599639892578,5.229429721832275,146.46971130371094,26.23,2
-0.3581493496894836,-1.0089606046676636,0.0177716556936502,-68.21459197998047,5.229175090789795,146.462646484375,26.23,2
-0.2914151549339294,-1.0561304092407229,0.0617847964167594,-76.8254623413086,5.238192558288574,146.45811462402344,26.23,2
-0.1926112473011016,-1.041619062423706,0.0956276729702949,-67.36908721923828,5.243979454040527,146.4552001953125,26.23,2
-0.1068134903907775,-0.9651331901550292,0.1341394037008285,-38.31472396850586,5.247693538665772,146.45333862304688,26.23,2
-0.1189267188310623,-0.9720267057418824,0.1588540226221084,-4.747879981994629,5.250076770782471,146.4521484375,26.23,2
-0.1546891629695892,-0.9764505624771118,0.169116660952568,15.84758758544922,5.251605987548828,146.4513702392578,26.23,2
-0.2056283205747604,-0.9457029104232788,0.1589093059301376,19.130090713500977,5.252587795257568,146.4508819580078,26.23,2
-0.2327203601598739,-0.9091774821281432,0.1467610448598861,10.603528022766112,5.253217697143555,146.4505615234375,26.23,2
-0.2445086985826492,-0.8801398277282715,0.1333672106266021,-3.706542730331421,5.253622055053711,146.4503631591797,26.23,2
-0.2576715350151062,-0.8615051507949829,0.1247718185186386,-16.705366134643555,5.24332332611084,146.45022583007812,26.21,2
-0.2885097861289978,-0.8215575814247131,0.1080602407455444,-20.52246856689453,5.236713886260986,146.4501495361328,26.21,2
-0.3418866693973541,-0.8015193343162537,0.0805423930287361,-13.67886447906494,5.2324724197387695,146.45008850097656,26.21,2
-0.398531973361969,-0.8054532408714294,0.0572852455079555,-2.655686378479004,5.229750633239746,146.45005798339844,26.21,2
-0.4348836541175842,-0.891944408416748,0.0087735000997781,6.485501289367676,5.228003978729248,146.45004272460938,26.21,2
-0.4526143074035644,-1.0538071393966677,-0.0335540920495986,12.831854820251465,5.2268829345703125,146.4500274658203,26.21,2
-0.4863839149475097,-1.101703643798828,-0.0551197305321693,16.84367561340332,5.226163387298584,146.45001220703125,26.21,2
-0.4744686484336853,-1.1940163373947144,-0.1193392872810363,18.19657325744629,5.225701808929443,146.45001220703125,26.21,2
-0.4668221175670624,-1.2980395555496216,-0.1829427927732467,17.628171920776367,5.227701187133789,146.45001220703125,26.21,2
-0.4283283650875091,-1.320013403892517,-0.2293576449155807,18.44207191467285,5.228984355926514,146.45001220703125,26.21,2
-0.3868319690227508,-1.2837350368499756,-0.2367529273033142,24.635602951049805,5.229807376861572,146.45001220703125,26.21,2
-0.3490064442157745,-1.1540958881378174,-0.2079121470451355,37.00423049926758,5.230335712432861,146.45001220703125,26.21,2
-0.3359277248382568,-1.0429121255874634,-0.1894037872552871,49.376930236816406,5.230674743652344,146.45001220703125,26.21,2
-0.327534556388855,-0.94916969537735,-0.1775261908769607,54.55485153198242,5.230892181396484,146.45001220703125,26.21,2
-0.322148323059082,-0.8946089744567871,-0.181099385023117,53.077091217041016,5.231031894683838,146.45001220703125,26.21,2
-0.3074961900711059,-0.8651928305625916,-0.1833924502134323,49.97204208374024,5.23112154006958,146.45001220703125,26.21,2
-0.2645066380500793,-0.8575107455253601,-0.1904617846012115,46.63593292236328,5.236687660217285,146.29954528808594,26.21,2
-0.2201251089572906,-0.8469830751419067,-0.1782051473855972,39.58329772949219,5.240259647369385,146.20297241210938,26.21,2
-0.1972413659095764,-0.8514225482940674,-0.1647417694330215,24.04806900024414,5.242551803588867,146.14100646972656,26.21,2
-0.2217403203248977,-0.9550315141677856,-0.1505039781332016,-6.944101810455322,5.244022846221924,146.1012420654297,26.21,2
-0.2598534226417541,-1.088695049285889,-0.1357692033052444,-52.3840217590332,5.244966983795166,146.07571411132812,26.21,2
-0.3123010993003845,-1.1632771492004397,-0.143106609582901,-94.50292205810548,5.245572566986084,146.05934143066406,26.21,2
-0.3291656672954559,-0.976033091545105,-0.0750442594289779,-119.85934448242188,5.24596118927002,146.048828125,26.21,2
-0.3175972998142242,-0.9006528258323669,-0.0257679875940084,-127.1501235961914,5.24621057510376,146.04208374023438,26.21,2
-0.3157711625099182,-1.0370045900344849,-0.0053408616222441,-120.6190414428711,5.245452404022217,146.03775024414062,26.21,2
-0.3313925564289093,-1.0685296058654783,0.0357569642364978,-109.85374450683594,5.24496603012085,146.03497314453125,26.21,2
-0.2798419594764709,-1.0159895420074463,0.0565334074199199,-109.31859588623048,5.244653701782227,146.03318786621094,26.21,2
-0.1795864552259445,-0.9318923354148864,0.0586709827184677,-122.78600311279295,5.244453430175781,146.03204345703125,26.21,2
-0.1376393437385559,-0.8947169184684753,0.0656405314803123,-136.88128662109375,5.244325160980225,146.03131103515625,26.21,2
-0.1890889406204223,-0.8988487124443054,0.0757109597325325,-127.80615997314452,5.244242668151856,146.0308380126953,26.21,2
-0.2444974333047866,-0.9015002846717834,0.0765758082270622,-84.06428527832031,5.244189739227295,146.03053283691406,26.21,2
-0.308044284582138,-0.9032018780708312,0.065935268998146,-27.805564880371094,5.244155883789063,146.03033447265625,26.21,2
-0.3320316672325134,-0.8707072734832764,0.0703023299574852,17.1756649017334,5.238625526428223,146.03021240234375,26.23,2
-0.3362298607826233,-0.8330607414245605,0.0787026360630989,47.3353385925293,5.235076427459717,146.03013610839844,26.23,2
-0.3389240205287933,-0.7921080589294434,0.1008867919445037,66.08104705810547,5.232799053192139,146.03009033203125,26.23,2
-0.3462507426738739,-0.7826203107833862,0.1095255315303802,75.1087646484375,5.231337547302246,146.03005981445312,26.23,2
-0.3733437061309814,-0.8269115686416626,0.1038738265633583,80.80191802978516,5.2303996086120605,146.03004455566406,26.23,2
-0.3739371001720428,-0.9001173377037048,0.0778557881712913,92.56640625,5.229797840118408,146.030029296875,26.23,2
-0.3631223440170288,-0.9806832671165466,0.0387678146362304,110.92481231689452,5.229411602020264,146.03001403808594,26.23,2
-0.3673776090145111,-1.2059168815612793,-0.0087076947093009,124.04606628417967,5.229163646697998,146.03001403808594,26.23,2
-0.3980972468852997,-1.2944810390472412,-0.016783645376563,121.44652557373048,5.222578048706055,146.03001403808594,26.23,2
-0.4122135937213897,-1.1218076944351196,-0.0331618748605251,106.44752502441406,5.2183518409729,146.03001403808594,26.23,2
-0.4212726354598999,-1.1677335500717163,-0.0660635754466056,89.16606903076172,5.215639591217041,146.03001403808594,26.23,2
-0.42708620429039,-1.1972061395645142,-0.0703846737742424,72.88467407226562,5.2138991355896,146.03001403808594,26.23,2
-0.4028281569480896,-1.1825332641601562,-0.0843532532453537,57.818267822265625,5.21278190612793,146.03001403808594,26.23,2
-0.3536740839481354,-1.10594379901886,-0.0877197086811065,46.99234390258789,5.21206521987915,146.03001403808594,26.23,2
-0.2885431945323944,-0.9672287106513976,-0.0395001359283924,43.06500244140625,5.211605072021484,146.03001403808594,26.23,2
-0.2523437142372131,-0.8670138120651245,0.0082377316430211,42.79093551635742,5.211309909820557,146.03001403808594,26.23,2
-0.2459062933921814,-0.7915061116218567,0.0388731472194194,37.40957260131836,5.203775405883789,145.86878967285156,26.23,2
-0.2249817997217178,-0.7878317832946777,0.0249465480446815,17.870357513427734,5.198940277099609,145.7653350830078,26.23,2
-0.1835647821426391,-0.8078649044036865,0.0048137097619473,-19.14494132995605,5.195837497711182,145.69894409179688,26.23,2
-0.1401924043893814,-0.8487098813056946,-0.0081063862890005,-62.005104064941406,5.193846225738525,145.6563262939453,26.23,2
-0.1403473913669586,-0.9364973306655884,-0.021995535120368,-92.8814926147461,5.192568302154541,145.6289825439453,26.23,2
-0.1516423970460891,-1.0040298700332642,-0.025311017408967,-106.9819793701172,5.191748142242432,145.61143493652344,26.23,2
-0.1700864285230636,-1.0641616582870483,-0.0330364778637886,-108.17784881591795,5.191221714019775,145.6001739501953,26.23,2
-0.1819227486848831,-1.1139463186264038,-0.0435920059680938,-102.03092193603516,5.190884113311768,145.5929412841797,26.23,2
-0.2063119411468505,-1.196275234222412,-0.0615614876151084,-93.65453338623048,5.188372611999512,145.5883026123047,26.23,2
-0.2667457163333893,-1.0979692935943604,0.0052755787037312,-85.28042602539062,5.186760425567627,145.5853271484375,26.23,2
-0.3055286407470703,-0.9677088856697084,0.0537655316293239,-76.6749267578125,5.185726165771484,145.5834197998047,26.23,2
-0.2576462030410766,-0.956886351108551,0.0680902674794197,-71.07359313964844,5.185062408447266,145.5821990966797,26.23,2
-0.2045269161462783,-1.0059187412261963,0.0660875141620636,-73.26484680175781,5.18463659286499,145.58140563964844,26.23,2
-0.1760357916355133,-1.0037983655929563,0.0536067113280296,-85.78779602050781,5.184362888336182,145.58090209960938,26.23,2
-0.1857407093048095,-0.9520576000213624,0.0399994775652885,-98.76109313964844,5.184187412261963,145.58058166503906,26.23,2
-0.2087620794773101,-0.8852667212486267,0.0424626842141151,-88.48945617675781,5.184074878692627,145.5803680419922,26.23,2
-0.2627202868461609,-0.825610876083374,0.0608367547392845,-48.393463134765625,5.178034782409668,145.58023071289062,26.25,2
-0.3029453456401825,-0.7873271703720093,0.0726281702518463,0.0406184494495391,5.174158573150635,145.5801544189453,26.25,2
-0.3063683807849884,-0.7683566808700562,0.0634019002318382,35.307273864746094,5.171670913696289,145.58009338378906,26.25,2
-0.308565080165863,-0.7505847215652466,0.0630787909030914,55.56055068969727,5.170074462890625,145.58006286621094,26.25,2
-0.3155725598335266,-0.7391796708106995,0.0684692114591598,66.17910766601562,5.169050216674805,145.58004760742188,26.25,2
-0.3368628919124603,-0.7710450291633606,0.071928471326828,69.93396759033203,5.168392658233643,145.5800323486328,26.25,2
-0.3561235666275024,-0.8250809907913208,0.0629528760910034,71.03598022460938,5.167970657348633,145.58001708984375,26.25,2
-0.3572884202003479,-0.9045403599739076,0.0459973067045211,75.34725952148438,5.167699813842773,145.58001708984375,26.25,2
-0.3692314922809601,-1.1010749340057373,0.0295184236019849,82.16587829589844,5.156968116760254,145.58001708984375,26.25,2
-0.4216780662536621,-1.1992106437683103,0.0469320975244045,87.07906341552734,5.150081157684326,145.58001708984375,26.25,2
-0.3377819955348968,-1.1446352005004885,0.0357160940766334,91.92304229736328,5.1456618309021,145.58001708984375,26.25,2
-0.2279645949602127,-1.1823829412460327,0.034116081893444,101.40861511230467,5.142825603485107,145.58001708984375,26.25,2
-0.1295012384653091,-1.2681827545166016,0.0051004141569137,109.60604095458984,5.141005516052246,145.58001708984375,26.25,2
-0.0607153438031673,-1.2672663927078247,-0.0471068173646926,102.96178436279295,5.139837265014648,145.58001708984375,26.25,2
-0.0445613861083984,-1.154722809791565,-0.0750126391649246,80.81724548339844,5.139087677001953,145.58001708984375,26.25,2
-0.0453902557492256,-0.9873366951942444,-0.0425410196185112,58.10111999511719,5.138606548309326,145.58001708984375,26.25,2
-0.0347266271710395,-0.8855156898498535,-0.0105070546269416,46.73678970336914,5.134166717529297,145.4152069091797,26.25,2
-0.0222855508327484,-0.8481616973876953,-0.0347316935658454,46.74152374267578,5.131317138671875,145.3094482421875,26.25,2
0.002491739578545,-0.8521789312362671,-0.0782665461301803,49.19504165649414,5.129488468170166,145.2415771484375,26.25,2
0.0071968296542763,-0.8715503215789795,-0.1062047109007835,38.36310958862305,5.128314971923828,145.19801330566406,26.25,2
-0.0401636846363544,-0.8839817643165588,-0.1297315955162048,7.404959678649902,5.127562046051025,145.17005920410156,26.25,2
-0.0985458120703697,-0.891959547996521,-0.1448297947645187,-20.07517433166504,5.127078533172607,145.15213012695312,26.25,2
-0.1640009731054306,-0.9306658506393432,-0.1657144874334335,-11.593363761901855,5.126768589019775,145.140625,26.25,2
-0.2116041034460067,-0.9275164604187012,-0.156725987792015,27.46866226196289,5.126569747924805,145.13323974609375,26.25,2
-0.2589463591575622,-0.931093156337738,-0.1565554589033126,56.308876037597656,5.157657146453857,145.1284942626953,26.25,2
-0.311719000339508,-1.0789306163787842,-0.2068260014057159,45.32151794433594,5.17760705947876,145.1254425048828,26.25,2
-0.356781005859375,-1.324944019317627,-0.255880057811737,-3.3304011821746826,5.190409660339356,145.1234893798828,26.25,2
-0.3856991827487945,-1.1861392259597778,-0.1977957338094711,-68.99170684814453,5.198625564575195,145.1222381591797,26.25,2
-0.2643128633499145,-1.013095736503601,-0.0541628450155258,-128.0928497314453,5.2038984298706055,145.12142944335938,26.25,2
-0.1192408129572868,-1.0419907569885254,0.0156213734298944,-170.98959350585938,5.207282066345215,145.12091064453125,26.25,2
-0.06532634049654,-0.9989583492279052,-0.0627461746335029,-212.3756561279297,5.209453582763672,145.12059020996094,26.25,2
-0.0475204586982727,-0.9657448530197144,-0.1690156906843185,-268.38720703125,5.210846900939941,145.12037658691406,26.25,2
-0.0584847666323185,-0.950028121471405,-0.1812356114387512,-323.7855834960937,5.249382972717285,145.1202392578125,26.27,2
-0.1438898742198944,-0.8671709895133972,-0.0995132625102996,-342.9073791503906,5.274113178253174,145.12014770507812,26.27,2
-0.2322846055030822,-0.8307913541793823,-0.0302752368152141,-310.0453491210937,5.28998327255249,145.12008666992188,26.27,2
-0.2834134697914123,-0.7850539088249207,0.008559969253838,-238.8540802001953,5.300168037414551,145.12005615234375,26.27,2
-0.299431711435318,-0.7445067167282104,0.0390799418091774,-148.7974090576172,5.306704044342041,145.1200408935547,26.27,2
-0.2929179668426513,-0.7352792024612427,0.064263679087162,-52.04014205932617,5.310898303985596,145.12002563476562,26.27,2
-0.2943356037139892,-0.7853352427482605,0.052436277270317,41.42213439941406,5.313590049743652,145.12001037597656,26.27,2
-0.30644091963768,-0.8342516422271729,0.0336505845189094,121.74988555908205,5.315317630767822,145.12001037597656,26.27,2
-0.336600512266159,-0.916023313999176,0.0271927826106548,180.9125823974609,5.3315749168396,145.12001037597656,26.27,2
-0.3671507537364959,-1.0356730222702026,0.017450762912631,212.3809967041016,5.342007637023926,145.12001037597656,26.27,2
-0.4147450029850006,-1.0732728242874146,0.0335899926722049,217.12039184570312,5.348702907562256,145.12001037597656,26.27,2
-0.305343896150589,-1.0470222234725952,0.0271538980305194,209.18484497070312,5.352999687194824,145.12001037597656,26.27,2
-0.2463321089744568,-1.119740605354309,0.028621356934309,205.9731292724609,5.355756759643555,145.12001037597656,26.27,2
-0.1580817699432373,-1.244775891304016,-0.0376102067530155,209.3897857666016,5.357526302337647,145.12001037597656,26.27,2
-0.0790566802024841,-1.2746363878250122,-0.1025049090385437,206.6885986328125,5.358661651611328,145.12001037597656,26.27,2
-0.0619295760989189,-1.1090725660324097,-0.0937706232070922,192.89259338378903,5.359390258789063,145.12001037597656,26.27,2
-0.0733294859528541,-1.0252143144607544,-0.0657743662595748,180.44580078125,5.375924587249756,144.98028564453125,26.27,2
-0.086243063211441,-0.9825944304466248,-0.0701990723609924,180.96319580078125,5.38653564453125,144.890625,26.27,2
-0.0721391588449478,-0.949645698070526,-0.0954296961426734,184.53028869628903,5.393345355987549,144.8330841064453,26.27,2
-0.0630880817770958,-0.9173055291175842,-0.1060234829783439,169.56576538085938,5.397715091705322,144.79615783691406,26.27,2
-0.0908662676811218,-0.8741604089736938,-0.101626418530941,124.26203155517578,5.400519371032715,144.7724609375,26.27,2
-0.1310838013887405,-0.857667863368988,-0.104402408003807,59.07275772094727,5.402318954467773,144.7572479248047,26.27,2
-0.156893104314804,-0.8302906155586243,-0.1061838790774345,-2.860214710235596,5.403473854064941,144.7474822998047,26.27,2
-0.190249353647232,-0.851905882358551,-0.1129248961806297,-50.05699157714844,5.404214859008789,144.7412109375,26.27,2
-0.2172532528638839,-0.8825706243515015,-0.1172508969902992,-93.32125854492188,5.419839382171631,144.73719787597656,26.27,2
-0.245778352022171,-0.9470316767692566,-0.1424181759357452,-144.06082153320312,5.429866313934326,144.734619140625,26.27,2
-0.292072981595993,-1.1451367139816284,-0.2033512741327285,-176.8590087890625,5.436300754547119,144.7329559326172,26.27,2
-0.3553688526153564,-1.361833572387695,-0.2760412693023681,-169.98081970214844,5.440430164337158,144.7318878173828,26.27,2
-0.3959884941577911,-1.1034551858901978,-0.1771474033594131,-142.38037109375,5.443079948425293,144.73121643066406,26.27,2
-0.3716758787631988,-0.8200895190238953,-0.0073252981528639,-113.60498809814452,5.444780349731445,144.73077392578125,26.27,2
-0.2217268645763397,-0.9181304574012756,0.0568745620548725,-83.43433380126953,5.445871829986572,144.73049926757812,26.27,2
-0.1310959905385971,-0.9922430515289308,-0.0978477671742439,-52.27153778076172,5.446572303771973,144.73031616210938,26.27,2
-0.0673365369439125,-1.039804220199585,-0.202737420797348,-35.834129333496094,5.45298957824707,144.73019409179688,26.25,2
-0.0879949107766151,-0.9863596558570862,-0.0853230133652687,-48.11371994018555,5.4571075439453125,144.73011779785156,26.25,2
-0.1404366940259933,-0.8792909383773804,0.0292112156748771,-87.6676025390625,5.459750175476074,144.73007202148438,26.25,2
-0.1740908026695251,-0.8273736834526062,0.0579304993152618,-127.33116149902344,5.461446285247803,144.73004150390625,26.25,2
-0.2124813944101333,-0.8164473176002502,0.053969781845808,-136.09371948242188,5.462534427642822,144.7300262451172,26.25,2
-0.2427160441875457,-0.8150331377983093,0.0682213455438613,-108.87197875976562,5.46323299407959,144.73001098632812,26.25,2
-0.2397277951240539,-0.8253211975097656,0.0997582748532295,-81.92671966552734,5.463681221008301,144.73001098632812,26.25,2
-0.2378101199865341,-0.8375212550163269,0.1367901861667633,-89.87046813964844,5.463968753814697,144.73001098632812,26.25,2
-0.2757638692855835,-0.8677416443824768,0.1773484647274017,-118.98947143554688,5.467825889587402,144.73001098632812,26.25,2
-0.305718183517456,-0.892733097076416,0.2033764272928238,-130.4359893798828,5.470301151275635,144.73001098632812,26.25,2
-0.3249411582946777,-0.9199666976928712,0.2200796753168106,-97.0728988647461,5.471889495849609,144.73001098632812,26.25,2
-0.3540706634521484,-1.0438014268875122,0.1916144341230392,-31.306516647338867,5.472908973693848,144.73001098632812,26.25,2
-0.3895576298236847,-1.1736513376235962,0.1621515303850174,39.917423248291016,5.473563194274902,144.73001098632812,26.25,2
-0.4235266745090484,-1.173014998435974,0.1600372642278671,103.5413055419922,5.473982810974121,144.73001098632812,26.25,2
-0.4005438387393951,-1.1110310554504397,0.2034626454114914,145.22410583496094,5.474252223968506,144.73001098632812,26.25,2
-0.3578059077262878,-1.1104377508163452,0.2201350033283233,157.56101989746094,5.474425315856934,144.73001098632812,26.25,2
-0.3303791880607605,-1.1380459070205688,0.1356721967458725,159.1692352294922,5.480044841766357,144.57237243652344,26.25,2
-0.2847894132137298,-1.144567608833313,0.0590777359902858,175.62786865234375,5.483651161193848,144.47120666503906,26.25,2
-0.2331414222717285,-1.0647863149642944,0.0267171394079923,209.02182006835932,5.485965251922607,144.40628051757812,26.25,2
-0.216790035367012,-0.9632073044776917,0.0283410716801881,241.0816345214844,5.48745059967041,144.3646240234375,26.25,2
-0.2230899780988693,-0.875628650188446,0.0405787676572799,247.62998962402344,5.488403797149658,144.337890625,26.25,2
-0.2607195675373077,-0.8362190127372742,0.0260411165654659,224.9952850341797,5.489015579223633,144.3207244873047,26.25,2
-0.284868061542511,-0.8221237063407898,-8.163491293089464e-05,199.87237548828125,5.489408016204834,144.30970764160156,26.25,2
-0.2779740989208221,-0.8130781650543213,-0.0224434863775968,199.7282257080078,5.489659786224365,144.30264282226562,26.25,2
-0.2567566037178039,-0.8296643495559692,-0.0032073881011456,214.3636779785156,5.479263305664063,144.29811096191406,26.25,2
-0.2431404441595077,-0.8571017384529114,0.0147350067272782,209.94503784179688,5.472591400146484,144.29519653320312,26.25,2
-0.2344023883342743,-0.8691117167472839,0.0374449528753757,177.45643615722656,5.4683098793029785,144.2933349609375,26.25,2
-0.256783664226532,-0.9551878571510316,0.0576166622340679,133.23081970214844,5.465561866760254,144.29214477539062,26.25,2
-0.2767444550991058,-1.04961097240448,0.0537683814764022,81.80265808105469,5.463798522949219,144.29136657714844,26.25,2
-0.2951519191265106,-1.149390697479248,0.0401032269001007,16.734970092773438,5.462666988372803,144.29087829589844,26.25,2
-0.3237580955028534,-1.174239158630371,0.0593225881457328,-54.61380386352539,5.461940765380859,144.29055786132812,26.25,2
-0.3533114492893219,-0.999861180782318,0.1612208634614944,-116.66265106201172,5.461474895477295,144.2903594970703,26.25,2
-0.3498860001564026,-0.8767598867416382,0.221015527844429,-167.2118377685547,5.4662251472473145,144.29022216796875,26.27,2
-0.3085032999515533,-0.9768893122673036,0.1810194700956344,-219.1191253662109,5.469273567199707,144.29014587402344,26.27,2
-0.2371640801429748,-0.9907666444778442,0.1329611986875534,-281.5673217773437,5.471230030059815,144.2900848388672,26.27,2
-0.1857849061489105,-0.9828790426254272,0.1077179387211799,-354.99676513671875,5.472485542297363,144.29005432128906,26.27,2
-0.175203800201416,-0.921839475631714,0.1027138158679008,-422.4649963378906,5.473291397094727,144.2900390625,26.27,2
-0.1964023262262344,-0.8602766990661621,0.1106980070471763,-454.59173583984375,5.473808288574219,144.29002380371094,26.27,2
-0.2771796286106109,-0.8207692503929138,0.1270173490047454,-439.7341613769531,5.474140167236328,144.29000854492188,26.27,2
-0.3514089286327362,-0.806611180305481,0.1206968426704406,-412.1361083984375,5.474353313446045,144.29000854492188,26.27,2
-0.3878494799137115,-0.7919275760650635,0.1166407093405723,-409.962890625,5.478621482849121,144.29000854492188,26.27,2
-0.3944416046142578,-0.771308958530426,0.1364288181066513,-419.0580139160156,5.48136043548584,144.29000854492188,26.27,2
-0.3930742740631103,-0.7468815445899963,0.165921002626419,-401.5435180664063,5.483118057250977,144.29000854492188,26.27,2
-0.403392344713211,-0.7591943144798279,0.201640710234642,-321.6615600585937,5.484246253967285,144.29000854492188,26.27,2
-0.4380027651786804,-0.82307368516922,0.2189657986164093,-189.1451110839844,5.4849700927734375,144.29000854492188,26.27,2
-0.4602137506008148,-0.8920566439628601,0.2244862616062164,-51.597450256347656,5.485434532165527,144.29000854492188,26.27,2
-0.480065256357193,-1.0426836013793943,0.2056378722190857,60.27472686767578,5.4857330322265625,144.29000854492188,26.27,2
-0.5095981359481812,-1.2736939191818235,0.1823465228080749,130.9966583251953,5.485924243927002,144.29000854492188,26.27,2
-0.5117573142051697,-1.1980321407318115,0.1673994660377502,159.3861846923828,5.492014408111572,144.15386962890625,26.27,2
-0.434774100780487,-1.1270856857299805,0.1018295660614967,163.8371124267578,5.495923042297363,144.06649780273438,26.27,2
-0.3909684717655182,-1.1431318521499634,0.0429572574794292,166.17398071289062,5.498431205749512,144.01043701171875,26.27,2
-0.3628565371036529,-1.2206026315689087,0.0163719449192285,167.96026611328125,5.5000410079956055,143.97445678710938,26.27,2
-0.3504137098789215,-1.2311344146728516,-0.0118845254182815,162.74752807617188,5.501073837280273,143.9513702392578,26.27,2
-0.3256352841854095,-1.1035466194152832,-0.0468112267553806,150.8291778564453,5.501736640930176,143.93655395507812,26.27,2
-0.3097339272499084,-0.9712880849838256,-0.0692251697182655,144.92538452148438,5.502161979675293,143.9270477294922,26.27,2
-0.3107248842716217,-0.9032055139541626,-0.0892069265246391,154.9439239501953,5.502434730529785,143.9209442138672,26.27,2
-0.3281541466712951,-0.8763073682785034,-0.1244211643934249,177.69187927246094,5.484248161315918,143.91702270507812,26.27,2
-0.3337414860725403,-0.859045684337616,-0.1470196396112442,202.0455474853516,5.472577095031738,143.9145050048828,26.27,2
-0.2925449311733246,-0.8647614121437073,-0.1615220308303833,220.3540954589844,5.465087413787842,143.9128875732422,26.27,2
-0.2549117803573608,-0.862831711769104,-0.1540355086326599,230.133056640625,5.460280895233154,143.91184997558594,26.27,2
-0.2419565469026565,-0.8783866167068481,-0.1380355507135391,224.46432495117188,5.457196235656738,143.91119384765625,26.27,2
-0.2840225994586944,-0.9275532960891724,-0.1053765937685966,192.4703826904297,5.455216884613037,143.9107666015625,26.27,2
-0.3222137093544006,-0.9758989810943604,-0.0956135019659996,134.19964599609375,5.453946590423584,143.91049194335938,26.27,2
-0.3467225730419159,-1.0069245100021362,-0.0725547894835472,71.80921936035156,5.453131198883057,143.9103240966797,26.27,2
-0.345657616853714,-0.8924882411956787,0.031807355582714,30.29819679260254,5.465461254119873,143.9102020263672,26.27,2
-0.3505719602108001,-0.813451886177063,0.1155742928385734,13.700769424438477,5.473373889923096,143.91012573242188,26.27,2
-0.359323501586914,-0.9194685816764832,0.1357444524765014,7.319926261901855,5.478451728820801,143.9100799560547,26.27,2
-0.3369508683681488,-1.0042972564697266,0.1318951696157455,-6.200687408447266,5.481710433959961,143.91004943847656,26.27,2
-0.2554200887680053,-1.030746579170227,0.1294249296188354,-31.48984146118164,5.48380184173584,143.9100341796875,26.27,2
-0.1975005567073822,-0.986144721508026,0.167024090886116,-51.65621566772461,5.485143661499023,143.91001892089844,26.27,2
-0.199515551328659,-0.9519240856170654,0.1911530643701553,-42.579322814941406,5.486004829406738,143.91001892089844,26.27,2
-0.2511886358261108,-0.9747453927993774,0.1842465549707412,-5.693367958068848,5.486557483673096,143.91001892089844,26.27,2
-0.3011427819728851,-1.0005863904953003,0.185412123799324,27.966136932373047,5.4933390617370605,143.91001892089844,26.27,2
-0.333200454711914,-0.9835829734802246,0.1805623471736908,33.72113800048828,5.4976911544799805,143.91001892089844,26.27,2
-0.3369798958301544,-0.9446823000907898,0.1662544906139373,16.660505294799805,5.500483989715576,143.91001892089844,26.27,2
-0.3338075578212738,-0.9029247760772704,0.1570725291967392,-2.864712238311768,5.502276420593262,143.91001892089844,26.27,2
-0.3485650718212127,-0.8425405621528625,0.1567778587341308,-11.54718780517578,5.503426551818848,143.91001892089844,26.27,2
-0.3748289048671722,-0.8037894368171692,0.1453932076692581,-7.65393590927124,5.504164695739746,143.91001892089844,26.27,2
-0.4140746295452118,-0.8069100379943848,0.1045005396008491,3.288660049438477,5.504638195037842,143.91001892089844,26.27,2
-0.4504558145999908,-0.8592926263809204,0.0502691119909286,12.485610961914062,5.504942417144775,143.91001892089844,26.27,2
-0.4514120817184448,-0.9376909732818604,-0.0069245984777808,14.590155601501465,5.490906715393066,143.7846221923828,26.27,2
-0.4856123924255371,-1.139142394065857,-0.0492260046303272,12.831055641174316,5.481899738311768,143.7041473388672,26.27,2
-0.5075601935386658,-1.201249122619629,-0.0875681638717651,15.976179122924805,5.476119518280029,143.6525115966797,26.27,2
-0.4768628180027008,-1.2467033863067627,-0.1849450170993805,27.37730407714844,5.472409725189209,143.61936950683594,26.27,2
-0.4459674656391144,-1.253482222557068,-0.2810225188732147,41.32523727416992,5.470029354095459,143.5980987548828,26.27,2
-0.4037495255470276,-1.2634302377700806,-0.3258862197399139,50.15082550048828,5.468501567840576,143.58444213867188,26.27,2
-0.3430698215961456,-1.1858476400375366,-0.3098949491977691,54.03762435913086,5.467521190643311,143.57568359375,26.27,2
-0.3041290938854217,-1.0912774801254272,-0.2884371280670166,58.67790985107422,5.466892242431641,143.570068359375,26.27,2
-0.2847369313240051,-1.0025988817214966,-0.2914600670337677,65.74349975585938,5.473373889923096,143.56646728515625,26.27,2
-0.2778899371623993,-0.9400922656059264,-0.2934000194072723,72.43449401855469,5.47753381729126,143.56414794921875,26.27,2
-0.2734959423542022,-0.8999791741371155,-0.2834494113922119,72.68008422851562,5.480203151702881,143.5626678466797,26.27,2
-0.2538827955722809,-0.8574435710906982,-0.2658681273460388,58.60053253173828,5.481916427612305,143.56170654296875,26.27,2
-0.2301006615161895,-0.8301466703414917,-0.2433899343013763,25.64781188964844,5.483015537261963,143.56109619140625,26.27,2
-0.2036430984735489,-0.8686068058013916,-0.2177691608667373,-16.97330665588379,5.483721256256104,143.56069946289062,26.27,2
-0.2034574896097183,-0.9324727058410645,-0.1901316791772842,-51.74101638793945,5.484173774719238,143.56045532226562,26.27,2
-0.2313272505998611,-1.0126426219940186,-0.155602216720581,-80.22571563720703,5.484464168548584,143.56028747558594,26.27,2
-0.28279909491539,-1.1984376907348633,-0.1614320576190948,-105.94656372070312,5.487404823303223,143.5601806640625,26.27,2
-0.3270263075828552,-1.2225080728530884,-0.1483799964189529,-119.6941375732422,5.489292144775391,143.56011962890625,26.27,2
-0.3610065579414367,-1.002848505973816,-0.0504395514726638,-119.26991271972656,5.490503311157227,143.56007385253906,26.27,2
-0.3268353939056396,-1.074599027633667,-0.04356474801898,-119.51355743408205,5.491280555725098,143.56004333496094,26.27,2
-0.3216996192932129,-1.154231071472168,-0.0391528978943824,-128.79115295410156,5.491779327392578,143.56002807617188,26.27,2
-0.2960126996040344,-1.110172152519226,-0.0139305274933576,-141.0109100341797,5.492099285125732,143.5600128173828,26.27,2
-0.2347461134195327,-1.0483109951019287,-0.0145375849679112,-138.8753662109375,5.492304801940918,143.5600128173828,26.27,2
-0.1394509971141815,-0.9526343941688538,0.0074639376252889,-106.81297302246094,5.49243688583374,143.5600128173828,26.27,2
-0.1678604632616043,-0.936016857624054,0.0215832479298114,-54.45256805419922,5.504915714263916,143.5600128173828,26.27,2
-0.2308742254972458,-0.930950403213501,0.0306442100554704,-4.284843921661377,5.512923717498779,143.5600128173828,26.27,2
-0.2993016839027405,-0.9221013188362122,0.0308612380176782,32.33797836303711,5.518063068389893,143.5600128173828,26.27,2
-0.3320189416408539,-0.9220202565193176,0.0421960651874542,55.57887268066406,5.521361351013184,143.5600128173828,26.27,2
-0.325026124715805,-0.8883816003799438,0.0494701042771339,66.69600677490234,5.523477554321289,143.5600128173828,26.27,2
-0.309343010187149,-0.8276097774505615,0.0765292569994926,73.149658203125,5.52483606338501,143.5600128173828,26.27,2
-0.3048762381076813,-0.7830121517181396,0.1106875911355018,85.48816680908203,5.525707721710205,143.5600128173828,26.27,2
-0.3411941528320312,-0.7879786491394043,0.1438039988279342,103.229736328125,5.526267051696777,143.5600128173828,26.27,2
-0.3812942206859588,-0.8135569095611572,0.1538606435060501,110.43797302246094,5.520658493041992,143.42745971679688,26.27,2
-0.3846370577812195,-0.9139382243156432,0.104336678981781,96.86790466308594,5.517059326171875,143.34239196777344,26.27,2
-0.3979778289794922,-1.1350948810577393,0.0389684028923511,72.86540222167969,5.514749526977539,143.2877960205078,26.27,2
-0.4289302825927734,-1.2378360033035278,0.019409904256463,54.83594512939453,5.5132670402526855,143.2527618408203,26.27,2
-0.420804888010025,-1.1078472137451172,-0.0211304873228073,45.12145233154297,5.51231575012207,143.2302703857422,26.27,2
-0.4043949544429779,-1.0860034227371216,-0.0807336196303367,36.31496047973633,5.51170539855957,143.21585083007812,26.27,2
-0.4162550866603851,-1.155951976776123,-0.1189834848046302,26.45035171508789,5.5113139152526855,143.2065887451172,26.27,2
-0.4014751315116882,-1.144863247871399,-0.1435300409793853,19.790218353271484,5.5110626220703125,143.20065307617188,26.27,2
-0.3640013337135315,-1.0873671770095823,-0.1592826098203659,18.890913009643555,5.495293617248535,143.19683837890625,26.27,2
-0.3287572562694549,-0.966502845287323,-0.1414028257131576,20.07999992370605,5.485174179077148,143.19439697265625,26.27,2
-0.3229329586029053,-0.8889390826225281,-0.118733063340187,14.247566223144531,5.47868013381958,143.1928253173828,26.27,2
-0.3359885811805725,-0.8391631245613098,-0.1041849181056022,-8.941575050354004,5.474512577056885,143.1918182373047,26.27,2
-0.2995847463607788,-0.8352086544036865,-0.1060443073511123,-46.62254333496094,5.471837997436523,143.191162109375,26.27,2
-0.2426362186670303,-0.8382686376571655,-0.1072375550866127,-79.36278533935547,5.47012186050415,143.1907501220703,26.27,2
-0.1669055074453354,-0.8458301424980164,-0.0968077629804611,-94.5411605834961,5.469020366668701,143.1904754638672,26.27,2
-0.1239036694169044,-0.8674759864807129,-0.0845167487859726,-94.04634857177734,5.468313694000244,143.1903076171875,26.27,2
-0.1298942118883133,-0.9485403895378112,-0.0822268575429916,-84.58248901367188,5.466941833496094,143.19020080566406,26.25,2
-0.156129702925682,-1.0061606168746948,-0.0807573348283767,-71.85629272460938,5.466061592102051,143.19012451171875,26.25,2
-0.1841616779565811,-1.0599312782287598,-0.0742165073752403,-59.9670524597168,5.46549654006958,143.19007873535156,26.25,2
-0.2021509855985641,-1.1392203569412231,-0.0644212067127227,-50.05154037475586,5.465133666992188,143.19004821777344,26.25,2
-0.2080977112054824,-1.1789079904556274,-0.0469395965337753,-41.75732421875,5.464900970458984,143.19003295898438,26.25,2
-0.2231095284223556,-1.0420417785644531,0.0202568378299474,-35.166343688964844,5.464751720428467,143.1900177001953,26.25,2
-0.2047543674707412,-0.98779559135437,0.0465863198041915,-30.62494850158692,5.464655876159668,143.1900177001953,26.25,2
-0.1929750889539718,-1.0537434816360474,0.0522875152528286,-29.021764755249023,5.46459436416626,143.1900177001953,26.25,2
-0.1910135895013809,-1.084869384765625,0.0447506681084632,-30.31085968017578,5.4741950035095215,143.1900177001953,26.25,2
-0.1841570436954498,-1.054464340209961,0.0567072741687297,-35.68083190917969,5.480356216430664,143.1900177001953,26.25,2
-0.1853546798229217,-0.9565832614898682,0.0979669839143753,-48.30194854736328,5.484310150146484,143.1900177001953,26.25,2
-0.2029165774583816,-0.8601821660995483,0.1132495403289794,-66.9342269897461,5.486847400665283,143.1900177001953,26.25,2
-0.2197845727205276,-0.80391526222229,0.1174592301249504,-78.66206359863281,5.488475799560547,143.1900177001953,26.25,2
-0.2250117063522339,-0.7790019512176514,0.1145629957318306,-65.7031478881836,5.48952054977417,143.1900177001953,26.25,2
-0.2227683961391449,-0.7798073291778564,0.1071065813302993,-28.787158966064453,5.490190982818604,143.1900177001953,26.25,2
-0.2269265502691269,-0.7915197014808655,0.0911259353160858,10.412365913391112,5.490621089935303,143.1900177001953,26.25,2
-0.2463883310556411,-0.7990360260009766,0.0864682495594024,35.49671173095703,5.473912715911865,143.0646209716797,26.25,2
-0.2700733244419098,-0.8094573616981506,0.0834792181849479,48.63877868652344,5.463190078735352,142.98414611816406,26.25,2
-0.3076640963554382,-0.8497318029403687,0.0815610289573669,55.97991180419922,5.456308841705322,142.93251037597656,26.25,2
-0.3205921351909637,-0.9035665392875672,0.0747322738170623,58.42684173583984,5.451892852783203,142.8993682861328,26.25,2
-0.2897042036056518,-0.971701204776764,0.0479588732123374,56.92329025268555,5.449059009552002,142.8780975341797,26.25,2
-0.309066504240036,-1.132979393005371,0.0363750196993351,55.41743087768555,5.447240352630615,142.86444091796875,26.25,2
-0.3214921355247497,-1.1525118350982666,0.0289411675184965,57.23471832275391,5.446073532104492,142.85568237304688,26.25,2
-0.2734884321689605,-1.181839942932129,-0.0318071953952312,61.21685028076172,5.445324420928955,142.85006713867188,26.25,2
-0.2426824271678924,-1.2622365951538086,-0.0651942193508148,64.66441345214844,5.444843769073486,142.84646606445312,26.25,2
-0.1893262565135955,-1.297037124633789,-0.0642289966344833,66.95568084716797,5.444535255432129,142.84414672851562,26.25,2
-0.1494875699281692,-1.2465990781784058,-0.0636095702648162,70.28902435302734,5.444337368011475,142.84266662597656,26.25,2
-0.1183236166834831,-1.124666452407837,-0.0632120594382286,77.45094299316406,5.444210529327393,142.84170532226562,26.25,2
-0.1039221584796905,-0.9960371255874634,-0.0349680855870246,89.16204833984375,5.44412899017334,142.84109497070312,26.25,2
-0.1058756783604621,-0.9246857762336732,-0.0168427303433418,96.8996810913086,5.4440765380859375,142.8406982421875,26.25,2
-0.123922660946846,-0.8788965940475464,-0.0220042429864406,83.71949768066406,5.444043159484863,142.8404541015625,26.25,2
-0.1355041712522506,-0.877500593662262,-0.0533054769039154,41.8680305480957,5.444021701812744,142.8402862548828,26.25,2
-0.1597298383712768,-0.8766047358512878,-0.0845883563160896,-11.561797142028809,5.441712379455566,142.84017944335938,26.31,2
-0.2088631242513656,-0.859236478805542,-0.0878705829381942,-49.493465423583984,5.440230369567871,142.84011840820312,26.31,2
-0.245991826057434,-0.8536883592605591,-0.0843791514635086,-64.95462036132812,5.439279556274414,142.84007263183594,26.31,2
-0.2866122126579284,-0.8613234162330627,-0.0877363309264183,-73.78759765625,5.438669204711914,142.8400421142578,26.31,2
-0.3182778060436249,-0.8606253862380981,-0.0730974525213241,-89.47297668457031,5.438277721405029,142.84002685546875,26.31,2
-0.3497945070266723,-0.8657752275466919,-0.0581052862107753,-108.1622085571289,5.438026428222656,142.8400115966797,26.31,2
-0.3476290106773376,-0.9082645177841188,-0.0540819503366947,-123.18315887451172,5.437864780426025,142.8400115966797,26.31,2
-0.3126526772975921,-0.9635205268859864,-0.0738911032676696,-135.42369079589844,5.437761306762695,142.8400115966797,26.31,2
-0.3181957602500915,-1.1333272457122805,-0.1313856691122055,-146.37429809570312,5.45100736618042,142.8400115966797,26.31,2
-0.3441440761089325,-1.0631706714630127,-0.1123046353459358,-158.97267150878906,5.459507942199707,142.8400115966797,26.31,2
-0.3160140216350555,-0.9229860305786132,-0.0720706507563591,-181.0941162109375,5.464962959289551,142.8400115966797,26.31,2
-0.2531795799732208,-1.0681301355361938,-0.0630441159009933,-209.78549194335932,5.468463897705078,142.8400115966797,26.31,2
-0.2072582691907882,-1.1780686378479004,-0.079642504453659,-221.8639678955078,5.470710277557373,142.8400115966797,26.31,2
-0.1553975194692611,-1.153458595275879,-0.0846966207027435,-198.76210021972656,5.472152233123779,142.8400115966797,26.31,2
-0.1557029336690902,-0.9977209568023682,-0.0263645444065332,-145.05853271484375,5.473077297210693,142.8400115966797,26.31,2
-0.189485564827919,-0.8809841871261597,0.0166673995554447,-82.78672790527344,5.473670959472656,142.8400115966797,26.31,2
-0.2279586493968963,-0.8284603357315063,0.049880601465702,-25.524009704589844,5.471756935119629,142.72178649902344,26.31,2
-0.2414529025554657,-0.7891557812690735,0.0711949169635772,23.755756378173828,5.470528602600098,142.64590454101562,26.31,2
-0.2445149719715118,-0.7639324069023132,0.079275444149971,56.16525650024414,5.469740390777588,142.5972137451172,26.31,2
-0.2688711285591125,-0.7925276756286621,0.0732655152678489,83.49842834472656,5.469234466552734,142.5659637451172,26.31,2
-0.3012948334217071,-0.8276717662811279,0.052615363150835,110.82329559326172,5.468909740447998,142.54591369628906,26.31,2
-0.2885158360004425,-0.9006052017211914,0.0169721897691488,139.84814453125,5.468701362609863,142.53305053710938,26.31,2
-0.2635217010974884,-0.9250186085700988,-0.0114993238821625,172.1313934326172,5.468567371368408,142.52479553222656,26.31,2
-0.2362863570451736,-0.9182946085929872,-0.0577595718204975,212.82896423339844,5.468481540679932,142.5194854736328,26.31,2
-0.2244060486555099,-0.9979461431503296,-0.0930445119738578,259.36700439453125,5.4720988273620605,142.51608276367188,26.31,2
-0.2559663653373718,-1.0994418859481812,-0.1156883537769317,298.2855834960937,5.474420547485352,142.51390075683594,26.31,2
-0.2258400022983551,-1.103000521659851,-0.1246220991015434,308.2431335449219,5.475910186767578,142.5124969482422,26.31,2
-0.1449311077594757,-1.054904222488403,-0.1135619357228279,278.30242919921875,5.476866245269775,142.5115966796875,26.31,2
-0.0034440520685166,-1.1136032342910769,-0.1064641624689102,221.646713256836,5.477479934692383,142.51101684570312,26.31,2
0.0089853545650839,-1.1232839822769165,-0.1802780628204345,164.78883361816406,5.477873802185059,142.51065063476562,26.31,2
0.0057662832550704,-1.095909833908081,-0.2276475727558136,117.4634246826172,5.478126525878906,142.5104217529297,26.31,2
0.0092982426285743,-1.0279628038406372,-0.2244599461555481,61.66716384887695,5.478288650512695,142.51026916503906,26.31,2
-0.0052284719422459,-0.984358251094818,-0.2224143147468567,-20.53401565551757,5.466457366943359,142.5101776123047,26.31,2
-0.0313442051410675,-0.9843642711639404,-0.2322970926761627,-120.41836547851562,5.458864688873291,142.51011657714844,26.31,2
-0.0648971050977706,-0.9451836943626404,-0.2218459695577621,-202.3775329589844,5.453991889953613,142.51007080078125,26.31,2
-0.0864294245839119,-0.8976487517356873,-0.1983457207679748,-232.4505615234375,5.450864791870117,142.51004028320312,26.31,2
-0.1114431768655777,-0.8559480309486389,-0.1832646131515503,-206.13992309570312,5.448858261108398,142.51002502441406,26.31,2
-0.1274955570697784,-0.8459802269935608,-0.1735864281654358,-151.05068969726562,5.447570323944092,142.510009765625,26.31,2
-0.1489925980567932,-0.8563767671585083,-0.1897666156291961,-100.36774444580078,5.446743965148926,142.510009765625,26.31,2
-0.1571903973817825,-0.8966353535652161,-0.211345687508583,-66.59919738769531,5.446213722229004,142.510009765625,26.31,2
-0.1792445927858352,-0.9168732166290284,-0.219596117734909,-42.82192993164063,5.422003269195557,142.510009765625,26.31,2
-0.215788796544075,-0.9410562515258788,-0.2024996727705001,-21.032012939453125,5.406466007232666,142.510009765625,26.31,2
-0.2336429953575134,-1.051737666130066,-0.2195170223712921,-0.2201095223426818,5.396495342254639,142.510009765625,26.31,2
-0.2562963366508484,-1.1843421459197998,-0.2640244364738464,21.1750717163086,5.390096664428711,142.510009765625,26.31,2
-0.2708339393138885,-0.9223780632019044,-0.1246534883975982,44.48149108886719,5.385990619659424,142.510009765625,26.31,2
-0.2577722370624542,-0.7878512740135193,0.0207645054906606,59.76422500610352,5.383355617523193,142.510009765625,26.31,2
-0.2214011251926422,-0.9478217959403992,-0.0034678594674915,47.91513442993164,5.381664276123047,142.510009765625,26.31,2
-0.1980602443218231,-1.016895055770874,-0.0917898640036583,2.715522289276123,5.380578994750977,142.510009765625,26.31,2
-0.1662880778312683,-1.0220378637313845,-0.1092854216694831,-51.15047836303711,5.40788459777832,142.4419403076172,26.31,2
-0.1738874167203903,-0.9133827090263368,-0.0029598027467727,-73.63096618652344,5.425407409667969,142.39825439453125,26.31,2
-0.2179486453533172,-0.8268607258796692,0.0652738586068153,-51.52254486083984,5.436652660369873,142.37022399902344,26.31,2
-0.2742134928703308,-0.810520350933075,0.0642801001667976,-12.141961097717283,5.443869113922119,142.35223388671875,26.31,2
-0.3159188032150268,-0.8112295866012573,0.0524468161165714,16.58741569519043,5.448500156402588,142.34068298339844,26.31,2
-0.325889527797699,-0.8060869574546814,0.0728417709469795,36.17070007324219,5.451472282409668,142.33328247070312,26.31,2
-0.3210926353931427,-0.825177788734436,0.1139189451932907,55.36589050292969,5.4533796310424805,142.32852172851562,26.31,2
-0.3236120343208313,-0.8486247658729553,0.1458776891231537,68.86292266845703,5.454603672027588,142.32546997070312,26.31,2
-0.3420221507549286,-0.8972583413124084,0.1495936512947082,72.55909729003906,5.441617488861084,142.32351684570312,26.31,2
-0.353836715221405,-0.9452618956565856,0.1351850181818008,73.08964538574219,5.433283805847168,142.322265625,26.31,2
-0.3614186346530914,-1.0488388538360596,0.1091450601816177,72.437744140625,5.427935600280762,142.3214569091797,26.31,2
-0.4054686725139618,-1.188079595565796,0.1036296635866165,65.59225463867188,5.424503803253174,142.32093811035156,26.31,2
-0.4001508057117462,-1.1598830223083496,0.1112857460975647,55.21272659301758,5.422301292419434,142.3206024169922,26.31,2
-0.2847826182842254,-1.0466259717941284,0.1441878527402877,51.1634407043457,5.42088794708252,142.3203887939453,26.31,2
-0.2107459604740142,-1.0411174297332764,0.1764980852603912,55.03497314453125,5.419981002807617,142.32025146484375,26.31,2
-0.1744290441274643,-1.1551356315612793,0.0908752158284187,59.74069595336914,5.419398784637451,142.32015991210938,26.31,2
-0.1511229425668716,-1.127545952796936,-0.003257033182308,63.26570129394531,5.4167304039001465,142.32009887695312,26.31,2
-0.1473619788885116,-1.0594605207443235,-0.0244812741875648,70.54703521728516,5.415017604827881,142.320068359375,26.31,2
-0.1393506377935409,-0.9709850549697876,0.0234737452119588,82.4207534790039,5.413918495178223,142.32005310058594,26.31,2
-0.1398071944713592,-0.8974132537841797,0.0542485192418098,91.25869750976562,5.41321325302124,142.32003784179688,26.31,2
-0.1736868321895599,-0.8557968735694885,0.0180202536284923,92.11181640625,5.4127607345581055,142.3200225830078,26.31,2
-0.1730377227067947,-0.8178943395614624,-0.0164245124906301,89.24510192871094,5.41247034072876,142.3200225830078,26.31,2
-0.1614256203174591,-0.8103640079498291,-0.0329314023256301,90.6977996826172,5.412283897399902,142.3200225830078,26.31,2
-0.1707669645547866,-0.822324812412262,-0.0323290266096591,95.71060943603516,5.412164211273193,142.3200225830078,26.31,2
-0.199152797460556,-0.8300005197525024,-0.0319424569606781,92.1027374267578,5.40428352355957,142.3200225830078,26.31,2
-0.2397602945566177,-0.8685130476951599,-0.0260966047644615,69.93994140625,5.399226188659668,142.3200225830078,26.31,2
-0.2826131582260132,-0.932412564754486,-0.0055517498403787,30.155460357666016,5.3959808349609375,142.3200225830078,26.31,2
-0.3045158982276916,-1.046190619468689,-0.0203561168164014,-13.578994750976562,5.393898010253906,142.3200225830078,26.31,2
-0.3185718059539795,-1.1695868968963623,-0.0466500297188758,-52.34640502929688,5.392561435699463,142.3200225830078,26.31,2
-0.344385415315628,-1.1424177885055542,-0.0131439808756113,-87.04493713378906,5.391703605651856,142.3200225830078,26.31,2
-0.3217666745185852,-0.9514511823654176,0.1147159859538078,-111.8059310913086,5.391153335571289,142.3200225830078,26.31,2
-0.2344802021980285,-1.0472129583358765,0.1351936310529709,-118.97254180908205,5.3907999992370605,142.3200225830078,26.31,2
-0.1840625405311584,-1.097471833229065,0.092357262969017,-114.22471618652344,5.358899116516113,142.2591094970703,26.31,2
-0.1349140703678131,-1.0793451070785522,0.0648673474788665,-109.39371490478516,5.33842658996582,142.2200164794922,26.31,2
-0.1201667338609695,-1.034125804901123,0.0696170032024383,-109.06995391845705,5.325288772583008,142.19493103027344,26.31,2
-0.1610827147960662,-0.8931511640548706,0.1230450272560119,-111.09054565429688,5.316857814788818,142.1788330078125,26.31,2
-0.1929379999637603,-0.8194750547409058,0.1517342776060104,-114.20719146728516,5.311447143554688,142.1685028076172,26.31,2
-0.2357719838619232,-0.794585108757019,0.1533520668745041,-122.31915283203124,5.307974815368652,142.161865234375,26.31,2
-0.2744559347629547,-0.8010032773017883,0.1431947201490402,-144.71414184570312,5.305746555328369,142.15760803222656,26.31,2
-0.3104766011238098,-0.8107198476791382,0.1478718668222427,-187.2378387451172,5.304316520690918,142.15487670898438,26.31,2
-0.3335925936698913,-0.8169553875923157,0.1732644885778427,-237.8890686035156,5.273561000823975,142.1531219482422,26.31,2
-0.3652204275131225,-0.8097614645957947,0.2287444323301315,-266.9620056152344,5.253823757171631,142.15200805664062,26.31,2
-0.4023106694221496,-0.8387314081192017,0.2587504982948303,-236.87481689453125,5.241157531738281,142.1512908935547,26.31,2
-0.4485041499137878,-0.8965070843696594,0.2556155622005462,-154.42369079589844,5.233029365539551,142.1508331298828,26.31,2
-0.4837462604045868,-0.9727686047554016,0.2368104159832,-71.10598754882812,5.227813243865967,142.15052795410156,26.31,2
-0.4951670467853546,-1.13366436958313,0.1967534869909286,-14.77142333984375,5.224465847015381,142.15032958984375,26.31,2
-0.513691782951355,-1.1529513597488403,0.1934383511543274,18.500465393066406,5.222317695617676,142.15020751953125,26.31,2
-0.5031888484954834,-1.1093509197235107,0.1689198017120361,37.032962799072266,5.220939159393311,142.15013122558594,26.31,2
-0.4404709041118622,-1.0085996389389038,0.1140007823705673,46.36092758178711,5.226480484008789,142.15008544921875,26.29,2
-0.4002221226692199,-0.9887254238128662,0.0675613656640052,52.07480239868164,5.230036735534668,142.15005493164062,26.29,2
-0.4023816585540771,-1.0767312049865725,0.0265636723488569,59.234649658203125,5.232318878173828,142.15003967285156,26.29,2
-0.3981697559356689,-1.0044595003128052,-0.0277351606637239,71.91529846191406,5.23378324508667,142.1500244140625,26.29,2
-0.3674779236316681,-0.8965041637420654,-0.0681788027286529,95.45092010498048,5.234723091125488,142.15000915527344,26.29,2
-0.3253905773162842,-0.8048335313796997,-0.0829376503825187,132.08242797851562,5.235326290130615,142.15000915527344,26.29,2
-0.3095768690109253,-0.7627978920936584,-0.0868112593889236,163.86257934570312,5.235713481903076,142.15000915527344,26.29,2
-0.3274174332618713,-0.7750062942504883,-0.1004926636815071,158.83172607421875,5.2359619140625,142.15000915527344,26.29,2
