acc_x,acc_y,acc_z,bvp,eda,hr,temp,label
0.0,0.0,0.0,0.0,0.0,0.0,35.89,2
-0.0442708320915699,-0.1562499850988388,0.0416666641831398,-0.513333261013031,0.3748950064182281,9.833333015441896,35.89,2
-0.1120426803827285,-0.3700457215309143,0.1017530485987663,-2.210731744766236,0.8778029680252075,23.024391174316406,35.89,2
-0.1161752492189407,-0.5410610437393188,0.1540178507566452,-4.337807655334473,1.315246343612671,34.49834060668945,35.89,2
-0.1779103726148605,-0.6818405389785767,0.1814714521169662,-5.24391508102417,1.6343848705291748,42.86920547485352,35.89,2
-0.2142179459333419,-0.7771542072296143,0.1945689767599105,-3.893385648727417,1.8504550457000728,48.5366325378418,35.89,2
-0.2269347757101059,-0.8507997989654541,0.2031628340482711,-0.7362582087516785,1.9922281503677368,52.255279541015625,35.89,2
-0.2072741836309433,-0.825965166091919,0.1864113211631775,2.6939187049865723,2.084047794342041,54.663665771484375,35.89,2
-0.250511109828949,-0.877049446105957,0.1923909932374954,4.85703182220459,2.120732545852661,56.21508026123047,35.89,2
-0.2727066874504089,-0.8986942172050476,0.1962343752384185,5.029962062835693,2.1443114280700684,57.21224212646485,35.89,2
-0.2925561368465423,-0.9181899428367616,0.1987024247646331,3.561457872390747,2.159452676773072,57.85257339477539,35.89,2
-0.2997004985809326,-0.9363017678260804,0.1946894526481628,1.6480218172073364,2.1691720485687256,58.26360702514648,35.89,2
-0.2986882925033569,-0.9535236954689026,0.1977114379405975,0.4951861202716827,2.175410032272339,58.52741622924805,35.89,2
-0.303636372089386,-0.9533808827400208,0.1940531730651855,0.5506484508514404,2.1794135570526123,58.696720123291016,35.89,2
-0.3068118095397949,-0.9532892107963562,0.186107724905014,1.4747145175933838,2.1819827556610107,58.80537033081055,35.89,2
-0.3032518923282623,-0.9420348405838012,0.1754110008478164,2.984868288040161,2.183631420135498,58.875099182128906,35.89,2
-0.3009673357009887,-0.9404101967811584,0.168546438217163,5.014442443847656,2.2021334171295166,58.91984558105469,35.89,2
-0.3050990104675293,-0.9337698221206664,0.1697389185428619,7.155230045318604,2.214006900787353,58.94856262207031,35.89,2
-0.3077504634857178,-0.9183128476142884,0.1649064123630523,8.66878604888916,2.2216267585754395,58.96699142456055,35.89,2
-0.3094520270824432,-0.925186812877655,0.1618051826953888,9.256763458251951,2.2265167236328125,58.978816986083984,35.89,2
-0.3161417543888092,-0.9519891738891602,0.1598149985074997,9.247175216674805,2.229654788970948,58.98640441894531,35.89,2
-0.3204348385334015,-0.9635916352272034,0.1585378050804138,8.345377922058105,2.231668710708618,58.99127578735352,35.89,2
-0.3175921142101288,-0.9654396772384644,0.1577181816101074,5.58486795425415,2.2329609394073486,58.99440002441406,35.89,2
-0.3157678246498108,-0.9610278606414796,0.157192200422287,0.5531876087188721,2.233790397644043,58.99640655517578,35.89,2
-0.3145971000194549,-0.9581965804100036,0.1512568742036819,-5.3950300216674805,2.235240936279297,58.9976921081543,35.89,2
-0.3138457834720611,-0.9507818818092346,0.1530456990003585,-10.18671417236328,2.2361717224121094,58.99851989746094,35.89,2
-0.3189614117145538,-0.9460235238075256,0.1541936695575714,-12.885570526123049,2.236768960952759,58.99905014038086,35.89,2
-0.3166465759277344,-0.9485676884651184,0.1717236936092376,-14.162554740905762,2.237152338027954,58.9993896484375,35.89,2
-0.3095632493495941,-0.9613959193229676,0.1885712295770645,-15.680651664733888,2.237398386001587,58.99960708618164,35.89,2
-0.2882242500782013,-0.9864216446876526,0.1937852352857589,-18.56439208984375,2.237556219100952,58.99974822998047,35.89,2
-0.263334572315216,-1.0528616905212402,0.1915335059165954,-23.177175521850582,2.2376575469970703,58.99983978271485,35.89,2
-0.247361809015274,-1.123487949371338,0.1844906955957412,-26.176803588867188,2.237722635269165,58.99989700317383,35.89,2
-0.259502500295639,-1.1240296363830566,0.1575799286365509,-22.78883171081543,2.236386775970459,61.86599349975586,35.93,2
-0.2840870320796966,-1.0851927995681765,0.1347123682498932,-15.0831298828125,2.235529661178589,63.70529174804688,35.93,2
-0.2774728834629059,-1.0602695941925049,0.1144395172595977,-7.716233253479004,2.2349793910980225,64.8856430053711,35.93,2
-0.2396416366100311,-1.0610686540603638,0.1014295667409896,-2.6267428398132324,2.234626293182373,65.64312744140625,35.93,2
-0.1985704004764557,-1.0391902923583984,0.0930805280804634,-0.1666803807020187,2.2343997955322266,66.12923431396484,35.93,2
-0.1274310499429702,-1.013954520225525,0.0765270516276359,-0.8306461572647095,2.2342543601989746,66.44119262695312,35.93,2
-0.0929734632372856,-0.9697707891464232,0.0659039765596389,-3.388373613357544,2.234161138534546,66.64138793945312,35.93,2
-0.0932516604661941,-0.9358184337615968,0.0758800283074379,-5.714047908782959,2.2341012954711914,66.76986694335938,35.93,2
-0.1382123827934265,-0.9140297770500184,0.0878798589110374,-6.9915771484375,2.232685804367065,66.85231018066406,35.93,2
-0.1782611459493637,-0.8944492936134338,0.0899828821420669,-7.2346272468566895,2.2317774295806885,66.90522003173828,35.93,2
-0.1591799408197403,-0.9042747616767884,0.1697013229131698,-5.1192498207092285,2.231194496154785,66.93917846679688,35.93,2
-0.0797614231705665,-0.9049823880195618,0.2880333065986633,1.7375311851501465,2.230820178985596,66.96096801757812,35.93,2
-0.0175996460020542,-0.8998387455940247,0.3639719784259796,13.7149658203125,2.2305800914764404,66.9749526977539,35.93,2
-0.0728699564933776,-0.8685489892959595,0.2951517701148987,26.62479019165039,2.230426073074341,66.98392486572266,35.93,2
-0.1419259011745453,-0.8428712487220764,0.2229980677366256,33.336822509765625,2.2303271293640137,66.98968505859375,35.93,2
-0.1862420439720153,-0.8375883102416992,0.1766939759254455,30.747758865356445,2.2302637100219727,66.99337768554688,35.93,2
-0.2090838104486465,-0.8397957682609558,0.1413808912038803,22.99586677551269,2.225632667541504,66.9957504272461,35.93,2
-0.2237423509359359,-0.8524079322814941,0.1187189891934394,14.606955528259276,2.222660541534424,66.99727630615234,35.93,2
-0.2443449050188064,-0.8940883874893188,0.1097736582159996,6.866099834442139,2.220753192901612,66.99825286865234,35.93,2
-0.263164222240448,-0.9432275891304016,0.1040330603718757,0.5908246040344238,2.219529390335083,66.9988784790039,35.93,2
-0.2752413749694824,-1.0419355630874634,0.1115446239709854,-3.3968775272369385,2.218743801116944,66.99928283691406,35.93,2
-0.3389695286750793,-1.1948450803756714,0.1499517560005188,-6.167327404022217,2.2182397842407227,66.99954223632812,35.93,2
-0.4246487915515899,-1.2761802673339844,0.1969903409481048,-8.86596393585205,2.217916250228882,66.99970245361328,35.93,2
-0.4740350246429443,-1.2164210081100464,0.2103836834430694,-11.149510383605955,2.2177085876464844,66.99980926513672,35.93,2
-0.4609460830688476,-1.1724731922149658,0.2021854370832443,-12.428665161132812,2.2166571617126465,66.9998779296875,35.93,2
-0.3517864048480987,-1.161063313484192,0.2137175947427749,-13.210144996643066,2.215982437133789,66.99992370605469,35.93,2
-0.2649406790733337,-1.164936661720276,0.2211182713508606,-13.837043762207031,2.2155494689941406,66.99995422363281,35.93,2
-0.220403641462326,-1.1562268733978271,0.2258675992488861,-13.203987121582031,2.215271711349488,66.99996948242188,35.93,2
-0.2366045415401458,-1.0778663158416748,0.2065243422985077,-10.021231651306152,2.21509337425232,66.9999771118164,35.93,2
-0.2637946605682373,-0.9995901584625244,0.1829154044389724,-4.822473049163818,2.2149789333343506,66.99998474121094,35.93,2
-0.298037052154541,-0.92136812210083,0.1677645444869995,0.1689404845237732,2.214905500411988,66.99999237060547,35.93,2
-0.3032185137271881,-0.8711697459220886,0.1524438261985778,3.3040738105773926,2.214858293533325,66.99999237060547,35.93,2
-0.2953481376171112,-0.8445531129837036,0.1314163208007812,4.524272441864014,2.2116148471832275,65.65653228759766,35.91,2
-0.2623085081577301,-0.8442654013633728,0.1067265272140502,4.3722734451293945,2.209533452987671,64.79437255859375,35.91,2
-0.2299100160598755,-0.8440807461738586,0.0852842628955841,3.3181817531585693,2.208197832107544,64.2410888671875,35.91,2
-0.1923252046108245,-0.8047778606414795,0.0715238526463508,2.0470187664031982,2.207340717315674,63.886024475097656,35.91,2
-0.168205440044403,-0.8131421208381653,0.0738887637853622,1.23125958442688,2.2067904472351074,63.658164978027344,35.91,2
-0.1583245396614074,-0.8409009575843811,0.069808654487133,0.9298719763755798,2.206437349319458,63.51193618774414,35.91,2
-0.1743746399879455,-0.8811060786247253,0.055994726717472,0.671972393989563,2.2062108516693115,63.418094635009766,35.91,2
-0.1902724504470825,-0.9460918307304382,0.041531965136528,-0.0810750946402549,2.20606541633606,63.357872009277344,35.91,2
-0.2172680646181106,-1.144533634185791,0.0266528241336345,-1.5638761520385742,2.20459508895874,63.3192253112793,35.91,2
-0.2793745100498199,-1.1599266529083252,0.0450931191444397,-3.6475465297698975,2.203651428222656,63.29442596435547,35.91,2
-0.3360241651535034,-1.1362183094024658,0.0849159136414527,-5.980681896209717,2.2030458450317383,63.27851104736328,35.91,2
-0.3387919962406158,-1.1433948278427124,0.1384607702493667,-8.319859504699707,2.2026572227478027,63.26829528808594,35.91,2
-0.284590482711792,-1.1759891510009766,0.1896160989999771,-10.551854133605955,2.2024078369140625,63.2617416381836,35.91,2
-0.1770360171794891,-1.1297330856323242,0.2896179258823395,-12.48936367034912,2.2022478580474854,63.25753402709961,35.91,2
-0.3039358556270599,-1.0664619207382202,0.2418378591537475,-13.675424575805664,2.2021450996398926,63.25483322143555,35.91,2
-0.3965684175491333,-1.014662504196167,0.1943820416927337,-13.39404010772705,2.202079057693481,63.25310134887695,35.91,2
-0.4672102034091949,-0.9422362446784972,0.1471343040466308,-11.053171157836914,2.1983642578125,63.251991271972656,35.91,2
-0.5237395763397217,-0.8789639472961426,0.1000201031565666,-6.68487548828125,2.1959803104400635,63.251277923583984,35.91,2
-0.5712124109268188,-0.799174964427948,0.0361982695758342,-1.7606700658798218,2.1944503784179688,63.25082015991211,35.91,2
-0.6128733158111572,-0.7087866067886353,-0.0383455529808998,1.3599931001663208,2.1934685707092285,63.250526428222656,35.91,2
-0.6452066898345947,-0.6507805585861206,-0.0917812660336494,1.560619831085205,2.192838430404663,63.25033950805664,35.91,2
-0.6491630673408508,-0.6191533803939819,-0.1260732263326645,-0.0947521403431892,2.192434072494507,63.25021743774414,35.91,2
-0.6628975868225098,-0.5988568663597107,-0.153677612543106,-1.5905661582946775,2.1921746730804443,63.25014114379883,35.91,2
-0.6885049343109131,-0.5858317613601685,-0.1769902855157852,-1.7085883617401123,2.1920082569122314,63.250091552734375,35.91,2
-0.7217315435409546,-0.605461835861206,-0.141571044921875,-0.4014539718627929,2.187769889831543,63.25005722045898,35.91,2
-0.7430545091629028,-0.6292548775672913,-0.0908521488308906,1.942071318626404,2.1850500106811523,63.250038146972656,35.91,2
-0.7175539135932922,-0.6613171696662903,-0.0583036802709102,5.362689018249512,2.18330454826355,63.2500228881836,35.91,2
-0.7123846411705017,-0.7210773229598999,-0.0262203961610794,10.499139785766602,2.1821844577789307,63.25001525878906,35.91,2
-0.7538495063781738,-0.8433945775032043,0.0111621310934424,17.292011260986328,2.1814656257629395,63.2500114440918,35.91,2
-0.7636659145355225,-0.9834662675857544,0.0575431808829307,23.209705352783203,2.181004285812378,63.25000762939453,35.91,2
-0.7475744485855103,-1.0397695302963257,0.0985034182667732,24.38489532470703,2.180708169937134,63.25000381469727,35.91,2
-0.7316501140594482,-0.991935133934021,0.0968004688620567,19.449934005737305,2.18051815032959,63.25000381469727,35.91,2
-0.6822463274002075,-0.9556400179862976,0.0901098400354385,11.045235633850098,2.171674489974976,65.66824340820312,35.89,2
-0.706519603729248,-0.9939234256744384,0.0410339869558811,3.1867713928222656,2.165999174118042,67.22013092041016,35.89,2
-0.6493257284164429,-1.046480417251587,0.0375287979841232,-1.7094526290893557,2.1623570919036865,68.2160415649414,35.89,2
-0.6014264225959778,-1.0634150505065918,0.0352793708443641,-3.4830236434936523,2.160019874572754,68.85515594482422,35.89,2
-0.5035141110420227,-1.0295006036758425,0.0282380431890487,-3.600165367126465,2.158519983291626,69.26530456542969,35.89,2
-0.4182885289192199,-0.9909428954124452,0.0181215498596429,-4.126744747161865,2.157557249069214,69.52851104736328,35.89,2
-0.3356067836284637,-0.9438077211380004,0.006031593773514,-6.374185562133789,2.1569395065307617,69.69742584228516,35.89,2
-0.2713508605957031,-0.9023635387420654,0.0038707295898348,-9.969592094421388,2.156543016433716,69.80582427978516,35.89,2
-0.2301151007413864,-0.8757669925689697,0.0080817863345146,-13.35885524749756,2.153993368148804,69.8753890991211,35.89,2
-0.2204456925392151,-0.8531011343002319,0.0051864250563085,-15.422829627990724,2.1523571014404297,69.92002868652344,35.89,2
-0.2310337424278259,-0.8273599147796631,0.0033283489756286,-16.188486099243164,2.1513071060180664,69.94867706298828,35.89,2
-0.2546218633651733,-0.8052428960800171,0.0245270393788814,-15.956161499023438,2.1506330966949463,69.9670639038086,35.89,2
-0.2865526974201202,-0.7910494804382324,0.0325333662331104,-14.621235847473145,2.150200605392456,69.97886657714844,35.89,2
-0.3350329399108886,-0.7931365370750427,0.0376713648438453,-11.8084716796875,2.149923086166382,69.98643493652344,35.89,2
-0.4333180487155914,-0.8168669939041138,0.0633597373962402,-6.818491458892822,2.149744987487793,69.99129486083984,35.89,2
-0.5355762243270874,-0.8488891124725342,0.0742472782731056,0.6900469064712524,2.149630784988404,69.99441528320312,35.89,2
-0.6571773290634155,-0.9422101378440856,-0.013927886262536,8.951449394226074,2.15277099609375,69.99641418457031,35.89,2
-0.5952695608139038,-1.0020982027053833,-0.059318084269762,14.50033950805664,2.1547861099243164,69.99769592285156,35.89,2
-0.5331496596336365,-1.0181398391723633,-0.0380669310688972,15.492591857910156,2.156079292297364,69.99851989746094,35.89,2
-0.5604579448699951,-0.9332722425460817,0.1099174171686172,13.073424339294434,2.156909227371216,69.99905395507812,35.89,2
-0.622765064239502,-0.8900046944618225,0.2272763550281524,9.045382499694824,2.1574418544769287,69.9993896484375,35.89,2
-0.6627501845359802,-0.8678358197212219,0.2522105872631073,4.296541690826416,2.1577837467193604,69.9996109008789,35.89,2
-0.7611813545227051,-0.8760002255439758,0.3521785736083984,-0.1052045300602912,2.158003091812134,69.99974822998047,35.89,2
-0.8299466371536255,-0.8644463419914246,0.4611144661903381,-2.6147255897521973,2.158143758773804,69.99983978271484,35.89,2
-0.8348917961120605,-0.8234450817108154,0.3966766595840454,-2.7455878257751465,2.158234119415283,69.9999008178711,35.89,2
-0.7876853346824646,-0.7915350794792175,0.3105419874191284,-1.604326844215393,2.158292055130005,69.99993896484375,35.89,2
-0.7294020652770996,-0.7598615288734436,0.1880924254655838,-0.6462290287017822,2.1583292484283447,69.99996185302734,35.89,2
-0.6472170352935791,-0.7451330423355103,0.0647291541099548,-0.4003822803497314,2.158353090286255,69.9999771118164,35.89,2
-0.6056709885597229,-0.741278886795044,-0.0368293970823287,-0.4289059340953827,2.1583683490753174,69.99998474121094,35.89,2
-0.5510202050209045,-0.7164143919944763,-0.1020038276910781,0.0041937590576708,2.15837836265564,69.99999237060547,35.89,2
-0.5271440744400024,-0.6780667304992676,-0.1214379295706749,1.2279322147369385,2.1583847999572754,69.99999237060547,35.89,2
-0.5454083681106567,-0.6478596329689026,-0.1395073980093002,2.5291481018066406,2.15838885307312,69.99999237060547,35.89,2
-0.646693766117096,-0.6340722441673279,-0.1790922135114669,2.3503243923187256,2.146456003189087,71.97041320800781,35.91,2
-0.750877320766449,-0.6420176029205322,-0.2212887853384018,0.2149931490421295,2.138798236846924,73.23491668701172,35.91,2
-0.8065407872200012,-0.6807031035423279,-0.2203792482614517,-1.6031615734100342,2.1338839530944824,74.04640197753906,35.91,2
-0.8030779361724854,-0.7223225831985474,-0.1862089186906814,0.0065475748851895,2.130730152130127,74.5671615600586,35.91,2
-0.7784646153450012,-0.7882159948348999,-0.1139003932476043,5.263422966003418,2.128706216812134,74.90135955810547,35.91,2
-0.7962558269500732,-0.8640891909599304,-0.0283125210553407,11.227184295654297,2.127407550811768,75.11582946777344,35.91,2
-0.8300642967224121,-0.907182514667511,0.0490039475262165,15.49862289428711,2.1265740394592285,75.25346374511719,35.91,2
-0.7845873236656189,-0.8620662093162537,0.0650345608592033,18.587297439575195,2.126039266586304,75.34178924560547,35.91,2
-0.7274139523506165,-0.8275154232978821,0.0585287623107433,22.1672592163086,2.132122755050659,75.39846801757812,35.91,2
-0.6963211297988892,-0.8221360445022583,0.031962614506483,26.202220916748047,2.136026859283448,75.43484497070312,35.91,2
-0.6539765000343323,-0.796292781829834,0.0261095408350229,28.57667350769043,2.1385321617126465,75.45819091796875,35.91,2
-0.6156066060066223,-0.768512487411499,0.0279511492699384,27.101842880249023,2.1401398181915283,75.4731674194336,35.91,2
-0.590982973575592,-0.7394891381263733,0.0179374385625123,21.505199432373047,2.14117169380188,75.48278045654297,35.91,2
-0.5583876371383667,-0.7096680998802185,0.0171089898794889,13.83304214477539,2.141833782196045,75.48895263671875,35.91,2
-0.5038831830024719,-0.6849328875541687,0.0333706624805927,6.899668216705322,2.142258644104004,75.49291229248047,35.91,2
-0.468905359506607,-0.6746570467948914,0.043806467205286,2.213778257369995,2.142531394958496,75.49545288085938,35.91,2
-0.4408608376979828,-0.6680625677108765,0.0505035668611526,-0.5784018039703369,2.1509692668914795,75.49708557128906,35.91,2
-0.4004723727703094,-0.6918194890022278,0.0603991523385047,-2.463409185409546,2.156384229660034,75.49813079833984,35.91,2
-0.3857489228248596,-0.7406519651412964,0.0667495727539062,-3.6229422092437744,2.1598591804504395,75.4988021850586,35.91,2
-0.3707025051116943,-0.8447608947753906,0.0932160019874572,-3.310204029083252,2.1620893478393555,75.49922943115234,35.91,2
-0.372242122888565,-0.989940881729126,0.1325917243957519,-1.078186273574829,2.163520574569702,75.49950408935547,35.91,2
-0.3732301592826843,-1.0999023914337158,0.1746541261672973,2.12756896018982,2.1644389629364014,75.49967956542969,35.91,2
-0.3682664334774017,-1.1760671138763428,0.1960495859384536,4.2815680503845215,2.1650283336639404,75.49979400634766,35.91,2
-0.3538854718208313,-1.213749647140503,0.2097799479961395,4.001565456390381,2.1654064655303955,75.49987030029297,35.91,2
-0.333461046218872,-1.1931499242782593,0.2129935324192047,2.059248685836792,2.16335391998291,75.49991607666016,35.91,2
-0.3203538060188293,-1.1183546781539917,0.2262513786554336,0.7232171893119812,2.162036657333374,75.49994659423828,35.91,2
-0.3175401091575622,-1.042366623878479,0.229161724448204,1.603378176689148,2.16119122505188,75.49996948242188,35.91,2
-0.3325277864933014,-0.9880040287971495,0.1862472295761108,4.926797866821289,2.160648822784424,75.4999771118164,35.91,2
-0.3589393198490143,-0.9699105620384216,0.1475116163492202,10.03311538696289,2.1603007316589355,75.49998474121094,35.91,2
-0.3982798159122467,-0.9862881302833556,0.1338488906621933,14.703678131103516,2.1600773334503174,75.49999237060547,35.91,2
-0.4123307466506958,-0.9688094258308412,0.1530698090791702,15.526352882385254,2.1599338054656982,75.49999237060547,35.91,2
-0.3989567160606384,-0.9352014660835266,0.1710024625062942,11.561748504638672,2.159841775894165,75.49999237060547,35.91,2
-0.3511896133422851,-0.896840512752533,0.1825105994939804,5.639124870300293,2.1561102867126465,76.8577880859375,35.89,2
-0.3037421107292175,-0.8890159726142883,0.1898958683013916,0.1222718581557273,2.1537156105041504,77.7291488647461,35.89,2
-0.2732930481433868,-0.9343746304512024,0.2058308571577072,-5.553341865539551,2.1521787643432617,78.28833770751953,35.89,2
-0.2817414700984955,-0.9690809845924376,0.1880681365728378,-11.588784217834473,2.1511926651000977,78.6471939086914,35.89,2
-0.3039565086364746,-0.9913535118103028,0.1542779505252838,-15.508557319641112,2.150559663772583,78.87748718261719,35.89,2
-0.2902239561080932,-1.0056467056274414,0.1549844592809677,-14.60268211364746,2.150153398513794,79.02527618408203,35.89,2
-0.270215630531311,-0.9868304133415222,0.1554378420114517,-9.002155303955078,2.149892807006836,79.1201171875,35.89,2
-0.2349843531847,-0.9467663168907166,0.1501310318708419,-2.409444093704224,2.1497256755828857,79.18097686767578,35.89,2
-0.2291682660579681,-0.9154577255249025,0.1411276459693908,0.126820221543312,2.14961838722229,79.22003936767578,35.89,2
-0.2310336232185363,-0.8953656554222107,0.1297520250082016,-3.411625385284424,2.1495494842529297,79.24510192871094,35.89,2
-0.271415114402771,-0.9104605913162231,0.1168540269136428,-10.174946784973145,2.149505138397217,79.26118469238281,35.89,2
-0.3085251748561859,-0.9369409680366516,0.1029790565371513,-15.937538146972656,2.149476766586304,79.2715072631836,35.89,2
-0.3491336107254028,-1.015510082244873,0.0828793570399284,-18.847471237182617,2.149458646774292,79.27812957763672,35.89,2
-0.3695959746837616,-1.060333490371704,0.0755782946944236,-18.959436416625977,2.149446964263916,79.28237915039062,35.89,2
-0.3939231038093567,-1.1058918237686155,0.0820884481072425,-16.641712188720703,2.1494393348693848,79.28511047363281,35.89,2
-0.3871437609195709,-1.0623575448989868,0.0806685164570808,-12.639361381530762,2.1494345664978027,79.286865234375,35.89,2
-0.3715976178646087,-1.0008330345153809,0.0629639625549316,-7.83177375793457,2.1503496170043945,79.2879867553711,35.89,2
-0.356023222208023,-1.0061323642730713,0.0460044220089912,-2.220824956893921,2.1509368419647217,79.28871154785156,35.89,2
-0.3572240173816681,-1.0375220775604248,0.0519140884280204,4.378575325012207,2.151313781738281,79.28917694091797,35.89,2
-0.3747879564762115,-1.0464706420898438,0.0557065717875957,10.440803527832031,2.1515557765960693,79.28947448730469,35.89,2
-0.3916572332382202,-1.018626689910889,0.0357492715120315,13.485705375671388,2.1517109870910645,79.28966522216797,35.89,2
-0.3856896460056305,-0.9839646816253662,0.0229418240487575,13.057334899902344,2.151810646057129,79.28978729248047,35.89,2
-0.3594689071178436,-0.9561228156089784,0.0091249672695994,11.05562973022461,2.151874542236328,79.28986358642578,35.89,2
-0.3426419496536255,-0.9326577186584472,-0.0053396704606711,8.735686302185059,2.1519155502319336,79.28990936279297,35.89,2
-0.3262456059455871,-0.9231969714164734,-0.0146222421899437,5.527244091033936,2.149646759033203,79.2899398803711,35.89,2
-0.3045278191566467,-0.9395166635513306,-0.0205792617052793,1.4799209833145142,2.14819073677063,79.28996276855469,35.89,2
-0.279395043849945,-0.9555875062942504,-0.0188043601810932,-1.429102063179016,2.147256374359131,79.28997802734375,35.89,2
-0.2688640356063843,-1.0162807703018188,0.0159213151782751,-1.637213110923767,2.1466567516326904,79.28998565673828,35.89,2
-0.1893347799777984,-1.1112079620361328,0.0661951303482055,-0.0475480183959007,2.1462719440460205,79.28999328613281,35.89,2
-0.0543308705091476,-1.149735689163208,0.0984579697251319,1.1409887075424194,2.1460251808166504,79.28999328613281,35.89,2
-0.0012797788949683,-1.1016895771026611,0.0911735296249389,0.244990587234497,2.145866632461548,79.28999328613281,35.89,2
0.0047764857299625,-1.065258502960205,0.0920965671539306,-3.651057004928589,2.1457650661468506,79.28999328613281,35.89,2
-0.0920968875288963,-1.0194880962371826,0.070297822356224,-10.36084270477295,2.145240545272827,80.26087188720703,35.91,2
-0.1934490650892257,-0.9509308338165284,0.0339175462722778,-17.572265625,2.144903898239136,80.88392639160156,35.91,2
-0.2640888392925262,-0.8845435976982117,0.0105707803741097,-21.730823516845703,2.1446878910064697,81.28376770019531,35.91,2
-0.2814325094223022,-0.8083534836769104,-0.0100096045061945,-21.142986297607425,2.144549369812012,81.54036712646484,35.91,2
-0.2813671231269836,-0.7594590187072754,-0.0288146845996379,-17.315725326538086,2.144460439682007,81.70503234863281,35.91,2
-0.2757273912429809,-0.7392769455909729,-0.0352849289774894,-12.95009708404541,2.1444032192230225,81.81070709228516,35.91,2
-0.2944992184638977,-0.7711074352264404,-0.0394371598958969,-9.743657112121582,2.144366502761841,81.87852478027344,35.91,2
-0.3345347940921783,-0.8810988068580627,-0.0365040488541126,-8.033458709716797,2.1443428993225098,81.92204284667969,35.91,2
-0.460987240076065,-1.0636404752731323,0.0213559959083795,-7.204644680023193,2.142491817474365,81.9499740600586,35.91,2
-0.5365393757820129,-1.136003017425537,0.0472916960716247,-6.353910446166992,2.141303777694702,81.9678955078125,35.91,2
-0.4562755823135376,-1.176843285560608,0.0079579902812838,-5.213250637054443,2.1405415534973145,81.97940063476562,35.91,2
-0.2648225426673889,-1.2198455333709717,0.0330958515405654,-4.194634437561035,2.140052318572998,81.98677825927734,35.91,2
-0.1139701232314109,-1.2586374282836914,0.0716189816594123,-3.630509614944458,2.1397383213043213,81.99151611328125,35.91,2
0.3858780562877655,-1.233151912689209,0.3258496522903442,-3.522849798202514,2.1395368576049805,81.99455261230469,35.91,2
0.4827408492565155,-1.1272324323654177,0.3826425671577453,-3.851425886154175,2.1394076347351074,81.99650573730469,35.91,2
0.3657730221748352,-1.104041576385498,0.3575134575366974,-4.610421180725098,2.13932466506958,81.99775695800781,35.91,2
0.2515254020690918,-1.0387790203094482,0.36377814412117,-5.556070327758789,2.13881254196167,81.9985580444336,35.91,2
0.1726100742816925,-0.9745061993598938,0.3454073667526245,-6.231002330780029,2.138483762741089,81.99907684326172,35.91,2
0.0827823355793953,-0.9108684659004213,0.2440536618232727,-6.277216911315918,2.138272762298584,81.99940490722656,35.91,2
0.0083427457138895,-0.8756272196769714,0.1454240381717682,-5.884130477905273,2.1381375789642334,81.99961853027344,35.91,2
-0.0954060479998588,-0.8586091995239258,0.054140355437994,-5.653365612030029,2.1380507946014404,81.999755859375,35.91,2
-0.2067682445049286,-0.8476880192756653,-0.0100380331277847,-5.773967266082764,2.1379950046539307,81.99983978271484,35.91,2
-0.2838318645954132,-0.8574727177619934,-0.0456262528896331,-5.539678573608398,2.137959241867065,81.9999008178711,35.91,2
-0.3108957707881927,-0.9253275394439696,-0.0236825291067361,-4.053024768829346,2.137936353683472,81.99993896484375,35.91,2
-0.3282638192176819,-1.0360461473464966,0.0015952385729178,-1.117811679840088,2.133330821990967,81.99996185302734,35.91,2
-0.3338118493556976,-1.207858920097351,0.034610379487276,2.66102147102356,2.130375385284424,81.9999771118164,35.91,2
-0.3149811625480652,-1.1725763082504272,0.0278087239712476,6.203823089599609,2.128478765487671,81.99998474121094,35.91,2
-0.2805056273937225,-1.1331406831741333,0.0066504888236522,8.42723274230957,2.1272614002227783,81.99999237060547,35.91,2
-0.2359901070594787,-1.124626398086548,0.0098656751215457,8.876046180725098,2.1264803409576416,81.99999237060547,35.91,2
-0.2186181545257568,-1.1079668998718262,0.0343200974166393,7.942410469055176,2.125978946685791,81.99999237060547,35.91,2
-0.2466542571783065,-1.0748847723007202,0.0612090826034545,6.404622077941895,2.125657320022583,81.99999237060547,35.91,2
-0.2814395427703857,-0.9864811897277832,0.0728671103715896,4.930527687072754,2.125450849533081,81.99999237060547,35.91,2
-0.298164963722229,-0.9129555821418762,0.0803485661745071,3.9487128257751465,2.12715482711792,82.6771011352539,35.89,2
-0.2865072786808014,-0.8601732850074768,0.0851497277617454,3.662567853927612,2.12824821472168,83.11163330078125,35.89,2
-0.267830491065979,-0.843093991279602,0.0882308408617973,4.163208484649658,2.128949880599976,83.39048767089844,35.89,2
-0.2110626101493835,-0.8769156336784363,0.0734147951006889,5.319231033325195,2.1294002532958984,83.56944274902344,35.89,2
-0.1242522820830345,-0.9210115671157836,0.041515614837408,6.412191867828369,2.129689216613769,83.68428802490234,35.89,2
-0.051749087870121,-0.9325164556503296,0.0210445579141378,6.51530122756958,2.1298747062683105,83.75798797607422,35.89,2
0.0059748324565589,-0.8951174020767212,0.0414940565824508,5.632088661193848,2.1299936771392822,83.80528259277344,35.89,2
0.0150298522785305,-0.8935079574584961,0.0714106932282447,4.771522045135498,2.130070209503174,83.83563232421875,35.89,2
-0.0071480288170278,-0.9204639792442322,0.0682183727622032,4.441379547119141,2.1324141025543213,83.85511016845703,35.89,2
-0.1165426820516586,-0.9769472479820251,0.0045942012220621,3.839012622833252,2.133918285369873,83.86760711669922,35.89,2
-0.209136962890625,-1.0355859994888306,-0.0530294515192508,2.026583194732666,2.134883642196656,83.87562561035156,35.89,2
-0.2461675554513931,-1.1235970258712769,-0.1124000921845436,-0.3044494390487671,2.135503053665161,83.88077545166016,35.89,2
-0.258736103773117,-1.2024685144424438,-0.1505007445812225,-0.8008334040641785,2.1359007358551025,83.88407897949219,35.89,2
-0.2723996639251709,-1.2250947952270508,-0.1525604575872421,2.5276780128479004,2.136155843734741,83.88619995117188,35.89,2
-0.2531792521476745,-1.1332573890686035,-0.1091000661253929,9.2315092086792,2.136319637298584,83.88755798339844,35.89,2
-0.2184536159038543,-1.057528018951416,-0.0644163712859153,16.292224884033203,2.136424779891968,83.88843536376953,35.89,2
-0.16258205473423,-1.0089292526245115,0.0034434788394719,20.2967472076416,2.1328201293945312,83.88899230957031,35.89,2
-0.1435202211141586,-0.96094810962677,0.0469920225441455,20.10087013244629,2.130506753921509,83.88935089111328,35.89,2
-0.1648740768432617,-0.8797765970230103,0.0413523241877555,17.399295806884766,2.129022121429444,83.88957977294922,35.89,2
-0.1841755360364914,-0.8332831263542175,0.0265375413000583,14.730528831481934,2.128069400787353,83.88973236083984,35.89,2
-0.2021598666906356,-0.8202396631240845,0.0226280409842729,13.171918869018556,2.127458095550537,83.88983154296875,35.89,2
-0.2360922843217849,-0.8398579955101013,0.048108022660017,11.705958366394045,2.127065896987915,83.889892578125,35.89,2
-0.263465940952301,-0.8636434078216553,0.0756551548838615,8.253803253173828,2.126814126968384,83.88993072509766,35.89,2
-0.2754350006580353,-0.8957008719444275,0.0989310964941978,1.689162254333496,2.126652479171753,83.88995361328125,35.89,2
-0.2719205021858215,-0.9218712449073792,0.1138682514429092,-6.665103435516357,2.1247124671936035,83.88996887207031,35.89,2
-0.2640673220157623,-0.9554592370986938,0.1290518343448639,-14.01471996307373,2.123467445373535,83.88997650146484,35.89,2
-0.2534298300743103,-0.9826118350028992,0.133198007941246,-18.648881912231445,2.122668504714966,83.88998413085938,35.89,2
-0.2466032952070236,-0.9944390654563904,0.1302610039710998,-20.85256576538086,2.1221556663513184,83.8899917602539,35.89,2
-0.2646135091781616,-1.0076268911361694,0.1283762156963348,-21.467849731445312,2.121826648712158,83.8899917602539,35.89,2
-0.2761714458465576,-1.060872197151184,0.1439599841833114,-20.74493980407715,2.121615409851074,83.8899917602539,35.89,2
-0.3059797585010528,-1.151019811630249,0.170754075050354,-18.61153793334961,2.121479749679565,83.8899917602539,35.89,2
-0.3586956560611725,-1.1752846240997314,0.2047422975301742,-15.318599700927734,2.1213927268981934,83.8899917602539,35.89,2
-0.3645368218421936,-1.1236830949783323,0.192967340350151,-11.718612670898438,2.120877981185913,84.3951416015625,35.91,2
-0.3235031366348266,-1.1241549253463743,0.1910086274147033,-8.73840618133545,2.1205477714538574,84.71931457519531,35.91,2
-0.2076056897640228,-1.1972287893295288,0.1897516399621963,-6.134444713592529,2.120335817337036,84.92735290527344,35.91,2
-0.116436056792736,-1.2609167098999023,0.1721516549587249,-2.489373207092285,2.120199680328369,85.06085968017578,35.91,2
-0.0915152803063392,-1.2737990617752075,0.116074800491333,3.106385469436645,2.120112419128418,85.14653778076172,35.91,2
-0.0867181122303009,-1.2484794855117798,0.0800879001617431,10.072206497192385,2.120056390762329,85.2015151977539,35.91,2
-0.1955950558185577,-1.1874487400054932,0.0625913515686988,16.702762603759766,2.1200203895568848,85.23680114746094,35.91,2
-0.0807394534349441,-1.1482826471328735,0.1241341456770896,20.728588104248047,2.119997262954712,85.25944519042969,35.91,2
-0.0070317382924258,-1.0671703815460205,0.1636287719011306,20.52846908569336,2.120441436767578,85.27397155761719,35.91,2
-0.0213058870285749,-1.0095194578170776,0.1497897207736969,16.828216552734375,2.120726585388184,85.28329467773438,35.91,2
-0.0696506351232528,-0.9613268375396729,0.0737353265285492,12.14284610748291,2.1209094524383545,85.2892837524414,35.91,2
-0.1286643892526626,-0.8968129754066467,0.0025368928909301,8.086350440979004,2.1210267543792725,85.29312133789062,35.91,2
-0.1609382331371307,-0.8050317168235779,-0.0375563874840736,4.34744930267334,2.121102094650269,85.29558563232422,35.91,2
-0.1816497296094894,-0.7237406969070435,-0.052090398967266,0.292887419462204,2.121150493621826,85.29716491699219,35.91,2
-0.172550082206726,-0.6659749746322632,-0.0446241684257984,-3.777952909469605,2.1211814880371094,85.29817962646484,35.91,2
-0.1667104512453079,-0.6680886745452881,-0.0510283187031745,-7.139142036437988,2.121201276779175,85.29883575439453,35.91,2
-0.1685606837272644,-0.7086295485496521,-0.0551381334662437,-9.33556842803955,2.119378089904785,85.29925537109375,35.91,2
-0.1809436082839965,-0.8354063034057617,-0.0689711272716522,-10.05725383758545,2.1182079315185547,85.29952239990234,35.91,2
-0.1944880336523056,-1.0007309913635254,-0.0946416705846786,-8.954804420471191,2.117457151412964,85.29969787597656,35.91,2
-0.214375615119934,-1.2747600078582764,-0.1614955216646194,-6.033284187316895,2.1169753074646,85.2998046875,35.91,2
-0.2719205021858215,-1.4394205808639526,-0.2099962383508682,-2.07336163520813,2.116666078567505,85.29987335205078,35.91,2
-0.3424361646175384,-1.4443303346633911,-0.1851434707641601,1.5569918155670166,2.1164674758911133,85.29991912841797,35.91,2
-0.3764935135841369,-1.3467211723327637,-0.0348478071391582,3.59297251701355,2.116340160369873,85.2999496459961,35.91,2
-0.353567361831665,-1.2784833908081057,0.0783966183662414,3.491595506668091,2.116258382797241,85.29997253417969,35.91,2
-0.260485827922821,-1.184312343597412,0.10069040954113,1.7749701738357544,2.1134517192840576,85.29998016357422,35.91,2
-0.234338104724884,-1.0790966749191284,0.0478239841759204,-0.0610890686511993,2.1116504669189453,85.29998779296875,35.91,2
-0.2007646709680557,-0.9947819709777832,0.0306906793266534,-0.5730072259902954,2.110494613647461,85.29999542236328,35.91,2
-0.1736214011907577,-0.9350758790969848,0.0364888347685337,0.1911586821079254,2.109752893447876,85.29999542236328,35.91,2
-0.1729957461357116,-0.8911621570587158,0.0290142074227333,0.7890337109565735,2.10927677154541,85.29999542236328,35.91,2
-0.2173764258623123,-0.8685786128044128,0.0242174230515956,0.2519935667514801,2.108971357345581,85.29999542236328,35.91,2
-0.301835149526596,-0.8764768838882446,0.0211391225457191,-0.8808146119117737,2.1087751388549805,85.29999542236328,35.91,2
-0.3840247690677643,-0.9039366245269777,0.0303591955453157,-1.8979742527008057,2.108649253845215,85.29999542236328,35.91,2
-0.4647581875324249,-0.9383520483970642,0.0866560786962509,-3.0845324993133545,2.10765027999878,85.64750671386719,35.91,2
-0.5053727030754089,-0.954840123653412,0.1451752781867981,-4.781049728393555,2.107009172439575,85.87052154541016,35.91,2
-0.5090456604957581,-0.9486278891563416,0.2107183933258056,-6.188625812530518,2.106597900390625,86.01363372802734,35.91,2
-0.4890116751194,-0.9446412324905396,0.2807690799236297,-5.877434253692627,2.10633397102356,86.10547637939453,35.91,2
-0.4481661319732666,-0.9476805925369264,0.3425168991088867,-2.937059164047241,2.1061644554138184,86.16441345214844,35.91,2
-0.3883671760559082,-0.983217716217041,0.3877408504486084,2.317525625228882,2.106055736541748,86.20223999023438,35.91,2
-0.377980500459671,-1.0508055686950684,0.4279585480690002,7.839160919189453,2.105985879898072,86.22651672363281,35.91,2
-0.3881082534790039,-1.127766251564026,0.4537679553031921,10.669695854187012,2.1059410572052,86.24209594726562,35.91,2
-0.3834121227264404,-1.1715574264526367,0.4591353833675384,9.612944602966309,2.102699279785156,86.25209045410156,35.91,2
-0.3636050820350647,-1.2164534330368042,0.4569821059703827,6.298007011413574,2.100618839263916,86.25850677490234,35.91,2
-0.3061118721961975,-1.340427279472351,0.43880695104599,3.0134992599487305,2.099283695220948,86.26262664794922,35.91,2
-0.2468249499797821,-1.431182026863098,0.4159476161003113,0.9056912064552308,2.098426818847656,86.26526641845703,35.91,2
-0.2143757939338684,-1.4334454536437988,0.3732889592647552,0.3841788172721863,2.097877025604248,86.26696014404297,35.91,2
-0.2215406596660614,-1.378920316696167,0.3291197717189789,1.4001331329345703,2.0975241661071777,86.26805114746094,35.91,2
-0.1645631343126297,-1.31034255027771,0.323165625333786,2.987166404724121,2.0972976684570312,86.26874542236328,35.91,2
-0.0608249567449092,-1.1655733585357666,0.3081490397453308,3.930398941040039,2.0971524715423584,86.26919555664062,35.91,2
0.0225415639579296,-1.0502777099609375,0.2873167097568512,4.087889194488525,2.099813461303711,86.26948547363281,35.91,2
-0.0359140932559967,-0.9371031522750854,0.206774428486824,4.310765266418457,2.1015210151672363,86.26966857910156,35.91,2
-0.1070142164826393,-0.8308876156806946,0.1270981580018997,4.969685077667236,2.102616786956787,86.26978302001953,35.91,2
-0.1526421755552292,-0.7515290379524231,0.0703687295317649,5.163257122039795,2.1033201217651367,86.26985931396484,35.91,2
-0.1875213533639907,-0.6670146584510803,0.0283652767539024,3.8723630905151367,2.103771448135376,86.26990509033203,35.91,2
-0.2043070197105407,-0.5959848165512085,0.0070076528936624,1.539259672164917,2.1040611267089844,86.26993560791016,35.91,2
-0.1870902329683303,-0.5504019856452942,-0.001100666122511,-0.1371205300092697,2.104247093200684,86.26995849609375,35.91,2
-0.1200637444853782,-0.5491384267807007,-0.017499666661024,0.3419130146503448,2.1043663024902344,86.26997375488281,35.91,2
-0.0882455483078956,-0.6043052673339844,-0.0392191521823406,3.511806964874268,2.103065729141236,86.26998138427734,35.91,2
-0.1685864031314849,-0.908401370048523,-0.0419619157910347,9.393749237060549,2.102231025695801,86.26998901367188,35.91,2
-0.2705245018005371,-1.2323015928268433,-0.0381242893636226,17.96192741394043,2.10169529914856,86.26998901367188,35.91,2
-0.3415402770042419,-1.4177709817886353,-0.0132704246789217,28.465347290039062,2.101351499557495,86.26998901367188,35.91,2
-0.4151029884815216,-1.4528279304504397,0.0866459757089614,38.13638687133789,2.101130962371826,86.26998901367188,35.91,2
-0.5126912593841553,-1.430543303489685,0.1507665663957595,42.66605758666992,2.10098934173584,86.26998901367188,35.91,2
-0.5529267191886902,-1.332275629043579,0.1135466247797012,38.76604461669922,2.100898504257202,86.26998901367188,35.91,2
-0.5451608896255493,-1.2244309186935425,0.0560743659734725,25.88810157775879,2.1008403301239014,86.26998901367188,35.91,2
-0.4786016941070556,-1.1160379648208618,0.0191919766366481,6.747080326080322,2.0966715812683105,86.64974975585938,35.93,2
-0.3239323496818542,-1.0240864753723145,0.0459029525518417,-12.472393035888672,2.093996286392212,86.8934555053711,35.93,2
-0.2078811377286911,-0.9482840299606324,0.0574467442929744,-24.98905563354492,2.0922794342041016,87.04985046386719,35.93,2
-0.239763855934143,-0.8996383547782898,0.053659338504076,-28.77975845336914,2.091177701950073,87.15021514892578,35.93,2
-0.3162021040916443,-0.8684203624725342,0.0456310249865055,-27.16410446166992,2.090470552444458,87.2146224975586,35.93,2
-0.415635734796524,-0.8483864665031433,0.0628700107336044,-23.673206329345703,2.090016841888428,87.2559585571289,35.93,2
-0.479446530342102,-0.8523231744766235,0.0627374500036239,-19.201004028320312,2.0897257328033447,87.28248596191406,35.93,2
-0.5036032795906067,-0.8660451173782349,0.0682501569390297,-13.919927597045898,2.089538812637329,87.29950714111328,35.93,2
-0.5023123621940613,-0.8804488182067871,0.0941789895296096,-8.843443870544434,2.0862057209014893,87.31043243408203,35.93,2
-0.4958861768245697,-0.8840945363044739,0.1220141723752021,-5.252469062805176,2.08406662940979,87.31744384765625,35.93,2
-0.4805666506290436,-0.8864341378211975,0.1230838671326637,-4.130238056182861,2.0826938152313232,87.32194519042969,35.93,2
-0.4987243413925171,-0.904728889465332,0.1349658817052841,-5.88919734954834,2.081812858581543,87.3248291015625,35.93,2
-0.5047791004180908,-0.922067165374756,0.1537866294384002,-9.49713897705078,2.081247568130493,87.3266830444336,35.93,2
-0.4694803059101105,-0.983573853969574,0.1770602464675903,-12.59350872039795,2.0808846950531006,87.32787322998047,35.93,2
-0.4356320202350616,-1.0566319227218628,0.225582554936409,-13.88197898864746,2.080651998519897,87.3286361694336,35.93,2
-0.3019546568393707,-1.1818852424621582,0.3238946795463562,-14.497472763061523,2.080502510070801,87.3291244506836,35.93,2
-0.0706260949373245,-1.3126455545425415,0.437365710735321,-16.06396484375,2.081324577331543,87.32943725585938,35.93,2
0.0778272673487663,-1.3629733324050903,0.4598049223423004,-18.83545684814453,2.0818521976470947,87.32964324951172,35.93,2
0.0219561848789453,-1.344890832901001,0.306271880865097,-22.2047061920166,2.082190752029419,87.32977294921875,35.93,2
-0.1090608164668083,-1.3276888132095337,0.2021454423666,-25.008176803588867,2.0824079513549805,87.3298568725586,35.93,2
-0.1483577936887741,-1.154314041137695,0.2080941498279571,-25.345592498779297,2.082547426223755,87.32991027832031,35.93,2
-0.0728163942694664,-1.0710409879684448,0.2343027889728546,-22.187339782714844,2.082636833190918,87.32994079589844,35.93,2
-0.147489309310913,-1.045590043067932,0.1895464658737182,-17.126113891601562,2.082694292068481,87.32996368408203,35.93,2
-0.2457900643348693,-1.0740392208099363,0.1048466861248016,-12.90364933013916,2.082731008529663,87.3299789428711,35.93,2
-0.3144716024398803,-1.1090896129608154,0.0113068241626024,-10.652483940124512,2.080000400543213,87.32998657226562,35.93,2
-0.3529496788978576,-1.0923985242843628,-0.099101647734642,-9.648472785949709,2.0782480239868164,87.32999420166016,35.93,2
-0.2824805378913879,-1.0704915523529053,-0.113977700471878,-9.115216255187988,2.0771234035491943,87.32999420166016,35.93,2
-0.2204641699790954,-1.0676285028457642,-0.1235243007540702,-9.013035774230955,2.076401710510254,87.32999420166016,35.93,2
-0.1974589526653289,-1.0713889598846436,-0.1184552088379859,-9.366622924804688,2.0759387016296387,87.32999420166016,35.93,2
-0.2162821739912033,-1.0570088624954224,-0.1096043810248375,-9.7404203414917,2.075641393661499,87.32999420166016,35.93,2
-0.2283618450164795,-1.0253894329071045,-0.0927288830280304,-9.170639991760254,2.0754506587982178,87.32999420166016,35.93,2
-0.2641027569770813,-0.9603157043457032,-0.1266813576221466,-5.8887715339660645,2.0753283500671387,87.32999420166016,35.93,2
-0.2926369905471802,-0.9185551404953004,-0.1708611994981765,2.121427059173584,2.068823337554932,87.57003021240234,35.91,2
-0.2661664187908172,-0.8973534107208252,-0.1992132663726806,15.218812942504885,2.0646488666534424,87.72406768798828,35.91,2
-0.2491791248321533,-0.8781495690345764,-0.21181021630764,31.168865203857425,2.061969995498657,87.82292175292969,35.91,2
-0.1934954673051834,-0.8882167339324951,-0.1919053494930267,46.35580825805664,2.060250759124756,87.88636016845703,35.91,2
-0.1409675776958465,-0.9450572729110718,-0.1287515759468078,57.169525146484375,2.059147357940674,87.92707061767578,35.91,2
-0.118453748524189,-1.0095231533050537,-0.0658320263028144,61.00663375854492,2.058439254760742,87.95320129394531,35.91,2
-0.1543856412172317,-1.067686915397644,0.0473171845078468,57.18523025512695,2.0579848289489746,87.969970703125,35.91,2
-0.2502157390117645,-1.0322420597076416,0.1479187160730362,46.65774917602539,2.0576932430267334,87.98072814941406,35.91,2
-0.4348649978637695,-0.9535177946090698,0.2180767506361007,31.708467483520508,2.050161123275757,87.98763275146484,35.91,2
-0.5981444716453552,-0.9533770680427552,0.2127201706171035,16.68727684020996,2.045327425003052,87.9920654296875,35.91,2
-0.674938976764679,-0.9588845372200012,0.1812937557697296,6.262957572937012,2.0422255992889404,87.99491119384766,35.91,2
-0.7298189997673035,-0.9960055351257324,0.1275394409894943,1.27495276927948,2.0402348041534424,87.99673461914062,35.91,2
-0.6474846005439758,-0.9974365830421448,0.0930430218577385,-1.2811981439590454,2.038957357406616,87.9979019165039,35.91,2
-0.5106804966926575,-0.9927572011947632,0.1436762660741806,-3.741998195648194,2.038137435913086,87.9986572265625,35.91,2
-0.4788652658462524,-0.9673631191253662,0.2377452850341797,-5.890827655792236,2.037611246109009,87.99913787841797,35.91,2
-0.5592080354690552,-0.9566644430160522,0.247733399271965,-7.0405378341674805,2.037273645401001,87.99944305419922,35.91,2
-0.6051695942878723,-0.9274075627326964,0.147785484790802,-7.226639270782471,2.0453197956085205,87.99964141845703,35.91,2
-0.6346650719642639,-0.8806433081626892,0.0444602482020854,-6.708369731903076,2.050483465194702,87.99977111816406,35.91,2
-0.6423980593681335,-0.8058505058288574,-0.0106523940339684,-5.806144714355469,2.0537972450256348,87.9998550415039,35.91,2
-0.5689917802810669,-0.6962772607803345,-0.023629417642951,-4.790074348449707,2.0559237003326416,87.99990844726562,35.91,2
-0.4994927644729614,-0.5979706048965454,-0.0375550985336303,-3.2280447483062744,2.057288408279419,87.99993896484375,35.91,2
-0.4436967372894287,-0.5068941712379456,-0.0688828974962234,-0.2659552991390228,2.058164119720459,87.99996185302734,35.91,2
-0.3966945111751556,-0.4652398526668548,-0.1113783717155456,3.311588764190674,2.0587260723114014,87.9999771118164,35.91,2
-0.3385423123836517,-0.5224751234054565,-0.2114205807447433,4.081273555755615,2.059086799621582,87.99998474121094,35.91,2
-0.5139390230178833,-0.5983898639678955,-0.4211640357971191,-0.7879032492637634,2.063449621200561,87.99999237060547,35.91,2
-0.7272584438323975,-0.6247164607048035,-0.6229386329650879,-9.27219295501709,2.0662496089935303,87.99999237060547,35.91,2
-0.8473612666130066,-0.6584047079086304,-0.758023738861084,-15.90633773803711,2.06804633140564,87.99999237060547,35.91,2
-0.9076430201530457,-0.6856216192245483,-0.8279202580451965,-17.695354461669922,2.069199323654175,87.99999237060547,35.91,2
-0.8511661887168884,-0.6750990152359009,-0.8112002611160278,-16.310562133789062,2.069939374923706,87.99999237060547,35.91,2
-0.6917716264724731,-0.6963350772857666,-0.7109059691429138,-14.984807968139648,2.0704143047332764,87.99999237060547,35.91,2
-0.5670902729034424,-0.7435498237609863,-0.635347306728363,-15.627949714660645,2.070719003677368,87.99999237060547,35.91,2
-0.5094680190086365,-0.7738495469093323,-0.5924558639526367,-18.30486869812012,2.0709145069122314,87.99999237060547,35.91,2
-0.4836849272251129,-0.7709030508995056,-0.5593328475952148,-21.814048767089844,2.0664496421813965,88.17912292480469,35.93,2
-0.4615410566329956,-0.7130343914031982,-0.5212830901145935,-24.78255271911621,2.063584327697754,88.29408264160156,35.93,2
-0.4361348450183868,-0.6479087471961975,-0.4856694042682647,-26.365137100219727,2.0617456436157227,88.36785125732422,35.93,2
-0.3974395096302032,-0.6005170941352844,-0.4572167992591858,-26.11251640319824,2.060565710067749,88.41519165039062,35.93,2
-0.3614115118980407,-0.603690505027771,-0.4165664613246918,-24.17702293395996,2.0598084926605225,88.44557189941406,35.93,2
-0.349486380815506,-0.6113247871398926,-0.3904794156551361,-21.2690372467041,2.059322595596313,88.46507263183594,35.93,2
-0.3194424211978912,-0.6554084420204163,-0.3401516079902649,-17.50767707824707,2.0590107440948486,88.47758483886719,35.93,2
-0.3113574683666229,-0.7620676755905151,-0.2574741542339325,-12.39259147644043,2.058810472488404,88.4856185913086,35.93,2
-0.3117668032646179,-0.8641020655632019,-0.1820254176855087,-6.519821643829346,2.059600114822388,88.49076843261719,35.93,2
-0.3064317107200622,-0.9687662720680236,-0.1112156584858894,-1.6726608276367188,2.0601069927215576,88.49407196044922,35.93,2
-0.3253990411758423,-1.0583248138427734,-0.0713718086481094,1.3591513633728027,2.060432195663452,88.4961929321289,35.93,2
-0.3431689739227295,-1.1549828052520752,-0.0514000914990901,3.874423503875733,2.060641050338745,88.49755859375,35.93,2
-0.3489749133586883,-1.194621205329895,-0.0497789420187473,7.899653911590576,2.0607750415802,88.4984359741211,35.93,2
-0.363896369934082,-1.1920700073242188,-0.043140809983015,14.151371955871582,2.0608608722686768,88.49899291992188,35.93,2
-0.4014609754085541,-1.151248335838318,-0.0220875144004821,21.076000213623047,2.060915946960449,88.49935150146484,35.93,2
-0.4535566568374634,-1.1082580089569092,0.0026188278570771,25.981979370117188,2.060951471328736,88.49958038330078,35.93,2
-0.5037819743156433,-1.002300500869751,0.0184739362448453,27.4357967376709,2.0623512268066406,88.4997329711914,35.93,2
-0.5080248117446899,-0.911911964416504,0.0118555091321468,26.13324546813965,2.063249588012696,88.49983215332031,35.93,2
-0.4995521008968353,-0.8818946480751038,0.00201040902175,23.301847457885746,2.063826084136963,88.49989318847656,35.93,2
-0.365365982055664,-0.9018157124519348,0.0740612298250198,19.20630073547364,2.0641961097717285,88.49993133544922,35.93,2
-0.2904486060142517,-0.9537842869758606,0.1482881754636764,13.790771484375,2.0644335746765137,88.49995422363281,35.93,2
-0.3039464652538299,-0.998330295085907,0.1455427855253219,8.015382766723633,2.06458592414856,88.49996948242188,35.93,2
-0.2902175188064575,-0.9821351766586304,0.1381831765174865,3.277289390563965,2.064683675765991,88.4999771118164,35.93,2
-0.2870048284530639,-0.9493509531021118,0.1390579789876938,-0.2828196287155151,2.064746379852295,88.49998474121094,35.93,2
-0.2905409038066864,-0.9059208631515504,0.1284238249063491,-3.7604901790618896,2.062950372695923,88.49999237060547,35.93,2
-0.2872123718261719,-0.8724521398544312,0.1215994358062744,-8.123891830444336,2.061797618865967,88.49999237060547,35.93,2
-0.2850763201713562,-0.8733649253845215,0.1228177100419998,-13.793715476989746,2.061057806015014,88.49999237060547,35.93,2
-0.2893032729625702,-0.8851462602615356,0.1291972994804382,-20.76407623291016,2.0605831146240234,88.49999237060547,35.93,2
-0.2920159101486206,-0.8983045816421509,0.1388891339302063,-28.32543182373047,2.060278415679932,88.49999237060547,35.93,2
-0.3273433744907379,-0.9179444313049316,0.1507065743207931,-35.08738708496094,2.0600829124450684,88.49999237060547,35.93,2
-0.3332211673259735,-0.9193525910377502,0.1470947712659835,-39.26202392578125,2.059957504272461,88.49999237060547,35.93,2
-0.3257976472377777,-0.9146584868431092,0.1447769254446029,-39.1538200378418,2.059877157211304,88.49999237060547,35.93,2
-0.3210336565971374,-0.90604829788208,0.1376916915178299,-34.5775032043457,2.0598254203796387,88.67912292480469,35.93,2
-0.3291719555854797,-0.900522768497467,0.1331447958946228,-27.43115997314453,2.059792280197144,88.79408264160156,35.93,2
-0.3399924337863922,-0.908172369003296,0.1246290877461433,-20.004064559936523,2.0597710609436035,88.86785125732422,35.93,2
-0.3469363749027252,-0.941070318222046,0.1191641986370086,-13.432164192199709,2.0597574710845947,88.91519165039062,35.93,2
-0.3737837076187134,-1.0405511856079102,0.1212549209594726,-7.710015773773193,2.059748649597168,88.94557189941406,35.93,2
-0.4134038686752319,-1.1099900007247925,0.1169988512992858,-1.8202557563781736,2.059742927551269,88.96507263183594,35.93,2
-0.4332320392131805,-1.1433563232421875,0.1030720025300979,5.5742716789245605,2.059739351272583,88.97758483886719,35.93,2
-0.3955766558647156,-1.080802321434021,0.0661456808447837,14.432450294494627,2.059736967086792,88.9856185913086,35.93,2
-0.3546182811260223,-1.0462565422058103,0.0368507169187068,22.78255653381348,2.0588176250457764,88.99076843261719,35.93,2
-0.3283335268497467,-1.1192492246627808,0.0012575699947774,28.40628433227539,2.058227777481079,88.99407196044922,35.93,2
-0.3562476933002472,-1.1660916805267334,-0.032779611647129,30.50700569152832,2.057849168777466,88.9961929321289,35.93,2
-0.3741613924503326,-1.1681636571884155,-0.0658182650804519,29.580190658569336,2.0576062202453613,88.99755859375,35.93,2
-0.3576685190200805,-1.1191133260726929,-0.087020568549633,26.305648803710938,2.057450294494629,88.9984359741211,35.93,2
-0.3246932327747345,-1.0708422660827637,-0.0950292125344276,21.4062442779541,2.0573501586914062,88.99899291992188,35.93,2
-0.2867382764816284,-1.0062780380249023,-0.1001686975359916,16.169864654541016,2.057286024093628,88.99935150146484,35.93,2
-0.2679787278175354,-0.9536489248275756,-0.1090646982192993,11.817084312438965,2.057244777679444,88.99958038330078,35.93,2
-0.2559399306774139,-0.9198745489120485,-0.109175868332386,8.4755859375,2.0549230575561523,88.9997329711914,35.93,2
-0.2538118958473205,-0.8926023244857788,-0.1036494374275207,5.815313816070557,2.0534331798553467,88.99983215332031,35.93,2
-0.2468484789133072,-0.8806983828544617,-0.0945051163434982,4.136764526367188,2.0524768829345703,88.99989318847656,35.93,2
-0.2255864441394806,-0.9010480046272278,-0.0830390378832817,4.091350078582764,2.051863193511963,88.99993133544922,35.93,2
-0.2063439190387725,-0.9420960545539856,-0.0644852221012115,5.831997871398926,2.051469326019287,88.99995422363281,35.93,2
-0.1995929479598999,-0.9852316975593568,-0.0413829050958156,8.525379180908203,2.0512166023254395,88.99996948242188,35.93,2
-0.206456109881401,-1.029706954956055,-0.0097638415172696,10.024551391601562,2.0510544776916504,88.9999771118164,35.93,2
-0.216458261013031,-1.0750420093536377,0.016125226393342,7.547360897064209,2.050950527191162,88.99998474121094,35.93,2
-0.2340726107358932,-1.115330934524536,0.0383371151983737,0.3258342146873474,2.0490477085113525,88.99999237060547,35.93,2
-0.2677675783634186,-1.0740127563476562,0.069384753704071,-8.500139236450195,2.0478265285491943,88.99999237060547,35.93,2
-0.3061844110488891,-1.008312702178955,0.100504882633686,-14.43283462524414,2.0470428466796875,88.99999237060547,35.93,2
-0.3532292246818542,-0.9213680028915404,0.1260737627744674,-15.86843204498291,2.0465400218963623,88.99999237060547,35.93,2
-0.3722243309020996,-0.8599741458892822,0.1312868595123291,-14.235339164733888,2.046217203140259,88.99999237060547,35.93,2
-0.3452298641204834,-0.8541617393493652,0.106643445789814,-11.181072235107422,2.0460100173950195,88.99999237060547,35.93,2
-0.2383419722318649,-0.9064093828201294,0.2027842104434967,-7.870388507843018,2.04587721824646,88.99999237060547,35.93,2
-0.2033341228961944,-0.9847211241722108,0.3036662340164184,-5.473505973815918,2.0457918643951416,88.99999237060547,35.93,2
-0.2312480807304382,-0.9901949167251588,0.3963953852653503,-4.186105251312256,2.045277833938598,89.17912292480469,35.91,2
-0.293943852186203,-0.9433276653289796,0.3719370067119598,-2.829704523086548,2.044947862625122,89.29408264160156,35.91,2
-0.3397761583328247,-0.8964576721191406,0.3058610558509826,-0.4760581851005554,2.04473614692688,89.36785125732422,35.91,2
-0.3467975854873657,-0.8719769716262817,0.2410662174224853,2.646535396575928,2.044600248336792,89.41519165039062,35.91,2
-0.3401079773902893,-0.8842555284500122,0.2050823867321014,6.054805755615234,2.04451322555542,89.44557189941406,35.91,2
-0.3022283315658569,-0.9313196539878844,0.1931855827569961,9.592668533325195,2.044457197189331,89.46507263183594,35.91,2
-0.2667238116264343,-0.9503271579742432,0.1799531280994415,12.812447547912598,2.044421434402466,89.47758483886719,35.91,2
-0.2439390569925308,-0.94573175907135,0.1658635288476944,14.531207084655762,2.044398307800293,89.4856185913086,35.91,2
-0.2181215584278106,-0.9483804702758788,0.1568216383457183,13.624382972717283,2.0448427200317383,89.49076843261719,35.91,2
-0.2071511596441269,-0.9332869052886964,0.1510190665721893,10.380581855773926,2.045128107070923,89.49407196044922,35.91,2
-0.2280998528003692,-0.8788185119628906,0.1416975408792495,6.521939277648926,2.045311212539673,89.4961929321289,35.91,2
-0.2527390718460083,-0.8270705342292786,0.1301177442073822,3.2216925621032715,2.04542875289917,89.49755859375,35.91,2
-0.2741488814353943,-0.7826660871505737,0.1170887276530265,-0.139369860291481,2.045504093170166,89.4984359741211,35.91,2
-0.2934862375259399,-0.7821587920188904,0.0975318998098373,-4.295382976531982,2.045552492141724,89.49899291992188,35.91,2
-0.3058958351612091,-0.8378109335899353,0.0849814563989639,-8.313104629516602,2.045583486557007,89.49935150146484,35.91,2
-0.3586418032646179,-1.1086318492889404,0.132905051112175,-10.723065376281738,2.0456032752990723,89.49958038330078,35.91,2
-0.4148822128772735,-1.2936246395111084,0.1636596471071243,-11.334588050842283,2.045156717300415,89.4997329711914,35.91,2
-0.445376306772232,-1.300386905670166,0.1442117691040039,-11.164563179016112,2.044870138168335,89.49983215332031,35.91,2
-0.3641857206821441,-1.254346489906311,0.1149379089474678,-11.524768829345703,2.044686317443848,89.49989318847656,35.91,2
-0.2840934097766876,-1.2695826292037964,0.1073471829295158,-13.325095176696776,2.0445683002471924,89.49993133544922,35.91,2
-0.193510353565216,-1.3073492050170898,0.1248669847846031,-16.38995361328125,2.044492721557617,89.49995422363281,35.91,2
-0.1633682250976562,-1.2476190328598022,0.141707956790924,-19.52830696105957,2.0444440841674805,89.49996948242188,35.91,2
-0.1776113957166671,-1.1589076519012451,0.1469177603721618,-21.65338134765625,2.044412851333618,89.4999771118164,35.91,2
-0.1475674211978912,-1.0404022932052612,0.150261104106903,-22.426006317138672,2.0443928241729736,89.49998474121094,35.91,2
-0.1114936023950576,-0.8971790671348572,0.1803955435752868,-21.84705924987793,2.043920993804932,89.49999237060547,35.91,2
-0.1723101139068603,-0.8108643889427185,0.1717452257871627,-19.838287353515625,2.0436182022094727,89.49999237060547,35.91,2
-0.1889475584030151,-0.7666681408882141,0.1605961769819259,-16.413957595825195,2.043423891067505,89.49999237060547,35.91,2
-0.1940267384052276,-0.7550988793373108,0.1422457993030548,-11.773104667663574,2.0432991981506348,89.49999237060547,35.91,2
-0.1860907077789306,-0.736478865146637,0.1136762648820877,-6.1903395652771,2.043219327926636,89.49999237060547,35.91,2
-0.175400048494339,-0.7189317941665649,0.0841464325785636,0.0327162183821201,2.043168067932129,89.49999237060547,35.91,2
-0.1517460793256759,-0.7132688760757446,0.0707936584949493,6.70966386795044,2.043135166168213,89.49999237060547,35.91,2
-0.1645551919937133,-0.7600147128105164,0.0510290712118148,13.824779510498049,2.043113946914673,89.49999237060547,35.91,2
-0.2007642090320587,-0.8180024027824402,0.0439430698752403,20.74102020263672,2.0435593128204346,89.76510620117188,35.93,2
-0.257587730884552,-0.888802170753479,0.0673845559358596,25.49473190307617,2.0438451766967773,89.93524169921875,35.93,2
-0.2660649120807647,-0.9678240418434144,0.0768301784992218,26.28120422363281,2.0440285205841064,90.04442596435547,35.93,2
-0.2267228960990905,-1.1248934268951416,0.0381096377968788,24.048828125,2.0441462993621826,90.11449432373048,35.93,2
-0.2630509734153747,-1.2704737186431885,0.0132610229775309,22.369020462036133,2.044221878051758,90.15945434570312,35.93,2
-0.3031575679779053,-1.27433443069458,0.0309012588113546,24.174989700317383,2.0442702770233154,90.18830871582033,35.93,2
-0.340091198682785,-1.192845344543457,0.0590150691568851,28.81263732910156,2.044301271438598,90.20682525634766,35.93,2
-0.341401994228363,-1.1573437452316284,0.0658613443374633,32.45517349243164,2.044321298599243,90.21871185302734,35.93,2
-0.2582765817642212,-1.1345608234405518,0.131830409169197,31.503936767578125,2.0434162616729736,90.2263412475586,35.93,2
-0.1993336826562881,-1.0639623403549194,0.1909588873386383,25.526790618896484,2.0428354740142822,90.23123168945312,35.93,2
-0.1671053022146225,-0.996265172958374,0.2065130323171615,16.997827529907227,2.0424628257751465,90.234375,35.93,2
-0.1856074035167694,-0.9360277056694032,0.1493214964866638,9.142017364501951,2.042223691940308,90.23638916015624,35.93,2
-0.2142743170261383,-0.8861752152442932,0.0958259403705596,4.111358642578125,2.042070150375366,90.23767852783205,35.93,2
-0.2774532735347748,-0.8429871797561646,0.0726911202073097,1.982822060585022,2.0419716835021973,90.23851013183594,35.93,2
-0.3124001324176788,-0.8488582372665405,0.0634422972798347,1.1327406167984009,2.041908502578736,90.23904418945312,35.93,2
-0.3292292356491089,-0.8750170469284058,0.0519091635942459,0.1787936240434646,2.041867733001709,90.23938751220705,35.93,2
-0.345626950263977,-0.8918042778968811,0.0668989568948745,-0.9313726425170898,2.0404646396636963,90.23960876464844,35.93,2
-0.3505522906780243,-0.896979570388794,0.087714098393917,-2.174034595489502,2.0395641326904297,90.23974609375,35.93,2
-0.3313219845294952,-0.917094111442566,0.1122676059603691,-4.400951385498047,2.0389862060546875,90.23983764648438,35.93,2
-0.3301766514778137,-0.9523935317993164,0.1224268600344657,-8.208888053894043,2.038615226745605,90.23989868164062,35.93,2
-0.329441636800766,-0.980644464492798,0.1289464831352234,-12.587193489074709,2.038377285003662,90.23993682861328,35.93,2
-0.3177743852138519,-1.0099698305130005,0.1219348534941673,-15.232139587402344,2.038224458694458,90.23995971679688,35.93,2
-0.3158847987651825,-1.062375783920288,0.1230329647660255,-13.966723442077637,2.038126468658448,90.23997497558594,35.93,2
-0.3930410146713257,-1.179973602294922,0.185313194990158,-8.57612133026123,2.0380635261535645,90.23998260498048,35.93,2
-0.4369576573371887,-1.1994633674621582,0.2420743852853775,-1.6882184743881226,2.0380232334136963,90.239990234375,35.93,2
-0.4427497386932373,-1.1727863550186155,0.2449138015508651,3.1906113624572754,2.037997245788574,90.239990234375,35.93,2
-0.3625001311302185,-1.1668621301651,0.2411381900310516,4.773890972137451,2.037980556488037,90.239990234375,35.93,2
-0.2606205940246582,-1.1742558479309082,0.2499107718467712,4.174206733703613,2.0379700660705566,90.239990234375,35.93,2
-0.1280668675899505,-1.19019615650177,0.1939649879932403,2.582036018371582,2.0379631519317627,90.239990234375,35.93,2
0.024171769618988,-1.1500458717346191,0.2308332771062851,0.2454672753810882,2.037958860397339,90.239990234375,35.93,2
0.1442608684301376,-1.0850952863693235,0.2600910067558288,-2.7909326553344727,2.0379559993743896,90.239990234375,35.93,2
0.2045338153839111,-1.0322182178497314,0.2396825104951858,-6.423330307006836,2.037954092025757,90.239990234375,35.93,2
0.1984313279390335,-0.9982846975326538,0.192998856306076,-10.456117630004885,2.0397889614105225,90.45136260986328,35.95,2
0.0265818703919649,-1.0156925916671753,0.0790733620524406,-14.269369125366213,2.040966510772705,90.5870132446289,35.95,2
0.017058715224266,-0.9820817112922668,0.0227558575570583,-17.128490447998047,2.041722297668457,90.67406463623048,35.95,2
0.0445339493453502,-0.9437188506126404,0.0034078506287187,-18.855833053588867,2.0422072410583496,90.72992706298828,35.95,2
-0.0329961962997913,-0.9079042673110962,-0.0369974598288536,-19.581005096435547,2.042518377304077,90.76577758789062,35.95,2
-0.110739454627037,-0.868127167224884,-0.0741228088736534,-19.17581367492676,2.0427181720733643,90.78878784179688,35.95,2
-0.2389994412660598,-0.8370027542114258,-0.0923499464988708,-17.41826820373535,2.042846441268921,90.80355072021484,35.95,2
-0.3157115280628204,-0.7946377992630005,-0.0704604312777519,-14.484759330749512,2.042928695678711,90.81302642822266,35.95,2
-0.3369520604610443,-0.7786459922790527,-0.0844018682837486,-10.871818542480469,2.03839111328125,90.81910705566406,35.95,2
-0.3561807870864868,-0.7907744646072388,-0.1773152947425842,-6.554163455963135,2.0354790687561035,90.82301330566406,35.95,2
-0.4077050983905792,-0.8209488987922668,-0.2537350952625274,-0.3261556327342987,2.033610343933105,90.82551574707033,35.95,2
-0.4407704472541809,-0.8794975280761719,-0.2691902816295624,8.75429630279541,2.0324110984802246,90.8271255493164,35.95,2
-0.4172076880931854,-1.0010372400283811,-0.2343263477087021,18.95235061645508,2.0316414833068848,90.82815551757812,35.95,2
-0.3964886963367462,-1.1350122690200806,-0.183963805437088,26.72928047180176,2.031147718429565,90.82881927490234,35.95,2
-0.4391701817512512,-1.1314252614974976,-0.0620796382427215,30.52348518371582,2.0308308601379395,90.8292465209961,35.95,2
-0.4665606915950775,-1.045156717300415,0.0273341536521911,31.675827026367188,2.030627489089966,90.82951354980467,35.95,2
-0.422562837600708,-1.0457723140716553,0.0847147777676582,31.372802734375,2.0259060859680176,90.8296890258789,35.95,2
-0.2935675978660583,-1.102145075798035,0.1439294666051864,28.9786376953125,2.022876262664795,90.82980346679688,35.95,2
-0.2107858806848526,-1.1159307956695557,0.1875278055667877,23.70557403564453,2.0209319591522217,90.82987213134766,35.95,2
-0.1464657932519912,-1.057604432106018,0.2211044877767563,16.069108963012695,2.019684076309204,90.82991790771484,35.95,2
-0.0939933136105537,-0.9865872263908386,0.2426520735025406,7.299283027648926,2.018883228302002,90.82994842529295,35.95,2
0.0180493406951427,-0.9130235910415648,0.3572400212287903,-1.230573058128357,2.018369436264038,90.82997131347656,35.95,2
-0.0499924905598163,-0.871412456035614,0.3076249361038208,-7.872462749481201,2.0180397033691406,90.8299789428711,35.95,2
-0.1384400129318237,-0.8559044003486633,0.2421981692314148,-11.40041732788086,2.0178279876708984,90.82998657226562,35.95,2
-0.2119938731193542,-0.857147753238678,0.177819937467575,-12.252921104431152,2.0167744159698486,90.82999420166016,35.95,2
-0.2480009496212005,-0.8635434508323669,0.1365056931972503,-12.137231826782228,2.0160982608795166,90.82999420166016,35.95,2
-0.2655104398727417,-0.8900389671325684,0.1099925935268402,-12.15255355834961,2.015664339065552,90.82999420166016,35.95,2
-0.293540358543396,-0.9126400351524352,0.0873802378773689,-12.108647346496582,2.015385866165161,90.82999420166016,35.95,2
-0.3115283548831939,-0.9215462803840636,0.0784667059779167,-11.363956451416016,2.015207290649414,90.82999420166016,35.95,2
-0.3230720162391662,-0.9384573698043824,0.0951376110315322,-9.420783042907717,2.015092611312866,90.82999420166016,35.95,2
-0.324882298707962,-0.9549077153205872,0.1114338114857673,-6.060046672821045,2.015018939971924,90.82999420166016,35.95,2
-0.3372395634651184,-1.0382356643676758,0.1498806476593017,-1.7752695083618164,2.0149717330932617,90.82999420166016,35.95,2
-0.3955497145652771,-1.0973085165023804,0.2361291348934173,2.203277349472046,2.011728286743164,91.00553894042967,35.95,2
-0.438567578792572,-1.0904358625411987,0.2802828848361969,4.695575714111328,2.0096466541290283,91.11819458007812,35.95,2
-0.4437828958034515,-1.0188521146774292,0.2806293666362762,5.080496311187744,2.0083107948303223,91.19049072265624,35.95,2
-0.4135431349277496,-0.9953048825263976,0.2976450324058532,2.887782335281372,2.007453680038452,91.23688507080078,35.95,2
-0.3325614631175995,-1.0473668575286863,0.3253580331802368,-2.084038019180298,2.0069034099578857,91.26666259765624,35.95,2
-0.2526032328605652,-1.1143639087677002,0.3151537775993347,-8.642287254333496,2.0065503120422363,91.28577423095705,35.95,2
-0.2012906372547149,-1.1573587656021118,0.29740971326828,-14.344927787780762,2.00632381439209,91.29803466796876,35.95,2
-0.1851544827222824,-1.1345704793930054,0.2580337226390838,-17.520906448364258,2.006178379058838,91.30590057373048,35.95,2
-0.1971903294324875,-1.0919573307037354,0.2159711569547653,-18.33024406433105,2.00378966331482,91.31095123291016,35.95,2
-0.3224675059318542,-1.0366218090057373,0.1609889566898346,-17.79635238647461,2.0022568702697754,91.31419372558594,35.95,2
-0.1341700106859207,-0.93393737077713,0.181682288646698,-17.073978424072266,2.0012731552124023,91.31627655029295,35.95,2
0.0314506664872169,-0.8680404424667358,0.2229509502649307,-17.25168228149414,2.0006418228149414,91.31761169433594,35.95,2
0.0313787758350372,-0.8425449132919312,0.1878592818975448,-18.372425079345703,2.000236749649048,91.31846618652344,35.95,2
-0.0190473292022943,-0.8429766297340393,0.1485461443662643,-19.2779483795166,1.9999767541885376,91.31901550292967,35.95,2
-0.1297767460346222,-0.8488514423370361,0.0953283682465553,-19.396907806396484,1.9998098611831665,91.31936645507812,35.95,2
-0.2176298350095749,-0.8358282446861267,0.0443829372525215,-19.58789253234864,1.99970281124115,91.31959533691406,35.95,2
-0.2684110999107361,-0.8162751793861389,0.0172868650406599,-20.20485115051269,2.00147008895874,91.31974029541016,35.95,2
-0.2842062711715698,-0.7981293797492981,0.027887038886547,-19.38628578186035,2.0026042461395264,91.31983184814452,35.95,2
-0.3055382668972015,-0.8032777905464172,0.0458851680159568,-14.42933177947998,2.0033321380615234,91.31989288330078,35.95,2
-0.3640100955963135,-0.8569616675376892,0.0798264294862747,-4.373281478881836,2.0037992000579834,91.31993103027344,35.95,2
-0.4071317315101623,-0.9138039946556092,0.0904124304652214,9.05180549621582,2.004098892211914,91.31995391845705,35.95,2
-0.4348047077655792,-0.9670754671096802,0.0972059145569801,22.00575256347656,2.004291296005249,91.3199691772461,35.95,2
-0.4413681030273437,-1.0572397708892822,0.0847722589969635,30.372589111328125,2.004414796829224,91.31997680664062,35.95,2
-0.4623734354972839,-1.1262975931167605,0.059999730437994,32.696754455566406,2.0044939517974854,91.31998443603516,35.95,2
-0.5766133666038513,-1.0866483449935913,0.0441021472215652,31.071428298950195,2.008676290512085,91.31999206542967,35.95,2
-0.6163393259048462,-0.9660415053367616,0.0842799618840217,28.430559158325195,2.0113604068756104,91.31999206542967,35.95,2
-0.5914531946182251,-0.9222296476364136,0.1436504274606704,26.11601448059082,2.01308274269104,91.31999206542967,35.95,2
-0.5810804963111877,-0.9612870216369628,0.1481643170118332,24.25092124938965,2.014188051223755,91.31999206542967,35.95,2
-0.5520327687263489,-0.9975473284721376,0.1398655325174331,22.43064308166504,2.014897346496582,91.31999206542967,35.95,2
-0.4830116629600525,-0.976034939289093,0.12894207239151,19.53210830688477,2.015352725982666,91.31999206542967,35.95,2
-0.4107290208339691,-0.9174473285675048,0.1107364743947982,14.38319206237793,2.015644788742065,91.31999206542967,35.95,2
-0.381135493516922,-0.8854469060897827,0.1270420402288437,7.25272274017334,2.01583218574524,91.31999206542967,35.95,2
-0.3957307338714599,-0.864910900592804,0.1487015634775161,-0.0567064881324768,2.013198137283325,91.45613098144533,35.93,2
-0.416292667388916,-0.8461343050003052,0.1346125304698944,-5.929728031158447,2.011507749557495,91.54349517822266,35.93,2
-0.3903037011623382,-0.8004978895187378,0.0583977028727531,-10.22175121307373,2.010422945022583,91.5995635986328,35.93,2
-0.552754282951355,-0.7824066281318665,-0.1136636286973953,-13.5887451171875,2.009727001190185,91.6355438232422,35.93,2
-0.6346145868301392,-0.7428078651428223,-0.1625071614980697,-15.84980010986328,2.009280204772949,91.65863800048828,35.93,2
-0.5751923322677612,-0.7062000632286072,-0.0203211214393377,-15.52385711669922,2.008993625640869,91.67345428466795,35.93,2
-0.5202652215957642,-0.6715117692947388,0.1101101115345954,-11.072916030883787,2.0088095664978027,91.6829605102539,35.93,2
-0.4850161671638489,-0.6380552649497986,0.2609866559505462,-2.824782609939575,2.0086915493011475,91.6890640258789,35.93,2
-0.523970901966095,-0.6613669991493225,0.3690060973167419,6.104709625244141,2.009075164794922,91.69297790527344,35.93,2
-0.6049475073814392,-0.7043160200119019,0.3823490142822265,11.534207344055176,2.0093212127685547,91.69549560546876,35.93,2
-0.880824625492096,-0.8158448338508606,0.2229784876108169,11.804975509643556,2.00947904586792,91.69710540771484,35.93,2
-1.074660062789917,-0.8986131548881531,0.0703236982226371,8.87264633178711,2.009580373764038,91.6981430053711,35.93,2
-1.0814992189407349,-0.98531574010849,0.1011074483394622,5.281957626342773,2.009645462036133,91.69880676269533,35.93,2
-0.9963237643241882,-0.9961742758750916,0.0648849382996559,1.7882453203201294,2.009687185287476,91.69923400878906,35.93,2
-0.9416630864143372,-1.014338135719299,0.0248460955917835,-1.431861400604248,2.009713888168335,91.6995086669922,35.93,2
-0.8506072163581848,-1.0092014074325562,0.0159447938203811,-3.7204604148864746,2.0097310543060303,91.6996841430664,35.93,2
-0.7697817087173462,-0.9667205214500428,0.0158302243798971,-5.242889881134033,1.9941343069076536,91.69979858398438,35.93,2
-0.6787281632423401,-0.9226654171943665,0.0269522499293088,-7.276757717132568,1.9841251373291016,91.69986724853516,35.93,2
-0.6035019159317017,-0.8664044737815857,0.0284919515252113,-10.437750816345217,1.9777019023895264,91.69991302490234,35.93,2
-0.5832148790359497,-0.8191038966178894,0.029480043798685,-13.927985191345217,1.97357976436615,91.69994354248048,35.93,2
-0.6261736154556274,-0.7719557881355286,0.0245163701474666,-16.615638732910156,1.970934510231018,91.69996643066406,35.93,2
-0.6481442451477051,-0.7249055504798889,0.0157331954687833,-18.007240295410156,1.9692368507385247,91.6999740600586,35.93,2
-0.6230593323707581,-0.6667225360870361,-0.0010988902067765,-18.35573959350586,1.9681473970413208,91.69998168945312,35.93,2
-0.5789723992347717,-0.6125907301902771,-0.0286940746009349,-18.335769653320312,1.9674482345581048,91.69998931884766,35.93,2
-0.5618754625320435,-0.5834497809410095,-0.0799897238612175,-18.23339080810547,1.985820770263672,91.69998931884766,35.93,2
-0.5844902992248535,-0.5703465938568115,-0.1912771612405777,-17.189645767211914,1.997611165046692,91.69998931884766,35.93,2
-0.6157965064048767,-0.5675355195999146,-0.2738905847072601,-13.98336696624756,2.005177497863769,91.69998931884766,35.93,2
-0.6806692481040955,-0.6217092275619507,-0.2597338259220123,-8.533062934875488,2.010033130645752,91.69998931884766,35.93,2
-0.6943119764328003,-0.6676703691482544,-0.194671094417572,-1.7573150396347046,2.0131492614746094,91.69998931884766,35.93,2
-0.6806759834289551,-0.6859700083732605,-0.1361242532730102,5.865444183349609,2.0151491165161133,91.69998931884766,35.93,2
-0.6607296466827393,-0.6753225922584534,-0.0761611610651016,14.343450546264648,2.016432285308838,91.69998931884766,35.93,2
-0.653527021408081,-0.6740874648094177,-0.026484752073884,22.531982421875,2.0172557830810547,91.69998931884766,35.93,2
-0.6377092003822327,-0.6844903826713562,0.010992482304573,27.70451164245605,2.0168662071228027,91.82538604736328,35.95,2
-0.621960461139679,-0.7079597115516663,0.0574343129992485,27.79962539672852,2.016616106033325,91.90585327148438,35.95,2
-0.5950605273246765,-0.7454120516777039,0.1152268722653389,23.830265045166016,2.01645565032959,91.9574966430664,35.95,2
-0.5833954811096191,-0.831022322177887,0.2250858843326568,18.89696311950684,2.016352653503418,91.99063873291016,35.95,2
-0.5871050953865051,-0.9251465201377868,0.3851514756679535,15.07544231414795,2.016286611557007,92.01190948486328,35.95,2
-0.7798100113868713,-0.9855499863624572,0.3759168684482574,12.46179485321045,2.0162441730499268,92.02555847167967,35.95,2
-0.8810858130455017,-0.8843690752983093,0.1908618509769439,10.823914527893066,2.016216993331909,92.03431701660156,35.95,2
-0.8733077645301819,-0.8082414865493774,0.060908630490303,10.446341514587402,2.0161995887756348,92.0399398803711,35.95,2
-0.8067407011985779,-0.7705827355384827,0.0278921034187078,11.590494155883787,2.0157294273376465,92.04354858398438,35.95,2
-0.7248374223709106,-0.7464154958724976,0.0626817420125007,14.338152885437012,2.015427589416504,92.04586029052734,35.95,2
-0.6610810160636902,-0.6917219161987305,0.1129966005682945,18.25457000732422,2.015233993530273,92.04734802246094,35.95,2
-0.7657079696655273,-0.6566227078437805,0.0389280654489994,21.935821533203125,2.015109777450561,92.04830169677734,35.95,2
-0.8720359802246094,-0.645293653011322,-0.0253981761634349,24.39496421813965,2.0150299072265625,92.04891204833984,35.95,2
-0.9290755987167358,-0.6716099381446838,-0.0778746083378791,26.53198432922364,2.014978647232056,92.04930114746094,35.95,2
-0.8537248373031616,-0.6996937990188599,-0.0835620909929275,28.953094482421875,2.01494574546814,92.04955291748048,35.95,2
-0.6262403130531311,-0.7121186256408691,-0.0256364680826663,29.68641471862793,2.0149247646331787,92.04971313476562,35.95,2
-0.6537848114967346,-0.787265419960022,-0.0444408804178237,26.882543563842773,2.0144519805908203,92.04981994628906,35.95,2
-0.6602657437324524,-0.8186969757080078,-0.0453129224479198,21.85527801513672,2.014148473739624,92.04988861083984,35.95,2
-0.5860559940338135,-0.8220746517181396,-0.0178836751729249,17.08856201171875,2.013953924179077,92.0499267578125,35.95,2
-0.4768569469451904,-0.8074489235877991,0.0053166090510785,12.91895866394043,2.013828992843628,92.04995727539062,35.95,2
-0.3843881785869598,-0.8204540610313416,0.0425963141024112,7.617119789123535,2.01374888420105,92.04997253417967,35.95,2
-0.4202091991901397,-0.8567888736724854,0.1169002577662468,-0.0342301353812217,2.013697385787964,92.04998016357422,35.95,2
-0.4823814928531647,-0.8745086789131165,0.181377574801445,-8.989153861999512,2.0136642456054688,92.04998779296876,35.95,2
-0.3599446415901184,-0.9138691425323486,0.2843309044837951,-16.781558990478516,2.0136430263519287,92.04999542236328,35.95,2
-0.2645784020423889,-0.9839106202125548,0.3559982180595398,-21.9112491607666,2.0108754634857178,92.04999542236328,35.95,2
-0.3769088387489319,-1.0960325002670288,0.3572079837322235,-24.655054092407227,2.0090994834899902,92.04999542236328,35.95,2
-0.4210071861743927,-0.994454860687256,0.3076043725013733,-26.06119537353516,2.0079596042633057,92.04999542236328,35.95,2
-0.46610027551651,-0.9012792706489564,0.2141961008310318,-27.3576602935791,2.007228136062622,92.04999542236328,35.95,2
-0.4894406497478485,-0.8974623084068298,0.1206654086709022,-29.60835647583008,2.006758689880371,92.04999542236328,35.95,2
-0.4988213777542114,-0.9285994172096252,0.0662405639886856,-32.77952575683594,2.006457567214966,92.04999542236328,35.95,2
-0.5160369277000427,-0.9485814571380616,0.0313138328492641,-35.8929557800293,2.0062642097473145,92.04999542236328,35.95,2
-0.5046938061714172,-0.939013659954071,0.0200954154133796,-38.60390472412109,2.0061402320861816,92.04999542236328,35.95,2
-0.4918166697025299,-0.921678066253662,0.0184938553720712,-41.77308654785156,2.001928806304932,92.16105651855467,35.93,2
-0.4611617624759674,-0.9105530977249146,0.0174660664051771,-45.71281433105469,1.9992262125015257,92.23233032226562,35.93,2
-0.4358914196491241,-0.9090114831924438,0.0168064907193183,-48.48113632202149,1.997491836547852,92.27806854248048,35.93,2
-0.4028810560703277,-0.9248154759407043,0.0219809878617525,-47.00470733642578,1.996378779411316,92.3074188232422,35.93,2
-0.3593057990074157,-0.9461531043052672,0.0308994557708501,-40.04207611083984,1.995664477348328,92.32625579833984,35.93,2
-0.3201461732387543,-0.9654441475868224,0.0478183627128601,-29.26494407653809,1.9952061176300049,92.33834838867188,35.93,2
-0.283820241689682,-0.9890195727348328,0.0642737224698066,-17.293787002563477,1.9949119091033936,92.34610748291016,35.93,2
-0.2661060988903045,-1.0041489601135254,0.0748338252305984,-5.409027099609375,1.994723200798035,92.35108184814452,35.93,2
-0.2659337520599365,-1.0082603693008425,0.0816106870770454,6.649573802947998,1.995061278343201,92.35427856445312,35.93,2
-0.2826164662837982,-0.9997032284736632,0.0859596878290176,19.403696060180664,1.995278239250183,92.35633087158205,35.93,2
-0.2989202439785003,-0.9942117929458618,0.0831528529524803,32.1993293762207,1.9954174757003784,92.3576431274414,35.93,2
-0.2925897538661957,-0.985089898109436,0.0813515856862068,42.212867736816406,1.9955068826675413,92.35848999023438,35.93,2
-0.2829294204711914,-0.990431547164917,0.085793413221836,45.67977142333984,1.995564222335816,92.3590316772461,35.93,2
-0.2767299711704254,-0.9938595294952391,0.0886439234018325,41.53123092651367,1.9956010580062864,92.359375,35.93,2
-0.2895448505878448,-0.9904616475105286,0.0904732123017311,32.7678108215332,1.9956246614456177,92.3595962524414,35.93,2
-0.3145620226860046,-0.9658899903297424,0.0916471481323242,23.228195190429688,1.9956398010253904,92.3597412109375,35.93,2
-0.3418121635913849,-0.950121283531189,0.0979982838034629,14.716641426086426,1.9961085319519043,92.35983276367188,35.93,2
-0.3425064086914062,-0.9735884666442872,0.1300629526376724,7.753317356109619,1.996409296989441,92.35989379882812,35.93,2
-0.3597452640533447,-1.0166372060775757,0.1338468790054321,2.6326282024383545,1.996602296829224,92.35993194580078,35.93,2
-0.3372215032577514,-1.0386656522750854,0.1306774169206619,-1.051201105117798,1.996726155281067,92.35995483398438,35.93,2
-0.3003759682178497,-1.0192155838012695,0.1286434382200241,-4.23568058013916,1.9968056678771973,92.35997009277344,35.93,2
-0.2655350863933563,-0.9787448048591614,0.1385336965322494,-7.379147052764893,1.996856689453125,92.35997772216795,35.93,2
-0.2487739771604538,-0.9583707451820374,0.1392829269170761,-10.241930961608888,1.996889352798462,92.3599853515625,35.93,2
-0.2548109889030456,-0.9452958703041076,0.134165957570076,-12.240316390991213,1.9969103336334229,92.35999298095705,35.93,2
-0.2754785120487213,-0.9313073754310608,0.1308821886777877,-12.770423889160156,1.998760223388672,92.35999298095705,35.93,2
-0.2999372780323028,-0.922330379486084,0.1343726217746734,-11.806559562683104,1.999947428703308,92.35999298095705,35.93,2
-0.3100357353687286,-0.8997761607170105,0.1646014600992202,-10.152642250061035,2.000709295272827,92.35999298095705,35.93,2
-0.2997230291366577,-0.8685088157653809,0.1840005815029144,-8.840473175048828,2.0011982917785645,92.35999298095705,35.93,2
-0.2931049168109894,-0.8372476696968079,0.1796565055847168,-8.474881172180176,2.001512050628662,92.35999298095705,35.93,2
-0.3112488985061645,-0.8339794278144836,0.1600753962993621,-9.060674667358398,2.001713275909424,92.35999298095705,35.93,2
-0.3340882062911987,-0.8542731404304504,0.14750936627388,-9.988320350646973,2.001842498779297,92.35999298095705,35.93,2
-0.365538477897644,-0.90648090839386,0.1338474452495575,-10.354345321655272,2.001925468444824,92.35999298095705,35.93,2
-0.4249058961868286,-0.9903647899627686,0.1138844564557075,-9.761663436889648,2.000601530075073,92.3385009765625,35.95,2
-0.4965911209583282,-1.1001744270324707,0.1122689098119735,-8.872589111328125,1.9997519254684448,92.32470703125,35.95,2
-0.4194435477256775,-1.1762416362762451,0.1336232423782348,-8.828670501708984,1.99920666217804,92.31585693359376,35.95,2
-0.2971636056900024,-1.1690794229507446,0.169718325138092,-9.886006355285645,1.998856782913208,92.3101806640625,35.95,2
-0.2130935937166214,-1.0917121171951294,0.2208709418773651,-11.04102611541748,1.9986321926116943,92.30653381347656,35.95,2
-0.2263155877590179,-1.0532578229904177,0.2257088720798492,-11.373838424682615,1.998488068580628,92.30419158935548,35.95,2
-0.2739851176738739,-1.0845577716827393,0.2008247077465057,-10.8816499710083,1.998395562171936,92.3026885986328,35.95,2
-0.360554426908493,-1.1438287496566772,0.1232799664139747,-9.920928955078123,1.99833619594574,92.30172729492188,35.95,2
-0.421707421541214,-1.1650720834732056,0.0455273427069187,-8.856571197509766,1.995084524154663,92.30110931396484,35.95,2
-0.4049741327762604,-1.1227270364761353,-0.0379564650356769,-8.33474349975586,1.9929978847503664,92.30071258544922,35.95,2
-0.3494534790515899,-1.050770282745361,-0.0747382417321205,-8.74145793914795,1.9916586875915527,92.30046081542967,35.95,2
-0.3082257509231567,-1.0045925378799438,-0.0815493464469909,-9.285487174987791,1.9907993078231807,92.30030059814452,35.95,2
-0.2985614836215973,-0.97495836019516,-0.0747247710824012,-8.506102561950684,1.9902478456497192,92.3001937866211,35.95,2
-0.2979573011398315,-0.9615386128425598,-0.0703451558947563,-5.895801544189453,1.989893913269043,92.30012512207033,35.95,2
-0.2863740026950836,-0.9641221761703492,-0.1123167648911476,-2.3541383743286133,1.9896668195724487,92.30007934570312,35.95,2
-0.2565494179725647,-0.9713779091835022,-0.1560450494289398,0.9719741940498352,1.989521026611328,92.300048828125,35.95,2
-0.2150186151266098,-0.964838683605194,-0.1785095781087875,3.61520791053772,1.9843778610229488,92.30003356933594,35.95,2
-0.1659754365682602,-0.960642158985138,-0.1593393683433532,5.59092378616333,1.9810773134231567,92.3000259399414,35.95,2
-0.1401001214981079,-0.9579491019248962,-0.1358414739370346,7.1275177001953125,1.9789592027664185,92.30001831054688,35.95,2
-0.145885944366455,-0.9842097163200378,-0.0927730128169059,8.608011245727539,1.977599859237671,92.30001068115234,35.95,2
-0.1943811476230621,-1.0458444356918335,-0.0427430532872676,10.382099151611328,1.976727604866028,92.30001068115234,35.95,2
-0.2534914314746856,-1.0909957885742188,0.0005588421481661,12.48790168762207,1.9761677980422967,92.30001068115234,35.95,2
-0.3082183301448822,-1.1255691051483154,0.0507386028766632,14.580877304077148,1.9758085012435915,92.30001068115234,35.95,2
-0.3433389067649841,-1.1253652572631836,0.0885388553142547,16.017175674438477,1.9755779504776,92.30001068115234,35.95,2
-0.3714750707149505,-1.0972455739974976,0.1407857537269592,16.469593048095703,1.975430011749268,92.30001068115234,35.95,2
-0.3447490334510803,-1.0624066591262815,0.1631192564964294,16.34076690673828,1.9753351211547847,92.30001068115234,35.95,2
-0.2884133756160736,-1.028853416442871,0.1830493956804275,16.143449783325195,1.9752742052078247,92.30001068115234,35.95,2
-0.2466626167297363,-1.046505331993103,0.2294260561466217,15.701557159423828,1.975235104560852,92.30001068115234,35.95,2
-0.2870426774024963,-1.097017765045166,0.203210175037384,14.422019958496094,1.9752099514007568,92.30001068115234,35.95,2
-0.1282297223806381,-1.062260389328003,0.460677295923233,12.164273262023926,1.975193858146668,92.30001068115234,35.95,2
-0.1270726472139358,-1.0007706880569458,0.6091115474700928,9.439985275268556,1.9751834869384768,92.30001068115234,35.95,2
-0.1711122989654541,-0.9613101482391356,0.6259992718696594,6.817544937133789,1.9751768112182613,92.30001068115234,35.95,2
-0.238558828830719,-0.9191933274269104,0.5192835330963135,4.633053302764893,1.977927207946777,92.31075286865234,35.95,2
-0.2930376827716827,-0.8865674138069153,0.4060173332691192,3.6145079135894775,1.9796922206878664,92.3176498413086,35.95,2
-0.327999085187912,-0.8600322008132935,0.2885474264621734,4.974271774291992,1.9808249473571773,92.32207489013672,35.95,2
-0.3280442059040069,-0.8318079113960266,0.1851731240749359,9.01030445098877,1.9815518856048584,92.32491302490234,35.95,2
-0.2944864928722381,-0.8080973625183105,0.11883345246315,14.061627388000488,1.9820183515548704,92.32673645019533,35.95,2
-0.2505599856376648,-0.7984790802001953,0.0650649219751358,17.647201538085938,1.9823176860809328,92.3279037475586,35.95,2
-0.2167727202177047,-0.7979044318199158,0.0249615982174873,18.33964157104492,1.9825098514556885,92.3286590576172,35.95,2
-0.1838944554328918,-0.8143289685249329,0.0104211429134011,16.283370971679688,1.982633113861084,92.32913970947266,35.95,2
-0.1683928519487381,-0.813673734664917,0.01788323931396,12.531206130981444,1.978121519088745,92.3294448852539,35.95,2
-0.1696403622627258,-0.8188509941101074,0.0282697565853595,8.231682777404785,1.9752262830734253,92.32964324951172,35.95,2
-0.1984298080205917,-0.8557600975036621,0.0517285503447055,3.820929288864136,1.9733682870864868,92.32977294921876,35.95,2
-0.2336985468864441,-0.8906418085098267,0.0723808258771896,-1.1591838598251345,1.9721758365631104,92.3298568725586,35.95,2
-0.2843208611011505,-0.980200171470642,0.1024275943636894,-6.762624263763428,1.971410632133484,92.32991027832033,35.95,2
-0.3895784020423889,-1.200008988380432,0.166492074728012,-11.465605735778809,1.970919609069824,92.32994079589844,35.95,2
-0.4683221876621246,-1.3410696983337402,0.2076049745082855,-13.52716064453125,1.970604419708252,92.32996368408205,35.95,2
-0.485268771648407,-1.308443307876587,0.1836088895797729,-13.24515438079834,1.9704022407531736,92.3299789428711,35.95,2
-0.4513619244098663,-1.2483211755752563,0.1626118123531341,-12.569783210754396,1.973486065864563,92.32998657226562,35.95,2
-0.3344402909278869,-1.2321293354034424,0.1771259754896164,-12.777649879455566,1.9754650592803955,92.32999420166016,35.95,2
-0.2146245241165161,-1.2105427980422974,0.2144291996955871,-13.785195350646973,1.9767351150512693,92.32999420166016,35.95,2
-0.1377336680889129,-1.1798964738845823,0.23277048766613,-15.420571327209473,1.977550148963928,92.32999420166016,35.95,2
-0.121976189315319,-1.0874583721160889,0.2165519893169403,-17.985490798950195,1.9780731201171875,92.32999420166016,35.95,2
-0.1454505920410156,-1.005745768547058,0.2005461156368255,-21.157686233520508,1.9784088134765625,92.32999420166016,35.95,2
-0.2276884019374847,-0.9701006412506104,0.2238611131906509,-23.29731178283692,1.9786242246627808,92.32999420166016,35.95,2
-0.2916594445705414,-0.9864100813865662,0.2108344733715057,-22.53160285949707,1.97876238822937,92.32999420166016,35.95,2
-0.3215168416500091,-1.0136698484420776,0.2080724984407425,-18.403902053833008,1.977932929992676,92.32999420166016,35.95,2
-0.1223643720149993,-0.9751858711242676,0.1951044648885727,-11.9789457321167,1.977400541305542,92.32999420166016,35.95,2
0.0278313029557466,-0.9169024229049684,0.1587934643030166,-4.344855308532715,1.9770588874816888,92.32999420166016,35.95,2
0.0794360488653183,-0.8459128141403198,0.14668670296669,4.401951313018799,1.9768396615982056,92.32999420166016,35.95,2
0.0565752573311328,-0.7891602516174316,0.1277217268943786,14.676079750061035,1.976698994636536,92.32999420166016,35.95,2
0.0251111965626478,-0.7583374977111816,0.1099533215165138,26.52864456176757,1.9766087532043457,92.32999420166016,35.95,2
-0.0678516998887062,-0.7833393812179565,0.0537683926522731,38.99649429321289,1.976550817489624,92.32999420166016,35.95,2
-0.1834876835346222,-0.816177487373352,-0.0158745124936103,49.51260757446289,1.976513624191284,92.32999420166016,35.95,2
-0.2856850624084472,-0.8820332884788513,-0.0941539704799652,54.89986801147461,1.9783258438110352,92.2977523803711,35.97,2
-0.3008894920349121,-1.030653476715088,-0.1387914419174194,54.197731018066406,1.9794888496398928,92.27706146240234,35.97,2
-0.2826579511165619,-1.176409363746643,-0.1506438702344894,49.075462341308594,1.98023521900177,92.26378631591795,35.97,2
-0.2989468574523926,-1.2363604307174685,-0.1134678870439529,40.901649475097656,1.980714201927185,92.25526428222656,35.97,2
-0.3317912518978119,-1.2300513982772827,-0.0560238361358642,29.730588912963867,1.981021523475647,92.24979400634766,35.97,2
-0.3080866932868957,-1.175622582435608,0.0704048424959182,16.360206604003906,1.981218695640564,92.24628448486328,35.97,2
-0.2257011830806732,-1.123900055885315,0.168332815170288,2.728431463241577,1.981345295906067,92.24403381347656,35.97,2
-0.1840264499187469,-1.0571208000183103,0.1975907087326049,-9.663135528564451,1.981426477432251,92.24258422851562,35.97,2
-0.1964664310216903,-0.9470924735069276,0.1491934359073639,-20.04789924621582,1.978265404701233,92.24166107177734,35.97,2
-0.2156452387571334,-0.8708848357200623,0.1013415306806564,-28.052125930786133,1.976236820220948,92.2410659790039,35.97,2
-0.2391486465930938,-0.8331747055053711,0.0818284824490547,-34.0485954284668,1.9749349355697632,92.24068450927734,35.97,2
-0.2430362254381179,-0.8257678151130676,0.0805016830563545,-38.480743408203125,1.9740995168685915,92.24044036865234,35.97,2
-0.2567265927791595,-0.837807834148407,0.090845763683319,-40.60494613647461,1.973563313484192,92.2402801513672,35.97,2
-0.2879033982753753,-0.8791210651397705,0.1198751032352447,-39.05550003051758,1.9732192754745483,92.24018096923828,35.97,2
-0.3191064000129699,-0.9168291091918944,0.1552977859973907,-33.65816879272461,1.9729984998703003,92.2401123046875,35.97,2
-0.3503262400627136,-0.9522234797477722,0.2060188949108123,-26.049434661865234,1.9728567600250244,92.24007415771484,35.97,2
-0.3647635877132416,-0.9637420177459716,0.2497643232345581,-18.382925033569336,1.973224759101868,92.24004364013672,35.97,2
-0.3684308528900146,-0.9711339473724364,0.2722398638725281,-11.54274082183838,1.973460912704468,92.24002838134766,35.97,2
-0.3483932018280029,-0.9926709532737732,0.2642722725868225,-4.534241199493408,1.9736124277114868,92.24002075195312,35.97,2
-0.3355341851711273,-1.0064921379089355,0.2423657923936844,4.1514410972595215,1.9737097024917605,92.2400131225586,35.97,2
-0.3328797817230224,-0.9985685348510742,0.2171119302511215,14.250205039978027,1.9737721681594849,92.24000549316406,35.97,2
-0.3535674512386322,-0.9990813732147216,0.2288943231105804,22.765913009643555,1.973812222480774,92.24000549316406,35.97,2
-0.37803915143013,-1.0218015909194946,0.2588467001914978,26.120668411254883,1.973837971687317,92.24000549316406,35.97,2
-0.4441236555576324,-1.0811642408370972,0.311655044555664,23.558887481689453,1.973854422569275,92.24000549316406,35.97,2
-0.4865328669548034,-1.1248576641082764,0.3567399382591247,17.511898040771484,1.9706518650054927,92.24000549316406,35.97,2
-0.4689664840698242,-1.1025176048278809,0.4024661779403686,10.568185806274414,1.968596577644348,92.24000549316406,35.97,2
-0.356933444738388,-1.099376559257507,0.4262128472328186,3.568483352661133,1.9672776460647583,92.24000549316406,35.97,2
-0.2850370705127716,-1.0917630195617676,0.3574854731559753,-3.431325912475586,1.966431260108948,92.24000549316406,35.97,2
-0.1717248409986496,-1.198832631111145,0.3133802115917206,-10.012042045593262,1.9658880233764648,92.24000549316406,35.97,2
-0.0934097915887832,-1.2731415033340454,0.2906737625598907,-15.496233940124512,1.9655394554138184,92.24000549316406,35.97,2
-0.0543472543358802,-1.298437476158142,0.242515429854393,-19.39542579650879,1.9653156995773315,92.24000549316406,35.97,2
-0.0404747128486633,-1.236302137374878,0.1948168575763702,-21.471376419067383,1.9651721715927124,92.24000549316406,35.97,2
-0.0427676625549793,-1.1628406047821045,0.1474133431911468,-21.693002700805664,1.9696704149246216,92.207763671875,35.97,2
-0.0722280219197273,-1.048524022102356,0.167372465133667,-20.477434158325195,1.9725570678710933,92.18707275390624,35.97,2
-0.1079273074865341,-0.9695643782615662,0.2025721818208694,-18.715726852416992,1.974409580230713,92.17378997802734,35.97,2
-0.1756192445755005,-0.8909037709236145,0.157988041639328,-17.11226463317871,1.9755984544754028,92.16526794433594,35.97,2
-0.2134622633457183,-0.7956417202949524,0.0733987614512443,-15.635432243347168,1.976361393928528,92.15979766845705,35.97,2
-0.2377477288246154,-0.7289102673530579,0.0023209021892398,-13.845781326293944,1.976850986480713,92.15628814697266,35.97,2
-0.2421371936798095,-0.6636947393417358,-0.0376949980854988,-11.174691200256348,1.9771652221679688,92.15403747558594,35.97,2
-0.2337585538625717,-0.6274409294128418,-0.0465815775096416,-6.615974426269531,1.9773668050765991,92.152587890625,35.97,2
-0.1947949826717376,-0.6321642398834229,-0.0354911498725414,1.14960777759552,1.9733647108078003,92.15166473388672,35.97,2
-0.1865837275981903,-0.6799775958061218,-0.0115806264802813,12.302305221557615,1.9707964658737185,92.15106964111328,35.97,2
-0.1925097703933715,-0.7554436326026917,0.0149593167006969,24.141891479492188,1.9691482782363887,92.15068817138672,35.97,2
-0.2131060808897018,-0.8990355730056763,0.0319911241531372,32.00138473510742,1.968090534210205,92.15044403076172,35.97,2
-0.237519159913063,-1.0415645837783811,0.037323385477066,33.373016357421875,1.967411756515503,92.15028381347656,35.97,2
-0.2587838470935821,-1.2617802619934082,0.0631364211440086,30.0114803314209,1.9669761657714844,92.15018463134766,35.97,2
-0.3172124922275543,-1.481470823287964,0.124483935534954,25.05983161926269,1.966696619987488,92.15011596679688,35.97,2
-0.3938930332660675,-1.5049023628234863,0.1862443387508392,20.0586166381836,1.9665172100067136,92.15007781982422,35.97,2
-0.4207111001014709,-1.307223916053772,0.1922919601202011,15.140235900878906,1.967779278755188,92.1500473022461,35.97,2
-0.3763458728790283,-1.1971585750579834,0.2017707526683807,9.80927848815918,1.968589186668396,92.15003204345705,35.97,2
-0.2583104372024536,-1.1377205848693848,0.213451474905014,3.1602766513824463,1.9691089391708367,92.1500244140625,35.97,2
-0.1657687723636627,-1.0659900903701782,0.2097519338130951,-4.8397135734558105,1.9694424867630005,92.15001678466795,35.97,2
-0.1175764054059982,-0.9975664615631104,0.1849866807460785,-12.17693042755127,1.9696565866470337,92.15000915527344,35.97,2
-0.1370292901992797,-0.920069456100464,0.118713803589344,-16.047210693359375,1.969793915748596,92.15000915527344,35.97,2
-0.1775019019842147,-0.8591408133506775,0.059390366077423,-15.41409397125244,1.9698820114135744,92.15000915527344,35.97,2
-0.2258659899234771,-0.8088447451591492,-0.0010711025679484,-11.747652053833008,1.9699386358261108,92.15000915527344,35.97,2
-0.290489912033081,-0.7765676379203796,-0.0454695671796798,-7.087562084197998,1.967679977416992,92.15000915527344,35.97,2
-0.3487551510334015,-0.7670495510101318,-0.0571686215698719,-2.208967447280884,1.966230511665344,92.15000915527344,35.97,2
-0.3917442262172699,-0.7833325266838074,-0.0254919826984405,2.917328357696533,1.9653003215789795,92.15000915527344,35.97,2
-0.4193321168422699,-0.804977536201477,0.0116295851767063,7.91956090927124,1.9647033214569087,92.15000915527344,35.97,2
-0.4482319951057434,-0.8692480325698853,0.0802342668175697,12.08625316619873,1.964320182800293,92.15000915527344,35.97,2
-0.4331916272640228,-0.9552753567695618,0.1802385449409485,15.043220520019531,1.96407437324524,92.15000915527344,35.97,2
-0.3899529278278351,-1.0272760391235352,0.2388177663087844,16.88351058959961,1.963916659355164,92.15000915527344,35.97,2
-0.3062270879745483,-1.0846774578094482,0.2876060903072357,17.548612594604492,1.963815450668335,92.15000915527344,35.97,2
-0.2357033342123031,-1.1271121501922607,0.3469044864177704,16.528076171875,1.96283221244812,92.12134552001952,35.97,2
-0.1960430294275283,-1.187930941581726,0.4409365355968475,13.612548828125,1.962201237678528,92.10295104980467,35.97,2
-0.2713512778282165,-1.1877765655517578,0.4397053718566894,9.283884048461914,1.961796283721924,92.09114837646484,35.97,2
-0.2972886562347412,-1.1764819622039795,0.405328631401062,3.872803449630737,1.9615364074707031,92.08357238769533,35.97,2
-0.2747493684291839,-1.1076581478118896,0.327289879322052,-2.4406988620758057,1.9613696336746216,92.0787124633789,35.97,2
-0.2211005240678787,-1.052295446395874,0.3051979839801788,-8.58098316192627,1.9612627029418943,92.07559204101562,35.97,2
-0.0523252040147781,-1.0111690759658811,0.3693895041942596,-13.270222663879396,1.9611940383911133,92.0735855102539,35.97,2
0.011202891357243,-1.040754318237305,0.3825950622558594,-16.92795181274414,1.9611499309539795,92.07230377197266,35.97,2
0.0071893706917762,-1.0821315050125122,0.3686785101890564,-20.865936279296875,1.962039828300476,92.07147979736328,35.97,2
-0.0457662418484687,-1.142271637916565,0.3149654865264892,-24.636260986328125,1.9626109600067136,92.0709457397461,35.97,2
-0.113336756825447,-1.164072871208191,0.2413111329078674,-26.145864486694336,1.9629775285720823,92.07061004638672,35.97,2
-0.201481819152832,-1.1276836395263672,0.1772506982088089,-24.431293487548828,1.9632127285003664,92.07038879394533,35.97,2
-0.2244616001844406,-1.076342225074768,0.141738161444664,-20.5007438659668,1.9633636474609373,92.07025146484376,35.97,2
-0.2056220471858978,-1.026600956916809,0.1357415914535522,-15.169605255126951,1.9634605646133425,92.07015991210938,35.97,2
-0.215923011302948,-0.9834843277931212,0.1374911069869995,-8.108489990234375,1.9635226726531985,92.07009887695312,35.97,2
-0.2393268942832946,-0.9446189999580384,0.1274182945489883,0.2921089231967926,1.9635626077651973,92.07006072998048,35.97,2
-0.2543461620807647,-0.8860908150672913,0.1321496963500976,7.947317600250244,1.963128924369812,92.07003784179688,35.97,2
-0.2471913397312164,-0.8261396884918213,0.1463815867900848,13.060613632202148,1.962850570678711,92.0700225830078,35.97,2
-0.2370020151138305,-0.776470959186554,0.1443192511796951,16.155738830566406,1.962671995162964,92.07001495361328,35.97,2
-0.2136697620153427,-0.7222053408622742,0.1429957598447799,19.76491928100586,1.962557315826416,92.07000732421876,35.97,2
-0.1986964792013168,-0.6817830204963684,0.1477441936731338,26.021915435791016,1.9624837636947632,92.07000732421876,35.97,2
-0.205880805850029,-0.6726356148719788,0.1563892364501953,33.3834228515625,1.962436556816101,92.07000732421876,35.97,2
-0.221686840057373,-0.7171453237533569,0.1563393473625183,36.16227340698242,1.9624062776565552,92.07000732421876,35.97,2
-0.2374280244112014,-0.7792957425117493,0.1451117843389511,30.071081161499023,1.9623868465423584,92.07000732421876,35.97,2
-0.2643231153488159,-0.91434246301651,0.1379065811634063,17.406288146972656,1.962374329566956,92.07000732421876,35.97,2
-0.287180632352829,-1.079376459121704,0.1388804763555526,3.983707904815674,1.962366342544556,92.07000732421876,35.97,2
-0.3074470460414886,-1.2804479598999023,0.139505460858345,-7.163012981414795,1.962361216545105,92.07000732421876,35.97,2
-0.3932239115238189,-1.3087241649627686,0.1734931915998459,-16.18644142150879,1.9623578786849976,92.07000732421876,35.97,2
-0.4650638997554779,-1.2149146795272827,0.2120978832244873,-23.48900604248047,1.9623557329177856,92.07000732421876,35.97,2
-0.427200049161911,-1.1043332815170288,0.2144810557365417,-29.35403823852539,1.9623544216156008,92.07000732421876,35.97,2
-0.3077390491962433,-1.1229327917099,0.2216082066297531,-33.984859466552734,1.9623535871505733,92.07000732421876,35.97,2
-0.2030869871377945,-1.1068800687789917,0.2429753243923187,-35.992942810058594,1.962352991104126,92.07000732421876,35.97,2
-0.1135362163186073,-1.0406006574630735,0.2454919666051864,-33.16165542602539,1.958680510520935,92.04492950439452,35.95,2
-0.0784587860107421,-0.9868707656860352,0.219118133187294,-25.61257553100586,1.956323742866516,92.0288314819336,35.95,2
-0.1119258478283882,-0.918803334236145,0.1406174004077911,-16.393686294555664,1.954811215400696,92.01850128173828,35.95,2
-0.172587513923645,-0.8639260530471802,0.0678490549325943,-8.439047813415527,1.953840613365173,92.01187133789062,35.95,2
-0.306678831577301,-0.8287089467048645,0.0491393916308879,-2.3669235706329346,1.9532177448272705,92.00762176513672,35.95,2
-0.4151220321655273,-0.8284997344017029,0.1099036708474159,2.618919610977173,1.9528180360794067,92.00489044189452,35.95,2
-0.4735190868377685,-0.8339632749557495,0.1656920164823532,7.093943595886231,1.9525614976882928,92.00313568115234,35.95,2
-0.471810519695282,-0.8150783181190491,0.1791026592254638,11.101432800292969,1.952396869659424,92.00201416015624,35.95,2
-0.4707140624523163,-0.8029590845108032,0.1989043951034546,14.651251792907717,1.951831936836243,92.00128936767578,35.95,2
-0.492401510477066,-0.800779402256012,0.2563942074775696,17.656583786010742,1.9514694213867188,92.00082397460938,35.95,2
-0.5063192844390869,-0.8497605919837952,0.2988856434822082,19.09800338745117,1.951236724853516,92.00052642822266,35.95,2
-0.5264464616775513,-0.9091827869415284,0.3149586319923401,17.038738250732422,1.951087474822998,92.00033569335938,35.95,2
-0.5337651371955872,-1.008892059326172,0.336468905210495,10.490242004394531,1.9509916305541992,92.00021362304688,35.95,2
-0.5048751831054688,-1.106466293334961,0.3614685237407684,0.93900865316391,1.950930118560791,92.00013732910156,35.95,2
-0.4359553158283233,-1.169083833694458,0.3943051397800445,-8.651190757751465,1.9508906602859497,92.00009155273438,35.95,2
-0.408519834280014,-1.2372571229934692,0.3985844850540161,-16.03087043762207,1.950865387916565,92.00006103515624,35.95,2
-0.3909133374691009,-1.2306268215179443,0.3789396286010742,-20.641332626342773,1.951308369636536,92.00003814697266,35.95,2
-0.3740167021751404,-1.159198522567749,0.3271482586860657,-22.87638282775879,1.9515926837921145,92.0000228881836,35.95,2
-0.3519778847694397,-1.096566677093506,0.2827159762382507,-22.856184005737305,1.951775074005127,92.00001525878906,35.95,2
-0.3210413157939911,-1.0675686597824097,0.2262130379676818,-20.41423416137696,1.9518921375274656,92.00000762939452,35.95,2
-0.3347746431827545,-1.0601550340652466,0.1619638353586197,-16.020479202270508,1.9519673585891724,92.00000762939452,35.95,2
-0.3155990242958069,-1.0330063104629517,0.1095368415117263,-10.617783546447754,1.9520155191421509,92.00000762939452,35.95,2
-0.2473154813051223,-0.9819971323013306,0.0982833132147789,-4.807640075683594,1.952046513557434,92.00000762939452,35.95,2
-0.2090928107500076,-0.9492623805999756,0.0910614430904388,0.7337588667869568,1.952066421508789,92.00000762939452,35.95,2
-0.2461392134428024,-0.9394506216049194,0.0472424440085887,4.662497520446777,1.9525381326675413,92.00000762939452,35.95,2
-0.3035001158714294,-0.9275562763214112,-0.0200624894350767,6.180614471435547,1.952840805053711,92.00000762939452,35.95,2
-0.340311050415039,-0.9199231266975404,-0.0688526928424835,6.1338210105896,1.9530349969863887,92.00000762939452,35.95,2
-0.352738618850708,-0.9206224083900452,-0.0945656672120094,5.910332679748535,1.9531596899032595,92.00000762939452,35.95,2
-0.3327250480651855,-0.9210711717605592,-0.088675670325756,6.039186000823975,1.953239679336548,92.00000762939452,35.95,2
-0.3086859583854675,-0.9157613515853882,-0.07370026409626,6.60194206237793,1.953291058540344,92.00000762939452,35.95,2
-0.2820634841918945,-0.9179515838623048,-0.0472965873777866,8.571662902832031,1.9533239603042605,92.00000762939452,35.95,2
-0.2649787366390228,-0.9305527210235596,-0.0247544534504413,14.070321083068848,1.9533450603485107,92.00000762939452,35.95,2
-0.2484169453382492,-0.9610304832458496,-0.0046904343180358,24.954071044921875,1.949227213859558,91.97492980957033,35.99,2
-0.2377885431051254,-0.9805893898010254,0.0025877237785607,39.888370513916016,1.9465845823287964,91.95883178710938,35.99,2
-0.2309678345918655,-1.0099345445632937,0.0016606521094217,52.32407379150391,1.944888710975647,91.94850158691406,35.99,2
-0.2489818036556244,-1.0567554235458374,0.0178590342402458,53.85953903198242,1.943800449371338,91.9418716430664,35.99,2
-0.2885310053825378,-1.086802363395691,0.0394497737288475,41.729103088378906,1.94310200214386,91.9376220703125,35.99,2
-0.3642913699150085,-0.9829337000846864,0.064501017332077,21.297996520996094,1.942653775215149,91.93489074707033,35.99,2
-0.424105554819107,-0.8826901316642761,0.0693819150328636,0.5627659559249878,1.942366123199463,91.93313598632812,35.99,2
-0.4289042055606842,-0.9247173070907592,0.0725141912698745,-15.28037452697754,1.9421815872192385,91.93201446533205,35.99,2
-0.5047547817230225,-1.1476099491119385,0.4215863347053528,-24.24026298522949,1.939767837524414,91.93128967285156,35.99,2
-0.2119670808315277,-1.1619008779525757,0.936685025691986,-26.626163482666016,1.9382188320159912,91.93082427978516,35.99,2
-0.2311904430389404,-1.0815075635910034,0.8809992671012878,-24.70727729797364,1.9372247457504272,91.93052673339844,35.99,2
-0.243526890873909,-0.9795358180999756,0.6605367660522461,-21.14000701904297,1.936586737632752,91.93033599853516,35.99,2
-0.2458459287881851,-0.914096176624298,0.4742744565010071,-17.131101608276367,1.936177372932434,91.93021392822266,35.99,2
-0.2977141141891479,-0.8609052300453186,0.3043620586395263,-12.437533378601074,1.935914635658264,91.93013763427734,35.99,2
-0.3365979194641113,-0.8211725950241089,0.1785287261009216,-7.053805828094482,1.93574607372284,91.93009185791016,35.99,2
-0.333562433719635,-0.7900766730308533,0.0809828117489814,-2.4201722145080566,1.9356378316879272,91.93006134033205,35.99,2
-0.30922332406044,-0.7869144678115845,0.0127856889739632,-0.223991647362709,1.9318962097167969,91.93003845214844,35.99,2
-0.2880061268806457,-0.7904828786849976,-0.025381525978446,-0.2261441797018051,1.929495096206665,91.93002319335938,35.99,2
-0.2855857014656067,-0.8151640295982361,-0.0330817252397537,-0.6574345827102661,1.927954196929932,91.93001556396484,35.99,2
-0.28403240442276,-0.8477962613105774,-0.0156321730464696,-0.482807457447052,1.926965355873108,91.93000793457033,35.99,2
-0.2942311465740204,-0.8911288380622864,0.0291525907814502,0.0340892150998115,1.926330804824829,91.93000793457033,35.99,2
-0.3231672048568725,-0.9301327466964722,0.0578928776085376,0.3801340460777282,1.925923585891724,91.93000793457033,35.99,2
-0.3529322445392608,-0.9495654702186584,0.0819345116615295,0.1579663306474685,1.9256621599197388,91.93000793457033,35.99,2
-0.4056203663349151,-0.9620362520217896,0.1085585951805114,-1.0593807697296145,1.9254944324493408,91.93000793457033,35.99,2
-0.4282370209693908,-0.9756370782852172,0.1368399560451507,-3.4384329319000244,1.9253867864608765,91.93000793457033,35.99,2
-0.364382266998291,-1.0963207483291626,0.1829781681299209,-6.770789623260498,1.9253177642822263,91.93000793457033,35.99,2
-0.3401972651481628,-1.1793663501739502,0.2461736649274826,-10.49638557434082,1.9252734184265137,91.93000793457033,35.99,2
-0.3358722925186157,-1.1542913913726809,0.2867288887500763,-13.643181800842283,1.925244927406311,91.93000793457033,35.99,2
-0.3554878532886505,-1.0206464529037476,0.2567771673202514,-15.264948844909668,1.925226688385009,91.93000793457033,35.99,2
-0.379271537065506,-0.9516741633415222,0.2095669955015182,-15.195106506347656,1.9252150058746336,91.93000793457033,35.99,2
-0.4225234091281891,-0.991378366947174,0.1792702227830886,-13.882054328918455,1.925207495689392,91.93000793457033,35.99,2
-0.4894644021987915,-1.0448471307754517,0.1598275005817413,-11.77476406097412,1.92520272731781,91.93000793457033,35.99,2
-0.5156299471855164,-1.073562502861023,0.1417525112628936,-9.308245658874512,1.925658583641052,91.90850830078124,35.95,2
-0.4708459675312042,-1.0751971006393433,0.1077619269490242,-7.098424911499023,1.9259511232376096,91.89471435546876,35.95,2
-0.4141173362731933,-1.065050482749939,0.0803509503602981,-5.493995189666748,1.9261388778686523,91.8858642578125,35.95,2
-0.3385277390480041,-1.0305501222610474,0.0683579370379448,-3.9950473308563232,1.9262592792510984,91.88018035888672,35.95,2
-0.2788231372833252,-1.019605278968811,0.0662592872977256,-1.6860604286193848,1.9263365268707275,91.87653350830078,35.95,2
-0.2405081540346145,-1.0237771272659302,0.0705102682113647,1.6765668392181396,1.9263861179351809,91.87419128417967,35.95,2
-0.2327131330966949,-1.0488454103469849,0.0676405280828476,5.536230564117432,1.9264179468154907,91.87268829345705,35.95,2
-0.2389062792062759,-1.0649328231811523,0.0602011196315288,9.607386589050291,1.9264384508132928,91.8717269897461,35.95,2
-0.2316851466894149,-1.058463454246521,0.0442313887178897,14.405391693115234,1.924615502357483,91.87110900878906,35.95,2
-0.2102577090263366,-1.0487140417099,0.0227873846888542,20.905834197998047,1.9234455823898315,91.87071228027344,35.95,2
-0.2021045833826065,-1.0480551719665527,0.0034280829131603,30.10379981994629,1.9226948022842407,91.8704605102539,35.95,2
-0.2024701535701751,-1.047632336616516,-0.0257889274507761,41.47711563110352,1.9222129583358765,91.87030029296876,35.95,2
-0.2083025276660919,-1.052958846092224,-0.0557342693209648,51.272911071777344,1.9219038486480715,91.87019348144533,35.95,2
-0.2120454162359237,-1.0787681341171265,-0.0973425656557083,54.33138656616211,1.9217054843902588,91.87012481689452,35.95,2
-0.2312407046556472,-1.0393532514572144,-0.1352399289608001,47.95748901367188,1.9215781688690183,91.87007904052734,35.95,2
-0.2603524625301361,-0.9860702157020568,-0.1483647227287292,32.546146392822266,1.9214963912963867,91.87004852294922,35.95,2
-0.3294146955013275,-0.9014962911605836,-0.1287985891103744,10.747554779052734,1.9196075201034544,91.87003326416016,35.95,2
-0.3849304020404815,-0.8528193831443787,-0.1050466150045394,-11.710735321044922,1.9183954000473025,91.87002563476562,35.95,2
-0.4261549413204193,-0.894352376461029,-0.0842061936855316,-28.004024505615234,1.9176174402236936,91.8700180053711,35.95,2
-0.447012722492218,-0.9937769770622252,-0.0708320140838623,-35.75885772705078,1.9171181917190552,91.87001037597656,35.95,2
-0.4492024779319763,-1.0799729824066162,-0.062249232083559,-38.01628875732422,1.916797876358032,91.87001037597656,35.95,2
-0.4002277851104736,-1.1520819664001465,-0.0455457493662834,-38.250484466552734,1.916592240333557,91.87001037597656,35.95,2
-0.3855919539928436,-1.2095528841018677,-0.0348264127969741,-37.47289276123047,1.9164602756500244,91.87001037597656,35.95,2
-0.314624011516571,-1.2520322799682615,0.0840081200003624,-35.89194107055664,1.916375637054444,91.87001037597656,35.95,2
-0.0787565410137176,-1.1729353666305542,0.350593626499176,-33.94590759277344,1.9149441719055176,91.87001037597656,35.95,2
0.061414074152708,-1.088588833808899,0.4768906533718109,-30.93442726135254,1.91402554512024,91.87001037597656,35.95,2
0.0785964354872703,-0.9728845953941344,0.4515831172466278,-24.713489532470703,1.9134360551834104,91.87001037597656,35.95,2
0.0392431207001209,-0.898632287979126,0.3849622011184692,-14.17946720123291,1.9130576848983765,91.87001037597656,35.95,2
-0.109162613749504,-0.873372495174408,0.2694376707077026,-1.515252947807312,1.9128148555755613,91.87001037597656,35.95,2
-0.2771719396114349,-0.840368926525116,0.161714032292366,8.675474166870117,1.9126590490341189,91.87001037597656,35.95,2
-0.3793928623199463,-0.8135913610458374,0.1037787571549415,12.628676414489746,1.912559032440185,91.87001037597656,35.95,2
-0.3610257506370544,-0.779613733291626,0.0889903306961059,10.382875442504885,1.9124948978424072,91.87001037597656,35.95,2
-0.2820655107498169,-0.7634066343307495,0.1074888408184051,5.574028968811035,1.912453770637512,91.8485107421875,35.97,2
-0.2257955968379974,-0.7977880239486694,0.2201200574636459,1.6174219846725464,1.912427306175232,91.834716796875,35.97,2
-0.3632158041000366,-0.903818666934967,0.1972381323575973,-1.351609706878662,1.912410378456116,91.82585906982422,35.97,2
-0.5017841458320618,-0.9270808100700378,0.1097827553749084,-4.786723136901856,1.9123995304107664,91.82017517089844,35.97,2
-0.5291338562965393,-0.975595772266388,0.0424633808434009,-8.22716999053955,1.912392497062683,91.8165283203125,35.97,2
-0.5634786486625671,-1.0683053731918335,-0.0119338659569621,-9.381772994995115,1.91238796710968,91.8141860961914,35.97,2
-0.5519325137138367,-1.150192141532898,-0.0300495661795139,-7.066793918609619,1.912385106086731,91.81268310546876,35.97,2
-0.4829473197460174,-1.0907869338989258,-0.0192840825766325,-2.270873785018921,1.912383317947388,91.8117218017578,35.97,2
-0.3994921743869781,-1.0078818798065186,-0.0011798647465184,3.357665538787842,1.909627914428711,91.81110382080078,35.97,2
-0.3235443830490112,-0.9994603395462036,0.0328294783830642,8.535323143005371,1.9078595638275144,91.81070709228516,35.97,2
-0.2971965372562408,-1.0276426076889038,0.0658502653241157,12.162565231323242,1.9067248106002808,91.81045532226562,35.97,2
-0.3642546236515045,-1.0625215768814087,0.1150299832224845,13.58034610748291,1.905996561050415,91.81029510498048,35.97,2
-0.4296797513961792,-1.079307198524475,0.1297973692417144,13.171808242797852,1.905529260635376,91.81018829345705,35.97,2
-0.4548725187778473,-1.0732859373092651,0.1280786693096161,11.85635471343994,1.9052293300628664,91.81011962890624,35.97,2
-0.4262575805187225,-1.0358351469039917,0.1269757151603698,9.976808547973633,1.9050368070602417,91.81007385253906,35.97,2
-0.3911008536815643,-1.000605821609497,0.1262678951025009,7.179960250854492,1.904913306236267,91.81004333496094,35.97,2
-0.3405503928661346,-0.9891932606697084,0.1202158853411674,3.317957878112793,1.9039161205291748,91.81002807617188,35.97,2
-0.2801211476325989,-0.9650759696960448,0.0995387360453605,-1.1631125211715698,1.9032762050628664,91.81002044677734,35.97,2
-0.2301456034183502,-0.96639221906662,0.0806715562939643,-5.697537899017334,1.902865529060364,91.8100128173828,35.97,2
-0.1812808513641357,-0.9840302467346193,0.0685636848211288,-9.911528587341309,1.9026020765304563,91.81000518798828,35.97,2
-0.1611178070306778,-0.9841537475585938,0.0663913264870643,-13.486391067504885,1.902432918548584,91.81000518798828,35.97,2
-0.1761672049760818,-0.9954285621643066,0.0817905515432357,-16.300004959106445,1.9023244380950928,91.81000518798828,35.97,2
-0.1914228200912475,-1.019457459449768,0.0692817941308021,-18.63584327697754,1.9022548198699951,91.81000518798828,35.97,2
-0.2124085426330566,-1.0684643983840942,0.03886329382658,-20.446533203125,1.9022101163864136,91.81000518798828,35.97,2
-0.2706581652164459,-1.1502941846847534,-0.0030486471951007,-20.34387969970703,1.904476404190064,91.81000518798828,35.97,2
-0.3416260480880737,-1.1412323713302612,-0.0411408692598342,-16.226110458374023,1.905930757522583,91.81000518798828,35.97,2
-0.3927669525146484,-1.0178637504577637,-0.0655862614512443,-7.618574142456055,1.906864047050476,91.81000518798828,35.97,2
-0.4031951427459717,-1.0282572507858276,-0.0588828101754188,3.0928163528442383,1.9074630737304688,91.81000518798828,35.97,2
-0.3986918032169342,-1.0685138702392578,-0.0489831455051898,12.513981819152832,1.9078474044799805,91.81000518798828,35.97,2
-0.4069973528385162,-1.0887504816055298,-0.0370323359966278,18.81788825988769,1.908094048500061,91.81000518798828,35.97,2
-0.3899362981319427,-1.0793460607528689,-0.0125696724280714,21.781435012817383,1.9082523584365845,91.81000518798828,35.97,2
-0.3565963804721832,-1.050919771194458,0.0031290568877011,21.411914825439453,1.9083539247512813,91.81000518798828,35.97,2
-0.3016141057014465,-0.9934929609298706,0.0020080485846847,18.15825080871582,1.9065830707550049,91.78850555419922,35.97,2
-0.2607318758964538,-0.939846396446228,-0.0043091243132948,14.146392822265623,1.9054466485977173,91.77471160888672,35.97,2
-0.240093782544136,-0.8830280303955078,0.0028324266895651,12.442378997802734,1.9047173261642456,91.76586151123048,35.97,2
-0.2380449920892715,-0.8409675359725952,0.0074154627509415,14.311631202697754,1.9042493104934688,91.76017761230467,35.97,2
-0.2647190690040588,-0.8139755129814148,0.0047588171437382,17.85421371459961,1.9039490222930908,91.75653076171876,35.97,2
-0.2986302673816681,-0.8022513389587402,-0.0025438391603529,19.776546478271484,1.9037562608718872,91.75418853759766,35.97,2
-0.3203925192356109,-0.8003252148628235,-0.0128280380740761,17.850357055664062,1.9036325216293333,91.752685546875,35.97,2
-0.3287605047225952,-0.8382735848426819,-0.0250256191939115,11.910319328308104,1.903553128242493,91.75172424316406,35.97,2
-0.345326155424118,-0.8738222122192383,-0.0328533239662647,3.946139097213745,1.9044203758239744,91.75110626220705,35.97,2
-0.3727503716945648,-0.902233064174652,-0.0322789214551448,-3.1567251682281494,1.9049769639968872,91.7507095336914,35.97,2
-0.4015451967716217,-0.9820410013198853,-0.031910303980112,-8.055279731750488,1.905334115028381,91.75045776367188,35.97,2
-0.4256218373775482,-1.0948326587677002,-0.0372715182602405,-10.905118942260742,1.9055633544921875,91.75029754638672,35.97,2
-0.4298772811889648,-1.279171347618103,-0.0183209404349327,-11.401263236999512,1.9057104587554927,91.75019073486328,35.97,2
-0.38782599568367,-1.403067111968994,0.0050359982997179,-9.831642150878906,1.9058048725128167,91.7501220703125,35.97,2
-0.2488843947649002,-1.3482296466827393,0.00323181389831,-8.616560935974121,1.9058654308319087,91.75007629394533,35.97,2
-0.1205352619290351,-1.257060408592224,0.0244650896638631,-9.036953926086426,1.9059042930603027,91.7500457763672,35.97,2
-0.0549614988267421,-1.1873576641082764,0.0492869317531585,-8.755022048950195,1.9063881635665887,91.75003051757812,35.97,2
-0.0800533220171928,-1.1034420728683472,0.0540206134319305,-5.564730644226074,1.9066987037658687,91.7500228881836,35.97,2
-0.1297424584627151,-1.0216009616851809,0.034667320549488,-0.6190815567970276,1.906898021697998,91.75001525878906,35.97,2
-0.2288033813238144,-0.946688950061798,-0.0169369280338287,3.9089651107788086,1.907025933265686,91.75000762939452,35.97,2
-0.3315593898296356,-0.8930169939994812,-0.0780424401164054,7.144401550292969,1.9071080684661863,91.75000762939452,35.97,2
-0.3919045031070709,-0.8585733771324158,-0.1116586625576019,8.48629093170166,1.907160758972168,91.75000762939452,35.97,2
-0.4026416540145874,-0.847665011882782,-0.1108405217528343,7.129823684692383,1.9071944952011108,91.75000762939452,35.97,2
-0.3815432786941528,-0.8518602252006531,-0.093522161245346,3.486407518386841,1.907216191291809,91.75000762939452,35.97,2
-0.3400146663188934,-0.8545524477958679,-0.0544193647801876,-0.6824232339859009,1.9040168523788448,91.75000762939452,35.97,2
