acc_x,acc_y,acc_z,bvp,eda,hr,temp,label
0.0,0.0,0.0,0.0,0.0,0.0,23.05,2
-0.0104166660457849,-0.0182291660457849,0.1614583283662796,-1.936666488647461,0.2268681526184082,10.541666030883787,23.05,2
-0.0201981719583272,-0.0426829271018505,0.3822408616542816,-4.797561168670654,0.5312035083770752,24.68292808532715,23.05,2
-0.0237230081111192,-0.073920264840126,0.5842503905296326,-7.257342338562012,0.7959228754043579,36.98339080810547,23.05,2
-0.0316327661275863,-0.0967095866799354,0.7369654774665833,-10.015323638916016,0.9890499711036682,45.95724105834961,23.05,2
-0.0479674488306045,-0.0846903175115585,0.8293805718421936,-13.832542419433594,1.119805097579956,52.03291702270508,23.05,2
-0.0697915032505989,-0.09901624917984,0.895571231842041,-17.598846435546875,1.205599308013916,56.01943206787109,23.05,2
-0.067187875509262,-0.1138737872242927,0.9384397268295288,-20.13807678222656,1.2611639499664309,58.60130310058594,23.05,2
-0.0655106902122497,-0.1178544238209724,0.9381034970283508,-22.48574447631836,1.2905391454696655,60.26447296142578,23.05,2
-0.0700273364782333,-0.1260075867176056,0.9266981482505798,-26.61566734313965,1.3094197511672974,61.33346176147461,23.05,2
-0.0617347471415996,-0.1144537255167961,0.936163604259491,-33.36882019042969,1.3215440511703491,62.01991653442383,23.05,2
-0.0508143939077854,-0.1238288953900337,0.9366423487663268,-41.36479187011719,1.3293267488479614,62.4605598449707,23.05,2
-0.0438055768609046,-0.12984599173069,0.9425471425056458,-46.02382278442383,1.3343218564987185,62.74337005615234,23.05,2
-0.0505028888583183,-0.1281099021434784,0.9463366866111756,-43.09195327758789,1.3375275135040283,62.92486953735352,23.05,2
-0.0548009164631366,-0.132593497633934,0.9487686157226562,-34.912288665771484,1.3395848274230957,63.04134750366211,23.05,2
-0.0519614033401012,-0.1410685926675796,0.9615248441696168,-28.38761711120605,1.3409050703048706,63.1161003112793,23.05,2
-0.0557369329035282,-0.1353119015693664,0.9697110652923584,-27.18114471435547,1.355523705482483,63.16407012939453,23.05,2
-0.0637576207518577,-0.1372153609991073,0.969366729259491,-31.37592887878418,1.3649051189422607,63.194854736328125,23.05,2
-0.0689048394560813,-0.138436883687973,0.9747435450553894,-41.44800567626953,1.3709256649017334,63.2146110534668,23.05,2
-0.0778058022260665,-0.1392207890748977,0.972596287727356,-56.545692443847656,1.3747892379760742,63.22729110717773,23.05,2
-0.0779201537370681,-0.139723852276802,0.9768161177635192,-72.740478515625,1.377268671989441,63.23542785644531,23.05,2
-0.0835913121700286,-0.1400467008352279,0.9739263653755188,-87.90534973144531,1.3788598775863647,63.24065017700195,23.05,2
-0.0928285121917724,-0.1402538865804672,0.9664741158485411,-105.49388122558594,1.3798810243606567,63.24399948120117,23.05,2
-0.1043541878461837,-0.1347890645265579,0.961691677570343,-129.15182495117188,1.3805363178253174,63.24615097045898,23.05,2
-0.1005551591515541,-0.1312820613384246,0.964220404624939,-152.58837890625,1.3823338747024536,63.24752807617188,23.05,2
-0.1093127056956291,-0.1290314644575119,0.965843141078949,-159.4281005859375,1.3834874629974363,63.2484130859375,23.05,2
-0.1149327978491783,-0.127587154507637,0.9668845534324646,-136.6185302734375,1.3842277526855469,63.24898147583008,23.05,2
-0.112941674888134,-0.1266602873802185,0.9675528407096864,-85.97576904296875,1.3847029209136963,63.24934768676758,23.05,2
-0.1116638854146003,-0.1260654777288437,0.9623839855194092,-22.21818923950196,1.3850078582763672,63.24958038330078,23.05,2
-0.1108438745141029,-0.1256837695837021,0.9590668678283693,37.31282043457031,1.38520348072052,63.24972915649414,23.05,2
-0.1103176400065422,-0.1254388093948364,0.95134037733078,82.49884033203125,1.385329008102417,63.24982452392578,23.05,2
-0.1155777052044868,-0.1364771574735641,0.9295886158943176,113.5100326538086,1.385409593582153,63.24988555908203,23.05,2
-0.1189533099532127,-0.149158701300621,0.904434084892273,135.34939575195312,1.3872973918914795,64.6650390625,23.07,2
-0.1323151290416717,-0.1684925407171249,0.8547046780586243,151.5213623046875,1.388508915901184,65.57320404052734,23.07,2
-0.146487757563591,-0.1864976584911346,0.805997908115387,163.3541259765625,1.3892863988876345,66.15601348876953,23.07,2
-0.1667784750461578,-0.2204433977603912,0.7467517852783203,171.187744140625,1.3897852897644043,66.530029296875,23.07,2
-0.1797998994588852,-0.2422278225421905,0.697535514831543,175.6094512939453,1.3901054859161377,66.77005004882812,23.07,2
-0.2049496173858642,-0.2618055939674377,0.6379624605178833,179.2567138671875,1.3903110027313232,66.92407989501953,23.07,2
-0.2210892587900161,-0.3023583590984344,0.5997319221496582,185.233627319336,1.3904428482055664,67.0229263305664,23.07,2
-0.2258489727973938,-0.345176100730896,0.5751977562904358,193.36477661132807,1.3905274868011477,67.08636474609375,23.07,2
-0.2233057171106338,-0.4118384718894958,0.5706486701965332,201.42027282714844,1.3924181461334229,67.1270751953125,23.07,2
-0.2104780524969101,-0.4826074242591858,0.5789248943328857,209.5347137451172,1.3936314582824707,67.1531982421875,23.07,2
-0.1686593443155288,-0.6119894981384277,0.5954316258430481,220.2628326416016,1.3944101333618164,67.16996765136719,23.07,2
-0.1250291764736175,-0.7565949559211731,0.6116225123405457,234.4273223876953,1.3949098587036133,67.18072509765625,23.07,2
-0.1082253977656364,-0.877383291721344,0.6332083940505981,247.4652709960937,1.3952305316925049,67.18762969970703,23.07,2
-0.0862461552023887,-1.0108760595321655,0.6862454414367676,249.6666717529297,1.3954362869262695,67.19206237792969,23.07,2
-0.0609455928206443,-1.0853484869003296,0.7314770817756653,232.177734375,1.3955683708190918,67.19490814208984,23.07,2
-0.0223180502653121,-1.121945023536682,0.7828952670097351,193.64794921875,1.3956531286239624,67.19673156738281,23.07,2
0.0248619802296161,-1.1566261053085327,0.8830657601356506,138.42327880859375,1.3980025053024292,67.1978988647461,23.07,2
0.021552762016654,-1.1564913988113403,0.924958348274231,69.37870788574219,1.3995102643966677,67.19865417480469,23.07,2
-0.0813308432698249,-1.0948294401168823,0.8510826230049133,-10.243570327758787,1.4004777669906616,67.19913482666016,23.07,2
-0.1585511714220047,-1.0104761123657229,0.7588912844657898,-88.00567626953125,1.4010987281799316,67.1994400024414,23.07,2
-0.2304978221654892,-0.9283541440963744,0.6381526589393616,-146.10943603515625,1.4014972448349,67.19963836669922,23.07,2
-0.2430824041366577,-0.8980440497398376,0.5606695413589478,-176.90187072753906,1.4017529487609863,67.19976806640625,23.07,2
-0.2511584460735321,-0.9065816402435304,0.5333364605903625,-186.49891662597656,1.4019169807434082,67.1998519897461,23.07,2
-0.3011233806610107,-0.9736360907554626,0.5325889587402344,-183.46128845214844,1.4020222425460815,67.19990539550781,23.07,2
-0.3275902271270752,-1.0166678428649902,0.4929248392581939,-172.7023468017578,1.4057623147964478,67.19993591308594,23.07,2
-0.2885974049568176,-1.016294240951538,0.4450795948505401,-158.5574951171875,1.4081624746322632,67.19995880126953,23.07,2
-0.2243896275758743,-0.9432834386825562,0.3807886242866516,-144.5146942138672,1.4097027778625488,67.1999740600586,23.07,2
-0.1831847727298736,-0.9020270705223083,0.3283348381519317,-130.14329528808594,1.410691261291504,67.19998168945312,23.07,2
-0.1791329681873321,-0.9483221769332886,0.3002707958221435,-113.6013641357422,1.4113256931304932,67.19998931884766,23.07,2
-0.1821305155754089,-0.9892272353172302,0.2990542352199554,-95.99610137939452,1.411732792854309,67.19998931884766,23.07,2
-0.1840541809797287,-0.9930866360664368,0.3038712739944458,-80.33805847167969,1.4119939804077148,67.19998931884766,23.07,2
-0.1796908974647522,-0.9899656176567078,0.2957670390605926,-67.61702728271484,1.4121617078781128,67.19998931884766,23.07,2
-0.1768907904624939,-0.9767671823501588,0.2849684357643127,-56.4082145690918,1.4113510847091677,70.3526611328125,23.07,2
-0.1862893998622894,-0.9626994132995604,0.2612451910972595,-45.65396118164063,1.410830855369568,72.37586212158203,23.07,2
-0.1979186534881591,-0.9592692852020264,0.2404231876134872,-35.88644027709961,1.4104970693588257,73.67424011230469,23.07,2
-0.1885883212089538,-0.9570680260658264,0.2438541501760482,-27.8161735534668,1.410282850265503,74.50746154785156,23.07,2
-0.1602095514535904,-0.9500576257705688,0.2516537308692932,-21.14678955078125,1.410145282745361,75.04217529296875,23.07,2
-0.1363999098539352,-0.9343631863594056,0.2510612607002258,-15.039648056030272,1.4100570678710938,75.38532257080078,23.07,2
-0.1379135847091674,-0.9242914319038392,0.245083287358284,-9.35422706604004,1.4100004434585571,75.60553741455078,23.07,2
-0.144482746720314,-0.9234257340431212,0.2468447387218475,-4.87091064453125,1.409964084625244,75.74685668945312,23.07,2
-0.1486984491348266,-0.9284679293632508,0.2591706812381744,-2.2911300659179688,1.4085636138916016,75.8375473022461,23.07,2
-0.1346105188131332,-0.9540948271751404,0.2950696349143982,-1.6136183738708496,1.4076648950576782,75.89574432373047,23.07,2
-0.1199719309806823,-0.976138472557068,0.3237052857875824,-2.5437917709350586,1.4070881605148315,75.93309783935547,23.07,2
-0.0993821769952774,-1.0126758813858032,0.3308864533901214,-4.663318157196045,1.4067180156707764,75.95706939697266,23.07,2
-0.0749733075499534,-1.0473190546035769,0.3466904759407043,-7.094697952270508,1.4064804315567017,75.97245025634766,23.07,2
-0.0817001983523368,-0.9743888974189758,0.3568325638771057,-8.884303092956543,1.4063279628753662,75.9823226928711,23.07,2
-0.1196037754416465,-0.8884021043777466,0.3633411824703216,-9.774823188781738,1.4062302112579346,75.98865509033203,23.07,2
-0.1495258808135986,-0.8612096309661865,0.3563224971294403,-10.12777042388916,1.4061673879623413,75.99272155761719,23.07,2
-0.135141521692276,-0.899736762046814,0.3350249826908111,-10.25037670135498,1.409340739250183,75.99533081054688,23.07,2
-0.1203126981854438,-0.9356568455696106,0.3157596886157989,-10.1427640914917,1.411377191543579,75.99700164794922,23.07,2
-0.1219919621944427,-0.9363171458244324,0.3145918846130371,-9.633048057556152,1.4126840829849243,75.99807739257812,23.07,2
-0.1342651695013046,-0.9311431646347046,0.3194402158260345,-8.50344467163086,1.413522720336914,75.99876403808594,23.07,2
-0.1477391719818115,-0.927822768688202,0.3225516080856323,-6.78615665435791,1.4140609502792358,75.99920654296875,23.07,2
-0.1619837880134582,-0.8977030515670776,0.3189505338668823,-4.587831974029541,1.4144062995910645,75.9994888305664,23.07,2
-0.187918484210968,-0.8503850698471069,0.3054440319538116,-1.2854737043380735,1.4146279096603394,75.99967193603516,23.07,2
-0.2045618891716003,-0.8032258152961731,0.2967763245105743,4.09393310546875,1.4147701263427734,75.99978637695312,23.07,2
-0.2264382094144821,-0.767363965511322,0.2856161296367645,10.666550636291504,1.412566065788269,75.99986267089844,23.07,2
-0.2516727149486542,-0.7443498969078064,0.2840519249439239,15.196162223815918,1.411151647567749,75.99990844726562,23.07,2
-0.273464560508728,-0.7407763004302979,0.2830481231212616,15.043486595153809,1.4102439880371094,75.99993896484375,23.07,2
-0.287449300289154,-0.7552763223648071,0.2824039459228515,10.78255558013916,1.4096614122390747,75.99996185302734,23.07,2
-0.290826141834259,-0.8149615526199341,0.3043816387653351,5.282386302947998,1.4092875719070437,75.9999771118164,23.07,2
-0.3209820687770843,-0.9092418551445008,0.3464745283126831,1.2582992315292358,1.4090477228164673,75.99998474121094,23.07,2
-0.3571277260780334,-0.9921365976333618,0.3902806341648102,-0.2421906143426895,1.4088937044143677,75.99999237060547,23.07,2
-0.3971172571182251,-1.1125069856643677,0.4127950966358185,-0.0801899060606956,1.40879487991333,75.99999237060547,23.07,2
-0.428378015756607,-1.217742681503296,0.4328413605690002,-0.0765392929315567,1.4124040603637695,78.71200561523438,23.05,2
-0.3588749766349792,-1.251690149307251,0.4569014608860016,-1.2815245389938354,1.4147201776504517,80.4524154663086,23.05,2
-0.2359030842781067,-1.1783136129379272,0.4163641035556793,-3.0543532371521,1.4162064790725708,81.5693130493164,23.05,2
-0.151389017701149,-1.164811372756958,0.3791539967060089,-4.102488517761231,1.4171603918075562,82.28607177734375,23.05,2
-0.0523705668747425,-1.1897330284118652,0.3664702475070953,-4.047858238220215,1.4177725315093994,82.74604797363281,23.05,2
-2.1770174498669803e-05,-1.1777374744415283,0.3695260882377624,-3.5040740966796875,1.4181653261184692,83.0412368774414,23.05,2
0.0559637732803821,-1.1252572536468506,0.410671591758728,-3.0404622554779053,1.4184174537658691,83.23066711425781,23.05,2
-0.0088678654283285,-1.041198492050171,0.403489738702774,-2.7393603324890137,1.4185792207717896,83.35223388671875,23.05,2
-0.0280819833278656,-0.976058840751648,0.3932830691337585,-2.5353827476501465,1.42097806930542,83.43025207519531,23.05,2
-0.0739991441369056,-0.9118648767471312,0.3419508337974548,-2.404481649398804,1.4225174188613892,83.48031616210938,23.05,2
-0.1034661382436752,-0.8650711178779602,0.297813206911087,-2.295398712158203,1.4235053062438965,83.51244354248047,23.05,2
-0.1223763525485992,-0.8238460421562195,0.275085985660553,-2.2146480083465576,1.4241392612457275,83.53306579589844,23.05,2
-0.1121207475662231,-0.7861945629119873,0.2828920781612396,-2.2559738159179688,1.4245461225509644,83.54629516601562,23.05,2
-0.0943437367677688,-0.7508364915847778,0.2934993505477905,-2.3648934364318848,1.4248071908950806,83.5547866821289,23.05,2
-0.1053265780210495,-0.7001568675041199,0.3059042394161224,-2.2198374271392822,1.424974799156189,83.56023406982422,23.05,2
-0.1347658336162567,-0.6564380526542664,0.319462776184082,-1.6825093030929563,1.4250823259353638,83.56373596191406,23.05,2
-0.1928426623344421,-0.6563706994056702,0.3337616324424743,-1.0904853343963623,1.4210199117660522,83.56597900390625,23.05,2
-0.2357108145952224,-0.7290984988212585,0.3765244483947754,-0.7463842034339905,1.4184129238128662,83.56742095947266,23.05,2
-0.2744166553020477,-0.8317487835884094,0.4263582825660705,-0.4718212783336639,1.4167399406433103,83.56834411621094,23.05,2
-0.2600714266300201,-1.0263726711273191,0.4807298481464386,-0.1308241188526153,1.4156662225723269,83.56893920898438,23.05,2
-0.2284743934869766,-1.151271104812622,0.5100246071815491,0.0163567289710044,1.4149771928787231,83.56932067871094,23.05,2
-0.2361861020326614,-1.085881590843201,0.5344220995903015,-0.1686319708824157,1.4145350456237793,83.56956481933594,23.05,2
-0.2747216820716858,-0.987940549850464,0.488503485918045,-0.4628932774066925,1.4142513275146484,83.56971740722656,23.05,2
-0.2770605087280273,-0.9530765414237976,0.4254488945007324,-0.7556279301643372,1.4140691757202148,83.56981658935547,23.05,2
-0.2393770068883896,-0.9866805672645568,0.3681907653808594,-1.0581306219100952,1.4157887697219849,83.56988525390625,23.05,2
-0.220791682600975,-0.9914523363113404,0.3314458131790161,-1.1340343952178955,1.4168922901153564,83.5699234008789,23.05,2
-0.242451325058937,-0.9385368824005128,0.3078650236129761,-0.8244875073432922,1.4176005125045776,83.56995391845703,23.05,2
-0.2787423431873321,-0.8541988134384155,0.2927322089672088,-0.5004480481147766,1.4180549383163452,83.5699691772461,23.05,2
-0.3188251554965973,-0.788879930973053,0.266227513551712,-0.5432784557342529,1.418346643447876,83.56997680664062,23.05,2
-0.3781346380710602,-0.7637553811073303,0.2548161149024963,-0.785719096660614,1.4185338020324707,83.56998443603516,23.05,2
-0.4105982780456543,-0.747631847858429,0.2810795903205871,-0.9233906269073486,1.4186538457870483,83.56999206542969,23.05,2
-0.4090404808521271,-0.742882490158081,0.3483139276504516,-1.0798091888427734,1.4187309741973877,83.56999206542969,23.05,2
-0.3352696895599365,-0.7510301470756531,0.402656614780426,-1.585020661354065,1.421075463294983,85.65147399902344,23.07,2
-0.2711345255374908,-0.7730522155761719,0.454323947429657,-2.3893015384674072,1.422580003738403,86.98724365234375,23.07,2
-0.2467695921659469,-0.8431624174118042,0.5266655087471008,-2.9985897541046143,1.423545479774475,87.84446716308594,23.07,2
-0.2535246908664703,-0.9105462431907654,0.5898834466934204,-2.977599620819092,1.42416512966156,88.39458465576172,23.07,2
-0.2858485877513885,-0.9593870639801024,0.6192575693130493,-2.373004198074341,1.424562692642212,88.74761962890625,23.07,2
-0.2953966557979584,-1.052305817604065,0.6381081342697144,-1.5336052179336548,1.42481791973114,88.97417449951172,23.07,2
-0.3015240728855133,-1.123131275177002,0.6334120631217957,-0.5865136384963989,1.424981713294983,89.11956024169922,23.07,2
-0.3222495913505554,-1.157387375831604,0.5744206309318542,0.4511842131614685,1.4250867366790771,89.21286010742188,23.07,2
-0.3355500400066376,-1.101002216339111,0.4917811453342438,1.2066833972930908,1.4246952533721924,89.27273559570312,23.07,2
-0.3888677060604095,-1.0200352668762207,0.3491834700107574,1.2150367498397827,1.4244439601898191,89.31116485595703,23.07,2
-0.4566705524921417,-1.035248637199402,0.2296836227178573,0.6149421334266663,1.424282789230347,89.33582305908203,23.07,2
-0.5113780498504639,-1.061805009841919,0.1250066310167312,0.0686200708150863,1.4241793155670166,89.35164642333984,23.07,2
-0.5576817393302917,-1.073249578475952,0.0186465475708246,-0.0168673750013113,1.4241129159927368,89.36180114746094,23.07,2
-0.5817990303039551,-1.0638006925582886,-0.04401146620512,0.3510156273841858,1.4240702390670776,89.36831665039062,23.07,2
-0.5804827809333801,-1.0801280736923218,-0.0450373478233814,1.049254059791565,1.4240429401397705,89.37249755859375,23.07,2
-0.5684425234794617,-1.107399344444275,-0.0177068300545215,1.6800545454025269,1.4240254163742063,89.37518310546875,23.07,2
-0.5495202541351318,-1.1137049198150637,0.0054300976917147,1.5725576877593994,1.4249323606491089,89.37690734863281,23.07,2
-0.5205836892127991,-1.1289470195770264,0.0370713733136653,0.568520188331604,1.4255143404006958,89.37801361083984,23.07,2
-0.4908183217048645,-1.1555218696594238,0.0629746913909912,-0.6167822480201721,1.4258878231048584,89.37872314453125,23.07,2
-0.4661188423633575,-1.1893693208694458,0.0851957276463508,-1.2699638605117798,1.426127552986145,89.37918090820312,23.07,2
-0.4278770685195923,-1.1886996030807495,0.0938581377267837,-1.4347753524780271,1.4262813329696655,89.37947082519531,23.07,2
-0.3921401500701904,-1.177074313163757,0.0994171723723411,-1.5154638290405271,1.4263800382614136,89.3796615600586,23.07,2
-0.3636084496974945,-1.136027216911316,0.0973868668079376,-1.7607041597366333,1.4264434576034546,89.3797836303711,23.07,2
-0.3508962392807007,-1.0872944593429563,0.1016817092895507,-2.279925346374512,1.4264841079711914,89.3798599243164,23.07,2
-0.2923583090305328,-0.9832494854927064,0.0932423397898674,-2.7349390983581543,1.4255919456481934,89.3799057006836,23.07,2
-0.2379987090826034,-0.8940883278846741,0.0878264382481575,-2.0488977432250977,1.4250195026397705,89.37993621826172,23.07,2
-0.1919182986021042,-0.8088809251785278,0.1235352456569671,0.555239737033844,1.424652099609375,89.37995910644531,23.07,2
-0.1399554461240768,-0.6982219815254211,0.2136244028806686,4.304319381713867,1.4244163036346436,89.37997436523438,23.07,2
-0.1010108962655067,-0.6775874495506287,0.2658406496047973,7.498429298400879,1.4242650270462036,89.3799819946289,23.07,2
-0.0760185271501541,-0.7595075368881226,0.2937522530555725,8.899779319763184,1.4241678714752195,89.37998962402344,23.07,2
-0.0375887677073478,-0.8568613529205322,0.3340554237365722,8.183342933654785,1.424105525016785,89.37998962402344,23.07,2
-0.0185245331376791,-0.9193373918533324,0.3655174374580383,6.06484317779541,1.4240655899047852,89.37998962402344,23.07,2
-0.0510724000632762,-0.965028703212738,0.4080990552902221,4.121352195739746,1.4203674793243408,91.1533660888672,23.05,2
-0.0943508446216583,-1.0055463314056396,0.4410232603549957,3.2144761085510254,1.417994260787964,92.29141998291016,23.05,2
-0.1445155590772628,-1.037145972251892,0.4789454340934753,2.4067931175231934,1.416471242904663,93.02175903320312,23.05,2
-0.1543172895908355,-1.0294358730316162,0.5144772529602051,0.5629155039787292,1.4154938459396362,93.49044799804688,23.05,2
-0.149411916732788,-1.0020968914031982,0.5372795462608337,-1.8277069330215447,1.41486656665802,93.79122161865234,23.05,2
-0.1350683867931366,-0.9565634727478028,0.557510495185852,-3.3941140174865723,1.414463996887207,93.98424530029295,23.05,2
-0.1202657595276832,-0.9217449426651,0.5704935789108276,-3.6075947284698486,1.4142056703567505,94.10811614990234,23.05,2
-0.1387551575899124,-0.8994004130363464,0.5788253545761108,-2.9098541736602783,1.414039969444275,94.18760681152344,23.05,2
-0.1842072308063507,-0.9130498766899108,0.5897700190544128,-1.6954132318496704,1.4180649518966677,94.2386245727539,23.05,2
-0.2301690876483917,-0.9330048561096193,0.5855981111526489,0.1085616499185562,1.4206479787826538,94.2713623046875,23.05,2
-0.2652625441551208,-0.9346152544021606,0.5549319386482239,2.516567707061768,1.4223055839538574,94.29237365722656,23.05,2
-0.2933812737464905,-0.9356487393379213,0.5184588432312012,5.193981170654297,1.4233694076538086,94.30585479736328,23.05,2
-0.3506106734275818,-0.964300811290741,0.4670636355876922,7.739766120910644,1.424052119255066,94.31450653076172,23.05,2
-0.4489127099514007,-1.1002413034439087,0.4508744776248932,9.642197608947754,1.424490213394165,94.32006072998048,23.05,2
-0.545583963394165,-1.2154690027236938,0.4236918687820434,9.928016662597656,1.4247713088989258,94.32362365722656,23.05,2
-0.6132197976112366,-1.1270800828933716,0.2886943817138672,7.904572010040283,1.4249517917633057,94.32591247558594,23.05,2
-0.6622223258018494,-1.0367704629898071,0.1404852420091629,4.323941230773926,1.424608588218689,94.32737731933594,23.05,2
-0.6544849276542664,-1.0403904914855957,-0.0218001417815685,0.6503894925117493,1.424388408660889,94.32831573486328,23.05,2
-0.6775083541870117,-1.143473505973816,-0.159532219171524,-2.5633203983306885,1.424247145652771,94.32891845703124,23.05,2
-0.7090768218040466,-1.2264195680618286,-0.2759096026420593,-5.471182346343994,1.4241564273834229,94.32930755615234,23.05,2
-0.7125422954559326,-1.2348674535751345,-0.3673872351646423,-7.752859592437744,1.424098253250122,94.32955932617188,23.05,2
-0.6867773532867432,-1.2402888536453247,-0.3981034457683563,-8.862433433532715,1.424060940742493,94.32971954345705,23.05,2
-0.6366562843322754,-1.226974606513977,-0.3338487148284912,-8.926048278808594,1.424036979675293,94.32981872558594,23.05,2
-0.5932959318161011,-1.2184302806854248,-0.2366359829902649,-8.562041282653809,1.424021601676941,94.32988739013672,23.05,2
-0.5654697418212891,-1.2073493003845217,-0.1574571281671524,-8.242461204528809,1.4226346015930176,94.32992553710938,23.05,2
-0.5252214074134827,-1.2338247299194336,-0.073058046400547,-8.141267776489258,1.421744465827942,94.3299560546875,23.05,2
-0.4825989902019501,-1.2564129829406738,-0.0077000306919217,-8.069162368774414,1.4211732149124146,94.32997131347656,23.05,2
-0.4216597378253937,-1.2485177516937256,0.0566340796649456,-7.614475250244141,1.420806646347046,94.3299789428711,23.05,2
-0.3433680236339569,-1.1874732971191406,0.0979200080037117,-6.670654773712158,1.4205714464187622,94.32998657226562,23.05,2
-0.2875271141529083,-1.120309591293335,0.1188171654939651,-5.509665489196777,1.420420527458191,94.32999420166016,23.05,2
-0.2348983138799667,-1.0436211824417114,0.1322277635335922,-4.384856700897217,1.420323610305786,94.32999420166016,23.05,2
-0.1787330955266952,-0.9608202576637268,0.1520294547080993,-3.4516470432281494,1.4202613830566406,94.32999420166016,23.05,2
-0.13149394094944,-0.8852922916412354,0.1927259117364883,-2.795445680618286,1.4220575094223022,95.7881088256836,23.07,2
-0.0955807939171791,-0.8144317269325256,0.2076470106840133,-2.27402138710022,1.4232101440429688,96.72383880615234,23.07,2
-0.0781315714120864,-0.7353708148002625,0.2116247415542602,-1.828341364860535,1.4239498376846311,97.32433319091795,23.07,2
-0.08932476490736,-0.6902318596839905,0.2141774147748947,-1.6175636053085327,1.4244245290756226,97.70970153808594,23.07,2
-0.1077034622430801,-0.7116442322731018,0.2214133590459823,-1.4213948249816897,1.4247292280197144,97.9570083618164,23.07,2
-0.1139000803232193,-0.8093520998954773,0.2596436142921448,-0.6542239189147949,1.4249247312545776,98.11571502685548,23.07,2
-0.1066811606287956,-0.9280331134796144,0.3065686821937561,0.791067361831665,1.4250502586364746,98.21755981445312,23.07,2
-0.1020484715700149,-0.9930002093315125,0.3422802686691284,2.499573469161988,1.4251307249069214,98.28292083740234,23.07,2
-0.12146657705307,-1.0011056661605835,0.3596001267433166,4.154876232147217,1.4224281311035156,98.32486724853516,23.07,2
-0.1451235562562942,-1.0175029039382937,0.3707150220870971,5.600489616394043,1.4206937551498413,98.3517837524414,23.07,2
-0.1435119211673736,-1.0168300867080688,0.4058367908000946,6.578357219696045,1.4195806980133057,98.36905670166016,23.07,2
-0.1872598528861999,-0.9660183787345886,0.4395714700222015,6.829726219177246,1.418866515159607,98.38014221191406,23.07,2
-0.2041392177343368,-0.9166170358657836,0.4668182134628296,6.41782808303833,1.4184081554412842,98.38726043701172,23.07,2
-0.2093736380338668,-0.8625230193138123,0.4787058532238006,5.874054908752441,1.4181139469146729,98.3918228149414,23.07,2
-0.2127327919006347,-0.8334063291549683,0.4919324219226837,5.804533004760742,1.417925238609314,98.3947525024414,23.07,2
-0.2036929577589035,-0.8427097797393799,0.4780293703079223,6.20415735244751,1.4178041219711304,98.3966293334961,23.07,2
-0.2202828079462051,-0.8654735684394836,0.4355205595493316,6.421205043792725,1.4181855916976929,98.39783477783205,23.07,2
-0.2477225363254547,-0.8968753814697266,0.3970452845096588,5.994446754455566,1.4184304475784302,98.39861297607422,23.07,2
-0.2933206558227539,-0.9897983074188232,0.3779518604278564,5.287086486816406,1.418587565422058,98.39910888671876,23.07,2
-0.3393762111663818,-1.1110063791275024,0.3768943250179291,5.023019790649414,1.418688416481018,98.39942932128906,23.07,2
-0.3633342385292053,-1.239170789718628,0.3818134367465973,5.3300395011901855,1.418753147125244,98.3996353149414,23.07,2
-0.3843069076538086,-1.2598437070846558,0.340188056230545,5.484076023101807,1.4187946319580078,98.39976501464844,23.07,2
-0.3809726238250732,-1.2787082195281982,0.2742908596992492,4.61921501159668,1.4188213348388672,98.39984893798828,23.07,2
-0.3172573745250702,-1.3299988508224487,0.2264040559530258,2.502194166183472,1.418838381767273,98.39990234375,23.07,2
-0.2259886115789413,-1.3797074556350708,0.2012708336114883,-0.3395742177963257,1.4216035604476929,98.39994049072266,23.07,2
-0.1226353794336319,-1.4172054529190063,0.190739557147026,-3.152048349380493,1.4233781099319458,98.39996337890624,23.07,2
-0.028320362791419,-1.3796939849853516,0.2399589270353317,-5.4799885749816895,1.4245169162750244,98.39997863769533,23.07,2
0.0601944625377655,-1.3220345973968506,0.305131733417511,-7.138725280761719,1.4252477884292605,98.39998626708984,23.07,2
0.0722159892320633,-1.173076629638672,0.3469558954238891,-7.970339298248291,1.425716757774353,98.39999389648438,23.07,2
0.0407462902367115,-1.0494951009750366,0.3402095735073089,-8.052617073059082,1.4260177612304688,98.39999389648438,23.07,2
0.0037575273308902,-0.908612072467804,0.3134890794754028,-7.693421840667725,1.426210880279541,98.39999389648438,23.07,2
-0.0423708297312259,-0.7902125716209412,0.2683525383472442,-6.89328145980835,1.4263348579406738,98.39999389648438,23.07,2
-0.0607778057456016,-0.7086328268051147,0.23938649892807,-5.405336856842041,1.4218237400054932,99.5929946899414,23.05,2
-0.0669925659894943,-0.667475163936615,0.2431888729333877,-3.522572755813598,1.4189287424087524,100.3585968017578,23.05,2
-0.0709808468818664,-0.6578558683395386,0.2624223232269287,-2.0348823070526123,1.4170708656311035,100.84991455078124,23.05,2
-0.0903336182236671,-0.6684761047363281,0.2859607934951782,-1.3703566789627075,1.4158786535263062,101.16521453857422,23.05,2
-0.1139486581087112,-0.6920849084854126,0.3010664284229278,-1.2269258499145508,1.4151135683059692,101.3675537109375,23.05,2
-0.1514945328235626,-0.7128334045410156,0.3051625788211822,-1.052480936050415,1.4146225452423096,101.49740600585938,23.05,2
-0.2259692847728729,-0.8045174479484558,0.3133890330791473,-0.5643618702888489,1.4143074750900269,101.58073425292967,23.05,2
-0.2793606519699096,-0.9361260533332824,0.3242660760879516,0.0283258128911256,1.4141052961349487,101.63420867919922,23.05,2
-0.3024286329746246,-1.0429760217666626,0.2808663547039032,0.2080543786287307,1.414434790611267,101.66852569580078,23.05,2
-0.3396234214305877,-1.1059483289718628,0.2698082625865936,-0.3644607067108154,1.4146462678909302,101.6905517578125,23.05,2
-0.3466995656490326,-1.2079359292984009,0.2459184825420379,-1.376731514930725,1.414781928062439,101.7046890258789,23.05,2
-0.3624361753463745,-1.3461567163467407,0.2025985270738601,-2.047844171524048,1.414868950843811,101.71376037597656,23.05,2
-0.3725350201129913,-1.395674467086792,0.1636027246713638,-1.8766529560089111,1.4149248600006104,101.7195816040039,23.05,2
-0.3902114331722259,-1.3266922235488892,0.1273819059133529,-1.0216164588928225,1.4149607419967651,101.72331237792967,23.05,2
-0.4183484613895416,-1.209652304649353,0.0985396951436996,0.0859784930944442,1.4149837493896484,101.7257080078125,23.05,2
-0.425209641456604,-1.123347282409668,0.0744326561689376,1.1192010641098022,1.4149985313415527,101.7272491455078,23.05,2
-0.407221645116806,-1.028777241706848,0.0589621439576149,1.9148191213607788,1.4140897989273071,101.72823333740234,23.05,2
-0.3844824433326721,-0.9456965327262878,0.0490340590476989,2.522130489349365,1.4135066270828247,101.72886657714844,23.05,2
-0.3754875063896179,-0.8699889779090881,0.0482605583965778,3.087414026260376,1.4131324291229248,101.7292709350586,23.05,2
-0.3809106349945068,-0.8102086782455444,0.0533619448542594,3.489588975906372,1.41289222240448,101.72953033447266,23.05,2
-0.4011842012405395,-0.7494540214538574,0.0566357225179672,3.5183968544006348,1.4127380847930908,101.72969818115234,23.05,2
-0.4309879243373871,-0.7160629630088806,0.0699321925640106,3.343425035476685,1.4126391410827637,101.72980499267578,23.05,2
-0.4669075608253479,-0.7226234078407288,0.0896606519818306,3.2777116298675537,1.4125757217407229,101.72987365722656,23.05,2
-0.5123498439788818,-0.799604594707489,0.1415056586265564,3.242705821990967,1.4125349521636963,101.72991943359376,23.05,2
-0.5247187614440918,-0.8713977932929993,0.2027656733989715,2.944382667541504,1.4111316204071045,101.72994995117188,23.05,2
-0.594231903553009,-0.928666055202484,0.2532743811607361,2.3839306831359863,1.410231113433838,101.72997283935548,23.05,2
-0.6164503693580627,-1.0381885766983032,0.3696545660495758,1.787814974784851,1.4096531867980957,101.72998046875,23.05,2
-0.5803289413452148,-1.046898365020752,0.433145135641098,1.129403829574585,1.4092823266983032,101.72998809814452,23.05,2
-0.5067682862281799,-0.9461300373077391,0.4067164361476898,0.1157484948635101,1.4090442657470703,101.72999572753906,23.05,2
-0.4875501692295074,-0.8982560634613037,0.3785604536533355,-1.2548547983169556,1.4088915586471558,101.72999572753906,23.05,2
-0.4976081848144531,-0.917913258075714,0.3884804546833038,-2.567920923233032,1.408793568611145,101.72999572753906,23.05,2
-0.4144984483718872,-0.9417237043380736,0.417237639427185,-3.3747453689575195,1.4087306261062622,101.72999572753906,23.05,2
-0.3163812160491943,-0.9514060616493224,0.4188989996910095,-3.301393747329712,1.4082313776016235,102.72237396240234,23.03,2
-0.2702085375785827,-0.9408263564109802,0.386378526687622,-2.075653553009033,1.407910943031311,103.35922241210938,23.03,2
-0.2293820232152938,-0.9396346807479858,0.3655087649822235,-0.0243948362767696,1.407705307006836,103.76791381835938,23.03,2
-0.1136175245046615,-0.9612610340118408,0.396897941827774,1.8150410652160645,1.4075733423233032,104.03018951416016,23.03,2
-0.0617176368832588,-0.9303573369979858,0.3834550678730011,2.6049842834472656,1.4074887037277222,104.19850158691406,23.03,2
0.0051753656007349,-0.904927372932434,0.3636326491832733,2.3774964809417725,1.407434344291687,104.3065185546875,23.03,2
0.0592989958822727,-0.866216778755188,0.328520655632019,1.661878228187561,1.4073994159698486,104.3758316040039,23.03,2
0.1220213025808334,-0.8077878952026367,0.3395744562149048,0.8515432476997375,1.407377004623413,104.42031860351562,23.03,2
0.1006973460316658,-0.7982804775238037,0.3466681540012359,0.1631358116865158,1.407362699508667,104.44886779785156,23.03,2
-0.0193448532372713,-0.8481569290161133,0.3288293778896332,-0.1568368524312973,1.4073535203933716,104.4671859741211,23.03,2
-0.1243698969483375,-0.9081536531448364,0.3005881607532501,0.013993558473885,1.407347559928894,104.47894287109376,23.03,2
-0.2253555804491043,-0.9746449589729308,0.2600734829902649,0.4782976806163788,1.4073437452316284,104.48648834228516,23.03,2
-0.2901623845100403,-1.140466332435608,0.217280164361,1.034206748008728,1.4073413610458374,104.49132537841795,23.03,2
-0.3429471850395202,-1.269271969795227,0.1786223202943802,1.8101186752319336,1.4073398113250732,104.4944305419922,23.03,2
-0.382419228553772,-1.295954346656799,0.1929983645677566,2.838275194168091,1.4073387384414673,104.49642944335938,23.03,2
-0.3573701381683349,-1.229110836982727,0.1966263055801391,3.716624021530152,1.4073381423950195,104.49771118164062,23.03,2
-0.257328450679779,-1.1246390342712402,0.1429767608642578,4.179986000061035,1.4059605598449707,104.49852752685548,23.03,2
-0.1763341426849365,-1.0687905550003052,0.0861564800143241,4.387780666351318,1.405076503753662,104.49905395507812,23.03,2
-0.1355521976947784,-1.0665369033813477,0.0552902705967426,4.256020545959473,1.40450918674469,104.4993896484375,23.03,2
-0.1653584390878677,-1.0482972860336304,0.0410798862576484,3.318811416625977,1.404145121574402,104.4996109008789,23.03,2
-0.2068774700164795,-1.00860333442688,0.0263627059757709,1.599600911140442,1.4039114713668823,104.49974822998048,23.03,2
-0.2503153085708618,-0.9271522760391236,0.0281136166304349,-0.2452825754880905,1.403761625289917,104.49983978271484,23.03,2
-0.2446045726537704,-0.8580883741378784,0.0516283474862575,-1.8591315746307373,1.4036654233932495,104.4999008178711,23.03,2
-0.2185486555099487,-0.7745826840400696,0.0891098454594612,-3.4930970668792725,1.4036036729812622,104.49993896484376,23.03,2
-0.2130230069160461,-0.6986024379730225,0.1187610849738121,-5.243866920471191,1.4035640954971311,104.49996185302734,23.03,2
-0.215074747800827,-0.6610382795333862,0.1377895474433899,-6.6289381980896,1.4035385847091677,104.4999771118164,23.03,2
-0.2275869846343994,-0.6649206280708313,0.1611964702606201,-7.102218627929688,1.403522253036499,104.49998474121094,23.03,2
-0.2412143945693969,-0.6842054128646851,0.1762176901102066,-6.710923194885254,1.4035117626190186,104.49999237060548,23.03,2
-0.2779485583305359,-0.7301679253578186,0.1970529854297638,-5.97258186340332,1.4035050868988037,104.49999237060548,23.03,2
-0.3351090550422668,-0.7932506799697876,0.2272171974182129,-5.17632532119751,1.40350079536438,104.49999237060548,23.03,2
-0.3997802436351776,-0.8729179501533508,0.2521726191043854,-4.178103446960449,1.4034980535507202,104.49999237060548,23.03,2
-0.4916624724864959,-1.0024126768112185,0.27938312292099,-2.878307819366455,1.403496265411377,104.49999237060548,23.03,2
-0.539431631565094,-1.096710443496704,0.3024430572986603,-1.481709599494934,1.4034950733184814,105.3418960571289,23.05,2
-0.6092715859413147,-1.168420910835266,0.3452304601669311,-0.3060123026371002,1.403494358062744,105.88218688964844,23.05,2
-0.5925152897834778,-1.1696584224700928,0.3782867193222046,0.3804135918617248,1.403493881225586,106.22891235351562,23.05,2
-0.5257843136787415,-1.0920836925506592,0.3715114593505859,0.5665593147277832,1.4034935235977173,106.45142364501952,23.05,2
-0.3989936113357544,-1.0087140798568726,0.3727612495422363,0.7254253029823303,1.4034934043884275,106.5942153930664,23.05,2
-0.3176266551017761,-0.9943966269493104,0.3903566300868988,1.3719278573989868,1.4034932851791382,106.68585205078124,23.05,2
-0.28220334649086,-1.06357741355896,0.3848550021648407,2.3062894344329834,1.4034931659698486,106.74465942382812,23.05,2
-0.3154484629631042,-1.107973575592041,0.3309443891048431,2.862917900085449,1.4034931659698486,106.78239440917967,23.05,2
-0.3087943792343139,-1.1252689361572266,0.2851521372795105,2.865455150604248,1.407165288925171,106.8066177368164,23.05,2
-0.2037642300128936,-1.0971837043762207,0.2893519401550293,2.727362871170044,1.4095218181610107,106.82215881347656,23.05,2
-0.1755463480949401,-1.045573592185974,0.2976449131965637,2.721142530441284,1.411034107208252,106.8321304321289,23.05,2
-0.1574377417564392,-0.9676709771156312,0.3197601735591888,2.6526641845703125,1.4120045900344849,106.83853149414062,23.05,2
-0.1570122241973877,-0.9120798110961914,0.3115613758563995,2.336442947387696,1.412627339363098,106.84263610839844,23.05,2
-0.1567391455173492,-0.8652090430259705,0.2951043248176574,2.00812029838562,1.413027048110962,106.84527587890624,23.05,2
-0.1397705823183059,-0.8183367848396301,0.2845431268215179,2.012376308441162,1.4132835865020752,106.8469696044922,23.05,2
-0.14007668197155,-0.7770612835884094,0.2777655720710754,2.1655757427215576,1.4134482145309448,106.84805297851562,23.05,2
-0.1402731239795684,-0.7449752688407898,0.273416131734848,1.783825159072876,1.4089634418487549,106.84874725341795,23.05,2
-0.157192513346672,-0.7467753887176514,0.2874182164669037,0.5464662313461304,1.4060853719711304,106.84919738769533,23.05,2
-0.1736481785774231,-0.7815172672271729,0.3075995147228241,-0.8638025522232056,1.40423846244812,106.8494873046875,23.05,2
-0.1954040229320526,-0.8597903847694397,0.3485395610332489,-1.4177395105361938,1.4030531644821167,106.84967041015624,23.05,2
-0.2037678956985473,-0.9492059350013732,0.3916058540344238,-0.8990758657455444,1.4022924900054932,106.84978485107422,23.05,2
-0.1475598365068435,-1.1185431480407717,0.4024499952793121,-0.0969099923968315,1.4018043279647827,106.84986114501952,23.05,2
-0.1842598021030426,-1.2104207277297974,0.415006935596466,0.1384329795837402,1.4014911651611328,106.84990692138672,23.05,2
-0.2637894749641418,-1.202209234237671,0.4230652451515198,-0.3016624450683594,1.4012901782989502,106.84993743896484,23.05,2
-0.3092292547225952,-1.1241685152053833,0.3610633015632629,-0.938765287399292,1.4016200304031372,106.84996032714844,23.05,2
-0.327194333076477,-1.062890887260437,0.2820896208286285,-1.37269926071167,1.4018317461013794,106.8499755859375,23.05,2
-0.2659522294998169,-1.0403597354888916,0.2314088493585586,-1.4971224069595337,1.4019676446914673,106.84998321533205,23.05,2
-0.2266505807638168,-1.0035094022750854,0.2156781703233719,-1.351267695426941,1.402054786682129,106.84999084472656,23.05,2
-0.218222364783287,-0.9574699401855468,0.2111808955669403,-1.0892854928970337,1.4021106958389282,106.84999084472656,23.05,2
-0.2631935775279999,-0.9055333733558656,0.2138925790786743,-0.9820641875267028,1.402146577835083,106.84999084472656,23.05,2
-0.3144446313381195,-0.8554101586341858,0.2044372409582138,-1.2500178813934326,1.4021695852279663,106.84999084472656,23.05,2
-0.3585301339626312,-0.8008528351783752,0.1927715688943863,-1.8769621849060056,1.4021843671798706,106.84999084472656,23.05,2
-0.3756261467933655,-0.7546455264091492,0.2132740914821624,-2.6518869400024414,1.4031120538711548,107.5700912475586,23.03,2
-0.3865973651409149,-0.7249923348426819,0.2432247549295425,-3.2495012283325195,1.4037073850631714,108.03221130371094,23.03,2
-0.3768447339534759,-0.72835373878479,0.3016297817230224,-3.349992036819458,1.4040894508361816,108.32877349853516,23.03,2
-0.3649882972240448,-0.736108660697937,0.3503063023090362,-2.95232892036438,1.4043346643447876,108.5190887451172,23.03,2
-0.3461839556694031,-0.7690742015838623,0.4039351940155029,-2.5036725997924805,1.4044920206069946,108.64122009277344,23.03,2
-0.3229208886623382,-0.846207320690155,0.4607422351837158,-2.3339757919311523,1.404592990875244,108.71959686279295,23.03,2
-0.3135897517204284,-0.9180980324745178,0.4860021770000458,-2.1570053100585938,1.4046578407287598,108.7698974609375,23.03,2
-0.3131993412971496,-0.9754288792610168,0.4686259031295776,-1.4093198776245115,1.404699444770813,108.80217742919922,23.03,2
-0.3185465633869171,-1.0234160423278809,0.4574748277664184,-0.0231067575514316,1.4056442975997925,108.82289123535156,23.03,2
-0.3219781219959259,-1.126982569694519,0.4447209239006042,1.3393850326538086,1.4062507152557373,108.83618927001952,23.03,2
-0.3409736156463623,-1.1934455633163452,0.4197428822517395,1.9450606107711792,1.406639814376831,108.84471893310548,23.03,2
-0.3587616086006164,-1.1689244508743286,0.381322294473648,1.8357703685760496,1.40688955783844,108.8501968383789,23.03,2
-0.3701769113540649,-1.09721040725708,0.3118839859962463,1.6975651979446411,1.4070498943328855,108.85370635986328,23.03,2
-0.3775025904178619,-1.062384009361267,0.2561269402503967,2.010121583938598,1.407152771949768,108.85596466064452,23.03,2
-0.3933993279933929,-1.1016099452972412,0.2147475033998489,2.647776365280152,1.4072188138961792,108.85741424560548,23.03,2
-0.4091987311840057,-1.1267828941345217,0.1713992357254028,3.099977493286133,1.4072611331939695,108.85833740234376,23.03,2
-0.4025445580482483,-1.1205463409423828,0.137983039021492,2.852787971496582,1.405911207199097,108.8589324951172,23.03,2
-0.3814809620380401,-1.12214195728302,0.1221362203359603,1.8737459182739256,1.4050449132919312,108.85931396484376,23.03,2
-0.3623657822608948,-1.1343613862991333,0.1119666397571563,0.6758236289024353,1.4044889211654663,108.85955810546876,23.03,2
-0.3445009887218475,-1.1589964628219604,0.1054403930902481,-0.3007233142852783,1.4041321277618408,108.8597183227539,23.03,2
-0.3218408524990082,-1.1804035902023315,0.1012522205710411,-1.081465721130371,1.4039031267166138,108.8598175048828,23.03,2
-0.3017010986804962,-1.182945966720581,0.0985644906759262,-1.9120981693267824,1.4037562608718872,108.8598861694336,23.03,2
-0.2775810062885284,-1.1733819246292114,0.0912418887019157,-2.896554708480835,1.4036619663238523,108.85992431640624,23.03,2
-0.2565043568611145,-1.1560487747192385,0.0865426659584045,-3.771937608718872,1.4036014080047607,108.85995483398438,23.03,2
-0.2429785728454589,-1.1393275260925293,0.0723314210772514,-4.140248775482178,1.4035625457763672,108.85997009277344,23.03,2
-0.2566896080970764,-1.1397923231124878,0.0576136931777,-3.971778631210327,1.403537631034851,108.85997772216795,23.03,2
-0.2822818756103515,-1.1176995038986206,0.0481687001883983,-3.494658946990967,1.4035216569900513,108.8599853515625,23.03,2
-0.3043032884597778,-1.0195549726486206,0.0477052219212055,-2.497033834457397,1.40351140499115,108.85999298095705,23.03,2
-0.3016420602798462,-0.9341804385185242,0.0530055612325668,-0.359298825263977,1.4035048484802246,108.85999298095705,23.03,2
-0.2383587062358856,-0.8346097469329834,0.0676025673747062,2.8683505058288574,1.4035006761550903,108.85999298095705,23.03,2
-0.1865515410900116,-0.7035377025604248,0.188925564289093,5.8603925704956055,1.4034979343414309,108.85999298095705,23.03,2
-0.1477069109678268,-0.5914343595504761,0.3171636462211609,7.038918972015381,1.4034961462020874,108.85999298095705,23.03,2
-0.156365305185318,-0.59226393699646,0.3770683705806732,6.165157794952393,1.4021178483963013,108.43367004394533,23.07,2
-0.1507262289524078,-0.6655673980712891,0.4099140167236328,4.418595790863037,1.4012333154678345,108.16007995605467,23.07,2
-0.1247162893414497,-0.8357603549957275,0.4701768755912781,3.061302661895752,1.4006657600402832,107.98450469970705,23.07,2
-0.0968290567398071,-0.9505782127380372,0.5480345487594604,2.4231374263763428,1.400301456451416,107.87183380126952,23.07,2
-0.0677370876073837,-1.007468342781067,0.6035968661308289,2.013599872589112,1.400067687034607,107.79952239990234,23.07,2
-0.0826541855931282,-1.0271838903427124,0.6224602460861206,1.1883177757263184,1.399917721748352,107.75312042236328,23.07,2
-0.0922271162271499,-1.0398361682891846,0.6177723407745361,-0.1724582463502884,1.399821400642395,107.7233428955078,23.07,2
-0.0983704775571823,-1.0367600917816162,0.6035683751106262,-1.6404335498809814,1.3997596502304075,107.70423126220705,23.07,2
-0.1247040256857872,-0.9900038838386536,0.5832575559616089,-2.7007205486297607,1.4010971784591677,107.69196319580078,23.07,2
-0.1527989357709884,-0.9432051181793212,0.5590276718139648,-2.936912298202514,1.401955485343933,107.68409729003906,23.07,2
-0.1820241808891296,-0.9075745940208436,0.5322827696800232,-2.1570169925689697,1.4025063514709473,107.67904663085938,23.07,2
-0.2175725847482681,-0.8959044814109802,0.5151194334030151,-0.6748992800712585,1.402859807014465,107.6758041381836,23.07,2
-0.2571788132190704,-0.9220019578933716,0.4929094612598419,0.9390148520469666,1.4030866622924805,107.67372131347656,23.07,2
-0.2937913835048675,-0.9443475604057312,0.4674608409404754,2.3759806156158447,1.403232216835022,107.6723861694336,23.07,2
-0.3228849768638611,-0.9530898928642272,0.4287382662296295,3.6098265647888175,1.4033256769180298,107.6715316772461,23.07,2
-0.3639466762542724,-0.947504699230194,0.3647039234638214,4.745565414428711,1.4033856391906738,107.67098236083984,23.07,2
-0.4126888215541839,-0.9943004250526428,0.3180125951766968,5.789683818817139,1.40526020526886,107.6706314086914,23.07,2
-0.4831531345844269,-1.1586778163909912,0.2992443442344665,6.266279697418213,1.4064631462097168,107.67040252685548,23.07,2
-0.5171775221824646,-1.096232533454895,0.2032333463430404,5.558262348175049,1.4072351455688477,107.67025756835938,23.07,2
-0.5446102023124695,-1.0169743299484253,0.1080323606729507,3.842831134796143,1.4077305793762207,107.670166015625,23.07,2
-0.5566171407699585,-1.0612730979919434,0.024546755477786,1.9143911600112915,1.4080485105514526,107.67010498046876,23.07,2
-0.5755180716514587,-1.1344836950302124,-0.0458228252828121,0.1466082632541656,1.408252477645874,107.6700668334961,23.07,2
-0.5764520168304443,-1.1646727323532104,-0.1301663964986801,-1.6362992525100708,1.4083833694458008,107.6700439453125,23.07,2
-0.5266714096069336,-1.1616551876068115,-0.1786954700946808,-3.4969818592071533,1.408467411994934,107.67002868652344,23.07,2
-0.4835295379161834,-1.165316462516785,-0.1986430883407592,-5.1245527267456055,1.40806245803833,107.6700210571289,23.07,2
-0.4502457976341247,-1.1620683670043943,-0.1778576672077179,-6.093799591064453,1.4078025817871094,107.67001342773438,23.07,2
-0.4232884347438812,-1.1543861627578735,-0.1421276777982711,-6.217828750610352,1.4076358079910278,107.67000579833984,23.07,2
-0.3891954123973846,-1.1550538539886477,-0.0912093594670295,-5.745706558227539,1.4075287580490112,107.67000579833984,23.07,2
-0.3505231440067291,-1.1554824113845823,-0.0361418202519416,-5.095215797424316,1.40746009349823,107.67000579833984,23.07,2
-0.3201077282428741,-1.1557574272155762,0.0047951322048902,-4.520134925842285,1.4074159860610962,107.67000579833984,23.07,2
-0.2893933355808258,-1.1447383165359497,0.0534572079777717,-4.050769329071045,1.407387614250183,107.67000579833984,23.07,2
-0.2528892755508423,-1.104080319404602,0.095881275832653,-3.6026716232299805,1.4073694944381714,107.67000579833984,23.07,2
-0.2182675302028656,-1.0667927265167236,0.1231065988540649,-3.175388097763061,1.4068984985351562,107.2723388671875,23.05,2
-0.2128425985574722,-1.014874815940857,0.1461760252714157,-2.933425188064575,1.406596302986145,107.0171356201172,23.05,2
-0.2149589657783508,-0.970361351966858,0.1721761971712112,-3.04325795173645,1.406402349472046,106.85336303710938,23.05,2
-0.2051215767860412,-0.9305996298789978,0.2336438149213791,-3.489912748336792,1.4062778949737549,106.74826049804688,23.05,2
-0.1708196401596069,-0.8994851112365723,0.3010790646076202,-4.073903560638428,1.406198024749756,106.68081665039062,23.05,2
-0.1096222102642059,-0.8571264743804932,0.3443551361560821,-4.556152820587158,1.406146764755249,106.63753509521484,23.05,2
-0.0647514536976814,-0.8075520396232605,0.3721272051334381,-4.801146030426025,1.406113862991333,106.60975646972656,23.05,2
-0.0303582064807415,-0.7477491497993469,0.406743049621582,-4.535624980926514,1.4060927629470823,106.59192657470705,23.05,2
-0.0978509932756424,-0.7037733197212219,0.4121641814708709,-3.139987707138061,1.404702067375183,106.58049011230467,23.05,2
-0.1635550707578659,-0.7147365808486938,0.4100453853607178,-0.3563307225704193,1.4038095474243164,106.57315063476562,23.05,2
-0.1553401947021484,-0.8057388067245483,0.4198811948299408,3.009975910186768,1.4032368659973145,106.56843566894533,23.05,2
-0.138872817158699,-0.8921276926994324,0.4373888075351715,5.865297317504883,1.4028693437576294,106.56541442871094,23.05,2
-0.139500543475151,-0.9363715648651124,0.4542219638824463,7.797990322113037,1.4026334285736084,106.5634765625,23.05,2
-0.1678922623395919,-0.959166944026947,0.4762200713157654,8.83049201965332,1.402482032775879,106.5622329711914,23.05,2
-0.2085035294294357,-0.979393482208252,0.4735438525676727,8.952123641967773,1.402384877204895,106.56143188476562,23.05,2
-0.2177721858024597,-1.00356924533844,0.460630863904953,8.406811714172363,1.40232253074646,106.56092071533205,23.05,2
-0.206926941871643,-0.985497236251831,0.4579418301582336,7.727264881134033,1.4013646841049194,106.5605926513672,23.05,2
-0.2111626416444778,-0.9459107518196106,0.4562161564826965,7.104876518249512,1.4007500410079956,106.56037902832033,23.05,2
-0.2418697476387024,-0.8869197964668274,0.4383153915405273,6.271972179412842,1.400355577468872,106.56024169921876,23.05,2
-0.2615757882595062,-0.8434650301933289,0.4212299585342407,5.157084465026856,1.4001024961471558,106.5601577758789,23.05,2
-0.2910153269767761,-0.8435671329498291,0.3990699648857116,4.140677452087402,1.399940013885498,106.56009674072266,23.05,2
-0.304310142993927,-0.8604259490966797,0.384848952293396,3.5923006534576416,1.3998357057571411,106.56005859375,23.05,2
-0.318439781665802,-0.876842737197876,0.3757227063179016,3.670293092727661,1.3997688293457031,106.5600357055664,23.05,2
-0.3219095766544342,-0.9153670072555542,0.3586704730987549,4.318634510040283,1.3997259140014648,106.56002044677734,23.05,2
-0.3129407465457916,-0.951285183429718,0.3421295583248138,4.856510162353516,1.40061616897583,106.5600128173828,23.05,2
-0.3127828538417816,-1.075095295906067,0.3315145373344421,4.162740707397461,1.401187539100647,106.56000518798828,23.05,2
-0.3238770663738251,-1.1657451391220093,0.3247024416923523,2.0301263332366943,1.4015542268753052,106.56000518798828,23.05,2
-0.3309966921806335,-1.1679412126541138,0.3091352880001068,-0.4598090946674347,1.4017895460128784,106.56000518798828,23.05,2
-0.3243701159954071,-1.1581549644470217,0.2599607408046722,-2.4911978244781494,1.4019404649734497,106.56000518798828,23.05,2
-0.3145197927951813,-1.1742658615112305,0.2116100341081619,-4.382368564605713,1.4020373821258545,106.56000518798828,23.05,2
-0.2970028519630432,-1.2181915044784546,0.1749835610389709,-6.348353862762451,1.402099609375,106.56000518798828,23.05,2
-0.2185882031917572,-1.2799670696258545,0.1682721227407455,-7.7533135414123535,1.4021395444869995,106.56000518798828,23.05,2
-0.1346795558929443,-1.2804267406463623,0.1751606613397598,-8.18561840057373,1.402624487876892,106.14801025390624,23.07,2
-0.06403848528862,-1.196755051612854,0.1795813292264938,-8.054633140563965,1.4029356241226196,105.88361358642578,23.07,2
-0.0243028905242681,-1.1094727516174316,0.1768204718828201,-7.701880931854248,1.4031352996826172,105.71393585205078,23.07,2
-0.0155961960554122,-1.0030800104141235,0.1750487238168716,-6.952448844909668,1.4032634496688845,105.60504913330078,23.07,2
-0.0491931624710559,-0.9012166261672974,0.1739117205142974,-5.787234306335449,1.4033457040786743,105.53517150878906,23.07,2
-0.0707537606358528,-0.8358466029167175,0.1787798255681991,-4.62747049331665,1.403398513793945,105.49032592773438,23.07,2
-0.0789923369884491,-0.805091381072998,0.1930994391441345,-3.883200883865357,1.4034323692321775,105.4615478515625,23.07,2
-0.0730838328599929,-0.7909522652626038,0.2134844958782196,-3.563205003738404,1.403454065322876,105.44308471679688,23.07,2
-0.0636943206191062,-0.7986719012260437,0.24335977435112,-3.375762939453125,1.400254487991333,105.43123626708984,23.07,2
-0.0520708970725536,-0.842810332775116,0.2737275660037994,-3.072762012481689,1.3982011079788208,105.4236297607422,23.07,2
-0.0446116514503955,-0.8711358308792114,0.2988136410713196,-2.616785287857056,1.3968833684921265,105.4187469482422,23.07,2
-0.0622158348560333,-0.9900734424591064,0.2925213277339935,-2.102046012878418,1.3960378170013428,105.41561126708984,23.07,2
-0.0791109651327133,-1.1671607494354248,0.2548966407775879,-1.6284129619598389,1.3954951763153076,105.41360473632812,23.07,2
-0.1179421544075012,-1.2640118598937988,0.1691757589578628,-1.131003499031067,1.3951468467712402,105.41231536865234,23.07,2
-0.1988395154476165,-1.2254053354263306,0.1421539038419723,-0.4033811390399933,1.3949233293533323,105.41148376464844,23.07,2
-0.2787436544895172,-1.178238868713379,0.130410611629486,0.479143738746643,1.394779920578003,105.41094970703124,23.07,2
-0.2964349091053009,-1.1647634506225586,0.1116788983345031,1.0741580724716189,1.3946878910064695,105.41061401367188,23.07,2
-0.2797992527484894,-1.167311191558838,0.0884624123573303,1.2697100639343262,1.394628882408142,105.41039276123048,23.07,2
-0.2523301243782043,-1.1241639852523804,0.0791611820459365,1.5635851621627808,1.394590973854065,105.4102554321289,23.07,2
-0.2682886719703674,-1.0628880262374878,0.0955832824110984,2.4149537086486816,1.3945666551589966,105.41016387939452,23.07,2
-0.2841277122497558,-1.0235645771026611,0.1061220467090606,3.702906370162964,1.3945510387420654,105.41010284423828,23.07,2
-0.2998900711536407,-0.9703401923179626,0.0960918962955474,4.8733673095703125,1.3945410251617432,105.41006469726562,23.07,2
-0.3100054562091827,-0.9137927293777466,0.089655116200447,5.445373058319092,1.3945345878601074,105.41004180908205,23.07,2
-0.338888019323349,-0.8663082718849182,0.0799265876412391,5.414787769317627,1.3945304155349731,105.41002655029295,23.07,2
-0.3686187267303467,-0.8246399760246277,0.0792811587452888,5.115718841552734,1.3917734622955322,105.41001892089844,23.07,2
-0.3821004033088684,-0.7811062932014465,0.0900625064969062,4.762577533721924,1.3900041580200195,105.4100112915039,23.07,2
-0.3907521665096283,-0.7587666511535645,0.1417635530233383,4.338910102844238,1.388868808746338,105.4100112915039,23.07,2
-0.3963043689727783,-0.7836148142814636,0.186137855052948,3.826992273330689,1.3881402015686035,105.4100112915039,23.07,2
-0.3830741345882416,-0.922711968421936,0.2537991404533386,3.233362197875977,1.3876725435256958,105.4100112915039,23.07,2
-0.3409970998764038,-0.9392054677009584,0.2580358386039734,2.5478856563568115,1.3873724937438965,105.4100112915039,23.07,2
-0.2972011566162109,-0.9497900009155272,0.2663524746894836,1.8607885837554927,1.387179970741272,105.4100112915039,23.07,2
-0.2523021101951599,-1.02375590801239,0.3220695853233337,1.491500735282898,1.3870563507080078,105.4100112915039,23.07,2
-0.2402818202972412,-1.166385054588318,0.4082055985927582,1.6450138092041016,1.3883541822433472,104.80455017089844,23.05,2
-0.2325678765773773,-1.1291674375534058,0.4690805077552795,1.8725024461746216,1.3891870975494385,104.41600036621094,23.05,2
-0.1996286511421203,-1.088490009307861,0.4857554137706756,1.4560271501541138,1.3897216320037842,104.16665649414062,23.05,2
-0.1449034959077835,-1.09037446975708,0.4964564144611358,0.361182302236557,1.3900645971298218,104.0066375732422,23.05,2
-0.0594040751457214,-1.1307681798934937,0.4865303933620453,-0.7355093955993652,1.3902846574783323,103.90394592285156,23.05,2
0.0010623048292472,-1.145495057106018,0.4577693343162536,-1.3067476749420166,1.3904259204864502,103.83804321289062,23.05,2
0.0398661457002162,-1.0989681482315063,0.4393121302127838,-1.3759818077087402,1.3905166387557983,103.7957534790039,23.05,2
0.04237712174654,-1.0523165464401243,0.444260686635971,-1.20187509059906,1.3905748128890991,103.76861572265624,23.05,2
0.0439885221421718,-1.0223782062530518,0.4754252731800079,-0.9790836572647096,1.39566171169281,103.7511978149414,23.05,2
-0.0445417687296867,-0.9639810919761658,0.4338493943214416,-0.9077604413032532,1.3989262580871582,103.74002075195312,23.05,2
-0.1069531813263893,-0.9153096079826356,0.3791795074939728,-1.1521779298782349,1.4010212421417236,103.73284912109376,23.05,2
-0.1134185940027237,-0.8616839647293091,0.3273021876811981,-1.5383158922195437,1.4023656845092771,103.7282485961914,23.05,2
-0.1175677180290222,-0.838465690612793,0.2884125411510467,-1.6428139209747314,1.403228521347046,103.7252960205078,23.05,2
-0.1146326139569282,-0.8123699426651001,0.2634554207324981,-1.3802777528762815,1.4037821292877195,103.72339630126952,23.05,2
-0.1183468103408813,-0.8124165534973145,0.247439369559288,-1.1043199300765991,1.4041374921798706,103.72218322753906,23.05,2
-0.1263281404972076,-0.8124464750289917,0.2315634042024612,-1.027538180351257,1.4043655395507812,103.72140502929688,23.05,2
-0.1426456421613693,-0.8068678975105286,0.2101795822381973,-0.9603512287139891,1.398085117340088,103.7209014892578,23.05,2
-0.1587150543928146,-0.8200811743736267,0.2020544558763504,-0.5446466207504272,1.394054651260376,103.7205810546875,23.05,2
-0.1914185732603073,-0.8789407014846802,0.191242441534996,0.3992353677749634,1.391468167304993,103.72037506103516,23.05,2
-0.2403946816921234,-1.039864420890808,0.1787061393260955,1.545933485031128,1.3898082971572876,103.7202377319336,23.05,2
-0.2830202877521515,-1.1487337350845337,0.170661062002182,2.160010814666748,1.3887430429458618,103.72015380859376,23.05,2
-0.3439615964889526,-1.168219804763794,0.19348706305027,1.8304100036621087,1.3880594968795776,103.72010040283205,23.05,2
-0.3774724304676056,-1.1695293188095093,0.2137332558631897,0.8450548052787781,1.3876208066940308,103.72006225585938,23.05,2
-0.3374022543430328,-1.1591740846633911,0.2043349891901016,-0.3819969594478607,1.3873392343521118,103.72003936767578,23.05,2
-0.2389164417982101,-1.1469309329986572,0.1759126335382461,-1.71758234500885,1.387617826461792,103.72002410888672,23.05,2
-0.1869094669818878,-1.1166828870773315,0.1464772522449493,-2.950854539871216,1.3877966403961182,103.7200164794922,23.05,2
-0.2095121294260025,-1.041293740272522,0.1275873184204101,-3.738715171813965,1.3879114389419556,103.72000885009766,23.05,2
-0.2576038539409637,-0.9705222249031068,0.1266603916883468,-4.104598045349121,1.387985110282898,103.72000885009766,23.05,2
-0.2884663641452789,-0.9195073246955872,0.1316633224487304,-4.443295478820801,1.38803231716156,103.72000885009766,23.05,2
-0.2970765829086303,-0.858780026435852,0.1516672372817993,-4.954422950744629,1.388062596321106,103.72000885009766,23.05,2
-0.297004371881485,-0.8086131811141968,0.170102372765541,-5.536798000335693,1.3880820274353027,103.72000885009766,23.05,2
-0.2969580292701721,-0.7652234435081482,0.1875307559967041,-6.136235237121582,1.3880945444107056,103.72000885009766,23.05,2
-0.2969282865524292,-0.742976188659668,0.2099108397960662,-6.735874176025391,1.3890204429626465,103.21844482421876,23.05,2
-0.3025069832801819,-0.7286992073059082,0.2354686260223388,-7.070531845092773,1.3896145820617676,102.89656829833984,23.05,2
-0.3060870468616485,-0.719537079334259,0.2742612361907959,-6.729996681213379,1.3899959325790403,102.69001007080078,23.05,2
-0.3083845376968384,-0.7360484004020691,0.2991560995578766,-5.540582656860352,1.3902406692504885,102.55744934082033,23.05,2
-0.3042611479759216,-0.8138177394866943,0.3039366602897644,-3.655939102172852,1.3903976678848269,102.47238159179688,23.05,2
-0.318408340215683,-0.902910053730011,0.3126023113727569,-1.1209304332733154,1.390498399734497,102.41779327392578,23.05,2
-0.3274871706962585,-0.9768776893615724,0.3293589949607849,2.325840711593628,1.3905631303787231,102.38275909423828,23.05,2
-0.366900086402893,-1.0579324960708618,0.3736990988254547,6.379223823547363,1.3906046152114868,102.36027526855467,23.05,2
-0.4145841300487518,-1.1491332054138184,0.4133495688438415,9.722044944763184,1.3883363008499146,102.3458480834961,23.05,2
-0.4339894652366638,-1.1684762239456177,0.4891749322414398,11.329888343811035,1.38688063621521,102.33658599853516,23.05,2
-0.4016605019569397,-1.0745316743850708,0.4986508786678314,11.369336128234863,1.3859463930130005,102.33064270019533,23.05,2
-0.2969470024108886,-1.0030479431152344,0.4823409020900726,10.23748016357422,1.3853468894958496,102.32682800292967,23.05,2
-0.2241501361131668,-1.08032488822937,0.4606785476207733,8.067341804504395,1.3849622011184692,102.32437896728516,23.05,2
-0.1942266225814819,-1.1467100381851196,0.4299835562705993,5.531830310821533,1.3847153186798096,102.32280731201172,23.05,2
-0.2086100876331329,-1.1221389770507812,0.3878941833972931,3.686148166656494,1.3845568895339966,102.3218002319336,23.05,2
-0.2234383374452591,-1.089577317237854,0.3664814233779907,2.738145589828491,1.3844552040100098,102.32115173339844,23.05,2
-0.1825742870569229,-1.057485580444336,0.3975221514701843,2.0258774757385254,1.3880621194839478,102.32073974609376,23.05,2
-0.1339589953422546,-0.9921087622642516,0.4342356026172638,1.1926143169403076,1.3903768062591553,102.32047271728516,23.05,2
-0.130749374628067,-0.9389581084251404,0.4298073351383209,0.5324838161468506,1.3918622732162476,102.32030487060548,23.05,2
-0.1174940690398216,-0.8768602013587952,0.3989766538143158,0.1984144449234008,1.3928154706954956,102.32019805908205,23.05,2
-0.1257808953523636,-0.8258138298988342,0.3623979687690735,-0.1485273391008377,1.3934272527694702,102.32012939453124,23.05,2
-0.1199033558368682,-0.7650663256645203,0.3389238715171814,-0.7222670316696167,1.393819808959961,102.32008361816406,23.05,2
-0.13852259516716,-0.7428753972053528,0.3238595426082611,-1.3161624670028689,1.3940716981887815,102.32005310058594,23.05,2
-0.150471344590187,-0.7342323064804077,0.3197898864746094,-1.729533553123474,1.3942333459854126,102.32003021240234,23.05,2
-0.1637371331453323,-0.7566745281219482,0.3227759897708893,-1.980481028556824,1.39112389087677,102.3200225830078,23.05,2
-0.1778481304645538,-0.8046633005142212,0.3246923089027405,-2.077038288116455,1.3891284465789795,102.32001495361328,23.05,2
-0.1813059896230697,-0.8802419304847717,0.3371176421642303,-1.9957001209259035,1.387847900390625,102.32000732421876,23.05,2
-0.1891228109598159,-1.023906111717224,0.3282981812953949,-1.789451241493225,1.387026071548462,102.32000732421876,23.05,2
-0.1941391974687576,-1.1608836650848389,0.3170405924320221,-1.5496152639389038,1.3864986896514893,102.32000732421876,23.05,2
-0.2421406209468841,-1.192810297012329,0.3098161220550537,-1.3527114391326904,1.3861602544784546,102.32000732421876,23.05,2
-0.3009340465068817,-1.174114465713501,0.3163754045963287,-1.2370976209640503,1.385943055152893,102.32000732421876,23.05,2
-0.3218709528446197,-1.190105438232422,0.3149870038032532,-1.127077579498291,1.3858036994934082,102.32000732421876,23.05,2
-0.2625359892845154,-1.1555854082107544,0.2805093824863434,-0.966908633708954,1.384337067604065,101.91875457763672,23.05,2
-0.2020671367645263,-1.1054434776306152,0.2471880614757537,-0.97518128156662,1.3833959102630615,101.6612548828125,23.05,2
-0.1744572520256042,-1.0060920715332031,0.2146088182926178,-1.4175643920898438,1.3827919960021973,101.49600219726562,23.05,2
-0.1735321432352066,-0.9199429154396056,0.1881035566329956,-2.0489702224731445,1.382404327392578,101.38995361328124,23.05,2
-0.2065251022577285,-0.8366684913635254,0.1598984599113464,-2.300119400024414,1.3821556568145752,101.3218994140625,23.05,2
-0.2500891983509063,-0.7776299715042114,0.1473958194255828,-2.063626527786255,1.3819960355758667,101.27822875976562,23.05,2
-0.2780461013317108,-0.7453402280807495,0.156165674328804,-1.7613909244537354,1.3818936347961426,101.2501983642578,23.05,2
-0.2959872484207153,-0.7302163243293762,0.195380300283432,-1.5853464603424072,1.3818278312683103,101.23221588134766,23.05,2
-0.3075008392333984,-0.7149128913879395,0.2317415475845337,-1.3433984518051147,1.3831627368927002,101.22067260742188,23.05,2
-0.3036940395832062,-0.7050920128822327,0.2830649614334106,-0.9839233756065368,1.384019374847412,101.21326446533205,23.05,2
-0.3236421644687652,-0.7379739880561829,0.360783576965332,-0.7818935513496399,1.3845691680908203,101.20851135253906,23.05,2
-0.347639262676239,-0.7926623821258545,0.4330500066280365,-0.9101879000663756,1.3849220275878906,101.20545959472656,23.05,2
-0.3742347657680511,-0.8949314951896667,0.5074152946472168,-1.1501531600952148,1.3851484060287476,101.20349884033205,23.05,2
-0.3969000279903412,-0.9773553013801576,0.5607364773750305,-0.9709694981575012,1.38529372215271,101.2022476196289,23.05,2
-0.4058474898338318,-1.0470434427261353,0.6005526781082153,0.0504119023680686,1.385386943817139,101.2014389038086,23.05,2
-0.3947961330413818,-1.1365474462509155,0.6205066442489624,1.594354510307312,1.3854467868804932,101.20092010498048,23.05,2
-0.3988995552062988,-1.20518159866333,0.6109208464622498,2.6818974018096924,1.3854851722717283,101.20059204101562,23.05,2
-0.3735440373420715,-1.142869234085083,0.5375959873199463,2.7994425296783447,1.3855098485946655,101.20037841796876,23.05,2
-0.3572723269462585,-1.05250084400177,0.4569536447525024,2.4951233863830566,1.3855257034301758,101.2002410888672,23.05,2
-0.3412322998046875,-0.9833120703697203,0.366017609834671,2.42163634300232,1.3855358362197876,101.20015716552734,23.05,2
-0.3533298373222351,-0.994888424873352,0.3020623326301574,2.4425456523895264,1.3855422735214231,101.2000961303711,23.05,2
-0.383484423160553,-1.0415018796920776,0.244226187467575,2.1693577766418457,1.3855464458465576,101.20005798339844,23.05,2
-0.4420203268527984,-1.1441867351531982,0.1511325389146804,1.6895227432250977,1.3855491876602173,101.20003509521484,23.05,2
-0.4683897495269775,-1.2044862508773804,0.07459706813097,1.2812800407409668,1.385550856590271,101.20001983642578,23.05,2
-0.4573232531547546,-1.231987476348877,0.0310787819325923,0.922563910484314,1.385551929473877,101.20001220703124,23.05,2
-0.43902587890625,-1.2328428030014038,0.0255423486232757,0.4308325350284576,1.3855526447296145,101.20000457763672,23.05,2
-0.4216859042644501,-1.2277939319610596,0.0331849306821823,-0.2465725243091583,1.3855531215667725,101.20000457763672,23.05,2
-0.4161558747291565,-1.2077605724334717,0.0380895026028156,-1.007306456565857,1.3855534791946411,101.20000457763672,23.05,2
-0.4126070141792297,-1.1893064975738523,0.041236974298954,-1.7032911777496338,1.3855535984039309,101.20000457763672,23.05,2
-0.4047317802906036,-1.1830614805221558,0.0488546155393123,-2.1857597827911377,1.3855537176132202,101.20000457763672,23.05,2
-0.3940801322460174,-1.2014449834823608,0.0649387240409851,-2.34491229057312,1.3855538368225098,101.20000457763672,23.05,2
-0.3816467523574829,-1.1964490413665771,0.075260579586029,-2.1604411602020264,1.3855538368225098,101.20000457763672,23.05,2
-0.3512766361236572,-1.1260696649551392,0.0818845555186271,-1.7733649015426636,1.381422519683838,100.80591583251952,23.05,2
-0.3317868411540985,-1.0417197942733765,0.0861354395747184,-1.2741813659667969,1.378771185874939,100.55301666259766,23.05,2
-0.3248771727085113,-0.9428067207336426,0.0888634100556373,-0.5167599320411682,1.3770697116851809,100.39071655273438,23.05,2
-0.2868563234806061,-0.879330039024353,0.0850162953138351,0.5855125188827515,1.375977873802185,100.28656768798828,23.05,2
-0.228870078921318,-0.7770188450813293,0.1105363070964813,1.726379156112671,1.3752771615982056,100.2197265625,23.05,2
-0.1972556114196777,-0.6777747273445129,0.1996846497058868,2.4764347076416016,1.37482750415802,100.17683410644533,23.05,2
-0.1825650483369827,-0.6476722359657288,0.2568949162960052,2.6819188594818115,1.3745388984680176,100.14930725097656,23.05,2
-0.1731374859809875,-0.7011252641677856,0.3271958231925964,2.398207902908325,1.3743537664413452,100.13164520263672,23.05,2
-0.116707444190979,-0.7858083248138428,0.4114953279495239,1.7145780324935913,1.3733166456222534,100.12030792236328,23.05,2
-0.0525050237774848,-0.8401530385017395,0.4767894446849823,0.7528076767921448,1.3726511001586914,100.11302947998048,23.05,2
-0.0169013794511556,-0.8750283122062683,0.5242892503738403,-0.3874572515487671,1.372223973274231,100.10836029052734,23.05,2
-0.0220418814569711,-0.9086048007011414,0.5547718405723572,-1.6279393434524536,1.3719499111175537,100.10536193847656,23.05,2
-0.0645251795649528,-0.9693366885185242,0.5855293869972229,-2.864666223526001,1.3717740774154663,100.10343933105467,23.05,2
-0.1141796112060546,-1.0139087438583374,0.6164633631706238,-4.041661739349365,1.3716611862182615,100.10220336914062,23.05,2
-0.140447199344635,-1.025719165802002,0.6363149881362915,-5.033439636230469,1.3715887069702148,100.10140991210938,23.05,2
-0.1461086720228195,-0.9885162115097046,0.6546524167060852,-5.490777015686035,1.37154221534729,100.10090637207033,23.05,2
-0.1609374284744262,-0.9534459710121156,0.6608225107192993,-5.064172267913818,1.372889518737793,100.10057830810548,23.05,2
-0.1984425485134124,-0.9477332234382628,0.6479887962341309,-3.780115365982056,1.3737541437149048,100.10037231445312,23.05,2
-0.2281089425086975,-0.977653741836548,0.6285573244094849,-2.010281562805176,1.3743090629577637,100.10023498535156,23.05,2
-0.2471471279859542,-0.9968550205230712,0.6048917770385742,-0.0755897313356399,1.374665141105652,100.10015106201172,23.05,2
-0.2481691837310791,-0.981188416481018,0.5505201816558838,2.14044451713562,1.3748936653137207,100.10009765625,23.05,2
-0.2544228732585907,-0.9655367136001588,0.4876387417316437,4.9848504066467285,1.3750402927398682,100.10005950927734,23.05,2
-0.2920227646827698,-1.039458990097046,0.4360895156860351,8.16443920135498,1.3751344680786133,100.10003662109376,23.05,2
-0.3441410958766937,-1.1428757905960083,0.380617082118988,10.491522789001465,1.3751949071884155,100.10002136230467,23.05,2
-0.4055764973163605,-1.1196783781051636,0.3058336675167084,10.967459678649902,1.3775290250778198,100.10001373291016,23.05,2
-0.4505999684333801,-1.0544116497039795,0.2410486340522766,9.707303047180176,1.3790268898010254,100.10000610351562,23.05,2
-0.4682978987693786,-1.040516018867493,0.1826800107955932,7.458411693572998,1.379988193511963,100.10000610351562,23.05,2
-0.502046525478363,-1.1155651807785034,0.0948424190282821,4.8651957511901855,1.3806051015853882,100.10000610351562,23.05,2
-0.4901177883148193,-1.1581296920776367,-0.011906667612493,2.3483660221099854,1.3810009956359863,100.10000610351562,23.05,2
-0.4880603849887848,-1.1966407299041748,-0.1084009557962417,0.1599977016448974,1.381255030632019,100.10000610351562,23.05,2
-0.5147289633750916,-1.221354842185974,-0.2263031750917434,-1.6492019891738892,1.381417989730835,100.10000610351562,23.05,2
-0.5206477642059326,-1.214823842048645,-0.2683793902397156,-3.1362569332122803,1.3815226554870603,100.10000610351562,23.05,2
-0.507652759552002,-1.2106326818466189,-0.2729903757572174,-4.362838745117188,1.3797537088394165,99.7238311767578,23.03,2
-0.4769222140312195,-1.2247363328933716,-0.2367650270462036,-5.35419511795044,1.3786184787750244,99.48242950439452,23.03,2
-0.451603353023529,-1.2449828386306765,-0.1967243552207946,-6.079955101013184,1.3778899908065796,99.32750701904295,23.03,2
-0.4185618460178375,-1.2691713571548462,-0.1374419182538986,-6.420315742492676,1.3774224519729614,99.22808837890624,23.03,2
-0.3861621618270874,-1.2790963649749756,-0.0882023125886917,-6.244656562805176,1.377122402191162,99.16429138183594,23.03,2
-0.3485765755176544,-1.29106342792511,-0.0342120677232742,-5.562298774719238,1.3769298791885376,99.12334442138672,23.03,2
-0.3244563341140747,-1.2931454181671145,0.0172290857881307,-4.554771423339844,1.376806378364563,99.0970687866211,23.03,2
-0.308977335691452,-1.2832859754562378,0.0614366047084331,-3.489037036895752,1.3767271041870115,99.08020782470705,23.03,2
-0.2710549235343933,-1.2153832912445068,0.1233930885791778,-2.6044857501983643,1.371626615524292,99.06938934326172,23.03,2
-0.2299251854419708,-1.1326228380203247,0.1687509715557098,-2.0941529273986816,1.3683533668518066,99.06244659423828,23.03,2
-0.1419549733400344,-1.045925259590149,0.2202501446008682,-2.006683349609375,1.3662527799606323,99.05799102783205,23.03,2
-0.0463163405656814,-0.900723397731781,0.2812882363796234,-2.144009590148926,1.364904761314392,99.0551300048828,23.03,2
0.0094612594693899,-0.7347701191902161,0.3316545188426971,-2.207059383392334,1.364039659500122,99.05329132080078,23.03,2
0.0116694662719964,-0.639466404914856,0.358378916978836,-2.01465368270874,1.363484501838684,99.05211639404295,23.03,2
0.00189101730939,-0.6286859512329102,0.3699313104152679,-1.5723296403884888,1.3631281852722168,99.05136108398438,23.03,2
-0.004384228028357,-0.6777454018592834,0.399736076593399,-0.9875352382659912,1.3628995418548584,99.05087280273438,23.03,2
-0.0084113199263811,-0.720424473285675,0.4244608283042907,-0.264737993478775,1.3645888566970823,99.0505599975586,23.03,2
-0.0277889985591173,-0.764606773853302,0.4347299933433532,0.6827594637870789,1.365672945976257,99.05036163330078,23.03,2
-0.0626155734062194,-0.8377426266670227,0.4357223808765411,1.7816215753555298,1.3663686513900757,99.05023193359376,23.03,2
-0.0793674886226654,-0.9126659035682678,0.4419569969177246,2.7053451538085938,1.366815209388733,99.0501480102539,23.03,2
-0.0789223611354827,-0.9999317526817322,0.4851424396038055,3.144087076187134,1.367101788520813,99.0500946044922,23.03,2
-0.1122233495116233,-1.0391405820846558,0.5240519046783447,3.1211273670196533,1.3672856092453003,99.05006408691406,23.03,2
-0.1559851020574569,-1.0531070232391355,0.5434240102767944,3.077732563018799,1.3674036264419556,99.05004119873048,23.03,2
-0.2232532948255539,-1.0172877311706543,0.5222692489624023,3.4869585037231445,1.3674793243408203,99.0500259399414,23.03,2
-0.2664221525192261,-0.9775076508522034,0.4974977970123291,4.312040328979492,1.3721187114715576,99.05001831054688,23.03,2
-0.2885276675224304,-0.9463812708854676,0.4648075699806213,5.085145473480225,1.3750959634780884,99.05001068115234,23.03,2
-0.2971159517765045,-0.932003915309906,0.4718177616596222,5.534706592559815,1.3770065307617188,99.05001068115234,23.03,2
-0.3026274144649505,-0.9283751845359802,0.4819142520427704,5.787383079528809,1.378232717514038,99.05001068115234,23.03,2
-0.2837732434272766,-0.9372419714927672,0.47719806432724,6.139412879943848,1.3790196180343628,99.05001068115234,23.03,2
-0.282869279384613,-0.9597254991531372,0.4685737192630768,6.7164177894592285,1.3795245885849,99.05001068115234,23.03,2
-0.3046802580356598,-1.0301319360733032,0.4574413299560547,7.065210819244385,1.379848599433899,99.05001068115234,23.03,2
-0.346666157245636,-1.1089013814926147,0.4279060959815979,6.465054035186768,1.3800565004348757,99.05001068115234,23.03,2
-0.3568169772624969,-1.1314620971679688,0.3977565467357635,4.944231033325195,1.381567120552063,98.72040557861328,23.05,2
-0.3465378582477569,-1.0675715208053589,0.3448216319084167,3.198000907897949,1.38253653049469,98.5088882446289,23.05,2
-0.3343435525894165,-1.0209723711013794,0.2996555268764496,1.4074292182922363,1.3831586837768557,98.3731460571289,23.05,2
-0.3321157097816467,-1.0414477586746216,0.2762682735919952,-0.8200117945671082,1.383557915687561,98.2860336303711,23.05,2
-0.3138926923274994,-1.0993698835372925,0.2668574750423431,-3.478278636932373,1.3838140964508057,98.23013305664062,23.05,2
-0.2854048907756805,-1.1253453493118286,0.2552203834056854,-6.015358924865723,1.3839784860610962,98.19425964355467,23.05,2
-0.1887542009353637,-1.1140260696411133,0.2421545982360839,-7.9480299949646,1.3840839862823486,98.17123413085938,23.05,2
-0.1435226798057556,-1.0955665111541748,0.2225741744041443,-9.120238304138184,1.3841516971588137,98.15646362304688,23.05,2
-0.1256912350654602,-1.0893179178237915,0.2156063616275787,-9.625295639038086,1.38557231426239,98.14698028564452,23.05,2
-0.1366391479969024,-1.068514704704285,0.2111348211765289,-9.623398780822754,1.386483907699585,98.14089965820312,23.05,2
-0.1436648815870285,-1.038370966911316,0.2026674747467041,-9.26750659942627,1.3870689868927002,98.13699340820312,23.05,2
-0.1593691408634185,-0.996635377407074,0.1860380619764328,-8.756092071533203,1.3874443769454956,98.13448333740234,23.05,2
-0.1694472283124923,-0.9642541408538818,0.1809640377759933,-8.180697441101074,1.3876852989196775,98.13287353515624,23.05,2
-0.1535236686468124,-0.9378759264945984,0.200098916888237,-7.417358875274658,1.387839913368225,98.13184356689452,23.05,2
-0.1265115290880203,-0.9153501391410828,0.2235741317272186,-6.447427272796631,1.387939214706421,98.13117980957033,23.05,2
-0.0979811400175094,-0.8952966332435608,0.2386391758918762,-5.466723442077637,1.388002872467041,98.13075256347656,23.05,2
-0.0684764310717582,-0.860036313533783,0.2427092790603637,-4.475523948669434,1.388043761253357,98.13048553466795,23.05,2
-0.0551397800445556,-0.8262127637863159,0.2565167844295501,-3.316373109817505,1.388069987297058,98.13031005859376,23.05,2
-0.0633744075894355,-0.8268978595733643,0.2653776407241821,-2.2214043140411377,1.3880867958068848,98.13019561767578,23.05,2
-0.0966477915644645,-0.8553263545036316,0.2542707026004791,-1.6369413137435913,1.388097643852234,98.130126953125,23.05,2
-0.129196286201477,-0.907156765460968,0.2415451407432556,-1.380091667175293,1.3881045579910278,98.1300811767578,23.05,2
-0.1500840336084365,-0.9348207712173462,0.238976389169693,-0.6671262979507446,1.3881089687347412,98.13005065917967,23.05,2
-0.1914774626493454,-0.94137841463089,0.2429256737232208,0.9690812230110168,1.3881118297576904,98.1300277709961,23.05,2
-0.2516280114650726,-0.9959666728973388,0.2958400845527649,3.258676290512085,1.3881136178970337,98.13002014160156,23.05,2
-0.2566425502300262,-1.1261605024337769,0.3745796978473663,5.494677543640137,1.3890327215194702,98.13001251220705,23.05,2
-0.2094806134700775,-1.1873202323913574,0.4307080209255218,6.929614543914795,1.3896225690841677,98.1300048828125,23.05,2
-0.1120415031909942,-1.1258090734481812,0.4667279422283172,7.248601913452148,1.3900010585784912,98.1300048828125,23.05,2
-0.0439129136502742,-1.052748203277588,0.5010390281677246,6.9410014152526855,1.3902438879013062,98.1300048828125,23.05,2
-0.0393763296306133,-0.989068567752838,0.4838734567165375,6.772261619567871,1.3903998136520386,98.1300048828125,23.05,2
-0.0700516551733017,-0.9426048398017884,0.4168798327445984,6.850267887115479,1.3904998302459717,98.1300048828125,23.05,2
-0.1121284142136573,-0.9015915989875792,0.357093870639801,6.653130531311035,1.39056396484375,98.1300048828125,23.05,2
-0.1839130520820617,-0.8528805375099182,0.2963355779647827,5.842346668243408,1.3906052112579346,98.1300048828125,23.05,2
-0.2411758452653885,-0.8104250431060791,0.2517466247081756,4.69866418838501,1.3947631120681765,97.88996887207033,23.01,2
-0.2723260521888733,-0.7383973598480225,0.2343275547027588,3.739012479782105,1.3974313735961914,97.73593139648438,23.01,2
-0.2979142069816589,-0.6921741366386414,0.2287467718124389,3.14465880393982,1.3991436958312988,97.63707733154295,23.01,2
-0.3143352270126343,-0.7128906846046448,0.2307631224393844,2.809810161590576,1.400242567062378,97.57363891601562,23.01,2
-0.3192755281925201,-0.8717275261878967,0.3048281669616699,2.770469903945923,1.4009478092193604,97.53292846679688,23.01,2
-0.3224459290504455,-0.9680621027946472,0.3523588478565216,3.0246644020080566,1.4014003276824951,97.50679779052734,23.01,2
-0.3468715846538543,-1.0186885595321655,0.3772635459899902,3.1698789596557617,1.4016907215118408,97.49002838134766,23.01,2
-0.3345577120780945,-1.0679709911346436,0.4324303567409515,2.790169239044189,1.4018770456314087,97.4792709350586,23.01,2
-0.3098620474338531,-1.1443798542022705,0.4958221018314361,1.980446457862854,1.4042919874191284,97.4723663330078,23.01,2
-0.2380360513925552,-1.0982524156570437,0.5476988554000854,1.1097207069396973,1.405841827392578,97.46793365478516,23.01,2
-0.1583556085824966,-1.007074952125549,0.5585992336273193,0.3574798703193664,1.4068363904953003,97.465087890625,23.01,2
-0.129612386226654,-1.0157358646392822,0.5320078134536743,-0.2936460375785827,1.4074746370315552,97.46326446533205,23.01,2
-0.1111666411161422,-1.0940649509429932,0.4869541227817535,-0.8440564870834351,1.4078842401504517,97.46209716796876,23.01,2
-0.1049269959330558,-1.1499298810958862,0.4524434804916382,-1.2653471231460571,1.4081470966339111,97.46134185791016,23.01,2
0.0222282875329256,-1.1465963125228882,0.5142631530761719,-1.5786981582641602,1.4083157777786257,97.46086120605467,23.01,2
0.0142648350447416,-1.105272650718689,0.5259466171264648,-1.7905365228652954,1.4084240198135376,97.46055603027344,23.01,2
-0.0356278456747531,-1.0563623905181885,0.4886621832847595,-1.962307929992676,1.4126249551773071,97.46035766601562,23.01,2
-0.0508527718484401,-0.9969857335090636,0.4255507588386535,-2.2337567806243896,1.415320873260498,97.4602279663086,23.01,2
-0.0606232546269893,-0.9420878887176514,0.3738539218902588,-2.5727555751800537,1.4170509576797483,97.46014404296876,23.01,2
-0.0836867094039917,-0.8676731586456299,0.3294823169708252,-2.689993381500244,1.4181612730026243,97.46009063720705,23.01,2
-0.0984875112771987,-0.8031247854232788,0.3066049516201019,-2.442798137664795,1.4188737869262695,97.4600601196289,23.01,2
-0.0911924913525581,-0.750505805015564,0.2975213527679443,-2.0369646549224854,1.4193310737609863,97.46003723144533,23.01,2
-0.0865109637379646,-0.7055423855781555,0.2916920185089111,-1.690542221069336,1.4196244478225708,97.46002197265624,23.01,2
-0.0947021767497062,-0.676687479019165,0.2711577713489532,-1.4109070301055908,1.419812798500061,97.46001434326172,23.01,2
-0.1279477030038833,-0.7029522657394409,0.2635778486728668,-1.1705495119094849,1.4171793460845947,97.4600067138672,23.01,2
-0.1604783087968826,-0.747796356678009,0.253115713596344,-1.1166139841079712,1.4154893159866333,97.4600067138672,23.01,2
-0.2261367738246917,-0.910921275615692,0.2240106165409088,-1.3829376697540283,1.4144047498703003,97.4600067138672,23.01,2
-0.2738703787326813,-1.071583271026611,0.2109304070472717,-1.861950397491455,1.4137086868286133,97.4600067138672,23.01,2
-0.3268941640853882,-1.1690890789031982,0.2641118168830871,-2.405803203582764,1.4132620096206665,97.4600067138672,23.01,2
-0.3609217703342438,-1.1812827587127686,0.2870450317859649,-2.9590234756469727,1.4129754304885864,97.4600067138672,23.01,2
-0.3715631663799286,-1.1723145246505735,0.2905666828155517,-3.2603096961975098,1.4127914905548096,97.4600067138672,23.01,2
-0.3224144577980041,-1.1945481300354004,0.2480444908142089,-2.916271448135376,1.4126734733581543,97.4600067138672,23.01,2
-0.2740803360939026,-1.208816409111023,0.1983650922775268,-1.8213390111923216,1.4121384620666504,97.209228515625,23.05,2
-0.2598555982112884,-1.167593002319336,0.1608859449625015,-0.0940578058362007,1.411795139312744,97.04828643798828,23.05,2
-0.2787158489227295,-1.1075515747070312,0.142431765794754,2.053358793258667,1.4115747213363647,96.94500732421876,23.05,2
-0.2908192873001098,-1.0466293096542358,0.1305889338254928,4.026154518127441,1.4114333391189575,96.87873077392578,23.05,2
-0.3041843473911285,-0.9627507328987122,0.1173911094665527,4.769125461578369,1.4113426208496094,96.83619689941406,23.05,2
-0.3127612769603729,-0.8865311741828918,0.1033237278461456,3.533450126647949,1.411284327507019,96.80889892578124,23.05,2
-0.3238632082939148,-0.8208245038986206,0.0886983200907707,0.6374928951263428,1.4112470149993896,96.7913818359375,23.05,2
-0.3421833515167236,-0.7730599641799927,0.0793125703930854,-2.7614734172821045,1.41122305393219,96.78013610839844,23.05,2
-0.3539401590824127,-0.7424074411392212,0.0788871124386787,-5.551772117614746,1.4116668701171875,96.7729263305664,23.05,2
-0.3614850044250488,-0.7395297288894653,0.1066029518842697,-7.163296222686768,1.411951780319214,96.76829528808594,23.05,2
-0.3719246387481689,-0.771269679069519,0.1635738015174865,-7.480964660644531,1.4121345281600952,96.76532745361328,23.05,2
-0.3898197412490845,-0.8308229446411133,0.2225255072116851,-6.7784342765808105,1.4122518301010132,96.76342010498048,23.05,2
-0.3957059979438782,-0.9530074000358582,0.2995417416095733,-5.439111709594727,1.4123271703720093,96.76219940185548,23.05,2
-0.3882879316806793,-1.0706027746200562,0.3545641005039215,-3.2648065090179443,1.4123754501342771,96.76141357421876,23.05,2
-0.3835274279117584,-1.235633134841919,0.4570475816726684,0.2729175686836242,1.4124064445495603,96.76091003417967,23.05,2
-0.3692768514156341,-1.2015957832336426,0.539608895778656,4.574545383453369,1.4124263525009155,96.76058197021484,23.05,2
-0.3433383405208587,-1.067797064781189,0.5757986903190613,7.725583076477051,1.4124391078948977,96.7603759765625,23.05,2
-0.2539214193820953,-0.987530529499054,0.5822299122810364,8.46517562866211,1.4124473333358765,96.76023864746094,23.05,2
-0.1797454804182052,-0.9864000082015992,0.5751615166664124,7.363470554351807,1.4124525785446167,96.7601547241211,23.05,2
-0.1377414017915725,-1.0808366537094116,0.5426365733146667,5.642590999603272,1.412455916404724,96.76010131835938,23.05,2
-0.127578929066658,-1.141440749168396,0.4937750399112701,3.993677854537964,1.412458062171936,96.76006317138672,23.05,2
-0.1042639091610908,-1.1523441076278689,0.4680162966251373,2.7957799434661865,1.4124594926834106,96.76004028320312,23.05,2
-0.0557150281965732,-1.136950135231018,0.4962680339813232,2.324391841888428,1.412460446357727,96.76002502441406,23.05,2
-0.0413524731993675,-1.1270711421966553,0.5032027959823608,2.3156533241271973,1.4124610424041748,96.76001739501952,23.05,2
-0.0489287339150905,-1.059155821800232,0.4628709554672241,2.0700128078460693,1.4124614000320437,96.760009765625,23.05,2
-0.0202040951699018,-1.0155717134475708,0.4257927536964416,1.2639286518096924,1.4124616384506226,96.760009765625,23.05,2
-0.0521502457559108,-0.9652108550071716,0.3572158813476562,0.3131386041641235,1.412461757659912,96.760009765625,23.05,2
-0.0390647985041141,-0.876914381980896,0.3244027495384216,-0.3400145769119262,1.4124618768692017,96.760009765625,23.05,2
-0.04746063798666,-0.8146530389785767,0.3089429438114166,-0.830822229385376,1.4124618768692017,96.760009765625,23.05,2
-0.0360552817583084,-0.7523061633110046,0.3102172911167145,-1.3929920196533203,1.4124618768692017,96.760009765625,23.05,2
-0.0287359785288572,-0.7010999917984009,0.3054373264312744,-1.825411677360535,1.4124618768692017,96.760009765625,23.05,2
-0.0520277433097362,-0.645847737789154,0.2967720329761505,-1.9488630294799805,1.4124618768692017,96.760009765625,23.05,2
-0.1005617007613182,-0.6607699990272522,0.2968089282512665,-1.942105174064636,1.411084771156311,96.50205993652344,23.01,2
-0.1429035514593124,-0.7039328813552856,0.2856370508670807,-1.7443093061447144,1.410201072692871,96.3365249633789,23.01,2
-0.2372494041919708,-0.9163588881492616,0.267272025346756,-0.9366859793663024,1.4096338748931885,96.23029327392578,23.01,2
-0.3089906871318817,-1.1702349185943604,0.2722797393798828,0.4593312740325928,1.40926992893219,96.16211700439452,23.01,2
-0.3662256598472595,-1.2491912841796875,0.3258733749389648,1.7743761539459229,1.40903639793396,96.11837005615234,23.01,2
-0.3693691194057464,-1.1991010904312134,0.3210822641849518,2.4391674995422363,1.4088865518569946,96.09029388427734,23.01,2
-0.3489953279495239,-1.166956067085266,0.2676276266574859,2.4645438194274902,1.4087903499603271,96.07227325439452,23.01,2
-0.2407584339380264,-1.146327257156372,0.2109324336051941,2.111823558807373,1.4087285995483398,96.06071472167967,23.01,2
-0.1657004505395889,-1.1386866569519043,0.1801464855670929,1.473471760749817,1.4082300662994385,96.05329132080078,23.01,2
-0.1903036236763,-1.0945988893508911,0.1547920703887939,0.5192629098892212,1.4079101085662842,96.04853057861328,23.01,2
-0.2396791726350784,-1.0159258842468262,0.1273255199193954,-0.5337502360343933,1.4077047109603882,96.04547119140624,23.01,2
-0.276963323354721,-0.943047046661377,0.1096990630030632,-1.4137202501296997,1.4075729846954346,96.04351043701172,23.01,2
-0.2840968370437622,-0.8626909255981445,0.0983874127268791,-2.3725178241729736,1.407488465309143,96.04225158691406,23.01,2
-0.2886747121810913,-0.7999274730682373,0.1023238003253936,-3.869132518768311,1.4074342250823977,96.04144287109376,23.01,2
-0.2972103059291839,-0.7428561449050903,0.104849949479103,-5.58549690246582,1.4073994159698486,96.04092407226562,23.01,2
-0.3082857429981231,-0.7230243682861328,0.1232644096016883,-6.737116813659668,1.407377004623413,96.04059600830078,23.01,2
-0.3265888690948486,-0.7270908355712891,0.1686683893203735,-7.225379943847656,1.4050673246383667,96.0403823852539,23.01,2
-0.3439325094223022,-0.735298216342926,0.2649793326854706,-7.524389266967773,1.4035850763320925,96.04024505615234,23.01,2
-0.3774537742137909,-0.746163010597229,0.3547750413417816,-7.6661200523376465,1.4026339054107666,96.0401611328125,23.01,2
-0.4437479972839355,-0.8594931364059448,0.4403896331787109,-6.979655742645264,1.402023434638977,96.04010009765624,23.01,2
-0.4862917959690094,-0.977004051208496,0.5625054240226746,-4.547210216522217,1.4016317129135132,96.0400619506836,23.01,2
-0.4912028610706329,-1.0524158477783203,0.6632634401321411,-0.1488068103790283,1.4013803005218506,96.0400390625,23.01,2
-0.4943545162677765,-1.123201847076416,0.7167285680770874,4.859206199645996,1.4012190103530884,96.04002380371094,23.01,2
-0.5019748210906982,-1.185421586036682,0.700659453868866,8.363249778747559,1.4011155366897583,96.0400161743164,23.01,2
-0.4340940415859222,-1.191763997077942,0.5951850414276123,9.447606086730955,1.4001308679580688,96.04000854492188,23.01,2
-0.3737387359142303,-1.0446943044662476,0.4715198874473572,8.624471664428711,1.3994989395141602,96.04000854492188,23.01,2
-0.3294084072113037,-0.9167267680168152,0.3753653764724731,6.584384441375732,1.3990933895111084,96.04000854492188,23.01,2
-0.3065575063228607,-0.8737889528274536,0.3192567229270935,4.132331848144531,1.398833155632019,96.04000854492188,23.01,2
-0.2974908947944641,-0.8742228150367737,0.3056405186653137,2.454850912094116,1.3986661434173584,96.04000854492188,23.01,2
-0.3140635788440704,-0.9024901390075684,0.3304890692234039,2.1378464698791504,1.3985589742660522,96.04000854492188,23.01,2
-0.3302967250347137,-0.9598149061203004,0.3240443468093872,2.6831696033477783,1.3984901905059814,96.04000854492188,23.01,2
-0.3519097864627838,-1.01339590549469,0.2975173890590668,3.3125674724578857,1.3984460830688477,96.04000854492188,23.01,2
-0.3713775873184204,-1.0421833992004397,0.2357117235660553,3.4728636741638184,1.397499918937683,95.79997253417967,23.03,2
-0.3726753294467926,-1.0494619607925415,0.1792550832033157,2.798313617706299,1.3968926668167114,95.64593505859376,23.03,2
-0.3679103851318359,-1.0541329383850098,0.1430244594812393,1.3802179098129272,1.39650297164917,95.54708099365234,23.03,2
-0.3648525178432464,-1.079521656036377,0.1365670561790466,-0.2427669912576675,1.3962528705596924,95.483642578125,23.03,2
-0.3516946136951446,-1.09581458568573,0.1380208432674408,-1.5888240337371826,1.396092414855957,95.44293212890624,23.03,2
-0.3264572918415069,-1.0894771814346311,0.1445515751838684,-2.459811210632324,1.3959894180297852,95.41680145263672,23.03,2
-0.299065887928009,-1.10780131816864,0.1487426310777664,-2.8862054347991943,1.395923376083374,95.40003204345705,23.03,2
-0.2479010224342346,-1.130756139755249,0.1458344310522079,-3.070276260375977,1.395880937576294,95.38927459716795,23.03,2
-0.2318596690893173,-1.0839117765426636,0.1271747946739196,-2.9161264896392822,1.3930994272232056,95.3823699951172,23.03,2
-0.2271630316972732,-1.0258609056472778,0.1152001097798347,-1.9681316614151,1.3913143873214722,95.37793731689452,23.03,2
-0.2129534482955932,-0.927031636238098,0.1299065500497818,-0.1990085989236831,1.3901689052581787,95.37509155273438,23.03,2
-0.1982367783784866,-0.8020331859588623,0.1673331558704376,1.5310202836990356,1.389433741569519,95.3732681274414,23.03,2
-0.1496080458164215,-0.6490452885627747,0.2249380499124527,2.3761425018310547,1.3889620304107666,95.37210083007812,23.03,2
-0.0960098356008529,-0.6684197783470154,0.2731010913848877,2.3452813625335693,1.3886592388153076,95.37134552001952,23.03,2
-0.0672113597393035,-0.7592220306396484,0.3096071481704712,1.992296814918518,1.3884649276733398,95.37086486816406,23.03,2
-0.0599257051944732,-0.8902647495269775,0.3610235154628753,1.6009732484817505,1.3883402347564695,95.3705596923828,23.03,2
-0.0608479641377925,-0.9407737851142884,0.3940195739269256,1.0094996690750122,1.387800931930542,95.370361328125,23.03,2
-0.0838309153914451,-0.9507964849472046,0.4263900816440582,0.0925395339727401,1.387454867362976,95.37023162841795,23.03,2
-0.0482000820338726,-0.9572284817695618,0.4583591520786285,-1.0368815660476685,1.387232780456543,95.37014770507812,23.03,2
-0.0253342632204294,-0.9501606225967408,0.478875070810318,-2.363551616668701,1.3870902061462402,95.3700942993164,23.03,2
-0.0666380450129509,-0.9568204283714294,0.5200299024581909,-3.938612461090088,1.3869987726211548,95.37006378173828,23.03,2
-0.1155355274677276,-0.9666920900344848,0.5632340312004089,-5.404382705688477,1.3869401216506958,95.37004089355467,23.03,2
-0.1637084484100341,-0.9506360292434692,0.5965576767921448,-6.026180744171143,1.3869024515151978,95.37002563476562,23.03,2
-0.1778297275304794,-0.9179410934448242,0.6179429292678833,-5.454336643218994,1.386878252029419,95.3700180053711,23.03,2
-0.1756964027881622,-0.8913615942001343,0.6316667199134827,-3.9086928367614746,1.3868627548217771,95.37001037597656,23.03,2
-0.1575340330600738,-0.879902184009552,0.6124849915504456,-1.8097717761993408,1.3868528604507446,95.37001037597656,23.03,2
-0.1514762490987777,-0.8893414735794067,0.5777841806411743,0.364769846200943,1.3868464231491089,95.37001037597656,23.03,2
-0.1811753511428833,-0.9233879446983336,0.527526319026947,2.1901745796203613,1.3868423700332642,95.37001037597656,23.03,2
-0.2226256281137466,-0.9452370405197144,0.4728825986385345,3.845262050628662,1.386839747428894,95.37001037597656,23.03,2
-0.266019344329834,-1.0040407180786133,0.4378154277801513,5.824541091918945,1.3868380784988403,95.37001037597656,23.03,2
-0.3442469239234924,-1.1649285554885864,0.443300187587738,7.61420202255249,1.3868370056152344,95.37001037597656,23.03,2
-0.3720577657222748,-1.1674171686172483,0.3852444887161255,7.755999565124512,1.386836290359497,95.37001037597656,23.03,2
-0.3955029547214508,-1.1074386835098269,0.2976077198982239,5.636548042297363,1.387295126914978,95.16221618652344,23.03,2
-0.3937553763389587,-1.0633502006530762,0.2245741486549377,2.262998580932617,1.3875895738601685,95.02886962890624,23.03,2
-0.3926338851451874,-1.06864333152771,0.1721076369285583,-0.8011777997016907,1.3877785205841064,94.94329071044922,23.03,2
-0.4143052697181701,-1.167202353477478,0.1216443255543708,-2.563382863998413,1.3878997564315796,94.88837432861328,23.03,2
-0.4058216214179992,-1.2696362733840942,0.0724665522575378,-2.93117618560791,1.3879776000976562,94.85313415527344,23.03,2
-0.3947795331478119,-1.3409702777862549,0.0185159891843795,-2.551001787185669,1.388027548789978,94.83051300048828,23.03,2
-0.4156822264194488,-1.3643572330474854,-0.0217041503638029,-2.185220241546631,1.3880596160888672,94.81600189208984,23.03,2
-0.4458897113800049,-1.407354474067688,-0.0587106682360172,-2.086620569229126,1.38808012008667,94.8066864013672,23.03,2
-0.448481798171997,-1.462936520576477,-0.1104481965303421,-2.066335916519165,1.387634038925171,94.80070495605467,23.03,2
-0.4221563935279846,-1.481812596321106,-0.1436503678560257,-1.913597822189331,1.3873478174209597,94.79686737060548,23.03,2
-0.3660778403282165,-1.4603395462036133,-0.1425665020942688,-1.657945990562439,1.3871641159057615,94.7944107055664,23.03,2
-0.3132965266704559,-1.43536376953125,-0.1138820722699165,-1.497465968132019,1.387046217918396,94.79283142089844,23.03,2
-0.2738267481327057,-1.4081401824951172,-0.0898762792348861,-1.426722288131714,1.3869705200195312,94.79181671142578,23.03,2
-0.2484973073005676,-1.351485252380371,-0.0688729733228683,-1.1950291395187378,1.386922001838684,94.79116821289062,23.03,2
-0.2322423309087753,-1.2983341217041016,-0.0441987104713916,-0.752570629119873,1.3868907690048218,94.7907485961914,23.03,2
-0.2386041432619094,-1.2418336868286133,-0.0115708662196993,-0.4113050103187561,1.3868707418441772,94.7904815673828,23.03,2
-0.2314912527799606,-1.1551949977874756,0.0429544560611248,-0.3463511168956756,1.3818086385726929,94.7903060913086,23.03,2
-0.204535499215126,-1.0883996486663818,0.077945664525032,-0.3118326067924499,1.3785600662231443,94.79019927978516,23.03,2
-0.1312591135501861,-0.9671654105186462,0.1339876502752304,-0.2036987841129303,1.3764753341674805,94.79013061523438,23.03,2
-0.0786367654800415,-0.8333865404129028,0.2259299159049987,-0.2776077389717102,1.375137448310852,94.7900848388672,23.03,2
-0.0560623258352279,-0.753132700920105,0.3073242604732513,-0.5292450785636902,1.374278903007507,94.79005432128906,23.03,2
-0.0359775722026824,-0.7911947965621948,0.3595584630966186,-0.5151852369308472,1.3737279176712036,94.79003143310548,23.03,2
-0.0118927862495183,-0.8548052906990051,0.4098727107048034,-0.0977488234639167,1.373374342918396,94.79002380371094,23.03,2
0.0315523147583007,-0.906822383403778,0.4645525813102722,0.3026931583881378,1.3731474876403809,94.7900161743164,23.03,2
0.053835105150938,-0.9346061944961548,0.4996429979801178,0.3232237696647644,1.3748379945755005,94.79000854492188,23.03,2
0.0233527217060327,-0.9580340385437012,0.510966420173645,0.0820362791419029,1.3759227991104126,94.79000854492188,23.03,2
-0.0241979900747537,-0.9954597353935242,0.5126354098320007,-0.0584136843681335,1.3766189813613892,94.79000854492188,23.03,2
-0.0603110715746879,-1.013879656791687,0.5193042159080505,0.1344770789146423,1.3770657777786257,94.79000854492188,23.03,2
-0.1058774664998054,-1.0201027393341064,0.5291816592216492,0.548451840877533,1.3773524761199951,94.79000854492188,23.03,2
-0.1295215785503387,-1.0129008293151855,0.5411182045936584,0.8857685923576355,1.377536416053772,94.79000854492188,23.03,2
-0.155890554189682,-0.9914857149124146,0.5375828742980957,1.1201518774032593,1.3776545524597168,94.79000854492188,23.03,2
-0.1952037513256073,-0.9665471315383912,0.5465096235275269,1.503433108329773,1.377730369567871,94.79000854492188,23.03,2
-0.2260304689407348,-0.944945216178894,0.5578360557556152,1.982268214225769,1.379615068435669,94.48190307617188,23.03,2
-0.2290199548006057,-0.9366801381111144,0.5707024931907654,2.096097946166992,1.3808244466781616,94.2841796875,23.03,2
-0.2253406643867492,-0.9369738698005676,0.5789594650268555,1.6890822649002075,1.3816006183624268,94.15729522705078,23.03,2
-0.2061861902475357,-0.9651512503623962,0.5842582583427429,1.3204057216644287,1.38209867477417,94.07586669921876,23.03,2
-0.2050894945859909,-0.9832338690757751,0.5484743118286133,1.682100534439087,1.3824183940887451,94.02360534667967,23.03,2
-0.2267767935991287,-1.0116316080093384,0.5087169408798218,2.7023820877075195,1.382623553276062,93.99007415771484,23.03,2
-0.2742811143398285,-1.0914311408996582,0.4552140533924103,3.50402569770813,1.382755160331726,93.9685516357422,23.03,2
-0.3103644251823425,-1.1426419019699097,0.4040856659412384,3.305541753768921,1.3828396797180176,93.95474243164062,23.03,2
-0.3391183912754059,-1.069148302078247,0.3320899903774261,2.1822102069854736,1.381057858467102,93.94587707519533,23.03,2
-0.3743643462657928,-1.027582049369812,0.2690939903259277,0.7627184391021729,1.379914402961731,93.940185546875,23.03,2
-0.391385406255722,-1.0288960933685305,0.2342645525932312,-0.4849917888641357,1.3791805505752563,93.93653869628906,23.03,2
-0.4023085236549377,-1.0633260011672974,0.1951196938753128,-1.4110904932022097,1.3787095546722412,93.93419647216795,23.03,2
-0.3869272768497467,-1.1078122854232788,0.1532054543495178,-1.862104415893555,1.37840735912323,93.93269348144533,23.03,2
-0.3210787177085876,-1.1475565433502195,0.1095139905810356,-1.7502906322479248,1.3782134056091309,93.93173217773438,23.03,2
-0.2620275914669037,-1.156268835067749,0.0814753249287605,-1.4385024309158323,1.3780889511108398,93.93111419677734,23.03,2
-0.2241319715976715,-1.1506643295288086,0.0690794959664344,-1.4641169309616089,1.3780090808868408,93.93071746826172,23.03,2
-0.2054105103015899,-1.1358721256256104,0.0835156664252281,-1.8495601415634155,1.377039670944214,93.93045806884766,23.03,2
-0.1877983808517456,-1.1207815408706665,0.0983777418732643,-2.197227478027344,1.3764175176620483,93.9302978515625,23.03,2
-0.1764959394931793,-1.0943039655685425,0.1079153642058372,-2.4310882091522217,1.3760182857513428,93.93019104003906,23.03,2
-0.1748404502868652,-1.0605188608169556,0.1140360608696937,-2.8140339851379395,1.3757619857788086,93.93012237548828,23.03,2
-0.1793758273124694,-1.027642011642456,0.1123661994934082,-3.303401470184326,1.375597596168518,93.9300765991211,23.03,2
-0.1766885966062545,-1.006543517112732,0.1224901303648948,-3.5923714637756348,1.3754920959472656,93.93004608154295,23.03,2
-0.1693663150072097,-0.9874059557914734,0.1345848590135574,-3.6166000366210938,1.3754243850708008,93.9300308227539,23.03,2
-0.1366784274578094,-0.9527334570884703,0.1367487907409668,-3.5210886001586914,1.3753808736801147,93.93002319335938,23.03,2
-0.0877123475074768,-0.9136893153190612,0.1717241257429123,-3.3738129138946533,1.3744350671768188,93.93001556396484,23.03,2
-0.0562887340784072,-0.8998285531997681,0.2165603786706924,-3.214813709259033,1.3738281726837158,93.93000793457033,23.03,2
-0.0473184175789356,-0.9021291136741638,0.262127012014389,-3.1127769947052,1.3734387159347534,93.93000793457033,23.03,2
-0.0471595600247383,-0.9036054611206056,0.2969668507575989,-2.9004101753234863,1.3731887340545654,93.93000793457033,23.03,2
-0.0470576137304306,-0.9045528769493104,0.3529116809368133,-2.248234510421753,1.37302827835083,93.93000793457033,23.03,2
-0.0357966423034668,-0.9499430656433104,0.3944116234779358,-1.037956476211548,1.3729254007339478,93.93000793457033,23.03,2
-0.017374450340867,-1.0126584768295288,0.4210439026355743,0.4910712838172912,1.3728593587875366,93.93000793457033,23.03,2
0.0112411752343177,-1.0696990489959717,0.4325371980667114,1.898639798164368,1.3728169202804563,93.93000793457033,23.03,2
0.0296050366014242,-1.0895110368728638,0.4287173748016357,2.8234317302703857,1.3723304271697998,93.9443359375,23.03,2
0.0078032589517533,-1.0518453121185305,0.4206682741641998,3.248528957366944,1.3720182180404663,93.95352935791016,23.03,2
-0.039774514734745,-0.9772936105728148,0.4211005866527557,3.3923590183258057,1.3718178272247314,93.9594268798828,23.03,2
-0.0815027356147766,-0.9182550311088562,0.4213780164718628,3.309114694595337,1.3716893196105957,93.96321868896484,23.03,2
-0.1082815080881118,-0.8691719174385071,0.4159582853317261,2.947591781616211,1.3716068267822266,93.96564483642578,23.03,2
-0.1366621255874633,-0.8320754766464233,0.4068824350833893,2.550788640975952,1.371553897857666,93.96720886230467,23.03,2
-0.1996573805809021,-0.8026713132858276,0.3730692267417907,2.550506114959717,1.371519923210144,93.96820831298828,23.03,2
-0.2288885563611984,-0.7838014364242554,0.3513698577880859,3.026807308197021,1.3714981079101562,93.9688491821289,23.03,2
-0.2420496642589569,-0.7716917991638184,0.3430422246456146,3.65848445892334,1.3710252046585083,93.9692611694336,23.03,2
-0.2337023764848709,-0.842289388179779,0.3544913530349731,4.242987155914307,1.370721697807312,93.9695281982422,23.03,2
-0.222747802734375,-0.9267792701721193,0.3786320686340332,4.804381370544434,1.370526909828186,93.96969604492188,23.03,2
-0.2325111031532287,-0.9754022359848022,0.3493419885635376,5.196895122528076,1.3704018592834473,93.96980285644533,23.03,2
-0.2331788539886474,-1.023398995399475,0.302556425333023,5.151433944702148,1.3703216314315796,93.9698715209961,23.03,2
-0.2224118262529373,-1.0709939002990725,0.2669343650341034,4.609951496124268,1.3702701330184937,93.96991729736328,23.03,2
-0.1763177514076233,-1.1127331256866455,0.266465276479721,3.631925821304321,1.370237112045288,93.9699478149414,23.03,2
-0.1299439072608947,-1.1675077676773071,0.2885553240776062,2.2555267810821533,1.370215892791748,93.969970703125,23.03,2
-0.105781614780426,-1.0907034873962402,0.302731454372406,0.6485527753829956,1.37157940864563,93.96997833251952,23.03,2
-0.1126667484641075,-0.963046133518219,0.2726444602012634,-0.8556104302406311,1.3724545240402222,93.96998596191406,23.03,2
-0.1338785588741302,-0.9147096276283264,0.2589341402053833,-2.035850524902344,1.373016119003296,93.9699935913086,23.03,2
-0.1306977421045303,-0.9508633017539978,0.2837222814559936,-2.875659942626953,1.373376488685608,93.9699935913086,23.03,2
-0.1006676107645034,-0.9796624183654784,0.2996298968791961,-3.4181835651397705,1.3736077547073364,93.9699935913086,23.03,2
-0.0422115810215473,-0.9813507199287416,0.3042407035827636,-3.64095401763916,1.3737561702728271,93.9699935913086,23.03,2
0.0008999077836051,-0.9600430727005004,0.31839519739151,-3.597621202468872,1.3738514184951782,93.9699935913086,23.03,2
0.0285663791000843,-0.9519668221473694,0.3274787366390228,-3.444422721862793,1.3739125728607178,93.9699935913086,23.03,2
0.0183322578668594,-0.9523817300796508,0.310916930437088,-3.2422139644622803,1.3730335235595703,93.9699935913086,23.03,2
0.0229601375758647,-0.9470502138137816,0.2834952175617218,-2.9512321949005127,1.372469425201416,93.9699935913086,23.03,2
0.031527817249298,-0.9324332475662231,0.2602997422218323,-2.7071754932403564,1.3721073865890503,93.9699935913086,23.03,2
0.0258305128663778,-0.9230529069900512,0.2454142272472381,-2.693857192993164,1.3718750476837158,93.9699935913086,23.03,2
0.0109787611290812,-0.91143536567688,0.2358615696430206,-2.792787551879883,1.3717260360717771,93.9699935913086,23.03,2
-0.0041500120423734,-0.915175437927246,0.2353290021419525,-2.716554880142212,1.3716304302215576,93.9699935913086,23.03,2
-0.0194565616548061,-0.9119778275489808,0.2349872291088104,-2.431183099746704,1.371569037437439,93.9699935913086,23.03,2
-0.0348771996796131,-0.9323168992996216,0.2291701138019561,-2.051006317138672,1.3715295791625977,93.9699935913086,23.03,2
-0.0615666024386882,-0.9565649032592772,0.219839259982109,-1.5992412567138672,1.371963620185852,93.99149322509766,23.05,2
-0.0898898690938949,-1.0057125091552734,0.2138512432575225,-1.1087002754211426,1.372242093086243,94.00528717041016,23.05,2
-0.1360549926757812,-1.1324148178100586,0.2156062573194503,-0.6756742596626282,1.3724207878112793,94.0141372680664,23.05,2
-0.1768766492605209,-1.213724970817566,0.2167325317859649,-0.2114891409873962,1.3725354671478271,94.0198211669922,23.05,2
-0.2142691910266876,-1.109167456626892,0.2398464083671569,0.5628807544708252,1.3726091384887695,94.02346801757812,23.05,2
-0.1822878271341323,-0.9860907793045044,0.2490817904472351,1.683194875717163,1.3726563453674316,94.02581024169922,23.05,2
-0.1281773895025253,-0.9574872255325316,0.2326174229383468,2.717414617538452,1.3726866245269775,94.02731323242188,23.05,2
-0.0766590982675552,-1.017499923706055,0.1716715693473816,3.158997774124145,1.3727060556411743,94.0282745361328,23.05,2
-0.0771842673420906,-1.0280237197875977,0.1325600296258926,2.976645469665528,1.3704231977462769,94.02889251708984,23.05,2
-0.1279012709856033,-0.97879958152771,0.1242538169026374,2.576598882675171,1.3689582347869873,94.02928924560548,23.05,2
-0.1660462915897369,-0.9472103714942932,0.1413144618272781,2.287628650665283,1.3680180311203003,94.029541015625,23.05,2
-0.1681344658136367,-0.904547154903412,0.1858496516942978,2.1595053672790527,1.3674147129058838,94.02970123291016,23.05,2
-0.1582789868116378,-0.8435816764831543,0.2088319957256317,2.0414576530456543,1.3670275211334229,94.0298080444336,23.05,2
-0.1519543081521988,-0.7932620048522949,0.2179829627275467,1.6074438095092771,1.366779088973999,94.02987670898438,23.05,2
-0.1758843660354614,-0.7553719878196716,0.2126599848270416,0.6016558408737183,1.36661958694458,94.02992248535156,23.05,2
-0.2024368494749069,-0.7310563325881958,0.2204395532608032,-0.6241781711578369,1.3665173053741455,94.02995300292967,23.05,2
-0.2362700253725052,-0.7434408068656921,0.2534209191799164,-1.2496320009231567,1.3673698902130127,94.02996826171876,23.05,2
-0.2635799944400787,-0.7793773412704468,0.2913797795772552,-0.9595752358436584,1.3679169416427612,94.02997589111328,23.05,2
-0.2867037355899811,-0.8528193235397339,0.321337342262268,-0.1500653624534607,1.3682680130004885,94.0299835205078,23.05,2
-0.3015432059764862,-0.9447323083877563,0.3517579436302185,0.7993406057357788,1.3684933185577393,94.02999114990234,23.05,2
-0.3054685592651367,-0.975727915763855,0.360084593296051,1.7597070932388306,1.3686379194259644,94.02999114990234,23.05,2
-0.307987630367279,-1.0012168884277344,0.3654281497001648,2.4763271808624268,1.3687306642532349,94.02999114990234,23.05,2
-0.354386419057846,-1.1071386337280271,0.4080417454242706,2.563624858856201,1.3687902688980105,94.02999114990234,23.05,2
-0.3841624855995178,-1.1975041627883911,0.4465842545032501,1.7669943571090698,1.368828535079956,94.02999114990234,23.05,2
-0.3640866279602051,-1.059573531150818,0.4377319812774658,0.2418939769268036,1.3693119287490845,94.02999114990234,23.05,2
-0.3232142329216003,-0.9486664533615112,0.4264533221721649,-1.4031866788864136,1.3696222305297852,94.02999114990234,23.05,2
-0.2522024810314178,-0.9950459599494934,0.4192153215408325,-2.58071231842041,1.369821310043335,94.02999114990234,23.05,2
-0.1786423623561859,-1.0919829607009888,0.4033748507499695,-3.167999505996704,1.3699491024017334,94.02999114990234,23.05,2
-0.1314357072114944,-1.131800413131714,0.3932093381881714,-3.283358573913574,1.3700311183929443,94.02999114990234,23.05,2
-0.0563590005040168,-1.1461573839187622,0.4314678907394409,-2.977636337280273,1.3700836896896362,94.02999114990234,23.05,2
-0.0137768648564815,-1.1273820400238037,0.4560200273990631,-2.376610517501831,1.370117425918579,94.02999114990234,23.05,2
-0.0088411988690495,-1.0705509185791016,0.4549828767776489,-1.6362316608428955,1.3701391220092771,94.02999114990234,23.05,2
-0.0280648712068796,-0.9836999773979188,0.4319261908531189,-0.8673279285430908,1.3696941137313845,94.06224060058594,23.03,2
-0.0571948401629924,-0.9111707210540771,0.4059341847896576,-0.2950731217861175,1.3694084882736206,94.08293151855467,23.03,2
-0.0311065800487995,-0.8590278625488281,0.3780584633350372,-0.1392048746347427,1.369225263595581,94.0962142944336,23.03,2
-0.031157961115241,-0.8199678063392639,0.343376100063324,-0.2290541231632232,1.3691076040267944,94.104736328125,23.03,2
-0.0311909355223178,-0.7893035411834717,0.3155211806297302,-0.2078975439071655,1.3690321445465088,94.1102066040039,23.03,2
-0.0424076430499553,-0.7864183187484741,0.2976455092430115,-0.0331045575439929,1.3689837455749512,94.11371612548828,23.03,2
-0.0608014315366745,-0.7845667004585266,0.2861739099025726,0.057572066783905,1.3689526319503784,94.115966796875,23.03,2
-0.0949966013431549,-0.8113673329353333,0.2788121104240417,-0.1027740091085434,1.3689327239990234,94.11741638183594,23.03,2
-0.1169410943984985,-0.845359742641449,0.2684899568557739,-0.3310650289058685,1.370297074317932,94.11833953857422,23.03,2
-0.1478171348571777,-0.906358540058136,0.2506702542304992,-0.2267887741327285,1.3711726665496826,94.11893463134766,23.03,2
-0.2012182474136352,-1.079850673675537,0.2336368113756179,0.3524380326271057,1.3717344999313354,94.11931610107422,23.03,2
-0.2578791081905365,-1.2247745990753174,0.2283034920692443,0.978515326976776,1.3720951080322266,94.11956024169922,23.03,2
-0.3110341131687164,-1.2450073957443235,0.2696630656719208,1.0220381021499634,1.3723264932632446,94.11972045898438,23.03,2
-0.322754830121994,-1.2076115608215332,0.3129985928535461,0.2725495994091034,1.372475028038025,94.11981964111328,23.03,2
-0.3022876381874084,-1.1164398193359375,0.2736355364322662,-0.946439564228058,1.372570276260376,94.11988830566406,23.03,2
-0.1827952563762664,-1.119506597518921,0.220385730266571,-2.122799873352051,1.3726314306259155,94.11992645263672,23.03,2
-0.1005141511559486,-1.1102790832519531,0.1750175207853317,-2.970867156982422,1.371293544769287,94.11995697021484,23.03,2
-0.1148841679096221,-1.0539774894714355,0.1403050422668457,-3.436291217803955,1.3704349994659424,94.1199722290039,23.03,2
-0.1520948857069015,-1.001052975654602,0.1236263439059257,-3.487776041030884,1.369884014129639,94.11997985839844,23.03,2
-0.215158998966217,-0.933502435684204,0.1297162473201751,-3.187636375427246,1.369530439376831,94.11998748779295,23.03,2
-0.2500321567058563,-0.8565657734870911,0.1560154855251312,-2.686922550201416,1.3693034648895264,94.1199951171875,23.03,2
-0.2612161934375763,-0.790398895740509,0.1728928238153457,-1.9392666816711424,1.369157791137695,94.1199951171875,23.03,2
-0.2460023611783981,-0.7311434745788574,0.1893215030431747,-0.8611740469932556,1.3690643310546875,94.1199951171875,23.03,2
-0.2306412160396576,-0.6875190138816833,0.2054622620344162,0.3465745747089386,1.3690043687820437,94.1199951171875,23.03,2
-0.2319788783788681,-0.6707189083099365,0.2438093423843383,1.5264692306518557,1.3689658641815186,94.1199951171875,23.03,2
-0.2384350746870041,-0.6879264116287231,0.3076027035713196,2.7673051357269287,1.3689411878585815,94.1199951171875,23.03,2
-0.2481760680675506,-0.7325558662414551,0.3709327280521393,3.932607650756836,1.3689253330230713,94.1199951171875,23.03,2
-0.2376339584589004,-0.8339675068855286,0.4227698147296905,4.698344707489014,1.3689152002334597,94.1199951171875,23.03,2
-0.2252708673477172,-0.9326343536376952,0.4560358822345733,5.132429122924805,1.3689086437225342,94.1199951171875,23.03,2
-0.2173369377851486,-1.029539704322815,0.4885796904563904,5.4468255043029785,1.3689044713974,94.1199951171875,23.03,2
-0.2402342706918716,-1.086130142211914,0.5318555235862732,5.369146347045898,1.3689017295837402,94.1199951171875,23.03,2
-0.2773195505142212,-1.1112511157989502,0.5652252435684204,4.538294792175293,1.3689000606536863,94.1199951171875,23.03,2
-0.3403031826019287,-1.0993834733963013,0.5754444599151611,3.159614086151123,1.3684396743774414,94.1629867553711,23.01,2
-0.3695268929004669,-1.0413874387741089,0.5540136694908142,1.769713044166565,1.3681442737579346,94.1905746459961,23.01,2
-0.3490965664386749,-0.9313979148864746,0.4674895703792572,0.7344514727592468,1.3679546117782593,94.20828247070312,23.01,2
-0.3135944604873657,-0.9335840344429016,0.4063656032085418,0.2098006308078766,1.367832899093628,94.21964263916016,23.01,2
-0.2908112704753876,-0.9741714000701904,0.3783353269100189,0.2671932578086853,1.3677548170089722,94.22693634033205,23.01,2
-0.2649947702884674,-1.0002180337905884,0.3715426325798034,0.726768434047699,1.3677047491073608,94.23161315917967,23.01,2
-0.2428294569253921,-1.0057376623153689,0.3671834766864776,1.147087574005127,1.367672562599182,94.234619140625,23.01,2
-0.2174094915390014,-0.992486536502838,0.3699837923049927,1.1911218166351318,1.3676519393920898,94.2365493774414,23.01,2
-0.2290852814912796,-0.9671894311904908,0.3549875617027282,0.7966365814208984,1.3671797513961792,94.23778533935548,23.01,2
-0.2533714473247528,-0.9397596716880798,0.3453638553619385,-0.0118205519393086,1.3668767213821411,94.23857879638672,23.01,2
-0.2969458103179931,-0.9109612703323364,0.3167968094348907,-1.0751932859420776,1.3666822910308838,94.23908996582033,23.01,2
-0.3417026400566101,-0.875686764717102,0.287268579006195,-1.9582288265228271,1.366557478904724,94.23941802978516,23.01,2
-0.3704249858856201,-0.8250607848167419,0.2683190405368805,-2.2920429706573486,1.366477370262146,94.2396240234375,23.01,2
-0.3720640242099762,-0.7701808214187622,0.2617560923099518,-2.140842914581299,1.3664259910583496,94.23976135253906,23.01,2
-0.3731158673763275,-0.7293642163276672,0.2687399387359619,-1.8324394226074217,1.366392970085144,94.2398452758789,23.01,2
-0.3793886601924896,-0.7255616188049316,0.2956128716468811,-1.548542022705078,1.3663718700408936,94.23989868164062,23.01,2
-0.3834141492843628,-0.7455124258995056,0.3184561431407928,-1.215884804725647,1.3663582801818848,94.23993682861328,23.01,2
-0.3692041635513305,-0.8086956739425659,0.3443111777305603,-0.6978856325149536,1.3663495779037476,94.23995971679688,23.01,2
-0.3376939296722412,-0.9108185172080994,0.3832945525646209,0.0142894135788083,1.366343975067139,94.23997497558594,23.01,2
-0.2894836068153381,-0.9707573056221008,0.4307029247283935,0.6683640480041504,1.366340398788452,94.23998260498048,23.01,2
-0.2417516559362411,-1.0036247968673706,0.4667246639728546,0.8731569647789001,1.366338133811951,94.239990234375,23.01,2
-0.2223155945539474,-0.9911306500434875,0.4842435717582702,0.5352638363838196,1.3663365840911863,94.239990234375,23.01,2
-0.215440422296524,-0.876754879951477,0.478692889213562,0.0568954646587371,1.36633563041687,94.239990234375,23.01,2
-0.188637226819992,-0.7809640169143677,0.3911641538143158,-0.2285983711481094,1.3663350343704224,94.239990234375,23.01,2
-0.1714364886283874,-0.769870936870575,0.3014066219329834,-0.4583853483200073,1.3667936325073242,94.239990234375,23.01,2
-0.1548002660274505,-0.8523164391517639,0.2550009489059448,-0.8637948632240295,1.3670878410339355,94.239990234375,23.01,2
-0.1553196460008621,-0.9108229875564576,0.2588070929050445,-1.475055694580078,1.367276668548584,94.239990234375,23.01,2
-0.1668484956026077,-0.9259780049324036,0.2836407721042633,-2.2578284740448,1.3673979043960571,94.239990234375,23.01,2
-0.1854425966739654,-0.9468991756439208,0.2995775938034057,-3.053938150405884,1.3674756288528442,94.239990234375,23.01,2
-0.2029729932546615,-0.9659229516983032,0.3098049163818359,-3.618574380874634,1.367525577545166,94.239990234375,23.01,2
-0.2142229974269867,-0.9669357538223268,0.3275637626647949,-4.020333290100098,1.3675576448440552,94.239990234375,23.01,2
-0.2326381504535675,-0.9284012913703918,0.3445581495761871,-4.385636806488037,1.367578148841858,94.239990234375,23.01,2
-0.2444559335708618,-0.8812810182571411,0.3554641604423523,-4.337043762207031,1.3648370504379272,94.27940368652344,23.03,2
-0.2352465838193893,-0.8286508321762085,0.3736585676670074,-3.3493120670318604,1.363077998161316,94.30469512939452,23.03,2
-0.2181410044431686,-0.7892780303955078,0.3909324705600738,-1.5116972923278809,1.3619492053985596,94.3209228515625,23.03,2
-0.1959680914878845,-0.8087930083274841,0.4076156318187713,0.538144052028656,1.3612247705459597,94.33133697509766,23.03,2
-0.2041298896074295,-0.8493055105209351,0.4071263968944549,2.4053308963775635,1.3607598543167114,94.33802032470705,23.03,2
-0.2261609733104705,-0.9088907241821288,0.4012146592140198,4.280690670013428,1.3604614734649658,94.3423080444336,23.03,2
-0.2347014844417572,-0.9415313005447388,0.3862252831459045,6.222198963165283,1.3602700233459473,94.34506225585938,23.03,2
-0.2401822954416275,-0.9792714715003968,0.3766059577465057,7.421574115753174,1.3601471185684204,94.34683227539062,23.03,2
-0.2828839719295501,-1.081859827041626,0.3760306239128113,6.880041122436523,1.361445426940918,94.34796905517578,23.03,2
-0.3214830160140991,-1.1980750560760498,0.3812591731548309,4.784219741821289,1.3622785806655884,94.34869384765624,23.03,2
-0.3182647824287414,-1.1606998443603516,0.3510279059410095,2.450451135635376,1.3628132343292236,94.34915924072266,23.03,2
-0.3050039708614349,-1.019161343574524,0.2812472581863403,1.0065114498138428,1.3631563186645508,94.34945678710938,23.03,2
-0.3020917177200317,-0.9283300042152404,0.2196727246046066,0.6781643033027649,1.363376498222351,94.34964752197266,23.03,2
-0.3226138949394226,-0.9707996249198914,0.1913532763719558,1.0191665887832642,1.3635177612304688,94.34976959228516,23.03,2
-0.3413816094398498,-1.048434138298035,0.1787772625684738,1.3884704113006592,1.363608479499817,94.349853515625,23.03,2
-0.3086434602737427,-1.1038533449172974,0.1875000298023224,1.4391744136810305,1.3636666536331177,94.34990692138672,23.03,2
-0.2540473639965057,-1.1170270442962646,0.1763044744729995,1.2961671352386477,1.3618680238723757,94.34993743896484,23.03,2
-0.2078151702880859,-1.1310789585113523,0.1691198050975799,1.0467599630355835,1.3607137203216553,94.34996032714844,23.03,2
-0.1669504642486572,-1.1177055835723877,0.1701068729162216,0.4209700226783752,1.3599729537963867,94.3499755859375,23.03,2
-0.1463236212730407,-1.092329978942871,0.170740321278572,-0.7508796453475952,1.3594975471496582,94.34998321533205,23.03,2
-0.1498798280954361,-1.064849853515625,0.1711468249559402,-2.194342613220215,1.3591924905776978,94.34999084472656,23.03,2
-0.1521619856357574,-1.0304213762283323,0.1882010251283645,-3.418027639389038,1.3589967489242554,94.34999084472656,23.03,2
