acc_x,acc_y,acc_z,bvp,eda,hr,temp,label
0.0,0.0,0.0,0.0,0.0,0.0,25.65,2
-0.0078124995343387,-0.1458333283662796,0.0494791641831398,-0.5633333325386047,0.7428434491157532,9.999999046325684,25.65,2
-0.0308689028024673,-0.3498475849628448,0.1242378056049346,-1.3002439737319946,1.739340901374817,23.414634704589844,25.65,2
-0.0459406152367591,-0.5273048281669617,0.1892649531364441,-2.508937120437622,2.6061220169067383,35.08305740356445,25.65,2
-0.0409216433763504,-0.6621076464653015,0.2046765685081482,-4.261938095092773,3.23848557472229,43.595802307128906,25.65,2
-0.0320338681340217,-0.7972926497459412,0.2370697557926178,-5.76148796081543,3.6666224002838135,49.35928726196289,25.65,2
-0.0928391218185424,-0.8360157608985901,0.2083466649055481,-6.653005599975586,3.9475417137146,53.14096450805664,25.65,2
-0.1489576995372772,-0.87783282995224,0.2009027898311615,-7.544625282287598,4.12947940826416,55.59017181396485,25.65,2
-0.1459764987230301,-0.8768193125724792,0.2072880119085312,-8.995521545410156,4.160953998565674,57.16788101196289,25.65,2
-0.1272764205932617,-0.876167893409729,0.2002027779817581,-10.998664855957031,4.181183815002441,58.181941986083984,25.65,2
-0.1152680963277816,-0.8757495880126953,0.2068459242582321,-13.209083557128906,4.194174766540527,58.833126068115234,25.65,2
-0.1299487799406051,-0.9258562326431274,0.1831240355968475,-14.624394416809082,4.202513694763184,59.25112915039063,25.65,2
-0.1393710225820541,-0.9636128544807434,0.167899027466774,-14.071125030517578,4.207865715026856,59.5194091796875,25.65,2
-0.1398202627897262,-0.9598555564880372,0.1637257486581802,-12.171987533569336,4.211300373077393,59.69158172607422,25.65,2
-0.1233153492212295,-0.9574443101882936,0.1666452586650848,-11.494173049926758,4.213504791259766,59.80207443237305,25.65,2
-0.095930092036724,-0.9502991437911988,0.168518841266632,-14.057794570922852,4.214919090270996,59.87298202514648,25.65,2
-0.0783557519316673,-0.9401159882545472,0.1641234457492828,-19.894594192504883,4.301209449768066,59.918487548828125,25.65,2
-0.072675310075283,-0.9279832243919371,0.1557049602270126,-27.78535842895508,4.356585502624512,59.94768905639648,25.65,2
-0.0802254751324653,-0.9313926696777344,0.1447046846151352,-36.14158630371094,4.392122745513916,59.9664306640625,25.65,2
-0.1074618324637413,-0.9223850965499878,0.1432431042194366,-44.13374328613281,4.414928436279297,59.978458404541016,25.65,2
-0.1361361145973205,-0.9166045784950256,0.1423051506280899,-52.90254592895508,4.429563999176025,59.986175537109375,25.65,2
-0.1545376181602478,-0.9184927344322203,0.1528987735509872,-64.25123596191406,4.438956260681152,59.99112701416016,25.65,2
-0.1607488691806793,-0.9085088968276978,0.1652949303388595,-77.87891387939453,4.44498348236084,59.99430465698242,25.65,2
-0.1535393446683883,-0.8573196530342102,0.1788478344678878,-91.80835723876952,4.448851585388184,59.99634552001953,25.65,2
-0.171303778886795,-0.8132737874984741,0.165154218673706,-105.51588439941406,4.436185359954834,59.99765396118164,25.65,2
-0.1994972974061966,-0.8465832471847534,0.1395731121301651,-120.64299774169922,4.428056716918945,59.99849319458008,25.65,2
-0.223188042640686,-0.9911103248596193,0.1175588592886924,-138.59063720703125,4.422840118408203,59.9990348815918,25.65,2
-0.2327936291694641,-1.0782617330551147,0.1090291589498519,-157.89332580566406,4.419492721557617,59.99938201904297,25.65,2
-0.238957941532135,-1.089408278465271,0.097957506775856,-172.0934600830078,4.417344570159912,59.999603271484375,25.65,2
-0.2261205166578292,-1.0685726404190063,0.107645682990551,-170.68067932128906,4.415966033935547,59.9997444152832,25.65,2
-0.212284430861473,-1.0328104496002195,0.1194607689976692,-145.42327880859375,4.415081024169922,59.99983596801758,25.65,2
-0.1866118907928466,-0.9762736558914183,0.1326407939195633,-95.28038024902344,4.414513111114502,59.99989318847656,25.65,2
-0.1757345199584961,-0.9399915933609008,0.1410989761352539,-24.68917655944824,4.413230419158936,59.99993133544922,25.65,2
-0.1575585007667541,-0.9223056435585022,0.14092917740345,56.83203887939453,4.412407398223877,59.99995422363281,25.65,2
-0.1514919400215149,-0.9221513867378236,0.1352224349975586,133.5629119873047,4.411879062652588,59.99996948242188,25.65,2
-0.1475987732410431,-0.9276501536369324,0.1259623914957046,191.5995941162109,4.4115400314331055,59.99998092651367,25.65,2
-0.1451003700494766,-0.9535700082778932,0.1144220605492591,229.0985565185547,4.411322593688965,59.9999885559082,25.65,2
-0.1378992646932602,-0.9758017063140868,0.1070161387324333,252.89453125,4.411182880401611,59.99999237060547,25.65,2
-0.1332780122756958,-0.9844709038734436,0.0910678952932357,268.9213562011719,4.411093235015869,59.999996185302734,25.65,2
-0.1359101235866546,-1.0012298822402954,0.0752354562282562,281.1983642578125,4.411036014556885,59.999996185302734,25.65,2
-0.1375992596149444,-1.023180365562439,0.0594773329794406,293.9887390136719,4.400900363922119,59.999996185302734,25.63,2
-0.1274877041578292,-1.070853590965271,0.0213758070021867,308.5559387207031,4.39439582824707,59.999996185302734,25.63,2
-0.1209986880421638,-1.1462297439575195,-0.0198688823729753,319.9356689453125,4.39022159576416,59.999996185302734,25.63,2
-0.1224321871995925,-1.2113951444625854,-0.0687284469604492,319.2995300292969,4.387542724609375,59.999996185302734,25.63,2
-0.1513409912586212,-1.225225567817688,-0.1112792566418647,299.67791748046875,4.385823249816895,59.999996185302734,25.63,2
-0.1698929965496063,-1.200514554977417,-0.127390369772911,259.8869934082031,4.3847198486328125,59.999996185302734,25.63,2
-0.1090275421738624,-1.0782986879348757,-0.1209362298250198,202.8391265869141,4.384011745452881,59.999996185302734,25.63,2
-0.0251854080706834,-0.9606832265853882,-0.1111965551972389,130.67919921875,4.383557319641113,59.999996185302734,25.63,2
0.0566085204482078,-0.9355843663215636,-0.1161417439579963,46.30266571044922,4.379134654998779,59.999996185302734,25.63,2
0.0979036092758178,-0.975455105304718,-0.119315281510353,-38.9062614440918,4.376296520233154,59.999996185302734,25.63,2
0.1244044229388237,-0.9898462891578674,-0.115754097700119,-107.04460906982422,4.374475002288818,59.999996185302734,25.63,2
0.1246177926659584,-0.9319084286689758,-0.0966754108667373,-148.18167114257812,4.373305797576904,59.999996185302734,25.63,2
0.1135591715574264,-0.8723361492156982,-0.0788340345025062,-166.54893493652344,4.372555732727051,59.999996185302734,25.63,2
0.1008646115660667,-0.8173127770423889,-0.0505911447107791,-170.60479736328125,4.372074127197266,59.999996185302734,25.63,2
0.0647291019558906,-0.7875996828079224,-0.026868712157011,-165.2363739013672,4.37176513671875,59.999996185302734,25.63,2
0.0527349598705768,-0.7629337906837463,-0.0004494682943914,-154.4935302734375,4.3715667724609375,59.999996185302734,25.63,2
0.0506355836987495,-0.7583001852035522,0.0221026558429002,-142.68051147460938,4.371439456939697,59.999996185302734,25.63,2
0.0492883250117301,-0.7665221095085144,0.0365753099322319,-130.66436767578125,4.3713579177856445,59.999996185302734,25.63,2
0.0260326359421014,-0.7941895723342896,0.0402652509510517,-116.66926574707033,4.371305465698242,59.999996185302734,25.63,2
-0.0224781762808561,-0.8847160339355469,0.0202421452850103,-101.02083587646484,4.371272087097168,59.999996185302734,25.63,2
-0.0648051649332046,-0.9931907057762146,-0.0038030801806598,-86.56842803955078,4.371250629425049,59.999996185302734,25.63,2
-0.0919681936502456,-1.0851945877075195,-0.0192339196801185,-74.71424865722656,4.371236801147461,59.999996185302734,25.63,2
-0.1149976402521133,-1.1498351097106934,-0.040332093834877,-64.14054870605469,4.371227741241455,59.999996185302734,25.63,2
-0.146569937467575,-1.264088749885559,-0.0650672391057014,-53.68281555175781,4.371222019195557,59.999996185302734,25.63,2
-0.1724289953708648,-1.3262146711349487,-0.0585497319698333,-43.944366455078125,4.372595310211182,59.19391632080078,25.63,2
-0.172230526804924,-1.2541279792785645,-0.0431716218590736,-35.69571304321289,4.373476982116699,58.67662048339844,25.63,2
-0.1385165154933929,-1.0903136730194092,-0.0333028361201286,-28.65390586853028,4.374042510986328,58.34465026855469,25.63,2
-0.122478574514389,-1.0299692153930664,-0.0269696172326803,-22.329259872436523,4.374405384063721,58.13161087036133,25.63,2
-0.1233818978071212,-1.041623592376709,-0.022905321791768,-16.841018676757812,4.374638557434082,57.994895935058594,25.63,2
-0.1071682721376419,-1.0323094129562378,-0.0146993175148963,-12.541563034057615,4.3747878074646,57.90716171264648,25.63,2
-0.0911655277013778,-0.9815499186515808,0.0073601473122835,-9.442075729370115,4.374883651733398,57.85085678100586,25.63,2
-0.0920914337038993,-0.9321820735931396,0.0271144174039363,-7.109075546264648,4.374945163726807,57.81472396850586,25.63,2
-0.1150767281651496,-0.9116961359977722,0.0285960212349891,-5.013599872589111,4.364427089691162,57.791534423828125,25.63,2
-0.1298273652791977,-0.926538348197937,0.0295468289405107,-3.0203981399536133,4.357676982879639,57.77665328979492,25.63,2
-0.1225001513957977,-0.9248676896095276,0.0301570035517215,-1.4654176235198977,4.3533453941345215,57.76710510253906,25.63,2
-0.1066024154424667,-0.9070022106170654,0.0361463539302349,-0.682475209236145,4.350565433502197,57.76097869873047,25.63,2
-0.1131934896111488,-0.8899394273757935,0.0399899743497371,-0.5382854342460632,4.348781585693359,57.75704574584961,25.63,2
-0.1230210363864898,-0.8789895176887512,0.0424565859138965,-0.5388997197151184,4.347636699676514,57.754520416259766,25.63,2
-0.1461211144924163,-0.8607669472694397,0.0440395176410675,-0.4389817714691162,4.346901893615723,57.75289916992188,25.63,2
-0.1497498601675033,-0.8714638352394104,0.050653126090765,-0.4106859564781189,4.34643030166626,57.751861572265625,25.63,2
-0.1520785838365554,-0.9007195830345154,0.0548973567783832,-0.4605962634086609,4.3543901443481445,57.75119400024414,25.63,2
-0.1535730212926864,-0.9418852925300598,0.0688166096806526,-0.2024372071027755,4.359498500823975,57.75076675415039,25.63,2
-0.1601298451423645,-0.9850963950157166,0.0833469629287719,0.5185335874557495,4.362776756286621,57.75049209594727,25.63,2
-0.169935405254364,-1.0967934131622314,0.0590850561857223,1.2821475267410278,4.364880561828613,57.75031661987305,25.63,2
-0.1762280613183975,-1.2468429803848269,0.0547107122838497,1.625305414199829,4.366230487823486,57.75020217895508,25.63,2
-0.1914618611335754,-1.2255829572677612,0.0910879299044609,1.372624397277832,4.367096900939941,57.75012969970703,25.63,2
-0.2068358212709427,-1.0999839305877686,0.1200305074453353,0.6336736083030701,4.367652893066406,57.75008392333984,25.63,2
-0.2111041694879531,-1.0585662126541138,0.1162130907177925,-0.1020704582333564,4.368009567260742,57.75005340576172,25.63,2
-0.1746589243412017,-1.0431822538375854,0.0913721919059753,-0.2697097659111023,4.367779731750488,57.75003433227539,25.63,2
-0.1064882725477218,-0.966136395931244,0.0866262838244438,0.0776960849761962,4.367632389068604,57.7500228881836,25.63,2
-0.0571424961090087,-0.8831061124801636,0.0947761833667755,0.3472146391868591,4.367537975311279,57.75001525878906,25.63,2
-0.0646596401929855,-0.8130287528038025,0.0944085419178009,0.3016390204429626,4.367476940155029,57.7500114440918,25.63,2
-0.0918748080730438,-0.7792526483535767,0.0717815160751342,0.1971571296453476,4.367437839508057,57.75000762939453,25.63,2
-0.1429265737533569,-0.7687726616859436,0.034869696944952,0.0656203106045723,4.36741304397583,57.75000381469727,25.63,2
-0.1924819946289062,-0.7844383120536804,0.0111818145960569,-0.3197287917137146,4.367396831512451,57.75000381469727,25.63,2
-0.2242837995290756,-0.8056871891021729,0.0015780705725774,-0.8536297082901001,4.367386817932129,57.75000381469727,25.63,2
-0.2223012745380401,-0.8249212503433228,0.0178060382604599,-1.1855088472366333,4.367380142211914,57.48130798339844,25.63,2
-0.2210289984941482,-0.8316667675971985,0.0338179878890514,-1.2444390058517456,4.36737585067749,57.308876037597656,25.63,2
-0.2202125340700149,-0.8527889847755432,0.0496913082897663,-1.1783623695373535,4.367372989654541,57.198219299316406,25.63,2
-0.208493024110794,-0.8999306559562683,0.0766712203621864,-1.014150619506836,4.367371082305908,57.12720489501953,25.63,2
-0.1953743398189544,-0.9413790106773376,0.0995831489562988,-0.6149977445602417,4.367370128631592,57.081634521484375,25.63,2
-0.1701622009277343,-1.029553771018982,0.0918956026434898,0.12480328977108,4.367369651794434,57.05238723754883,25.63,2
-0.1819713711738586,-1.2036924362182615,0.0813644081354141,1.0617172718048096,4.367369174957275,57.03361892700195,25.63,2
-0.2119409143924713,-1.2986513376235962,0.1137905120849609,1.763286828994751,4.367368698120117,57.021575927734375,25.63,2
-0.2199780941009521,-1.118886113166809,0.1066108494997024,1.7728570699691772,4.371959209442139,57.01384735107422,25.61,2
-0.2195381224155426,-1.081892013549805,0.0740144774317741,1.0839790105819702,4.374905109405518,57.008888244628906,25.61,2
-0.2192557752132415,-1.1253246068954468,0.0474982298910617,0.3122997283935547,4.376795291900635,57.00570297241211,25.61,2
-0.2246723473072052,-1.1084150075912476,0.0304816290736198,0.1215993165969848,4.378008365631104,57.00365829467773,25.61,2
-0.216952845454216,-0.9912056922912598,0.0139635801315307,0.3968846797943115,4.378787040710449,57.00234603881836,25.61,2
-0.2064011394977569,-0.9327808022499084,-0.0246256235986948,0.4517394006252289,4.379286766052246,57.00150680541992,25.61,2
-0.2052274346351623,-0.9064826369285583,-0.0549877285957336,0.0570329278707504,4.379607200622559,57.0009651184082,25.61,2
-0.2156697660684585,-0.8952037692070007,-0.0912657007575035,-0.3144919872283935,4.379813194274902,57.00061798095703,25.61,2
-0.2055777311325073,-0.8935633897781372,-0.1201445907354354,-0.2878046631813049,4.377191066741943,57.000396728515625,25.61,2
-0.1991012543439865,-0.8869129419326782,-0.1330796331167221,-0.0951320752501487,4.3755083084106445,57.0002555847168,25.61,2
-0.2061405628919601,-0.8770472407341003,-0.1357828229665756,-0.1864404380321502,4.3744282722473145,57.00016403198242,25.61,2
-0.2218535393476486,-0.8931071162223816,-0.1319198012351989,-0.5853815674781799,4.373735427856445,57.00010681152344,25.61,2
-0.2487305402755737,-0.959391176700592,-0.1406362801790237,-0.8879724740982056,4.373290538787842,57.00006866455078,25.61,2
-0.2603808939456939,-1.0299173593521118,-0.1518277823925018,-0.8385428190231323,4.373005390167236,57.00004577636719,25.61,2
-0.2734551727771759,-1.0863724946975708,-0.1702053993940353,-0.5667890906333923,4.372822284698486,57.000030517578125,25.61,2
-0.3266277015209198,-1.2121665477752686,-0.1764013171195984,-0.2884985208511352,4.372704982757568,57.00001907348633,25.61,2
-0.3495552241802215,-1.186536192893982,-0.1355953067541122,-0.0669167339801788,4.374924182891846,57.0000114440918,25.61,2
-0.3306821286678314,-1.0525349378585815,-0.1038105860352516,0.1111074462532997,4.376348495483398,57.00000762939453,25.61,2
-0.2905815839767456,-1.0281161069869995,-0.1114018559455871,0.4044818878173828,4.377262592315674,57.00000381469727,25.61,2
-0.2368585020303726,-1.124400973320007,-0.1554579138755798,1.0190792083740234,4.377849102020264,57.00000381469727,25.61,2
-0.1464043855667114,-1.141408920288086,-0.1557416915893554,1.7932454347610474,4.378225803375244,57.00000381469727,25.61,2
-0.0827583596110344,-1.0739548206329346,-0.1447282433509826,2.2112441062927246,4.378467559814453,57.00000381469727,25.61,2
-0.0978917479515075,-1.036264419555664,-0.1712470948696136,2.038834810256958,4.378622531890869,57.00000381469727,25.61,2
-0.1187990307807922,-1.0232723951339722,-0.216254249215126,1.4982832670211792,4.378722190856934,57.00000381469727,25.61,2
-0.1378138959407806,-1.0205326080322266,-0.2675283551216125,0.8540346622467041,4.37144136428833,56.9390983581543,25.61,2
-0.1388209909200668,-0.990785539150238,-0.2892375588417053,0.2507165372371673,4.366768836975098,56.9000129699707,25.61,2
-0.1282717436552047,-0.971695601940155,-0.2975715100765228,-0.243935614824295,4.363770484924316,56.87493133544922,25.61,2
-0.1215018406510353,-0.9594447612762452,-0.2917242050170898,-0.7190082669258118,4.361845970153809,56.85883331298828,25.61,2
-0.1171573102474212,-0.9627784490585328,-0.2711784243583679,-1.2889931201934814,4.360610961914063,56.84850311279297,25.61,2
-0.0919781401753425,-0.9481244683265686,-0.2412000000476837,-1.7300106287002563,4.359818458557129,56.84187316894531,25.61,2
-0.064624048769474,-0.910731554031372,-0.1883749216794967,-1.6870158910751345,4.359309673309326,56.83761978149414,25.61,2
-0.0526675432920455,-0.8923326730728149,-0.1488770544528961,-1.1972721815109253,4.358983516693115,56.83489227294922,25.61,2
-0.078581191599369,-0.9253075122833252,-0.106736272573471,-0.6751934289932251,4.358774185180664,56.8331413269043,25.65,2
-0.1120044067502021,-0.9632622003555298,-0.0796927437186241,-0.4261351227760315,4.358639717102051,56.83201599121094,25.65,2
-0.1446490436792373,-1.0044126510620115,-0.0567399896681308,-0.4167720079421997,4.358553409576416,56.83129501342773,25.65,2
-0.1711962670087814,-1.1259828805923462,-0.0364124588668346,-0.4143458902835846,4.3584980964660645,56.830833435058594,25.65,2
-0.193830519914627,-1.2487818002700806,-0.0121718700975179,-0.1011048629879951,4.358462333679199,56.83053588867188,25.65,2
-0.2027581185102462,-1.1540560722351074,0.0089821182191371,0.7304485440254211,4.3584394454956055,56.830345153808594,25.65,2
-0.2140851020812988,-1.0540821552276611,0.0001664320443524,1.7298264503479004,4.358425140380859,56.830223083496094,25.65,2
-0.2101585566997528,-1.1186734437942505,-0.0390776135027408,2.138302087783813,4.358415603637695,56.83014297485352,25.65,2
-0.2188342809677124,-1.1377333402633667,-0.0754577368497848,1.820061206817627,4.36299991607666,56.83009338378906,25.65,2
-0.2188040912151336,-1.0939871072769165,-0.1044021770358085,1.4689468145370483,4.365942001342773,56.83005905151367,25.65,2
-0.2075891643762588,-0.9875444769859314,-0.1397703737020492,1.376177191734314,4.3678297996521,56.830039978027344,25.65,2
-0.1891965270042419,-0.9192357063293456,-0.1680654287338256,1.022871732711792,4.369041442871094,56.83002471923828,25.65,2
-0.1941865086555481,-0.8865945935249329,-0.1974191069602966,0.2336762547492981,4.369819164276123,56.83001708984375,25.65,2
-0.2141821086406707,-0.8824407458305359,-0.2218543887138366,-0.4949035942554474,4.370317935943604,56.83001327514648,25.65,2
-0.2326119095087051,-0.8853728175163269,-0.2375355362892151,-0.9230559468269348,4.370638370513916,56.83000946044922,25.65,2
-0.2332435548305511,-0.8984500169754028,-0.2364032566547393,-1.305296778678894,4.370843887329102,56.83000564575195,25.65,2
-0.2336488962173462,-0.9124399423599244,-0.2300788462162017,-1.7118128538131714,4.360876560211182,56.83000564575195,25.65,2
-0.2059201598167419,-0.9326134324073792,-0.2204224318265915,-1.8759618997573853,4.354480266571045,56.83000564575195,25.65,2
-0.1657343506813049,-0.9623529314994812,-0.2086277157068252,-1.7914267778396606,4.350375652313232,56.83000564575195,25.65,2
-0.151140958070755,-0.9982313513755798,-0.2066563218832016,-1.7407596111297607,4.347741603851318,56.83000564575195,25.65,2
-0.147373542189598,-1.0268537998199463,-0.2221845239400863,-1.69749653339386,4.346051216125488,56.83000564575195,25.65,2
-0.1617491543292999,-1.0508198738098145,-0.2377474009990692,-1.2434062957763672,4.344966411590576,56.83000564575195,25.65,2
-0.1597790420055389,-1.138970971107483,-0.2477347552776336,-0.2713079750537872,4.3442702293396,56.83000564575195,25.65,2
-0.1809058338403701,-1.1171724796295166,-0.1981663256883621,0.657047688961029,4.343823432922363,56.83000564575195,25.65,2
-0.1608771532773971,-1.0416078567504885,-0.1607583910226822,0.9769545793533324,4.3472089767456055,56.68669891357422,25.65,2
-0.097643919289112,-0.9707238078117372,-0.1591432243585586,0.806082010269165,4.349381923675537,56.59473419189453,25.65,2
-0.0290756039321422,-0.964418888092041,-0.1749000251293182,0.6641826629638672,4.350776195526123,56.53571701049805,25.65,2
0.0093298247084021,-1.0051549673080444,-0.1794140636920929,0.7594137191772461,4.35167121887207,56.49784469604492,25.65,2
0.0171828921884298,-0.9809170365333556,-0.1543220430612564,0.8957616090774536,4.352245330810547,56.47353744506836,25.65,2
-0.0001685583556536,-0.9429714679718018,-0.1382194310426712,0.8757845759391785,4.352613925933838,56.45793914794922,25.65,2
-0.0169014949351549,-0.9354134798049928,-0.1278856992721557,0.7447394728660583,4.352850437164307,56.44792938232422,25.65,2
-0.0444330535829067,-0.9417587518692015,-0.1156563237309455,0.6104862093925476,4.353002071380615,56.441505432128906,25.65,2
-0.073296770453453,-0.9402329921722412,-0.0910148918628692,0.4096877872943878,4.345295429229736,56.437381744384766,25.63,2
-0.1198087185621261,-0.939253866672516,-0.0584081187844276,0.0264640282839536,4.3403496742248535,56.43473815917969,25.63,2
-0.1608529537916183,-0.955418825149536,-0.0038963248953223,-0.3591873049736023,4.3371758460998535,56.43304061889648,25.63,2
-0.1536061316728592,-1.0105748176574707,0.1094550490379333,-0.4597905576229095,4.335139274597168,56.43194961547852,25.63,2
-0.1377599984407425,-1.057166337966919,0.2045885324478149,-0.3631360530853271,4.333832263946533,56.431251525878906,25.63,2
-0.2115574777126312,-1.1598371267318726,0.2768352925777435,-0.4157511591911316,4.332993507385254,56.43080139160156,25.63,2
-0.3652741611003876,-1.2705074548721311,0.2840146720409393,-0.6501407623291016,4.332455158233643,56.43051528930664,25.63,2
-0.5143006443977356,-1.3583226203918457,0.2830242216587066,-0.818471372127533,4.332109928131104,56.43033218383789,25.63,2
-0.7162950038909912,-1.4202752113342283,0.3103774785995483,-0.797523558139801,4.339692115783691,56.430213928222656,25.63,2
-0.8963032960891724,-1.4824239015579224,0.3055401146411896,-0.597786545753479,4.344557762145996,56.430137634277344,25.63,2
-1.1125822067260742,-1.4887206554412842,0.3080335557460785,-0.125679537653923,4.347680568695068,56.43008804321289,25.63,2
-1.2625731229782104,-1.4087949991226196,0.3320247828960418,0.5892877578735352,4.349684238433838,56.430057525634766,25.63,2
-1.3084486722946167,-1.3015254735946655,0.3250298798084259,1.1591724157333374,4.350970268249512,56.43003845214844,25.63,2
-1.259520173072815,-1.1263283491134644,0.2981498539447784,1.335015058517456,4.351795673370361,56.430023193359375,25.63,2
-1.1385562419891355,-0.980310320854187,0.2641064822673797,1.4192001819610596,4.352325439453125,56.43001556396485,25.63,2
-0.9265819787979126,-0.7466599941253662,0.175086110830307,1.6595193147659302,4.352665424346924,56.43001174926758,25.63,2
-0.7177780270576477,-0.4623700678348541,0.1123601868748664,1.749255895614624,4.340029716491699,56.43000793457031,25.63,2
-0.488617479801178,-0.2687336206436157,0.0888996198773384,1.3769346475601196,4.331921100616455,56.43000411987305,25.63,2
-0.3303599059581756,-0.054904505610466,0.0570506602525711,0.7331692576408386,4.326717376708984,56.43000411987305,25.63,2
-0.2343970686197281,0.1047098115086555,0.0254162810742855,0.1229959577322006,4.323378086090088,56.43000411987305,25.63,2
-0.1168359071016311,0.1847499907016754,0.0442995764315128,-0.4082985818386078,4.321235179901123,56.43000411987305,25.63,2
-0.0301963649690151,0.2473107278347015,0.0564177893102169,-0.8674778342247009,4.319859981536865,56.43000411987305,25.63,2
0.0310016814619302,0.2650675177574157,0.1089767590165138,-1.1155791282653809,4.318977355957031,56.43000411987305,25.63,2
0.193426102399826,0.3156472146511078,0.2154771536588668,-1.1064152717590332,4.318410873413086,56.43000411987305,25.63,2
0.2416830062866211,0.4040840864181518,0.2558341026306152,-1.064708590507507,4.312079906463623,56.31894302368164,25.63,2
0.1606960147619247,0.5839888453483582,0.2089617997407913,-1.170498967170715,4.308016777038574,56.2476692199707,25.63,2
0.1814942955970764,0.7218324542045593,0.3356195390224457,-1.256301999092102,4.30540943145752,56.20193099975586,25.63,2
0.0492992997169494,0.7990970015525818,0.4392922818660736,-1.1250715255737305,4.303736209869385,56.17257690429688,25.63,2
-0.0019491936545819,0.9102564454078674,0.4218568503856659,-0.7829099297523499,4.302662372589111,56.15373992919922,25.63,2
0.0771179571747779,0.9592010974884032,0.433058887720108,-0.2516462504863739,4.301973342895508,56.14165115356445,25.63,2
0.1334564834833145,0.9794154167175292,0.4402477145195007,0.3114079236984253,4.301530838012695,56.13389587402344,25.63,2
0.0912424623966217,0.969996690750122,0.4840455055236816,0.522275447845459,4.3012471199035645,56.1289176940918,25.63,2
0.0865430310368537,0.9583545327186584,0.5177502036094666,0.1811155676841735,4.264341354370117,56.1257209777832,25.63,2
0.0723316594958305,0.9228943586349488,0.5449777245521545,-0.3853310048580169,4.240657806396484,56.12367248535156,25.63,2
0.0408205203711986,0.9001380801200867,0.495277464389801,-0.7595915198326111,4.22545862197876,56.12235641479492,25.63,2
-0.0297814849764108,0.8407521843910217,0.4689804911613464,-0.9173712134361268,4.215704917907715,56.12151336669922,25.63,2
-0.019112043082714,0.7970439791679382,0.4073224067687988,-1.122519850730896,4.209445476531982,56.1209716796875,25.63,2
0.0493105128407478,0.7689945697784424,0.4237315356731415,-1.4942049980163574,4.205428600311279,56.12062454223633,25.63,2
0.0092535512521862,0.7845807075500488,0.3950775563716888,-1.8867818117141724,4.202850818634033,56.120399475097656,25.63,2
-0.0108549259603023,0.8169741034507751,0.3990801572799682,-2.1745407581329346,4.201196670532227,56.12025451660156,25.63,2
0.0378161296248436,0.8601534366607666,0.3848554790019989,-2.384285926818848,4.138163566589356,56.12016296386719,25.63,2
0.02426821552217,0.9046567678451538,0.3589335680007934,-2.483062505722046,4.097712516784668,56.1201057434082,25.63,2
0.015573943965137,0.9220208525657654,0.4318627715110779,-2.3028366565704346,4.07175350189209,56.12006759643555,25.63,2
-0.0067988629452884,0.9723485708236694,0.3779045939445495,-1.7823469638824463,4.055094242095947,56.12004470825195,25.63,2
0.0628101751208305,1.0270371437072754,0.3488751351833343,-0.9897568821907043,4.044403553009033,56.12002944946289,25.63,2
0.1130790188908577,1.1069152355194092,0.3806256651878357,0.0634332448244094,4.037542819976807,56.12001800537109,25.63,2
0.027785412967205,1.1637742519378662,0.4010013341903686,1.369843363761902,4.033139705657959,56.12001037597656,25.63,2
-0.0773310884833335,1.1778719425201416,0.4196750223636627,2.759938716888428,4.030313968658447,56.1200065612793,25.63,2
-0.0832132846117019,1.1197457313537598,0.3197032511234283,4.096261501312256,4.008302688598633,56.12000274658203,25.63,2
-0.1205747872591018,1.0320637226104736,0.3227204084396362,5.494805335998535,3.9941771030426025,56.12000274658203,25.63,2
-0.1333557069301605,1.0093810558319092,0.2742766737937927,7.008513450622559,3.985111951828003,56.12000274658203,25.63,2
-0.124764434993267,0.950042486190796,0.2935682535171509,8.295190811157227,3.979294538497925,56.12000274658203,25.63,2
-0.0800666362047195,0.9511468410491944,0.2443729490041732,8.920281410217285,3.975561380386353,56.12000274658203,25.63,2
-0.0513821579515934,0.9126710891723632,0.2743777632713318,8.676565170288086,3.973165512084961,56.12000274658203,25.63,2
-0.0553652085363864,0.9271640181541444,0.2880353331565857,7.531371593475342,3.971627950668335,56.12000274658203,25.63,2
0.0036542154848575,0.942062497138977,0.3303866386413574,5.653610706329346,3.9706413745880127,56.12000274658203,25.63,2
0.0639205873012542,0.9516234993934632,0.2735986411571502,3.4454505443573,3.942924737930298,55.99819564819336,25.63,2
0.0746072009205818,0.9073792099952698,0.3155242204666137,1.2008055448532104,3.925137758255005,55.92002487182617,25.63,2
0.059074155986309,0.9069746732711792,0.370418518781662,-0.9956018924713136,3.91372299194336,55.86985778808594,25.63,2
0.049105942249298,0.9011172652244568,0.3104843497276306,-2.953263998031616,3.906397581100464,55.83766555786133,25.63,2
0.154664397239685,0.8693694472312927,0.2496309578418731,-4.320638656616211,3.9016966819763184,55.8170051574707,25.63,2
0.2447968423366546,0.826604425907135,0.300143152475357,-4.850631237030029,3.8986799716949454,55.803749084472656,25.63,2
0.1626942902803421,0.8495402932167053,0.2933745384216308,-4.621120452880859,3.8967440128326416,55.79523849487305,25.63,2
0.1715811192989349,0.8978458642959595,0.3282152414321899,-4.111993312835693,3.895501613616944,55.78977966308594,25.63,2
0.1716864109039306,0.9288455843925476,0.3113895952701568,-3.8748292922973633,3.884873628616333,55.78627395629883,25.61,2
0.2053406238555908,1.0047171115875244,0.2949940860271454,-3.844438552856445,3.878053188323975,55.784027099609375,25.61,2
0.1597646623849868,1.1149826049804688,0.3628412187099457,-3.402191638946533,3.873676300048828,55.78258514404297,25.61,2
0.0297567024827003,1.056995868682861,0.3504038751125335,-2.358876943588257,3.8708674907684326,55.78165817260742,25.61,2
0.0470850095152854,0.8686434626579285,0.510355532169342,-1.2164376974105835,3.8690648078918457,55.781063079833984,25.61,2
0.0694008693099021,0.7197808027267456,0.5458300113677979,-0.3758086562156677,3.867908000946045,55.78068161010742,25.61,2
0.0893196761608123,0.6578360199928284,0.4678355455398559,0.1278329342603683,3.867165565490722,55.78043746948242,25.61,2
0.1132979691028595,0.5677034258842468,0.4457720518112182,0.2217562645673751,3.8666892051696777,55.78028106689453,25.61,2
0.0950992107391357,0.4650793075561523,0.4316129684448242,-0.1908691376447677,3.8512349128723145,55.78017807006836,25.61,2
0.0834202989935875,0.4160144031047821,0.4001353979110718,-0.7995956540107727,3.841317176818848,55.78011322021485,25.61,2
0.0927187651395797,0.4181140065193176,0.3631415665149688,-1.0505207777023315,3.834952592849731,55.78007125854492,25.61,2
0.087490439414978,0.3578858971595764,0.3282055258750915,-0.7565630078315735,3.830868244171143,55.78004455566406,25.61,2
0.0953307524323463,0.2968438565731048,0.3169811367988586,-0.1881648153066635,3.8282470703125,55.780029296875,25.61,2
0.0835688859224319,0.2240839451551437,0.3545601665973663,0.2912428379058838,3.8265650272369385,55.7800178527832,25.61,2
-0.1646834909915924,0.0150553602725267,0.4122628569602966,0.3982748389244079,3.825485467910767,55.78001022338867,25.61,2
-0.413561999797821,-0.1694671213626861,0.4045109450817108,0.0083921495825052,3.824792861938477,55.780006408691406,25.61,2
-0.6292555928230286,-0.2822852432727813,0.3939384222030639,-0.7362074851989746,3.833070516586304,55.78000259399414,25.61,2
-0.9468041062355042,-0.4666409194469452,0.4151424467563629,-1.4254207611083984,3.838382482528688,55.78000259399414,25.61,2
-1.0162419080734253,-0.7360896468162537,0.423152208328247,-1.627685546875,3.8417913913726807,55.78000259399414,25.61,2
-0.9544453620910645,-0.8866152763366699,0.4170968532562256,-1.130536675453186,3.8439791202545166,55.78000259399414,25.61,2
-0.9595701098442078,-1.0839738845825195,0.3964175581932068,-0.0161634255200624,3.8453831672668457,55.78000259399414,25.61,2
-1.0020432472229004,-1.2778005599975586,0.3943423330783844,1.2757718563079834,3.846284151077272,55.78000259399414,25.61,2
-0.9845179319381714,-1.2902319431304932,0.4154016673564911,2.0188796520233154,3.846862316131592,55.78000259399414,25.61,2
-0.8725112080574036,-1.2590252161026,0.4065252244472503,1.7255098819732666,3.847233295440674,55.78000259399414,25.61,2
-0.7446539998054504,-1.2557919025421145,0.3616444170475006,0.6093548536300659,3.9796767234802246,55.67969131469727,25.61,2
-0.6290159821510315,-1.2873035669326782,0.3328424990177154,-0.5690813660621643,4.064671039581299,55.61531448364258,25.61,2
-0.526817262172699,-1.3131237030029297,0.33675017952919,-1.1032142639160156,4.119215488433838,55.57400131225586,25.61,2
-0.4444386959075928,-1.2849113941192627,0.3448556959629059,-0.7724657654762268,4.154219150543213,55.547489166259766,25.61,2
-0.3635840117931366,-1.199633002281189,0.3108729124069214,0.0309145413339138,4.176682472229004,55.53047561645508,25.61,2
-0.3228916823863983,-1.1281129121780396,0.2554780840873718,0.7005285024642944,4.191098213195801,55.51955795288086,25.61,2
-0.3079732358455658,-1.0822155475616455,0.208733320236206,0.8937982320785522,4.2003493309021,55.51255035400391,25.61,2
-0.3151927590370178,-1.0359678268432615,0.1619419008493423,0.5162670612335205,4.206286430358887,55.50805282592773,25.61,2
-0.3198258280754089,-0.9950932264328004,0.1263160854578018,-0.3422136902809143,4.294102191925049,55.50516891479492,25.61,2
-0.3227990567684173,-0.940873384475708,0.109051264822483,-1.2800555229187012,4.350457191467285,55.50331878662109,25.61,2
-0.3191093504428863,-0.8836870789527893,0.1035694703459739,-1.7565181255340576,4.386622428894043,55.50212860107422,25.61,2
-0.3167414963245392,-0.8525859713554382,0.100051574409008,-1.5141503810882568,4.409831523895264,55.50136566162109,25.61,2
-0.3152219355106354,-0.8438226580619812,0.0977939888834953,-0.6743407845497131,4.424725532531738,55.50087738037109,25.61,2
-0.3142467737197876,-0.8326010704040527,0.0963452011346817,0.3589960932731628,4.43428373336792,55.50056457519531,25.61,2
-0.2856321036815643,-0.8589863777160645,0.0674265772104263,0.9648109674453736,4.440417766571045,55.50036239624024,25.61,2
-0.2672688663005829,-0.9934722185134888,0.0264771729707717,0.647820770740509,4.444354057312012,55.5002326965332,25.61,2
-0.2722777128219604,-1.1077663898468018,0.0113937510177493,-0.4010931253433227,4.473695278167725,55.50014877319336,25.61,2
-0.2978832125663757,-1.1027449369430542,0.0688873678445816,-1.2784324884414673,4.49252462387085,55.50009536743164,25.61,2
-0.3031197786331177,-1.0435446500778198,0.1169790178537368,-1.146438717842102,4.504608154296875,55.50006103515625,25.61,2
-0.2561003565788269,-0.9775644540786744,0.1366459131240844,-0.0227857828140258,4.512362480163574,55.500038146972656,25.61,2
-0.2091326564550399,-0.9296244382858276,0.1380714476108551,1.2464439868927002,4.517338752746582,55.5000228881836,25.61,2
-0.1845892667770385,-0.8764681816101074,0.1445840448141098,1.820930004119873,4.520532608032227,55.50001525878906,25.61,2
-0.191229835152626,-0.7975733280181885,0.165556788444519,1.483834743499756,4.522582054138184,55.5000114440918,25.61,2
-0.2122846841812133,-0.7469431757926941,0.1846136599779129,0.4363488256931305,4.523897171020508,55.50000762939453,25.61,2
-0.2369920313358307,-0.759233832359314,0.1968432664871215,-1.081355094909668,4.523823261260986,55.50000381469727,25.61,2
-0.236054465174675,-0.7895123958587646,0.2046915143728256,-2.7324368953704834,4.523776054382324,55.50000381469727,25.61,2
-0.2354527860879898,-0.8201389908790588,0.2041302919387817,-4.039204120635986,4.523745536804199,55.50000381469727,25.61,2
-0.2350666671991348,-0.8677822351455688,0.22056345641613,-4.791830062866211,4.523725986480713,55.50000381469727,25.61,2
-0.2348188757896423,-0.8983569145202637,0.2367070913314819,-5.142266750335693,4.5237135887146,55.50000381469727,25.61,2
-0.2290620803833007,-0.9291735291481018,0.2470671534538269,-5.370739459991455,4.52370548248291,55.50000381469727,25.61,2
-0.2253676950931549,-0.9825364947319032,0.2537156343460083,-5.757392406463623,4.52370023727417,55.50000381469727,25.61,2
-0.2285946309566497,-1.033575177192688,0.2579822540283203,-6.1631574630737305,4.523696899414063,55.50000381469727,25.61,2
-0.2362632602453231,-1.1390998363494873,0.2607203125953674,-5.739282131195068,4.543433666229248,55.38536071777344,25.61,2
-0.2411845475435257,-1.2180150747299194,0.2680752277374267,-3.8479394912719727,4.55609941482544,55.311790466308594,25.61,2
-0.2387449741363525,-1.3190382719039917,0.2615996301174164,-0.9288784861564636,4.56422758102417,55.26457595825195,25.61,2
-0.2427771687507629,-1.3446847200393677,0.2350528836250305,2.055005073547364,4.569443702697754,55.23427581787109,25.61,2
-0.2397670298814773,-1.299567699432373,0.2068211585283279,4.331729888916016,4.57279109954834,55.2148323059082,25.61,2
-0.2210419774055481,-1.125072002410889,0.1775081157684326,5.470369338989258,4.574939250946045,55.20235443115234,25.61,2
-0.2034275382757187,-0.9851018190383912,0.147501140832901,5.699522018432617,4.57631778717041,55.1943473815918,25.61,2
-0.231308028101921,-0.9624503254890442,0.1170488372445106,5.760597229003906,4.577202796936035,55.189208984375,25.61,2
-0.2827867567539215,-0.953511655330658,0.0919085294008255,5.964590072631836,4.580524921417236,55.18590927124024,25.61,2
-0.3214206099510193,-0.9141886830329896,0.0645793750882148,6.031014442443848,4.5826568603515625,55.18379211425781,25.61,2
-0.3182247281074524,-0.8721601963043213,0.0134544558823108,5.808531284332275,4.584024906158447,55.18243408203125,25.61,2
-0.2993804812431335,-0.8507865071296692,-0.0249523501843214,5.371983528137207,4.584902763366699,55.18156051635742,25.61,2
-0.2816895544528961,-0.8426678776741028,-0.0551974028348922,4.726409435272217,4.585466384887695,55.180999755859375,25.61,2
-0.2647387683391571,-0.8598488569259644,-0.0802047103643417,3.8213040828704834,4.585827827453613,55.180641174316406,25.61,2
-0.2482629418373108,-0.8652768731117249,-0.0906551852822303,2.670830011367798,4.586060047149658,55.18041229248047,25.61,2
-0.2488852590322494,-0.8799558281898499,-0.1029594764113426,1.42021381855011,4.586208820343018,55.18026351928711,25.61,2
-0.2436868548393249,-0.8893759250640869,-0.1052578836679458,0.3274516463279724,4.591354370117188,55.18016815185547,25.61,2
-0.2459485828876495,-0.9234100580215454,-0.1123306453227996,-0.4096460044384002,4.594656467437744,55.18010711669922,25.61,2
-0.2306067049503326,-0.967642307281494,-0.1168695390224456,-0.8683425188064575,4.596775531768799,55.18006896972656,25.61,2
-0.2319567203521728,-0.990430235862732,-0.1141845658421516,-1.3275060653686523,4.598135471343994,55.18004608154297,25.61,2
-0.2552141845226288,-0.9994564652442932,-0.1068637296557426,-1.9696805477142327,4.599008083343506,55.18003082275391,25.61,2
-0.2757372558116913,-1.044433355331421,-0.1133611872792244,-2.585998058319092,4.599567890167236,55.18001937866211,25.61,2
-0.3280922174453735,-1.1292747259140017,-0.0951397791504859,-2.723569631576538,4.5999274253845215,55.18001174926758,25.61,2
-0.389679491519928,-0.9989944696426392,-0.0218708161264657,-2.2278952598571777,4.600158214569092,55.18000793457031,25.61,2
-0.4124093353748321,-0.9041925668716432,0.0139534408226609,-1.5228818655014038,4.603519439697266,55.18000411987305,25.61,2
-0.3710182905197143,-0.9832984805107116,-0.0078388080000877,-1.08477520942688,4.605676174163818,55.18000411987305,25.61,2
-0.3052714765071869,-1.0844440460205078,-0.0330193676054477,-0.9290136694908142,4.607060432434082,55.18000411987305,25.61,2
-0.1959056556224823,-1.0877779722213743,-0.0211899299174547,-0.90070641040802,4.607948780059815,55.18000411987305,25.61,2
-0.0753410011529922,-1.0003530979156494,0.0199881680309772,-1.0831646919250488,4.608519077301025,55.18000411987305,25.61,2
-0.009165097028017,-0.9442488551139832,0.0352183543145656,-1.519105076789856,4.608884811401367,55.18000411987305,25.61,2
-0.0114794056862592,-0.925037682056427,0.0226011127233505,-1.841857552528381,4.609119415283203,55.18000411987305,25.61,2
-0.0521490164101123,-0.9127090573310852,0.0089063188061118,-1.6656458377838137,4.609270095825195,55.18000411987305,25.61,2
-0.1566172689199447,-0.888003945350647,-0.0222733095288276,-1.1513148546218872,4.60615348815918,55.115516662597656,25.61,2
-0.2572456300258636,-0.8777474164962769,-0.0478803738951683,-0.7352650165557861,4.604153633117676,55.07413101196289,25.61,2
-0.3218231201171875,-0.876763105392456,-0.0699112862348556,-0.4682681858539581,4.602869987487793,55.04757308959961,25.61,2
-0.3184830546379089,-0.8929247856140137,-0.0784516856074333,-0.13212651014328,4.602046489715576,55.0305290222168,25.61,2
-0.2715573906898498,-0.9312852621078492,-0.0727368742227554,0.230475440621376,4.601518154144287,55.01959228515625,25.61,2
-0.2246498763561248,-0.9615005850791932,-0.052276112139225,0.4201816320419311,4.601179122924805,55.0125732421875,25.61,2
-0.1721562296152115,-0.9752932786941528,-0.005558930337429,0.4953506588935852,4.600961208343506,55.0080680847168,25.61,2
-0.1328710615634918,-0.9785468578338624,0.0356170199811458,0.6797276735305786,4.600821495056152,55.00517654418945,25.61,2
-0.1132578700780868,-0.9918304085731506,0.0564435981214046,1.109734296798706,4.604863166809082,55.00332260131836,25.61,2
-0.1230623498558998,-1.061930537223816,0.0586133487522602,1.7475279569625854,4.607456684112549,55.00213241577149,25.61,2
-0.2077231407165527,-1.1964811086654663,0.0879946425557136,2.3502862453460693,4.609121322631836,55.00136947631836,25.61,2
-0.323629081249237,-1.0981013774871826,0.1124476417899131,2.575886011123657,4.610189437866211,55.00087738037109,25.61,2
-0.3868153095245361,-0.9957824945449828,0.1001512929797172,2.1725287437438965,4.610875129699707,55.00056457519531,25.61,2
-0.3713868260383606,-1.0476734638214111,0.0474780090153217,1.2329879999160769,4.6113152503967285,55.00036239624024,25.61,2
-0.3502901792526245,-1.103365182876587,0.0136753311380743,0.3111955821514129,4.611597537994385,55.0002326965332,25.61,2
-0.3087626993656158,-1.088724970817566,0.0087760407477617,-0.0224122889339923,4.611778736114502,55.00014877319336,25.61,2
-0.2541238665580749,-1.012156367301941,3.418338019400835e-05,0.1181723847985267,4.6238298416137695,55.00009536743164,25.61,2
-0.2190598100423813,-0.9518235325813292,-0.0111736115068197,0.1331574469804763,4.631563663482666,55.00006103515625,25.61,2
-0.2133510410785675,-0.9410942196846008,-0.0295616779476404,-0.2011532634496688,4.636526584625244,55.000038146972656,25.61,2
-0.2264808118343353,-0.9342088103294371,-0.0525576286017894,-0.6270666122436523,4.639711856842041,55.0000228881836,25.61,2
-0.2628956139087677,-0.935387909412384,-0.0785106569528579,-0.9720447659492492,4.641756057739258,55.00001525878906,25.61,2
-0.2918623089790344,-0.9305468201637268,-0.1119591370224952,-1.2077622413635254,4.643067836761475,55.0000114440918,25.61,2
-0.3048536777496338,-0.9330378770828248,-0.1334244459867477,-1.2228941917419434,4.643909454345703,55.00000762939453,25.61,2
-0.3075930178165436,-0.9346364736557008,-0.1527974158525467,-1.0534762144088743,4.644449710845947,55.00000381469727,25.61,2
-0.3037531971931457,-0.9468579292297364,-0.1708276569843292,-1.0629786252975464,4.63974666595459,55.00000381469727,25.61,2
-0.2900934815406799,-0.9882875680923462,-0.1879961937665939,-1.3485175371170044,4.636728286743164,55.00000381469727,25.61,2
-0.2981207966804504,-1.0316680669784546,-0.2102095335721969,-1.460108518600464,4.634791374206543,55.00000381469727,25.61,2
-0.3088700175285339,-1.053909420967102,-0.2188669890165329,-1.0409083366394043,4.633548259735107,55.00000381469727,25.61,2
-0.2989749312400818,-1.0905736684799194,-0.2244228571653366,-0.2488336861133575,4.632750511169434,55.00000381469727,25.61,2
-0.2870270609855652,-1.1364938020706177,-0.2223905175924301,0.5281674265861511,4.632238864898682,55.00000381469727,25.61,2
-0.2849573791027069,-1.0987894535064695,-0.1651085317134857,0.9014118909835817,4.63191032409668,55.00000381469727,25.61,2
-0.2612380981445312,-1.0074195861816406,-0.1059571504592895,0.6823689341545105,4.631699562072754,55.00000381469727,25.61,2
-0.2292230874300003,-0.9879681468009948,-0.0791927501559257,0.2193680107593536,4.631564140319824,55.38692092895508,25.61,2
-0.1750910580158233,-1.0762453079223633,-0.0788102224469184,0.1264474689960479,4.631477355957031,55.63522338867188,25.61,2
-0.1123633608222007,-1.1384942531585691,-0.0673691853880882,0.4859777688980102,4.6314215660095215,55.7945671081543,25.61,2
-0.0497172363102436,-1.100073218345642,-0.0376358926296234,0.7955202460289001,4.631385803222656,55.89682769775391,25.61,2
-0.0207101125270128,-1.0194389820098877,-0.0073592262342572,0.7254736423492432,4.631362915039063,55.96245193481445,25.61,2
-0.0188883319497108,-0.9620948433876038,0.0008750463020987,0.4619846642017364,4.631348133087158,56.00456619262695,25.61,2
-0.0513058640062809,-0.93649023771286,-0.0274273175746202,0.3072229027748108,4.631338596343994,56.03159332275391,25.61,2
-0.0833051204681396,-0.9256564378738404,-0.0567856952548027,0.2867223620414734,4.6313323974609375,56.04893493652344,25.61,2
-0.1262314915657043,-0.9131061434745787,-0.0924195349216461,0.2592360079288482,4.625820159912109,56.06006622314453,25.61,2
-0.1705724895000457,-0.9274432063102722,-0.1152872815728187,0.1162066832184791,4.6222825050354,56.06720733642578,25.61,2
-0.1878324449062347,-0.9366438984870912,-0.1299624890089035,-0.1905358433723449,4.620012283325195,56.07179260253906,25.61,2
-0.1821155697107315,-0.9145594835281372,-0.1281846463680267,-0.5557666420936584,4.618555545806885,56.07473373413086,25.61,2
-0.1672512590885162,-0.8947892189025879,-0.1158481761813163,-0.7471597790718079,4.617620468139648,56.076622009277344,25.61,2
-0.140918880701065,-0.8988951444625854,-0.0967357903718948,-0.7016038298606873,4.617020606994629,56.07783126831055,25.61,2
-0.1408135890960693,-0.907127857208252,-0.0564816892147064,-0.5577262043952942,4.616635322570801,56.078609466552734,25.61,2
-0.151941567659378,-0.9236066937446594,-0.0250511486083269,-0.343586266040802,4.616388320922852,56.07910919189453,25.61,2
-0.1870717406272888,-0.9957573413848876,-0.0104786111041903,0.1305985152721405,4.607048988342285,56.07942962646485,25.61,2
-0.2264095842838287,-1.1148306131362915,-0.0011267947265878,0.832568883895874,4.60105562210083,56.07963562011719,25.61,2
-0.2684476673603058,-1.2360271215438845,0.0272657610476017,1.311713695526123,4.597209453582764,56.07976531982422,25.61,2
-0.2506431043148041,-1.1290775537490845,0.0286931451410055,1.1964573860168457,4.594741344451904,56.07984924316406,25.61,2
-0.2336193770170211,-1.0716389417648315,0.0128158340230584,0.6925833821296692,4.5931572914123535,56.07990264892578,25.61,2
-0.2170967608690261,-1.1243425607681274,-0.0085688587278127,0.2581662535667419,4.5921406745910645,56.07993698120117,25.61,2
-0.2120912671089172,-1.146969199180603,-0.0278900973498821,0.0438686795532703,4.591488361358643,56.079959869384766,25.61,2
-0.2088790386915207,-1.060729742050171,-0.0514849051833152,-0.1258983612060547,4.59106969833374,56.07997512817383,25.61,2
-0.2124153822660446,-0.9717995524406432,-0.0834200158715248,-0.363817811012268,4.6013593673706055,56.079986572265625,25.61,2
-0.2146848142147064,-0.9315226078033448,-0.1263052374124527,-0.5594916939735413,4.607962608337402,56.07999038696289,25.61,2
-0.2273367494344711,-0.9224684834480286,-0.1706198155879974,-0.6420730352401733,4.6122002601623535,56.07999420166016,25.61,2
-0.229858249425888,-0.916658103466034,-0.2046561390161514,-0.7273121476173401,4.614919662475586,56.07999801635742,25.61,2
-0.2034875303506851,-0.9073315262794496,-0.2209009230136871,-0.8751606941223145,4.616664886474609,56.07999801635742,25.61,2
-0.1865643262863159,-0.9013462662696838,-0.2089347839355468,-0.9234678745269777,4.6177849769592285,56.07999801635742,25.61,2
-0.1757039874792099,-0.8975052833557129,-0.1956578344106674,-0.7359315156936646,4.618503570556641,56.07999801635742,25.61,2
-0.1743322163820266,-0.9174314737319946,-0.1815396845340728,-0.4149572849273681,4.618964672088623,56.07999801635742,25.61,2
-0.1734519004821777,-0.9302189350128174,-0.1724794656038284,-0.1444881111383438,4.614211082458496,56.48482894897461,25.61,2
-0.1560936421155929,-0.94962078332901,-0.1610673666000366,-0.0031597674824297,4.611160755157471,56.744625091552734,25.61,2
-0.1281607896089553,-0.978865087032318,-0.1537437289953231,0.1197798103094101,4.609202861785889,56.91135025024414,25.61,2
-0.099039539694786,-1.003230094909668,-0.1378483027219772,0.3813867270946502,4.607946395874023,57.01834487915039,25.61,2
-0.0691556483507156,-1.0300617218017578,-0.1220497488975524,0.7498952150344849,4.607140064239502,57.087005615234375,25.61,2
-0.0443801134824752,-1.097660779953003,-0.1231066957116127,0.9613047242164612,4.606622695922852,57.13106918334961,25.61,2
-0.0340783782303333,-1.1634329557418823,-0.1181872114539146,0.7888736724853516,4.606290817260742,57.15934753417969,25.61,2
-0.0386628657579422,-1.1328707933425903,-0.07024797052145,0.3880287110805511,4.606077671051025,57.177494049072266,25.61,2
-0.0360071510076522,-1.0684754848480225,-0.0114944549277424,0.1594500839710235,4.602268695831299,57.18914031982422,25.61,2
0.0048815552145242,-1.021552562713623,0.0318079404532909,0.2456289082765579,4.599823951721191,57.19661331176758,25.61,2
0.0591104440391063,-1.0138311386108398,0.0484013780951499,0.4478191137313843,4.598255157470703,57.20140838623047,25.61,2
0.0939114242792129,-1.014473795890808,0.0478545427322387,0.5668253898620605,4.597248554229736,57.20448684692383,25.61,2
0.1106469184160232,-0.9701040387153624,0.0698947086930275,0.5393021106719971,4.596602439880371,57.20646286010742,25.61,2
0.0933979228138923,-0.9136412143707277,0.0840388238430023,0.3568407595157623,4.596188068389893,57.20772933959961,25.61,2
0.0319485403597354,-0.8774065971374512,0.0931157022714614,-0.0002849648008123,4.595921993255615,57.20854187011719,25.61,2
-0.0130839105695486,-0.8597511053085327,0.0933429449796676,-0.4085965156555176,4.5957512855529785,57.20906448364258,25.61,2
-0.0419831462204456,-0.8540185689926147,0.0878909975290298,-0.5452371835708618,4.598395824432373,57.20940017700195,25.61,2
-0.0605290122330188,-0.8335464596748352,0.0843922570347786,-0.2782503366470337,4.600092887878418,57.20961380004883,25.61,2
-0.0724306851625442,-0.8204086422920227,0.0821469649672508,-0.0209317225962877,4.601181983947754,57.20975112915039,25.61,2
-0.0688729435205459,-0.8119775652885437,0.0863038375973701,-0.1782312542200088,4.60188102722168,57.2098388671875,25.61,2
-0.072187565267086,-0.8121647238731384,0.0889714807271957,-0.5657830834388733,4.602329730987549,57.20989608764648,25.61,2
-0.0855102464556694,-0.8626648187637329,0.0794878751039505,-0.8467347621917725,4.602617740631104,57.20993423461914,25.61,2
-0.110853299498558,-0.9454528093338012,0.0622062906622886,-1.0413635969161987,4.602802276611328,57.209957122802734,25.61,2
-0.1271170079708099,-1.009776949882507,0.0455181896686553,-1.069535732269287,4.602921009063721,57.2099723815918,25.61,2
-0.1319563537836074,-1.079045295715332,0.0124176312237977,-0.5215680003166199,4.608046531677246,57.2099838256836,25.61,2
-0.1406597346067428,-1.1738777160644531,-0.0200199503451585,0.525105893611908,4.611335754394531,57.20998764038086,25.61,2
-0.1966250389814376,-1.3858757019042969,-0.0296409744769334,1.2577046155929563,4.6134467124938965,57.209991455078125,25.61,2
-0.1765626072883606,-1.2588284015655518,-0.0134240975603461,1.2549443244934082,4.614801406860352,57.20999526977539,25.61,2
-0.124503269791603,-1.0877323150634766,-0.008614812977612,1.0597138404846191,4.615670680999756,57.20999526977539,25.61,2
-0.0687034800648689,-0.9835304617881776,-0.0167240407317876,1.1135549545288086,4.6162285804748535,57.20999526977539,25.61,2
-0.0328943915665149,-0.961441934108734,-0.0331236235797405,1.1015336513519287,4.616586685180664,57.20999526977539,25.61,2
-0.0658919215202331,-1.0088423490524292,-0.0828323513269424,0.796465277671814,4.616816520690918,57.20999526977539,25.61,2
-0.0982633829116821,-1.0000767707824707,-0.1203303262591362,0.5433687567710876,4.61375093460083,57.49301910400391,25.61,2
-0.1078419759869575,-0.9608648419380188,-0.1276010423898697,0.488423228263855,4.611783504486084,57.67464828491211,25.61,2
-0.1083911955356597,-0.9580919742584229,-0.1098758727312088,0.2489555478096008,4.610520839691162,57.79120635986328,25.61,2
-0.1143414229154586,-0.96750807762146,-0.0985008850693702,-0.3059694468975067,4.609710693359375,57.86600875854492,25.61,2
-0.1461488157510757,-0.951159656047821,-0.102396622300148,-0.808974027633667,4.609190464019775,57.91401290893555,25.61,2
-0.172158733010292,-0.9294726848602296,-0.0825055837631225,-1.103112816810608,4.608856678009033,57.94481658935547,25.61,2
-0.1832526326179504,-0.9043596386909484,-0.0529473349452018,-1.438759684562683,4.608642578125,57.9645881652832,25.61,2
-0.1679809540510177,-0.9050368666648864,-0.0171852279454469,-1.8512002229690552,4.6085052490234375,57.97727584838867,25.61,2
-0.1581804752349853,-0.8998737335205078,0.0057648322544991,-1.9474997520446773,4.601071834564209,57.98541641235352,25.59,2
-0.1686844229698181,-0.9021580815315248,-0.0018982370384037,-1.522068977355957,4.596301555633545,57.99064254760742,25.59,2
-0.1922185719013214,-0.8980262875556946,-0.0180115029215812,-0.8872118592262268,4.593240261077881,57.99399566650391,25.59,2
-0.2129192054271698,-0.8897769451141357,-0.0283520687371492,-0.4045630395412445,4.591275691986084,57.99614715576172,25.59,2
-0.2094103544950485,-0.912471890449524,-0.0461835972964763,-0.0625836178660392,4.590014934539795,57.99752807617188,25.59,2
-0.1959630250930786,-0.9550250172615052,-0.0688223913311958,0.3431730270385742,4.589206218719482,57.9984130859375,25.59,2
-0.170539990067482,-1.2006464004516602,-0.1393284201622009,0.8185188174247742,4.588686943054199,57.99898147583008,25.59,2
-0.1878115832805633,-1.1567522287368774,-0.1229996085166931,1.119985818862915,4.588353633880615,57.99934768676758,25.59,2
-0.1876999586820602,-1.0949968099594116,-0.0957273915410041,1.1020780801773071,4.5863037109375,57.99958038330078,25.59,2
-0.1260527968406677,-1.1057456731796265,-0.072627879679203,0.886379063129425,4.584988117218018,57.99972915649414,25.59,2
-0.0585023313760757,-1.073459267616272,-0.0578039400279521,0.6225656867027283,4.584144115447998,57.99982452392578,25.59,2
-0.0431412048637867,-0.9743708372116088,-0.0538885630667209,0.3672836422920227,4.583602428436279,57.99988555908203,25.59,2
-0.0780655145645141,-0.9051838517189026,-0.0457781255245208,0.1497196853160858,4.583254814147949,57.99992752075195,25.59,2
-0.0892823711037635,-0.855185866355896,-0.0349755398929119,-0.0221435241401195,4.58303165435791,57.99995422363281,25.59,2
-0.0908829346299171,-0.8175022602081299,-0.0224452875554561,-0.1575134694576263,4.582888603210449,57.99996948242188,25.59,2
-0.1031056344509124,-0.793319046497345,-0.0144040938466787,-0.2372209429740905,4.582796573638916,57.99998092651367,25.59,2
-0.15013387799263,-0.7833974361419678,0.0075496057979762,-0.2704597413539886,4.576310634613037,57.9999885559082,25.59,2
-0.1803139001131057,-0.7826281189918518,0.0328337736427784,-0.3132859468460083,4.572148323059082,57.99999237060547,25.59,2
-0.1940839290618896,-0.7821344137191772,0.0602552480995655,-0.3264390230178833,4.569477558135986,57.999996185302734,25.59,2
-0.2141162902116775,-0.8098064661026001,0.0890483185648918,-0.252480685710907,4.567763328552246,57.999996185302734,25.59,2
-0.2269718945026397,-0.8499558568000793,0.1075260564684867,-0.144114688038826,4.566663265228272,57.999996185302734,25.59,2
-0.2352218925952911,-0.9261013865470886,0.1137862280011177,-0.0387458689510822,4.565957546234131,57.999996185302734,25.59,2
-0.2349184900522232,-0.991760551929474,0.1178036481142044,0.0790298283100128,4.565504550933838,57.999996185302734,25.59,2
-0.2179304510354995,-1.0450923442840576,0.1035884693264961,0.2943319380283355,4.565213680267334,57.999996185302734,25.59,2
-0.2182240635156631,-1.07371985912323,0.0720748901367187,0.8194186091423035,4.57420825958252,58.26869201660156,25.59,2
-0.2240102589130401,-1.1088846921920776,0.0518512912094593,1.5683852434158323,4.579980373382568,58.44112396240234,25.59,2
-0.244516834616661,-1.2210158109664917,0.0444707237184047,1.8304917812347408,4.58368444442749,58.5517807006836,25.59,2
-0.2520789802074432,-1.2258018255233765,0.0565276220440864,1.1138004064559937,4.586061954498291,58.62279510498047,25.59,2
-0.1953564286231994,-1.0441466569900513,0.0642650425434112,-0.059063334017992,4.587587356567383,58.668365478515625,25.59,2
-0.1477596014738083,-0.9667552709579468,0.041241604834795,-0.8260700702667236,4.588566303253174,58.69761276245117,25.59,2
-0.1228124797344207,-0.984263241291046,0.0040753916837275,-0.9671984314918518,4.5891947746276855,58.71638107299805,25.59,2
-0.1124006286263465,-1.1074542999267578,-0.0813512653112411,-0.8034036159515381,4.589597702026367,58.728424072265625,25.59,2
-0.1057189032435417,-1.152924656867981,-0.1417709439992904,-0.6624637842178345,4.5907745361328125,58.73615264892578,25.59,2
-0.1350176036357879,-1.0813449621200562,-0.1357626318931579,-0.6974068880081177,4.591529846191406,58.74111175537109,25.59,2
-0.1874064654111862,-1.0298113822937012,-0.1039179638028144,-0.8416389226913452,4.592014789581299,58.74429702758789,25.59,2
-0.2434177249670028,-0.9855445623397828,-0.0778841152787208,-0.9162858128547668,4.592325687408447,58.746341705322266,25.59,2
-0.2681669592857361,-0.9403433799743652,-0.044383767992258,-0.8531301021575928,4.592525482177734,58.74765396118164,25.59,2
-0.2672562897205353,-0.8889447450637817,-0.0172873996198177,-0.6657148003578186,4.592653751373291,58.74849319458008,25.59,2
-0.2330852150917053,-0.8335689902305603,0.0056992666795849,-0.3627310693264007,4.592735767364502,58.7490348815918,25.59,2
-0.1831673234701156,-0.8036297559738159,0.0428418815135955,-0.0070776478387415,4.592788696289063,58.74938201904297,25.59,2
-0.1511328965425491,-0.7956120371818542,0.0778734236955642,0.2784814536571502,4.585018634796143,58.749603271484375,25.59,2
-0.1473683565855026,-0.8296511769294739,0.0779635533690452,0.4044156372547149,4.5800323486328125,58.7497444152832,25.59,2
-0.1617458164691925,-0.8794843554496765,0.0668258443474769,0.374173104763031,4.576832294464111,58.74983596801758,25.59,2
-0.1877657771110534,-0.9282577633857728,0.0372872054576873,0.2222098708152771,4.5747785568237305,58.74989318847656,25.59,2
-0.1988661140203476,-0.9707533121109008,-0.0096578644588589,0.0243765152990818,4.573460578918457,58.74993133544922,25.59,2
-0.1947941184043884,-1.0148178339004517,-0.0677733793854713,-0.0667558014392852,4.572615146636963,58.74995422363281,25.59,2
-0.1809853911399841,-1.2278224229812622,-0.1778396368026733,0.0646372437477111,4.572072505950928,58.74996948242188,25.59,2
-0.2001126259565353,-1.3533209562301636,-0.2428760528564453,0.3424167931079864,4.57172441482544,58.74998092651367,25.59,2
-0.3019517660140991,-1.1875566244125366,-0.2006460726261139,0.5493403673171997,4.569664478302002,58.7499885559082,25.59,2
-0.3393174111843109,-1.0699831247329712,-0.1623497456312179,0.553159236907959,4.568342685699463,58.74999237060547,25.59,2
-0.3297098577022552,-1.056106686592102,-0.1377733647823333,0.3872289359569549,4.56749439239502,58.749996185302734,25.59,2
-0.2899576425552368,-1.0192127227783203,-0.0996105670928955,0.1410239785909652,4.56695032119751,58.749996185302734,25.59,2
-0.2364580929279327,-0.9675474166870116,-0.0639243274927139,-0.1495314985513687,4.566600799560547,58.749996185302734,25.59,2
-0.1797340661287307,-0.8896093964576721,-0.0186318568885326,-0.432722806930542,4.566376686096191,58.749996185302734,25.59,2
-0.1713207215070724,-0.833995521068573,0.038423117250204,-0.5499723553657532,4.566232681274414,58.749996185302734,25.59,2
-0.1771170645952224,-0.7983056902885437,0.0806354880332946,-0.4138444066047668,4.566140651702881,58.749996185302734,25.59,2
-0.1920323818922042,-0.7809998393058777,0.1077249571681022,-0.1509391069412231,4.556441307067871,59.05093383789063,25.59,2
-0.2072019428014755,-0.7754917144775391,0.1251094192266464,0.1180905178189277,4.550216674804688,59.24405670166016,25.59,2
-0.2113391160964965,-0.7999457716941833,0.1474613100290298,0.4304586946964264,4.54622220993042,59.36799240112305,25.59,2
-0.2083963453769683,-0.8324322700500488,0.1730010211467743,0.7312307357788086,4.54365873336792,59.44752883911133,25.59,2
-0.2121056169271469,-0.853280246257782,0.1949887126684188,0.8490148186683655,4.542013645172119,59.49856948852539,25.59,2
-0.2144860178232193,-0.8834525942802429,0.2202946990728378,0.7311427593231201,4.540957927703857,59.53132629394531,25.59,2
-0.2160136252641677,-0.9252066016197203,0.2309368550777435,0.4763704836368561,4.540280342102051,59.552345275878906,25.59,2
-0.205798402428627,-1.0303707122802734,0.2265708148479461,0.2662988305091858,4.5398454666137695,59.56583404541016,25.59,2
-0.1992428600788116,-1.1090545654296875,0.223768949508667,0.3141982853412628,4.557468891143799,59.574493408203125,25.59,2
-0.1894381195306778,-1.165147066116333,0.2219708710908889,0.5778048038482666,4.5687785148620605,59.58004760742188,25.59,2
-0.1999393254518509,-1.2515239715576172,0.220816969871521,0.6932336688041687,4.57603645324707,59.583614349365234,25.59,2
-0.2178739458322525,-1.3181512355804443,0.2200764566659927,0.4377123117446899,4.580694198608398,59.58590316772461,25.59,2
-0.2405788898468017,-1.3217244148254397,0.2028079181909561,-0.009290081448853,4.583683490753174,59.58737182617188,25.59,2
-0.2383562922477722,-1.206464171409607,0.1805304139852523,-0.3033156096935272,4.585601806640625,59.58831405639648,25.59,2
-0.2257344126701355,-1.087714672088623,0.155038446187973,-0.2913800477981567,4.5868330001831055,59.58891677856445,25.59,2
-0.2176344245672226,-1.0283013582229614,0.1218858510255813,-0.1260871440172195,4.587623119354248,59.58930587768555,25.59,2
-0.2236318588256836,-1.0069665908813477,0.1006104201078414,-0.0594200156629085,4.592261791229248,59.58955383300781,25.59,2
-0.2554695308208465,-0.9820796847343444,0.0925548449158668,-0.0596277974545955,4.59523868560791,59.58971405029297,25.59,2
-0.2647055685520172,-0.9101309180259703,0.0705919191241264,0.09787218272686,4.597148895263672,59.58981704711914,25.59,2
-0.2538394033908844,-0.8639583587646484,0.045301828533411,0.3458321988582611,4.598374843597412,59.589881896972656,25.59,2
-0.235670581459999,-0.8455229997634888,0.0234743319451808,0.3114995956420898,4.599161624908447,59.58992385864258,25.59,2
-0.2296086549758911,-0.8448877930641174,0.0094667002558708,-0.1655201911926269,4.599666595458984,59.58995056152344,25.59,2
-0.2313162386417389,-0.8444801568984985,-0.0051203654147684,-0.7904932498931885,4.5999908447265625,59.589969635009766,25.59,2
-0.2324120700359344,-0.8442185521125793,-0.0200792793184518,-1.1342438459396362,4.600198745727539,59.58998107910156,25.59,2
-0.2331153005361557,-0.8496484756469727,-0.0296790488064289,-1.0324113368988037,4.611348628997803,59.589988708496094,25.59,2
-0.2391643673181533,-0.8643286228179932,-0.0414374023675918,-0.687620222568512,4.618504047393799,59.58999252319336,25.59,2
-0.2374485433101654,-0.9073361158370972,-0.0601787865161895,-0.444857656955719,4.623095989227295,59.58999633789063,25.59,2
-0.2307496517896652,-0.9461314082145692,-0.0722059309482574,-0.4538650810718536,4.62604284286499,59.58999633789063,25.59,2
-0.2320484668016433,-0.9710280299186708,-0.0687287077307701,-0.459645539522171,4.627933979034424,59.58999633789063,25.59,2
-0.2328819632530212,-0.99820077419281,-0.066497229039669,-0.1230104267597198,4.629147529602051,59.58999633789063,25.59,2
-0.2390146255493164,-1.1219964027404783,-0.0874562859535217,0.3939589858055115,4.629926681518555,59.58999633789063,25.59,2
-0.2709390819072723,-1.173452377319336,-0.0673199594020843,0.5859997272491455,4.630426406860352,59.58999633789063,25.59,2
-0.3418063521385193,-1.0049539804458618,0.0239712186157703,0.3330699801445007,4.639928340911865,59.87660217285156,25.59,2
-0.3425026834011078,-0.9807880520820618,0.0489699952304363,-0.0979389175772667,4.646026134490967,60.06053161621094,25.59,2
-0.3093628883361816,-1.0156598091125488,0.0426216721534729,-0.5644121170043945,4.64993953704834,60.17856597900391,25.59,2
-0.2153246104717254,-1.0716251134872437,0.0273521356284618,-0.967662513256073,4.6524505615234375,60.25431442260742,25.59,2
-0.1045962944626808,-1.029171586036682,0.056737445294857,-1.0795598030090332,4.654062271118164,60.30292510986328,25.59,2
-0.022341689094901,-0.9739384651184082,0.0867907926440239,-0.8934235572814941,4.655096530914307,60.33412170410156,25.59,2
-0.0199353843927383,-0.9440907835960388,0.0836862102150917,-0.7130682468414307,4.655760288238525,60.35414123535156,25.59,2
-0.0463800281286239,-0.9249362349510192,0.0704983174800872,-0.7298818826675415,4.656186103820801,60.36698913574219,25.59,2
-0.1137306466698646,-0.9014484286308287,0.0396439880132675,-0.8374014496803284,4.657836437225342,60.3752326965332,25.61,2
-0.1793434917926788,-0.8807775378227234,0.0142456805333495,-0.8741581439971924,4.658895492553711,60.38052368164063,25.61,2
-0.2494389116764068,-0.884305477142334,-0.0132490405812859,-0.8153472542762756,4.659575462341309,60.38391876220703,25.61,2
-0.2776288092136383,-0.8921672701835632,-0.0364913456141948,-0.7310323119163513,4.6600117683410645,60.3860969543457,25.61,2
-0.2845239043235779,-0.8972125053405762,-0.0458091422915458,-0.6733412742614746,4.66029167175293,60.38749313354492,25.61,2
-0.2553621232509613,-0.9116458296775818,-0.0405932180583477,-0.5503366589546204,4.660471439361572,60.38838958740234,25.61,2
-0.2254522293806076,-0.9321038126945496,-0.0316481664776802,-0.2027062028646469,4.660586357116699,60.38896560668945,25.61,2
-0.1782689094543457,-0.9620258808135986,-0.0091144228354096,0.3858057558536529,4.660660266876221,60.38933563232422,25.61,2
-0.1423915922641754,-0.9700326323509216,0.0053464365191757,1.0966583490371704,4.672643184661865,60.38957214355469,25.61,2
-0.1417586952447891,-0.975170910358429,0.0146265840157866,1.846613883972168,4.680333137512207,60.38972473144531,25.61,2
-0.1861347407102584,-1.0512393712997437,0.0205820482224226,2.5428466796875,4.685267925262451,60.38982391357422,25.61,2
-0.2481993734836578,-1.1392401456832886,0.0300016961991786,2.885754108428955,4.688435077667236,60.38988494873047,25.61,2
-0.3328110873699188,-1.190116286277771,0.0360466837882995,2.6006691455841064,4.690467357635498,60.38992691040039,25.61,2
-0.3535233736038208,-1.0996146202087402,0.0231326874345541,1.8552536964416504,4.691771507263184,60.38995361328125,25.61,2
-0.3500219881534576,-1.0695246458053589,0.0036496778484433,1.1834298372268677,4.69260835647583,60.38996887207031,25.61,2
-0.3253839015960693,-1.1005946397781372,-0.0200489424169063,0.9529162645339966,4.693145751953125,60.38998031616211,25.61,2
-0.2983770370483398,-1.0981425046920776,-0.0296595804393291,0.9518715143203736,4.6948676109313965,60.38998794555664,25.61,2
-0.2586545050144195,-1.0237977504730225,-0.0414249077439308,0.6753427386283875,4.695972442626953,60.38999176025391,25.61,2
-0.2219673097133636,-0.9480987191200256,-0.0657685399055481,0.0823036581277847,4.696681499481201,60.38999557495117,25.61,2
-0.2096191346645355,-0.9051172137260436,-0.0813908874988555,-0.3914216160774231,4.697136402130127,60.38999557495117,25.61,2
-0.2632703185081482,-0.8887296915054321,-0.1082097291946411,-0.5700410604476929,4.6974287033081055,60.38999557495117,25.61,2
-0.3256894052028656,-0.8950064778327942,-0.142213836312294,-0.6882513165473938,4.697616100311279,60.38999557495117,25.61,2
-0.3489530682563782,-0.8990345597267151,-0.1696334928274154,-0.8536762595176697,4.6977362632751465,60.38999557495117,25.61,2
-0.3526867926120758,-0.901619553565979,-0.1816320717334747,-0.9741668105125428,4.697813510894775,60.38999557495117,25.61,2
-0.3438873589038849,-0.9144740104675292,-0.1837342977523803,-1.1016467809677124,4.693731784820557,60.60853576660156,25.61,2
-0.3494359254837036,-0.9059299230575562,-0.1626922935247421,-1.3088462352752686,4.691112041473389,60.748779296875,25.61,2
-0.3585944473743438,-0.906044602394104,-0.1547865122556686,-1.4274845123291016,4.689431190490723,60.83877944946289,25.61,2
-0.3644718527793884,-0.9341070652008056,-0.1609085947275161,-1.2958303689956665,4.688352584838867,60.89653778076172,25.61,2
-0.3682436347007751,-0.9801048040390016,-0.1592396199703216,-0.921153724193573,4.687660217285156,60.9336051940918,25.61,2
-0.3594686090946197,-1.020819067955017,-0.1581685692071914,-0.326032817363739,4.687215805053711,60.95738983154297,25.61,2
-0.3482395112514496,-1.108522653579712,-0.1630790084600448,0.3389049768447876,4.6869306564331055,60.97265625,25.61,2
-0.3410333395004272,-1.1815990209579468,-0.1494369208812713,0.6151555776596069,4.686747550964356,60.982452392578125,25.61,2
-0.3420065939426422,-1.0997464656829834,-0.0959000140428543,0.2657987177371979,4.679744720458984,60.98873901367188,25.61,2
-0.2922511994838714,-1.0472182035446167,-0.0727386549115181,-0.2378392815589904,4.67525053024292,60.992774963378906,25.61,2
-0.2323321998119354,-1.0582908391952517,-0.0802661255002021,-0.2708565592765808,4.672366619110107,60.995365142822266,25.61,2
-0.1602929830551147,-1.1213743686676023,-0.1018901467323303,0.1271161884069442,4.670515537261963,60.99702453613281,25.61,2
-0.102866806089878,-1.145064353942871,-0.1101694256067276,0.5329803824424744,4.669327735900879,60.99808883666992,25.61,2
-0.0660139918327331,-1.0707029104232788,-0.093091495335102,0.8077709674835205,4.668565273284912,60.99877166748047,25.61,2
-0.0815484002232551,-0.9893953204154968,-0.1157185062766075,0.9375422596931458,4.668076038360596,60.999210357666016,25.61,2
-0.1027130410075187,-0.9372167587280272,-0.1582280993461609,0.7664591073989868,4.667762279510498,60.99949264526367,25.61,2
-0.1610774844884872,-0.9149271249771118,-0.2134971767663955,0.3449837565422058,4.656543731689453,60.99967575073242,25.61,2
-0.2097279727458953,-0.9062207341194152,-0.2545634508132934,-0.0544676184654235,4.649344444274902,60.99979019165039,25.61,2
-0.2185579538345337,-0.9062312245368958,-0.2865152060985565,-0.3717162907123565,4.644724369049072,60.9998664855957,25.61,2
-0.1850401163101196,-0.9062379598617554,-0.3014222383499145,-0.6863681077957153,4.641759395599365,60.99991607666016,25.61,2
-0.1467369645833969,-0.9062422513961792,-0.2941953837871551,-0.8703806400299072,4.639856338500977,60.99994659423828,25.61,2
-0.1165584325790405,-0.8950494527816772,-0.2559709548950195,-0.7878450155258179,4.638635158538818,60.99996566772461,25.61,2
-0.0915938168764114,-0.8878665566444397,-0.2202451676130294,-0.5414193272590637,4.637851715087891,60.999977111816406,25.61,2
-0.0867685079574585,-0.905648112297058,-0.1749273240566253,-0.2793828248977661,4.637348651885986,60.99998474121094,25.61,2
-0.1116607785224914,-0.9450481534004213,-0.1178560629487037,0.017749847844243,4.635189533233643,60.9999885559082,25.61,2
-0.1276352107524871,-0.9815284013748168,-0.0812310129404068,0.4627953469753265,4.633803844451904,60.99999237060547,25.61,2
-0.1210933551192283,-1.038525938987732,-0.063324935734272,1.0923272371292114,4.632914543151856,60.999996185302734,25.61,2
-0.1224929392337799,-1.1366791725158691,-0.0462360717356205,1.646792769432068,4.632343769073486,60.999996185302734,25.61,2
-0.1569777578115463,-1.278037190437317,-0.0128783276304602,1.723175883293152,4.631977558135986,60.999996185302734,25.61,2
-0.2014992237091064,-1.1896238327026367,-0.0026667946949601,1.3028768301010132,4.631742477416992,60.999996185302734,25.61,2
-0.2244727611541748,-1.082505226135254,-0.001711395336315,0.7716249823570251,4.631591796875,60.999996185302734,25.61,2
-0.2280203104019165,-1.0753382444381714,-0.029087146744132,0.3877072334289551,4.631494998931885,60.999996185302734,25.61,2
-0.2246991544961929,-1.0875321626663208,-0.0634486526250839,0.0911748558282852,4.630974292755127,61.25077819824219,25.61,2
-0.2169700562953949,-1.0617709159851074,-0.1190865337848663,-0.1349483132362365,4.630640029907227,61.41171646118164,25.61,2
-0.2176077365875244,-0.9724677205085754,-0.1827805936336517,-0.2585656940937042,4.630425453186035,61.51499557495117,25.61,2
-0.218016967177391,-0.9095603227615356,-0.2404491007328033,-0.4202954471111297,4.6302876472473145,61.581275939941406,25.61,2
-0.2070840299129486,-0.8803855180740356,-0.2942507565021515,-0.7211259603500366,4.630199432373047,61.623809814453125,25.61,2
-0.2000679075717926,-0.8616628050804138,-0.328777551651001,-0.9929983019828796,4.630142688751221,61.65110397338867,25.61,2
-0.1955653578042984,-0.8496476411819458,-0.3341415524482727,-1.0170021057128906,4.630106449127197,61.66862106323242,25.61,2
-0.1870781034231186,-0.8475347757339478,-0.3207905292510986,-0.8067041635513306,4.630083084106445,61.67986297607422,25.61,2
-0.1760337054729461,-0.8573744297027588,-0.3010270595550537,-0.5857652425765991,4.630067825317383,61.68707656860352,25.59,2
-0.1633482724428177,-0.8916777968406677,-0.2715506851673126,-0.5442914962768555,4.630058288574219,61.691707611083984,25.59,2
-0.1440119445323944,-0.9080939292907716,-0.2470366656780243,-0.6753093600273132,4.630052089691162,61.69467926025391,25.59,2
-0.1148096770048141,-0.9466177225112916,-0.2313049733638763,-0.8167102932929993,4.6300482749938965,61.69658660888672,25.59,2
-0.0904715657234191,-0.9713401198387146,-0.2268070578575134,-0.7892282605171204,4.6300458908081055,61.69781112670898,25.59,2
-0.0804505422711372,-0.9872055053710938,-0.2239205539226532,-0.4957335591316223,4.630043983459473,61.6985969543457,25.59,2
-0.0684218481183052,-1.0589624643325806,-0.2332637161016464,0.0114636998623609,4.630043029785156,61.699100494384766,25.59,2
-0.043909203261137,-1.1385986804962158,-0.2560529410839081,0.52683025598526,4.630042552947998,61.69942474365234,25.59,2
-0.0449717231094837,-1.1897045373916626,-0.2370911091566085,0.8289021849632263,4.624074459075928,61.69963073730469,25.59,2
-0.0568491369485855,-1.127339243888855,-0.1745425313711166,0.8436257839202881,4.62024450302124,61.69976425170898,25.59,2
-0.0308847296983003,-1.076121211051941,-0.1288046687841415,0.7133541107177734,4.617786407470703,61.69984817504883,25.59,2
0.0977332219481468,-1.065643548965454,-0.1162460669875145,0.6619964241981506,4.616209030151367,61.69990158081055,25.59,2
0.2026639133691787,-1.0589195489883425,-0.1081866845488548,0.7293501496315002,4.615196704864502,61.69993591308594,25.59,2
0.2084268778562545,-1.0378111600875854,-0.1030146330595016,0.7761564254760742,4.614547252655029,61.69995880126953,25.59,2
0.1449519246816635,-0.9794828295707704,-0.0829021856188774,0.7846985459327698,4.61413049697876,61.699974060058594,25.59,2
0.0818262547254562,-0.9252577424049376,-0.0643974021077156,0.8475016355514526,4.613862991333008,61.69998550415039,25.59,2
0.0189247336238622,-0.8792636394500732,-0.0413265451788902,0.8806398510932922,4.604051113128662,61.699989318847656,25.59,2
-0.0214418414980173,-0.8441495299339294,-0.0265209972858428,0.6762037873268127,4.59775447845459,61.69999313354492,25.59,2
-0.064140111207962,-0.8328108191490173,-0.0170196499675512,0.1652555167675018,4.593713760375977,61.69999694824219,25.59,2
-0.091541402041912,-0.8255343437194824,-0.0053244563750922,-0.48865607380867,4.591120719909668,61.69999694824219,25.59,2
-0.1091259717941284,-0.8208646774291992,0.0133763933554291,-1.0265239477157593,4.589456558227539,61.69999694824219,25.59,2
-0.1204107403755188,-0.8122701644897461,0.0365730710327625,-1.3215404748916626,4.588388919830322,61.69999694824219,25.59,2
-0.1276526451110839,-0.8235480785369873,0.0458615906536579,-1.4822044372558594,4.587703704833984,61.69999694824219,25.59,2
-0.1378978639841079,-0.8811655640602112,0.0518224276602268,-1.585309386253357,4.587263584136963,61.69999694824219,25.59,2
-0.1332771033048629,-0.929336667060852,0.0444522015750408,-1.5368337631225586,4.589735507965088,62.09766387939453,25.59,2
-0.1247139945626258,-0.9602501392364502,0.0229290891438722,-1.143884778022766,4.59132194519043,62.35286331176758,25.59,2
-0.1192186847329139,-0.996881902217865,-0.0188720766454935,-0.2755096852779388,4.592339992523193,62.51663589477539,25.59,2
-0.1100943386554718,-1.0763678550720217,-0.0568932071328163,0.8406451344490051,4.592993259429932,62.62173461914063,25.59,2
-0.1770099252462387,-1.2841150760650637,-0.0644996538758277,1.524685978889465,4.59341287612915,62.68918228149414,25.59,2
-0.1975613981485366,-1.1095576286315918,-0.0805765837430954,1.383286714553833,4.593681812286377,62.73246765136719,25.59,2
-0.1715657263994217,-0.9695478677749634,-0.107687160372734,0.9127918481826782,4.593854427337647,62.76024627685547,25.59,2
-0.0933076813817024,-0.9972509145736694,-0.1474762558937072,0.7147499918937683,4.593965530395508,62.77807235717773,25.59,2
-0.0318906307220459,-1.0374202728271484,-0.1786083877086639,0.6664747595787048,4.59174108505249,62.789512634277344,25.59,2
-0.0484544448554515,-1.04640531539917,-0.1985871940851211,0.4456180334091186,4.590313911437988,62.796852111816406,25.59,2
-0.0870730131864547,-0.990595817565918,-0.1778218001127243,0.1928250342607498,4.58939790725708,62.80156326293945,25.59,2
-0.0950628668069839,-0.9491827487945556,-0.1700935363769531,0.1058311313390731,4.588809967041016,62.80458450317383,25.59,2
-0.1225813925266265,-0.9282039999961852,-0.1651339828968048,0.0034299592953175,4.588432788848877,62.80652618408203,25.59,2
-0.1402412056922912,-0.914741039276123,-0.1507556736469268,-0.3166480660438537,4.58819055557251,62.80776977539063,25.59,2
-0.1515742540359497,-0.8725146651268005,-0.1135396361351013,-0.7441754341125488,4.588035106658936,62.808570861816406,25.59,2
-0.1588471531867981,-0.8622094988822937,-0.084058754146099,-1.0686938762664795,4.587935447692871,62.80908203125,25.59,2
-0.1803078055381775,-0.8667917847633362,-0.0651396214962005,-1.2160474061965942,4.580986022949219,62.80941009521485,25.59,2
-0.2052755653858184,-0.8753302097320557,-0.0697917342185974,-1.1673073768615725,4.576526165008545,62.80962371826172,25.59,2
-0.2212984263896942,-0.8808096647262573,-0.0783749669790268,-0.9210743308067322,4.57366418838501,62.809757232666016,25.59,2
-0.2371787577867508,-0.9179127216339112,-0.1006765142083168,-0.6054227948188782,4.571827411651611,62.809844970703125,25.59,2
-0.2473698407411575,-0.9417233467102052,-0.1205861344933509,-0.4350989758968353,4.570648670196533,62.80990219116211,25.59,2
-0.2595076560974121,-0.9514058232307434,-0.1221674382686615,-0.4296896457672119,4.569892406463623,62.8099365234375,25.59,2
-0.2561014592647552,-0.9632172584533693,-0.1231822222471237,-0.2291765958070755,4.569406986236572,62.80995941162109,25.59,2
-0.2427200227975845,-1.0267748832702637,-0.146224558353424,0.4834609627723694,4.569095611572266,62.80997467041016,25.59,2
-0.2229370325803756,-1.2578868865966797,-0.2169895470142364,1.3742823600769043,4.56751823425293,62.80998611450195,25.59,2
-0.2550236284732818,-1.1822903156280518,-0.178435817360878,1.713092803955078,4.5665059089660645,62.80998992919922,25.59,2
-0.2700172066688537,-1.0442123413085938,-0.1257053911685943,1.4397090673446655,4.565856456756592,62.80999374389648,25.59,2
-0.1900748163461685,-1.039568543434143,-0.1254526823759079,1.2105284929275513,4.565439701080322,62.80999755859375,25.59,2
-0.105185754597187,-1.0533816814422607,-0.1364860534667968,1.2569127082824707,4.56517219543457,62.80999755859375,25.59,2
-0.0339155197143554,-1.023061752319336,-0.1491644084453582,1.0860551595687866,4.565000534057617,62.80999755859375,25.59,2
-0.049753900617361,-0.930833101272583,-0.1181162297725677,0.4641002714633941,4.564890384674072,62.80999755859375,25.59,2
-0.0879069343209266,-0.8548527359962463,-0.086995743215084,-0.2395534962415695,4.564819812774658,62.80999755859375,25.59,2
-0.129184678196907,-0.8172884583473206,-0.0614266358315944,-0.6767877340316772,4.557888507843018,63.13959503173828,25.59,2
-0.1612721383571624,-0.7987796068191528,-0.0450178533792495,-0.8104938268661499,4.553440570831299,63.351112365722656,25.59,2
-0.1818640232086181,-0.7924994826316833,-0.0176943186670541,-0.7888214588165283,4.550586223602295,63.48685073852539,25.59,2
-0.1894809305667877,-0.8108603954315186,0.005438127554953,-0.8358171582221985,4.548754215240479,63.57395935058594,25.59,2
-0.1831734776496887,-0.8282411098480225,0.0202832017093896,-1.012861967086792,4.547578811645508,63.62986373901367,25.59,2
-0.1791257113218307,-0.8393950462341309,0.0466032400727272,-1.094235897064209,4.546824455261231,63.66573715209961,25.59,2
-0.1765280961990356,-0.8577485680580139,0.0634939223527908,-0.8849289417266846,4.546340465545654,63.688758850097656,25.59,2
-0.1804588586091995,-0.9087111949920654,0.0631378442049026,-0.4532540738582611,4.546029567718506,63.70353317260742,25.59,2
-0.1829814016819,-0.99179607629776,0.0461160093545913,-0.0078489035367965,4.55730676651001,63.713016510009766,25.59,2
-0.1734046787023544,-1.061908483505249,0.0239968262612819,0.3388902842998504,4.564543724060059,63.71910095214844,25.59,2
-0.1728566586971283,-1.1460870504379272,-0.0013935427414253,0.7262060046195984,4.569188117980957,63.72300720214844,25.59,2
-0.1948960721492767,-1.2672812938690186,-0.0176876187324523,1.214795470237732,4.572168350219727,63.72551345825195,25.59,2
-0.2258330136537552,-1.23310124874115,-0.0169486701488494,1.3563804626464844,4.574080944061279,63.72711944580078,25.59,2
-0.1897088289260864,-1.0544288158416748,-0.0276700034737586,0.7629696726799011,4.575308322906494,63.7281494140625,25.59,2
-0.1441353112459182,-0.9789515137672424,-0.0401481129229068,-0.1480684578418731,4.576096057891846,63.72881317138672,25.59,2
-0.0868999734520912,-1.0480678081512451,-0.0817424952983856,-0.7363028526306152,4.576601505279541,63.7292366027832,25.59,2
-0.0501696281135082,-1.1260093450546265,-0.1252286881208419,-0.959747076034546,4.581057071685791,63.72951126098633,25.59,2
-0.0601848512887954,-1.0696699619293213,-0.1363423019647598,-1.049402117729187,4.583916187286377,63.72968673706055,25.59,2
-0.1113942414522171,-1.0223190784454346,-0.1154855117201805,-0.9994602799415588,4.585751056671143,63.72979736328125,25.59,2
-0.1442574858665466,-0.9975298047065736,-0.0965030491352081,-0.7632036209106445,4.586928367614746,63.7298698425293,25.59,2
-0.1653472185134887,-0.9704259037971495,-0.0843212008476257,-0.4217112064361572,4.587684154510498,63.72991561889648,25.59,2
-0.1788813918828964,-0.9362388253211976,-0.0765035897493362,-0.0019368063658475,4.588169097900391,63.72994613647461,25.59,2
-0.1707735210657119,-0.8863106966018677,-0.0658889263868331,0.6042123436927795,4.588480472564697,63.72996520996094,25.59,2
-0.1431792676448822,-0.8430741429328918,-0.042283721268177,1.365791916847229,4.588680267333984,63.729976654052734,25.59,2
-0.1310686320066452,-0.8153274059295654,-0.02153748460114,1.936928987503052,4.58421802520752,63.72998428344727,25.59,2
-0.13449227809906,-0.8143144845962524,-0.0250170659273862,2.00609827041626,4.58135461807251,63.72998809814453,25.59,2
-0.1534826904535293,-0.8192622065544128,-0.032847836613655,1.6707340478897097,4.579516887664795,63.7299919128418,25.59,2
-0.1824629753828048,-0.8560240268707275,-0.0490687228739261,1.143832445144653,4.578337669372559,63.72999572753906,25.59,2
-0.2010608464479446,-0.8908112049102783,-0.0650761276483535,0.4438572227954864,4.57758092880249,63.72999572753906,25.59,2
-0.1962025761604309,-0.9579178094863892,-0.1089354082942009,-0.3528564274311065,4.577095031738281,63.72999572753906,25.59,2
-0.2042803615331649,-1.2081005573272705,-0.1762661784887313,-0.8283156156539917,4.576783180236816,63.72999572753906,25.59,2
-0.2598441839218139,-1.3182735443115234,-0.1914863288402557,-0.6927812099456787,4.576582908630371,63.72999572753906,25.59,2
-0.3178929388523102,-1.1650651693344116,-0.1116893514990806,-0.2905363142490387,4.580585956573486,64.07750701904297,25.59,2
-0.3159608840942383,-1.033158302307129,-0.0548824705183506,-0.1076328158378601,4.583155155181885,64.30052185058594,25.59,2
-0.2475477010011673,-1.0436701774597168,-0.0520137324929237,-0.1514717936515808,4.584804058074951,64.44363403320312,25.59,2
-0.2036440670490265,-1.0056339502334597,-0.0557705163955688,-0.2369263172149658,4.585862159729004,64.53547668457031,25.59,2
-0.1642736792564392,-0.9532355666160583,-0.0469858571887016,-0.4493994414806366,4.586541175842285,64.59441375732422,25.59,2
-0.1390080451965332,-0.8972182273864746,-0.0245550442487001,-0.8150373101234436,4.586977005004883,64.63224029541016,25.59,2
-0.139587327837944,-0.8500739336013794,0.0010353085817769,-1.0819257497787476,4.58725643157959,64.6565170288086,25.59,2
-0.1679479479789734,-0.7918305993080139,0.0510443747043609,-1.134974479675293,4.587435722351074,64.6720962524414,25.59,2
-0.2085392624139785,-0.7600511312484741,0.0831373110413551,-1.1188620328903198,4.578369617462158,64.68209075927734,25.61,2
-0.2289906591176986,-0.7564502358436584,0.1093304827809333,-1.090609073638916,4.572551727294922,64.68850708007812,25.61,2
-0.2365174144506454,-0.7709327340126038,0.1429330706596374,-0.932757556438446,4.568818092346191,64.692626953125,25.61,2
-0.2245543301105499,-0.7858245372772217,0.1644972860813141,-0.6523287296295166,4.566421985626221,64.69526672363281,25.61,2
-0.2000837922096252,-0.8121745586395264,0.1839337348937988,-0.5010262727737427,4.564884185791016,64.69696044921875,25.61,2
-0.1843800097703933,-0.8906599879264832,0.1964069306850433,-0.611718475818634,4.563897609710693,64.69805145263672,25.61,2
-0.1854977756738662,-0.9690163135528564,0.204411506652832,-0.7006672024726868,4.5632643699646,64.69874572753906,25.61,2
-0.1918128579854965,-1.0584852695465088,0.2095483839511871,-0.4281524121761322,4.5628581047058105,64.6991958618164,25.61,2
-0.1902677416801452,-1.143890142440796,0.2072471529245376,0.1730583906173706,4.575450897216797,64.6994857788086,25.61,2
-0.1836784034967422,-1.2434803247451782,0.2057703584432602,0.9386337995529176,4.583532333374023,64.69966888427734,25.61,2
-0.2018408477306366,-1.279402732849121,0.2160181850194931,1.7559505701065063,4.588718414306641,64.69978332519531,25.61,2
-0.2246920019388198,-1.268868923187256,0.2225946485996246,2.2517967224121094,4.592046737670898,64.69985961914062,25.61,2
-0.2337587773799896,-1.1725445985794067,0.2100217193365097,1.9824599027633667,4.59418249130249,64.69990539550781,25.61,2
-0.2227839976549148,-1.077142596244812,0.1907575875520706,1.1611688137054443,4.595552921295166,64.69993591308594,25.61,2
-0.2157410085201263,-1.0607012510299685,0.1560038924217224,0.494390994310379,4.596432685852051,64.69995880126953,25.61,2
-0.2168190032243728,-1.0781389474868774,0.1225054189562797,0.2062118202447891,4.596997261047363,64.6999740600586,25.61,2
-0.2119130194187164,-1.061340570449829,0.1066057980060577,-0.0181333012878894,4.595523357391357,64.69998168945312,25.61,2
-0.1919713169336319,-0.9945826530456544,0.0908045619726181,-0.2265914678573608,4.594577312469482,64.69998931884766,25.61,2
-0.1679783314466476,-0.9517412781715392,0.0694686919450759,-0.1704913824796676,4.59397029876709,64.69998931884766,25.61,2
-0.1525810211896896,-0.9130525588989258,0.0501787811517715,0.0410566106438636,4.593580722808838,64.69998931884766,25.61,2
-0.1650910079479217,-0.8714310526847839,0.0266040787100791,0.0800864025950431,4.59333086013794,64.69998931884766,25.61,2
-0.1787169724702835,-0.8279274702072144,0.005877417512238,-0.0345869660377502,4.593170642852783,64.69998931884766,25.61,2
-0.1930591017007827,-0.7888138294219971,-0.00742376036942,-0.0616042539477348,4.593067646026611,64.69998931884766,25.61,2
-0.202263057231903,-0.769310712814331,-0.010361916385591,-0.0610295161604881,4.593001365661621,64.69998931884766,25.61,2
-0.2025718539953231,-0.7791858315467834,-0.0178452301770448,-0.3042758405208587,4.58790922164917,65.0152587890625,25.61,2
-0.1971722543239593,-0.8135119676589966,-0.017049815505743,-0.7971394062042236,4.584641456604004,65.21758270263672,25.61,2
-0.2049026489257812,-0.8467360734939575,-0.0109415901824831,-1.2029953002929688,4.582544326782227,65.34741973876953,25.61,2
-0.2154613435268402,-0.9072418212890624,-0.0126194572076201,-1.2807388305664062,4.581198692321777,65.43074035644531,25.61,2
-0.2166395336389541,-1.0412330627441406,-0.0360873118042945,-1.0010331869125366,4.580335140228272,65.48421478271484,25.61,2
-0.2117978483438491,-1.199992060661316,-0.0567454062402248,-0.3629646003246307,4.579780578613281,65.5185317993164,25.61,2
-0.2702662646770477,-1.150734543800354,0.0195618104189634,0.4155163764953613,4.579424858093262,65.5405502319336,25.61,2
-0.3413745760917663,-1.040755033493042,0.1077158078551292,0.7968757152557373,4.579196453094482,65.5546875,25.61,2
-0.3590189218521118,-0.986969828605652,0.1362991034984588,0.6152836680412292,4.577672958374023,65.56375885009766,25.55,2
-0.3255598545074463,-0.9916380047798156,0.1210555657744407,0.3590278625488281,4.576695442199707,65.569580078125,25.55,2
-0.2649033069610595,-1.0058293342590332,0.0832842662930488,0.3235503733158111,4.576067924499512,65.57331085205078,25.55,2
-0.1811952441930771,-0.9869475960731506,0.098229244351387,0.1933057010173797,4.575665473937988,65.5757064819336,25.55,2
-0.1106829047203064,-0.9468415379524232,0.1246133968234062,-0.3201869130134582,4.575407028198242,65.5772476196289,25.55,2
-0.0990187898278236,-0.9378970861434937,0.141545221209526,-1.0223047733306885,4.575241088867188,65.57823181152344,25.55,2
-0.1195223033428192,-0.932157039642334,0.1356177777051925,-1.4979616403579712,4.575134754180908,65.57886505126953,25.55,2
-0.166266918182373,-0.9228756427764891,0.0814339071512222,-1.5201873779296875,4.575066566467285,65.57926940917969,25.55,2
-0.235449343919754,-0.9337127208709716,0.0242707226425409,-1.255009651184082,4.57318639755249,65.57952880859375,25.55,2
-0.274248868227005,-0.9462651014328004,-0.0180110931396484,-0.9988520741462708,4.571979522705078,65.57969665527344,25.55,2
-0.2655615210533142,-0.9375271797180176,-0.0451451279222965,-0.7663959264755249,4.571205139160156,65.57980346679688,25.55,2
-0.2375953942537307,-0.9319196939468384,-0.0513626411557197,-0.4416727423667907,4.570708274841309,65.57987213134766,25.55,2
-0.1972572356462478,-0.9171255826950072,-0.0385593622922897,-0.082815907895565,4.570389270782471,65.57991790771484,25.55,2
-0.1769683063030243,-0.9132293462753296,-0.0247451793402433,0.2549550235271454,4.570184707641602,65.57994842529297,25.55,2
-0.1751435846090316,-0.9275222420692444,-0.0102822566404938,0.6651760339736938,4.5700531005859375,65.57997131347656,25.55,2
-0.1907659173011779,-0.9422923922538756,0.0045969882048666,1.1218913793563845,4.569968700408936,65.5799789428711,25.55,2
-0.2063892036676406,-0.929379940032959,0.0141456313431262,1.5045493841171265,4.568078517913818,65.57998657226562,25.55,2
-0.2220131009817123,-0.9882667660713196,0.0090778516605496,1.839681625366211,4.56686544418335,65.57999420166016,25.55,2
-0.2712240517139435,-1.17159903049469,0.0226189661771059,2.2195487022399902,4.566087245941162,65.57999420166016,25.55,2
-0.3587825298309326,-1.2780556678771973,0.0481021963059902,2.534976959228516,4.565587520599365,65.57999420166016,25.55,2
-0.392581433057785,-1.1504513025283811,0.0420647710561752,2.5475242137908936,4.565267086029053,65.57999420166016,25.55,2
-0.3750872015953064,-1.1133443117141724,0.0213969741016626,2.147162675857544,4.565061569213867,65.57999420166016,25.55,2
-0.3414693176746368,-1.1734977960586548,0.0193291213363409,1.4746549129486084,4.564929485321045,65.57999420166016,25.55,2
-0.308699756860733,-1.1505253314971924,0.0235998667776584,0.7170637845993042,4.564844608306885,65.57999420166016,25.55,2
-0.2764745652675628,-1.074207425117493,0.0151450363919138,-0.0163123104721307,4.564331531524658,65.88809967041016,25.55,2
-0.2390009760856628,-0.991644322872162,-0.0126718841493129,-0.5550197958946228,4.56400203704834,66.08582305908203,25.55,2
-0.2149525880813598,-0.949855625629425,-0.0361209549009799,-0.7896714210510254,4.563790798187256,66.21270751953125,25.55,2
-0.2051174938678741,-0.9342336058616638,-0.0567669942975044,-0.947422444820404,4.563655376434326,66.29413604736328,25.55,2
-0.2379903197288513,-0.9298060536384584,-0.0980053097009658,-1.2958556413650513,4.563568115234375,66.34639739990234,25.55,2
-0.2814773023128509,-0.9269647002220154,-0.1300674527883529,-1.7379971742630005,4.563512325286865,66.37992858886719,25.55,2
-0.3205803036689758,-0.9195435047149658,-0.1562408655881881,-2.0002427101135254,4.5634765625,66.40145111083984,25.55,2
-0.3232832551002502,-0.925976574420929,-0.1786352396011352,-2.0037384033203125,4.563453674316406,66.4152603149414,25.55,2
-0.2970289885997772,-0.9580938220024108,-0.1818111091852188,-1.8662612438201904,4.55747127532959,66.42412567138672,25.59,2
-0.2521916329860687,-0.984302580356598,-0.1894469708204269,-1.6884719133377075,4.5536322593688965,66.42981719970703,25.59,2
-0.229015365242958,-1.0011218786239624,-0.1943472325801849,-1.3952481746673584,4.551168441772461,66.43346405029297,25.59,2
-0.2253377139568328,-1.0063177347183228,-0.1862963885068893,-0.8559816479682922,4.549587249755859,66.43580627441406,25.59,2
-0.2341731637716293,-1.0376410484313965,-0.1867275983095169,-0.1803144961595535,4.548572540283203,66.43730926513672,25.59,2
-0.2790276706218719,-1.10812246799469,-0.175808772444725,0.2568724155426025,4.547921180725098,66.43827056884766,25.59,2
-0.3246060311794281,-1.0302023887634275,-0.1240194961428642,0.189923956990242,4.547503471374512,66.43888854980469,25.59,2
-0.3146711885929107,-1.013784408569336,-0.0963818952441215,-0.2220449894666671,4.547235488891602,66.43928527832031,25.59,2
-0.2243289500474929,-1.1096060276031494,-0.1066345497965812,-0.4720926582813263,4.5456862449646,66.43954467773438,25.59,2
-0.138363629579544,-1.1878920793533323,-0.1076163351535797,-0.2384755164384842,4.544692039489746,66.43970489501953,25.59,2
-0.066402718424797,-1.1485671997070312,-0.0914530679583549,0.2589563429355621,4.54405403137207,66.43981170654297,25.59,2
-0.0314178951084613,-1.0673530101776123,-0.0810804143548011,0.5602666139602661,4.543644428253174,66.43988037109375,25.59,2
-0.0313577465713024,-1.0208321809768677,-0.0856193900108337,0.4992673099040985,4.543381690979004,66.43992614746094,25.59,2
-0.0705035626888275,-0.9909778237342834,-0.1221188902854919,0.3096532821655273,4.543212890625,66.43995666503906,25.59,2
-0.112418420612812,-0.9606234431266784,-0.1623354852199554,0.2954472005367279,4.543104648590088,66.43997192382812,25.59,2
-0.1505125164985656,-0.9523392915725708,-0.2049375027418136,0.5227805376052856,4.543035507202148,66.43997955322266,25.59,2
-0.1581657826900482,-0.9638163447380066,-0.2378748059272766,0.7474866509437561,4.540695667266846,66.43998718261719,25.59,2
-0.1406861096620559,-0.9599860906600952,-0.2478165179491043,0.7018135786056519,4.539194107055664,66.43999481201172,25.59,2
-0.0902842506766319,-0.9463325142860411,-0.2374032139778137,0.4360532462596893,4.538230419158936,66.43999481201172,25.59,2
-0.0411459095776081,-0.9431682229042052,-0.2251227796077728,0.1938520669937133,4.537611961364746,66.43999481201172,25.59,2
0.0239748917520046,-0.9299420118331908,-0.189253032207489,0.0348387062549591,4.537214756011963,66.43999481201172,25.59,2
0.0489723496139049,-0.9270519614219666,-0.143842801451683,-0.1066152527928352,4.536960124969482,66.43999481201172,25.59,2
0.0482209585607051,-0.9363928437232972,-0.1035055816173553,-0.2797914743423462,4.536796569824219,66.43999481201172,25.59,2
-0.002641212195158,-0.9591805934906006,-0.0552283748984336,-0.4589949548244476,4.536691665649414,66.43999481201172,25.59,2
-0.0408793985843658,-0.9738044738769532,-0.0130512947216629,-0.3841209411621094,4.532033920288086,66.73735046386719,25.59,2
-0.0822117924690246,-1.067155838012695,0.0308088511228561,0.2550538778305053,4.529045104980469,66.92817687988281,25.59,2
-0.1647142767906189,-1.2949966192245483,0.0589557662606239,1.1381394863128662,4.527126789093018,67.0506362915039,25.59,2
-0.2064640820026397,-1.3628427982330322,0.054627738893032,1.5472196340560913,4.525896072387695,67.12922668457031,25.59,2
-0.2052678316831588,-1.2048627138137815,0.023861389607191,1.4299907684326172,4.525105953216553,67.17965698242188,25.59,2
-0.1933045983314514,-1.1258713006973269,0.0041173174977302,1.2974387407302856,4.524599075317383,67.21202087402344,25.59,2
-0.1800295114517212,-1.1423524618148804,-0.030944388359785,1.287608623504639,4.524273872375488,67.2327880859375,25.59,2
-0.1883036494255066,-1.0913536548614502,-0.1038249433040618,1.1415797472000122,4.524065017700195,67.2461166381836,25.59,2
-0.1992112845182418,-0.98585444688797,-0.1673888117074966,0.7935039401054382,4.528980731964111,67.25466918945312,25.61,2
-0.2118089497089386,-0.8957600593566895,-0.2473648637533188,0.3300963640213012,4.532135486602783,67.26016235351562,25.61,2
-0.2142956405878067,-0.8603337407112122,-0.3154822289943695,-0.250315397977829,4.534159660339356,67.26368713378906,25.61,2
-0.1990981251001358,-0.8431969285011292,-0.3647938072681427,-0.905813694000244,4.535459041595459,67.26594543457031,25.61,2
-0.1669541299343109,-0.8266017436981201,-0.4020369052886963,-1.3336399793624878,4.536292552947998,67.26739501953125,25.61,2
-0.1463259756565094,-0.8271474838256836,-0.4203396141529083,-1.2535192966461182,4.536827564239502,67.26832580566406,25.61,2
-0.133088007569313,-0.849888801574707,-0.4040963649749756,-0.8904183506965637,4.537170886993408,67.2689208984375,25.61,2
-0.1245926469564437,-0.8868739604949951,-0.3768790364265442,-0.7254700064659119,4.537391185760498,67.2693099975586,25.61,2
-0.1079452633857727,-0.9385977387428284,-0.3370214402675628,-0.7557535171508789,4.529269218444824,67.2695541381836,25.61,2
-0.0860663801431655,-0.9829866886138916,-0.2946498095989227,-0.6497975587844849,4.524057388305664,67.26971435546875,25.61,2
-0.0552324503660202,-1.0058751106262207,-0.2730559110641479,-0.3417685925960541,4.520712375640869,67.26981353759766,25.61,2
-0.0242494586855173,-1.003770351409912,-0.2480026334524154,0.070861205458641,4.518565654754639,67.26988220214844,25.61,2
-0.0099641326814889,-0.9912240505218506,-0.2263271063566208,0.5936086773872375,4.51718807220459,67.2699203491211,25.61,2
-0.0063944067806005,-1.0335525274276731,-0.2460036426782608,1.0150598287582395,4.516304016113281,67.26995086669922,25.61,2
-0.0600813068449497,-1.1110965013504028,-0.2642287015914917,1.0669857263565063,4.515737056732178,67.26996612548828,25.61,2
-0.1057300195097923,-1.1216752529144287,-0.2423378378152847,0.967753529548645,4.515373229980469,67.26997375488281,25.61,2
-0.0454603396356105,-1.0836819410324097,-0.2003006637096405,1.0832006931304932,4.516057968139648,67.26998138427734,25.61,2
0.0491950139403343,-1.1040822267532349,-0.1789214015007019,1.243269920349121,4.5164971351623535,67.26998901367188,25.61,2
0.1939059793949127,-1.1171739101409912,-0.1707991957664489,1.06296968460083,4.516778945922852,67.26998901367188,25.61,2
0.2419909536838531,-1.058402180671692,-0.1375979632139206,0.5746755003929138,4.5169596672058105,67.26998901367188,25.61,2
0.228066936135292,-0.998294711112976,-0.1106935515999794,0.042779266834259,4.517076015472412,67.26998901367188,25.61,2
0.1631535589694976,-0.9485256671905518,-0.0878300741314888,-0.4382815062999725,4.517150402069092,67.26998901367188,25.61,2
0.0935070142149925,-0.9053912162780762,-0.0675598382949829,-0.7828243970870972,4.517198085784912,67.26998901367188,25.61,2
0.0096274465322494,-0.8721122145652771,-0.0433560162782669,-0.8427163362503052,4.517228603363037,67.26998901367188,25.61,2
-0.0106149818748235,-0.8507556915283203,-0.0334211699664592,-0.7629265189170837,4.51265811920166,67.54585266113281,25.61,2
-0.0236054062843322,-0.8258547782897949,-0.0214477833360433,-0.9230939745903016,4.509725093841553,67.72288513183594,25.61,2
-0.043137464672327,-0.8154725432395935,-0.0025684032589197,-1.3053210973739624,4.507842540740967,67.83649444580078,25.61,2
-0.0444764643907547,-0.8200053572654724,0.0095472950488328,-1.4825435876846311,4.506634712219238,67.9094009399414,25.61,2
-0.0397379845380783,-0.8509031534194946,0.0173224527388811,-1.3025035858154297,4.505859375,67.95619201660156,25.61,2
-0.0422948747873306,-0.8987204432487488,0.0167143270373344,-1.086652159690857,4.505362033843994,67.98621368408203,25.61,2
-0.0551312863826751,-0.9462001323699952,0.0219218414276838,-1.0699386596679688,4.505042552947998,68.00548553466797,25.61,2
-0.0633689612150192,-0.9766699075698853,0.0140681760385632,-1.0448826551437378,4.504837512969971,68.01785278320312,25.61,2
-0.0798509716987609,-1.0018213987350464,-0.0021674029994755,-0.54515540599823,4.506083488464356,68.02578735351562,25.59,2
-0.1016237288713455,-1.057146668434143,-0.0293797869235277,0.6461066007614136,4.506883144378662,68.03087615966797,25.59,2
-0.1547806560993194,-1.2605844736099243,-0.0580386780202388,2.023210287094116,4.507396221160889,68.03414154052734,25.59,2
-0.211284801363945,-1.4079324007034302,-0.0596369802951812,2.7099146842956543,4.507725238800049,68.03623962402344,25.59,2
-0.1691770702600479,-1.1722230911254885,-0.0438693538308143,2.537981510162353,4.507936477661133,68.03759002685547,25.59,2
-0.1197636574506759,-0.9817740321159364,-0.0337506011128425,2.1732819080352783,4.508071899414063,68.0384521484375,25.59,2
-0.0656618699431419,-0.9939013719558716,-0.0608436129987239,2.0288031101226807,4.508159160614014,68.03900909423828,25.59,2
-0.0589313320815563,-1.0912483930587769,-0.1286103129386901,1.8035296201705933,4.508214950561523,68.03936767578125,25.59,2
-0.0770031586289405,-1.1089379787445068,-0.1832946389913559,1.218305230140686,4.508709907531738,68.03959655761719,25.59,2
-0.094198390841484,-1.0083346366882324,-0.1680079251527786,0.4594063758850097,4.509027481079102,68.03974151611328,25.59,2
-0.1164288520812988,-0.9493709206581116,-0.1358066946268081,-0.2282354831695556,4.509231090545654,68.03983306884766,25.59,2
-0.1474884003400802,-0.939520299434662,-0.1095440164208412,-0.8307403326034546,4.509361743927002,68.0398941040039,25.59,2
-0.1954095065593719,-0.916405439376831,-0.0982879176735878,-1.3141227960586548,4.509445667266846,68.03993225097656,25.59,2
-0.2205647379159927,-0.9015716314315796,-0.0854666233062744,-1.4631139039993286,4.509499549865723,68.03995513916016,25.59,2
-0.1975234895944595,-0.8976499438285828,-0.0716408789157867,-1.2255483865737915,4.509533882141113,68.03997039794922,25.59,2
-0.1715414077043533,-0.9007309675216676,-0.0571705400943756,-0.8903810977935791,4.509556293487549,68.03997802734375,25.59,2
-0.1492698192596435,-0.8915126323699951,-0.0366887636482715,-0.6358817219734192,4.503602981567383,68.03998565673828,25.59,2
-0.1573683023452758,-0.90239018201828,-0.0403380580246448,-0.3077601492404938,4.499782562255859,68.03999328613281,25.59,2
-0.1793587654829025,-0.9149685502052308,-0.0482777431607246,0.1356768012046814,4.497330665588379,68.03999328613281,25.59,2
-0.2158620655536651,-0.9342361688613892,-0.0589707493782043,0.4883180260658264,4.495757102966309,68.03999328613281,25.59,2
-0.239287793636322,-0.9521988034248352,-0.0602351315319538,0.8149349689483643,4.494747638702393,68.03999328613281,25.59,2
-0.226332202553749,-0.9917150139808656,-0.0554487630724906,1.350553274154663,4.4940996170043945,68.03999328613281,25.59,2
-0.1956269443035125,-1.1626163721084597,-0.0859637930989265,1.8519155979156487,4.493683815002441,68.03999328613281,25.59,2
-0.1815198510885238,-1.2946821451187134,-0.105546586215496,1.8583945035934448,4.493416786193848,68.03999328613281,25.59,2
-0.1836622804403305,-1.161121129989624,-0.0845270454883575,1.4899643659591677,4.495081901550293,68.21912384033203,25.59,2
-0.1850371658802032,-1.0418227910995483,-0.0710379183292388,1.1997884511947632,4.496150493621826,68.3340835571289,25.59,2
-0.1859194934368133,-1.0548282861709597,-0.073576919734478,1.0171529054641724,4.496836185455322,68.40785217285156,25.59,2
-0.1528990715742111,-1.023990035057068,-0.0696085318922996,0.6455850601196289,4.497276306152344,68.45519256591797,25.59,2
-0.1093173697590828,-0.965015470981598,-0.0558662973344326,0.0381289087235927,4.49755859375,68.4855728149414,25.59,2
-0.081349141895771,-0.8823868036270142,-0.0302539989352226,-0.5845689177513123,4.497739791870117,68.50507354736328,25.59,2
-0.0857918411493301,-0.8349582552909851,-0.008219726383686,-1.0128411054611206,4.497856140136719,68.51758575439453,25.59,2
-0.0998384580016136,-0.8213146328926086,0.0115183759480714,-1.2016997337341309,4.497930526733398,68.52561950683594,25.59,2
-0.103254996240139,-0.8125589489936829,0.0185873787850141,-1.2870726585388184,4.493388175964356,68.53076934814453,25.59,2
-0.1110453084111213,-0.8069400787353516,0.0231238584965467,-1.4278417825698853,4.490472793579102,68.53407287597656,25.59,2
-0.1272402256727218,-0.797736406326294,0.037230659276247,-1.5755006074905396,4.488602161407471,68.53619384765625,25.59,2
-0.1488287448883056,-0.7918300032615662,0.0518813654780387,-1.5771125555038452,4.487401485443115,68.53755950927734,25.59,2
-0.1850741058588028,-0.7936373949050903,0.0612833462655544,-1.3811053037643433,4.486630916595459,68.53843688964844,25.59,2
-0.213932067155838,-0.8563728332519531,0.0617192201316356,-1.0761903524398804,4.486136436462402,68.53899383544922,25.59,2
-0.2212558984756469,-0.9302194714546204,0.0619989410042762,-0.8196097612380981,4.485819339752197,68.53935241699219,25.59,2
-0.1979670375585556,-1.0055989027023315,0.0509828999638557,-0.6728639602661133,4.4856157302856445,68.53958129882812,25.59,2
-0.177423819899559,-1.093157410621643,0.0215223412960767,-0.4174750447273254,4.490993499755859,68.53973388671875,25.59,2
-0.1866314560174942,-1.2948895692825315,-0.0197748467326164,0.1906581968069076,4.494444847106934,68.53983306884766,25.59,2
-0.1925403922796249,-1.1836453676223757,-0.0238859076052904,0.874694287776947,4.496659755706787,68.5398941040039,25.59,2
-0.1795390844345092,-1.0562775135040283,-0.0265241488814353,1.0091503858566284,4.498081207275391,68.53993225097656,25.59,2
-0.1767933666706085,-0.968942403793335,-0.0282172206789255,0.4541555047035217,4.498993396759033,68.53995513916016,25.59,2
-0.1806291043758392,-0.9520801305770874,-0.0460970625281333,-0.2065271735191345,4.499578475952148,68.53997039794922,25.59,2
-0.1718951016664505,-1.0308233499526978,-0.107951283454895,-0.4836296737194061,4.4999542236328125,68.53997802734375,25.59,2
-0.1494968086481094,-1.053367257118225,-0.1308524310588836,-0.4823293089866638,4.500195503234863,68.53998565673828,25.59,2
-0.1295250952243805,-1.023052453994751,-0.1119624301791191,-0.4349213242530823,4.496677398681641,68.53999328613281,25.59,2
-0.1223061680793762,-0.9812070727348328,-0.0718510448932647,-0.3292635381221771,4.494420051574707,68.53999328613281,25.59,2
-0.1232712566852569,-0.9655486941337584,-0.0573054142296314,-0.1969720870256424,4.492971420288086,68.53999328613281,25.59,2
-0.1406839191913604,-0.955500066280365,-0.0591664128005504,-0.2123871594667434,4.49204158782959,68.53999328613281,25.59,2
-0.1462605893611908,-0.9210625290870668,-0.0603606961667537,-0.3799130022525787,4.491445064544678,68.53999328613281,25.59,2
-0.1498393714427948,-0.88776695728302,-0.0499315708875656,-0.4910040199756622,4.491062164306641,68.53999328613281,25.59,2
-0.1465382575988769,-0.8887908458709717,-0.0432387553155422,-0.418992817401886,4.490816116333008,68.53999328613281,25.59,2
-0.1500175595283508,-0.8838501572608948,-0.0389436930418014,-0.2509725987911224,4.490658283233643,68.53999328613281,25.59,2
-0.1746414750814438,-0.8806795477867126,-0.0361873693764209,-0.1109037026762962,4.491475582122803,68.61881256103516,25.59,2
-0.2072370052337646,-0.9066336750984192,-0.0456140674650669,0.0363056622445583,4.491999626159668,68.66939544677734,25.59,2
-0.2281549423933029,-0.9288873076438904,-0.0460658073425293,0.1916799396276474,4.492336273193359,68.70185852050781,25.59,2
-0.2303833216428756,-0.9431684017181396,-0.0407579317688941,0.2197386920452118,4.492552280426025,68.72268676757812,25.59,2
-0.2206178158521652,-0.974724292755127,-0.0485471934080123,0.173258826136589,4.492691040039063,68.73605346679688,25.59,2
-0.2143508791923523,-1.1852993965148926,-0.1039258614182472,0.4336193203926086,4.492779731750488,68.74463653564453,25.59,2
-0.2215246707201004,-1.3148366212844849,-0.111475832760334,1.055690884590149,4.492836952209473,68.7501449584961,25.59,2
-0.2261283993721008,-1.1348707675933838,-0.0491476766765117,1.5014740228652954,4.492873668670654,68.75367736816406,25.59,2
-0.206691712141037,-1.0753567218780518,-0.0147468252107501,1.4185466766357422,4.4938154220581055,68.75594329833984,25.61,2
-0.1606317162513733,-1.087544083595276,-0.0094636632129549,1.05006206035614,4.494419574737549,68.75740051269531,25.61,2
-0.0750953182578086,-1.056180715560913,-0.0172687824815511,0.6667042374610901,4.494807243347168,68.75833129882812,25.61,2
-0.0258007515221834,-0.9968691468238832,-0.01667988486588,0.2666364908218384,4.49505615234375,68.75892639160156,25.61,2
-0.0333507619798183,-0.925219714641571,0.017284682020545,-0.16206756234169,4.495215892791748,68.75931549072266,25.61,2
-0.0773803442716598,-0.8624459505081177,0.0446789599955081,-0.6091488003730774,4.495318412780762,68.75955963134766,25.61,2
-0.1112337708473205,-0.8277590870857239,0.0622590295970439,-1.0823537111282349,4.495384216308594,68.75971984863281,25.61,2
-0.1273611783981323,-0.8054990768432617,0.073540911078453,-1.507836937904358,4.495426177978516,68.75981903076172,25.61,2
-0.1433085948228836,-0.791213870048523,0.0919765159487724,-1.687740683555603,4.495912075042725,68.7598876953125,25.61,2
-0.1591404974460601,-0.7932420372962952,0.1150029748678207,-1.513003945350647,4.4962239265441895,68.75992584228516,25.61,2
-0.1748982816934585,-0.811336874961853,0.1353778094053268,-1.1285921335220337,4.496424198150635,68.75995635986328,25.61,2
-0.1850107163190841,-0.8285468816757202,0.1540509760379791,-0.8604033589363098,4.496552467346191,68.75997161865234,25.61,2
-0.1915002912282943,-0.8731779456138611,0.1604365706443786,-0.8315982222557068,4.4966349601745605,68.75997924804688,25.61,2
-0.1900671571493148,-0.957797348499298,0.1533389240503311,-0.7951998710632324,4.496687889099121,68.7599868774414,25.61,2
-0.1947452276945114,-1.028894543647766,0.1487840712070465,-0.528226375579834,4.4967217445373535,68.75999450683594,25.61,2
-0.1977473497390747,-1.0801184177398682,0.1458610296249389,-0.073874682188034,4.496743679046631,68.75999450683594,25.61,2
-0.1996739357709884,-1.135382056236267,0.1383874118328094,0.5293861627578735,4.499512195587158,68.75999450683594,25.61,2
-0.2288991808891296,-1.1820425987243652,0.1391890496015548,1.2246257066726685,4.501288890838623,68.75999450683594,25.61,2
-0.2700453698635101,-1.2063888311386108,0.1341057121753692,1.6636253595352173,4.502429008483887,68.75999450683594,25.61,2
-0.30204838514328,-1.1996217966079712,0.1364412903785705,1.43662428855896,4.50316047668457,68.75999450683594,25.61,2
-0.3001949787139892,-1.1281057596206665,0.1603312343358993,0.671162486076355,4.503629684448242,68.75999450683594,25.61,2
-0.2878100275993347,-1.0598198175430298,0.1644668728113174,0.0258824061602354,4.503931045532227,68.75999450683594,25.61,2
-0.268666535615921,-1.0495845079421997,0.133534237742424,-0.1051977276802063,4.504124641418457,68.75999450683594,25.61,2
-0.2395880073308944,-1.0486137866973877,0.1080856844782829,0.0399674251675605,4.50424861907959,68.75999450683594,25.61,2
-0.2153293043375015,-1.0311975479125977,0.0973520427942276,0.1725343912839889,4.498360633850098,68.7385025024414,25.61,2
-0.1941636949777603,-0.9752386212348938,0.0848660320043563,0.3113468587398529,4.494581699371338,68.7247085571289,25.61,2
-0.1805808246135711,-0.9337295889854432,0.0768532305955886,0.3717681169509887,4.492156982421875,68.71585845947266,25.61,2
-0.1886574476957321,-0.8902981877326965,0.0605155266821384,0.1239369586110115,4.4906005859375,68.71017456054688,25.61,2
-0.2330249845981598,-0.8512308597564697,0.0500309318304061,-0.2966348230838775,4.489602088928223,68.70652770996094,25.61,2
-0.2670952975749969,-0.8261597156524658,0.0377047471702098,-0.5127949714660645,4.488961219787598,68.70418548583984,25.61,2
-0.2833618819713592,-0.8212659955024719,0.0297945104539394,-0.5117936730384827,4.488549709320068,68.70268249511719,25.61,2
-0.2938008308410644,-0.8181254863739014,0.0247181765735149,-0.6222109198570251,4.488285541534424,68.70172119140625,25.61,2
-0.2949021756649017,-0.8217079043388367,0.0270582512021064,-0.915190041065216,4.4862799644470215,68.70110321044922,25.59,2
-0.2844133973121643,-0.8687890768051147,0.0285599771887063,-1.085294246673584,4.484992980957031,68.7007064819336,25.59,2
-0.2720845341682434,-0.915796399116516,0.0295236986130476,-0.9221816658973694,4.484167098999023,68.70045471191406,25.59,2
-0.2585748136043548,-0.9627562761306764,0.0357399322092533,-0.5129864811897278,4.48363733291626,68.7002944946289,25.59,2
-0.2499050498008728,-0.9928924441337584,0.0397291556000709,0.0398000627756118,4.483297348022461,68.70018768310547,25.59,2
-0.2499390691518783,-1.0961986780166626,0.019898111000657,0.6274141073226929,4.483078956604004,68.70011901855469,25.59,2
-0.2611564397811889,-1.2016791105270386,0.0071716886013746,0.9400246143341064,4.482938766479492,68.7000732421875,25.59,2
-0.3075395226478576,-1.135023832321167,0.0605801194906234,0.81462562084198,4.48284912109375,68.70004272460938,25.59,2
-0.3037188649177551,-1.0474661588668823,0.0836590304970741,0.5406926870346069,4.480037212371826,68.70002746582031,25.59,2
-0.2732781171798706,-1.0248632431030271,0.0816764235496521,0.350568026304245,4.478232383728027,68.70001983642578,25.59,2
-0.2033630311489105,-1.0383468866348269,0.0580130033195018,0.0745062083005905,4.477074146270752,68.70001220703125,25.59,2
-0.1473000049591064,-1.0525976419448853,0.0484249554574489,-0.3068611919879913,4.476331233978272,68.70000457763672,25.59,2
-0.0889308899641037,-0.994569718837738,0.0534674450755119,-0.4548712968826294,4.475854396820068,68.70000457763672,25.59,2
-0.0850595980882644,-0.9405373930931092,0.0399101041257381,-0.2847450673580169,4.475548267364502,68.70000457763672,25.59,2
-0.1049663200974464,-0.9114603400230408,0.0144164571538567,-0.1504898071289062,4.475351810455322,68.70000457763672,25.59,2
-0.1233390867710113,-0.8983981609344482,-0.0243349932134151,-0.2291309982538223,4.475225925445557,68.70000457763672,25.59,2
-0.1351296752691269,-0.8900156021118164,-0.0492034442722797,-0.3548324704170227,4.4696364402771,68.70000457763672,25.59,2
-0.1147073209285736,-0.879038393497467,-0.053967036306858,-0.4999867975711822,4.4660491943359375,68.70000457763672,25.59,2
-0.0960036516189575,-0.8719938397407532,-0.0514262616634368,-0.7077809572219849,4.463747024536133,68.70000457763672,25.59,2
-0.084000714123249,-0.8674730658531189,-0.0441979616880416,-0.7479842901229858,4.46226978302002,68.70000457763672,25.59,2
-0.0874934718012809,-0.8645718693733215,-0.0171681586652994,-0.4513526558876037,4.461321830749512,68.70000457763672,25.59,2
-0.1009304672479629,-0.8795033693313599,0.0057757864706218,-0.0997756570577621,4.4607133865356445,68.70000457763672,25.59,2
-0.1263468861579895,-0.9226722121238708,0.0428909882903099,0.0255341231822967,4.460322856903076,68.70000457763672,25.59,2
-0.1426576822996139,-0.9727665781974792,0.0779049396514892,0.1417764723300933,4.46007251739502,68.70000457763672,25.59,2
-0.1531250029802322,-1.0105119943618774,0.1003748774528503,0.5316407680511475,4.464502334594727,68.70358276367188,25.59,2
-0.1486467868089676,-1.118701457977295,0.0980014652013778,0.9108060002326964,4.467344760894775,68.70587921142578,25.59,2
-0.1625662446022033,-1.2609022855758667,0.0964783430099487,0.8746914863586426,4.4691691398620605,68.70735168457031,25.59,2
-0.2218789160251617,-1.2178120613098145,0.1402830928564071,0.579239547252655,4.470339775085449,68.70829772949219,25.59,2
-0.2543446123600006,-1.1061925888061523,0.1236122623085975,0.3717226088047027,4.471091270446777,68.70890808105469,25.59,2
-0.2527881264686584,-1.0961371660232544,0.0849250108003616,0.3066191077232361,4.471573352813721,68.70929718017578,25.59,2
-0.2349959313869476,-1.123270869255066,0.0656955316662788,0.39022958278656,4.4718828201293945,68.70954895019531,25.59,2
-0.223577931523323,-1.1126947402954102,0.0421596094965934,0.5907715559005737,4.472081184387207,68.70970916748047,25.59,2
-0.2162505090236663,-1.0387343168258667,-0.0065310383215546,0.5904951095581055,4.473586082458496,68.7098159790039,25.59,2
-0.228341519832611,-0.9800752401351928,-0.0601689852774143,0.1998169869184494,4.474552154541016,68.70988464355469,25.59,2
-0.2361008375883102,-0.9424312114715576,-0.094590738415718,-0.2873477041721344,4.47517204284668,68.70992279052734,25.59,2
-0.2298847734928131,-0.9294689893722534,-0.1502672880887985,-0.5605736374855042,4.475569725036621,68.70995330810547,25.59,2
-0.2538845241069793,-0.9099550843238832,-0.1915950626134872,-0.5890287160873413,4.47582483291626,68.70996856689453,25.59,2
-0.2636884152889251,-0.8974321484565735,-0.2181168496608734,-0.4424910843372345,4.475988864898682,68.70997619628906,25.59,2
-0.2140022367238998,-0.928580105304718,-0.2239414602518081,-0.2839653193950653,4.476093769073486,68.7099838256836,25.59,2
-0.1765187382698059,-0.9373735189437866,-0.22767935693264,-0.3183704614639282,4.476161479949951,68.70999145507812,25.59,2
-0.1692573130130767,-0.9486143589019777,-0.2356759011745453,-0.494500458240509,4.470695972442627,68.70999145507812,25.59,2
-0.1310106962919235,-0.978219211101532,-0.2464053928852081,-0.5645396709442139,4.467188835144043,68.70999145507812,25.59,2
-0.0280973743647336,-0.9860223531723022,-0.2588887512683868,-0.5163398385047913,4.464938163757324,68.70999145507812,25.59,2
0.1275108456611633,-0.991029977798462,-0.2948887050151825,-0.4495821893215179,4.463493824005127,68.70999145507812,25.59,2
0.221773475408554,-1.0166347026824951,-0.3235891759395599,-0.2204470485448837,4.46256685256958,68.70999145507812,25.59,2
0.181505873799324,-1.1506195068359375,-0.3308119475841522,0.2920214533805847,4.461971759796143,68.70999145507812,25.59,2
0.1108822450041771,-1.1750277280807495,-0.2962626814842224,0.7032934427261353,4.461589813232422,68.70999145507812,25.59,2
0.2055044323205948,-1.1235182285308838,-0.2405043095350265,0.5838885307312012,4.4613447189331055,68.70999145507812,25.59,2
0.3557918965816498,-1.0064958333969116,-0.182330697774887,0.1740818321704864,4.461646556854248,68.70999145507812,25.59,2
0.4018577635288238,-0.8978109359741211,-0.1449982225894928,0.0579770617187023,4.461840152740479,68.70999145507812,25.59,2
0.325062483549118,-0.8392587900161743,-0.1266381591558456,0.2808214724063873,4.461964130401611,68.70999145507812,25.59,2
0.2365952581167221,-0.8240744471549988,-0.1036601811647415,0.3915870189666748,4.462043762207031,68.70999145507812,25.59,2
0.1798220872879028,-0.8759055733680725,-0.0777186825871467,0.2584631741046905,4.462094783782959,68.70999145507812,25.59,2
0.137790560722351,-0.925961136817932,-0.0498753786087036,0.1622842103242874,4.462127685546875,68.70999145507812,25.59,2
0.0884260535240173,-0.9468883275985718,-0.0320071466267108,0.1292226910591125,4.462148666381836,68.70999145507812,25.59,2
0.0959311723709106,-0.949122667312622,-0.0205403435975313,-0.0890359282493591,4.462162494659424,68.70999145507812,25.59,2
0.1231386214494705,-0.9729476571083068,-0.013181610032916,-0.3724047839641571,4.4630889892578125,68.74581909179688,25.59,2
0.0958166047930717,-0.9770416021347046,-0.0084591982886195,-0.3787083923816681,4.463683605194092,68.76881408691406,25.59,2
0.0670873522758483,-0.9852666258811952,-0.0166241750121116,-0.1821294724941253,4.464065074920654,68.7835693359375,25.59,2
0.0710416734218597,-1.001740574836731,-0.0162662137299776,-0.1347930878400802,4.464310169219971,68.79303741455078,25.59,2
0.0567860044538974,-1.0123125314712524,-0.0160364937037229,-0.297874391078949,4.464467525482178,68.79911041259766,25.59,2
0.0364419892430305,-1.0079014301300049,-0.021486846730113,-0.4705995321273803,4.464568138122559,68.80300903320312,25.59,2
0.0289841461926698,-0.9882773756980896,-0.0305823441594839,-0.4954627752304077,4.464632987976074,68.80551147460938,25.59,2
0.0241981316357851,-0.9924771189689636,-0.0420170836150646,-0.328707218170166,4.464674472808838,68.80712127685547,25.59,2
0.0155289676040411,-1.01196551322937,-0.0493552424013614,0.0505826547741889,4.47020959854126,68.80815124511719,25.59,2
-0.0124255008995532,-1.0188742876052856,-0.0484666749835014,0.5913428068161011,4.473762035369873,68.8088150024414,25.59,2
-0.0359628461301326,-1.012112379074097,-0.0478964447975158,1.0494314432144165,4.476041793823242,68.80924224853516,25.59,2
-0.0230788849294185,-1.0189685821533203,-0.0251394063234329,1.2036858797073364,4.477504730224609,68.80950927734375,25.59,2
-0.0148106999695301,-1.017770767211914,0.0006602993234992,1.1307138204574585,4.478443622589111,68.80968475341797,25.59,2
-0.0095046544447541,-1.011404275894165,0.0172170642763376,1.0301460027694702,4.479045867919922,68.80979919433594,25.59,2
-0.02289286442101,-0.9905253052711488,0.0166466943919658,0.9297815561294556,4.479432582855225,68.80986785888672,25.59,2
-0.0314846448600292,-0.9883219003677368,0.0218784399330616,0.7650613188743591,4.47968053817749,68.8099136352539,25.59,2
-0.0314005799591541,-0.9981034398078918,0.0140403229743242,0.5590412616729736,4.47983980178833,68.80994415283203,25.59,2
-0.0481399558484554,-0.9931851029396056,0.02020581997931,0.348012775182724,4.4799418449401855,68.80996704101562,25.59,2
-0.0532845519483089,-0.9844310283660888,0.0353580303490161,0.0585360862314701,4.480007648468018,68.80997467041016,25.59,2
-0.0285971816629171,-0.973215401172638,0.0394840724766254,-0.3386053144931793,4.48004961013794,68.80998229980469,25.59,2
-0.018352024257183,-0.9604200720787048,0.0421319268643856,-0.6651193499565125,4.480076789855957,68.80998992919922,25.59,2
-0.0341683700680732,-0.9745998978614808,0.0606244914233684,-0.7779277563095093,4.480093955993652,68.80998992919922,25.59,2
