acc_x,acc_y,acc_z,bvp,eda,hr,temp,label
0.0,0.0,0.0,0.0,0.0,0.0,34.61,0
-0.0286458320915699,-0.1588541567325592,0.0520833283662796,2.2699997425079346,0.7888701558113098,12.666666030883787,34.61,0
-0.0712652429938316,-0.3677591681480407,0.1219512224197387,5.390244007110596,1.847110748291016,29.658536911010746,34.61,0
-0.1133201792836189,-0.5444871187210083,0.1827242523431778,8.046910285949707,2.7675976753234863,44.43853759765625,34.61,0
-0.1493397355079651,-0.6574051380157471,0.227061465382576,10.234492301940918,3.4391427040100098,55.22134780883789,34.61,0
-0.1627470403909683,-0.7228759527206421,0.2680590748786926,12.386641502380373,3.8938069343566895,62.52176284790039,34.61,0
-0.1659910827875137,-0.8213649988174438,0.2560878694057464,14.285654067993164,4.192131996154785,67.3118896484375,34.61,0
-0.1736714243888855,-0.8739928603172302,0.2483346909284591,15.515551567077637,4.385342597961426,70.41421508789062,34.61,0
-0.1953894048929214,-0.8911237120628357,0.2433403134346008,16.37579345703125,4.500634670257568,72.41265106201172,34.61,0
-0.1925645470619201,-0.8853505253791809,0.240130215883255,17.6519832611084,4.574738025665283,73.69712829589844,34.61,0
-0.1851540654897689,-0.932011604309082,0.2380688339471817,20.72083282470703,4.622323513031006,74.52195739746094,34.61,0
-0.1803971976041793,-0.9283804297447203,0.242342859506607,26.616893768310547,4.65286922454834,75.05142974853516,34.61,0
-0.1773441731929779,-0.9260498881340028,0.24508598446846,32.851444244384766,4.672473907470703,75.39125061035156,34.61,0
-0.1697871536016464,-0.9245542287826538,0.2524441182613373,33.72147750854492,4.685055732727051,75.60933685302734,34.61,0
-0.1705351322889328,-0.9235943555831908,0.2571662366390228,25.85366439819336,4.693130016326904,75.7492904663086,34.61,0
-0.176612913608551,-0.9341738820075988,0.2490011304616928,11.31429958343506,4.698311805725098,75.839111328125,34.61,0
-0.1805132925510406,-0.9297677278518676,0.2437612116336822,-5.149158000946045,4.716326713562012,75.8967514038086,34.61,0
-0.1830163300037384,-0.9213423132896424,0.2403985261917114,-18.089717864990234,4.727887630462647,75.9337387084961,34.61,0
-0.1846226453781128,-0.9439242482185364,0.2326427847146988,-24.434558868408203,4.735306739807129,75.95747375488281,34.61,0
-0.1856534779071808,-0.9416227340698242,0.2276655882596969,-25.457542419433597,4.740067958831787,75.97270965576172,34.61,0
-0.1919127851724624,-0.9289501905441284,0.2244715094566345,-23.26588630676269,4.743123531341553,75.98248291015625,34.61,0
-0.1959296464920044,-0.932013213634491,0.228019505739212,-17.581811904907227,4.745084285736084,75.98876190185547,34.61,0
-0.1985074430704116,-0.9339789152145386,0.2302964031696319,-8.732200622558594,4.746342658996582,75.99279022216797,34.61,0
-0.2001617103815078,-0.9520336985588074,0.2261598110198974,0.3969904482364654,4.747150421142578,75.99537658691406,34.61,0
-0.2012233287096023,-0.9468268752098083,0.2235051840543747,9.032075881958008,4.751799583435059,75.99703216552734,34.61,0
-0.207502394914627,-0.9490832090377808,0.221801608800888,17.206769943237305,4.754783153533936,75.99809265136719,34.61,0
-0.2059341669082641,-0.9449334144592284,0.2207083404064178,22.187707901000977,4.756698131561279,75.998779296875,34.61,0
-0.2049277573823928,-0.9422703385353088,0.2200067490339279,18.921220779418945,4.757926940917969,75.99921417236328,34.61,0
-0.2042819112539291,-0.9405613541603088,0.2195565104484558,4.214310646057129,4.758715629577637,75.99949645996094,34.61,0
-0.1982696652412414,-0.9394646286964417,0.2192675769329071,-22.4559268951416,4.75922155380249,75.99967956542969,34.61,0
-0.194411352276802,-0.9387607574462892,0.2190821468830108,-57.90697479248047,4.759546279907227,75.99979400634766,34.61,0
-0.1919353008270263,-0.9383090734481812,0.2189631462097168,-82.57051086425781,4.759754657745361,75.99987030029297,34.61,0
-0.1903463155031204,-0.9380192160606384,0.2188867777585983,-82.43777465820312,4.750248908996582,87.70419311523438,34.61,0
-0.1837288290262222,-0.9322354197502136,0.2132399976253509,-65.34252166748047,4.7441487312316895,95.2153549194336,34.61,0
-0.179482102394104,-0.9285237193107604,0.2096162289381027,-42.3988037109375,4.740233898162842,100.03558349609376,34.61,0
-0.1823545694351196,-0.9205439686775208,0.2128884643316269,-18.585851669311523,4.7377214431762695,103.1289291381836,34.61,0
-0.1841979622840881,-0.9154230356216432,0.2149884104728698,2.033968448638916,4.736109256744385,105.1140594482422,34.61,0
-0.1853809356689453,-0.912136733531952,0.2219337970018386,16.41300392150879,4.735074520111084,106.38800048828124,34.61,0
-0.191737875342369,-0.9156255125999452,0.2263909578323364,26.006065368652344,4.734410285949707,107.2055435180664,34.61,0
-0.1902196258306503,-0.923462212085724,0.2292512953281402,34.06110382080078,4.733984470367432,107.73019409179688,34.61,0
-0.1892452985048294,-0.9228935837745668,0.2198913544416427,41.65935134887695,4.732333660125732,108.06688690185548,34.61,0
-0.1886200308799743,-0.9225286841392516,0.2082869112491607,46.24528121948242,4.731274127960205,108.282958984375,34.61,0
-0.1882187724113464,-0.9110989570617676,0.1952420622110366,46.08575439453125,4.730594158172607,108.42161560058594,34.61,0
-0.1879612654447555,-0.8869706988334656,0.1868706345558166,41.70578384399414,4.730157852172852,108.5105972290039,34.61,0
-0.1933937817811966,-0.8826820850372314,0.1814983338117599,34.15880584716797,4.729877948760986,108.56770324707033,34.61,0
-0.208075612783432,-0.919114351272583,0.183648481965065,23.15356063842773,4.729698181152344,108.60435485839844,34.61,0
-0.2174975723028183,-0.9592878222465516,0.1850283145904541,7.367456912994385,4.729583263397217,108.62786865234376,34.61,0
-0.229141816496849,-0.9962643384933472,0.1859138160943985,-11.87006378173828,4.729509353637695,108.64295959472656,34.61,0
-0.2422121912240982,-1.025591492652893,0.1864820718765258,-29.983543395996094,4.733134269714356,108.65264892578124,34.61,0
-0.2506000101566314,-1.027618646621704,0.1924445331096649,-44.008056640625,4.73546028137207,108.65886688232422,34.61,0
-0.250385046005249,-0.9841374158859252,0.1962708979845047,-54.01130294799805,4.736952781677246,108.66285705566406,34.61,0
-0.2446493208408355,-0.9450381398200988,0.1931286603212356,-61.742034912109375,4.737910747528076,108.66541290283205,34.61,0
-0.2297729253768921,-0.9143486618995668,0.196709930896759,-69.2468032836914,4.738525390625,108.66705322265624,34.61,0
-0.2202261090278625,-0.9002516865730286,0.1822148561477661,-77.20126342773438,4.738920211791992,108.66810607910156,34.61,0
-0.2140995115041732,-0.8968028426170349,0.1729127466678619,-81.2921142578125,4.739173412322998,108.66878509521484,34.61,0
-0.2101678103208542,-0.9113829135894777,0.1557476371526718,-74.41639709472656,4.739336013793945,108.66921997070312,34.61,0
-0.2132424414157867,-0.9263373613357544,0.1391342878341674,-56.035491943359375,4.7288818359375,108.66950225830078,34.63,0
-0.2152155637741089,-0.9359342455863952,0.1284728050231933,-34.326698303222656,4.72217321395874,108.669677734375,34.63,0
-0.2108840346336364,-0.9700818061828612,0.132826417684555,-16.017337799072266,4.717867851257324,108.66979217529295,34.63,0
-0.2081042975187301,-1.0311801433563232,0.1412180960178375,-1.4443739652633667,4.715105056762695,108.66986846923828,34.63,0
-0.2119182050228119,-1.1039762496948242,0.1633967161178589,10.408352851867676,4.713332176208496,108.66991424560548,34.63,0
-0.2199635207653045,-1.145094871520996,0.1888252198696136,19.27581787109375,4.712194442749023,108.6699447631836,34.63,0
-0.2307243198156356,-1.1714823246002195,0.2107415497303009,25.55757141113281,4.711463928222656,108.6699676513672,34.63,0
-0.1928477883338928,-1.10444974899292,0.2304039597511291,29.943513870239254,4.710995197296143,108.66997528076172,34.63,0
-0.1461497098207473,-1.011052131652832,0.2374243885278701,32.081050872802734,4.699218273162842,106.3699722290039,34.63,0
-0.0937904715538024,-0.923125982284546,0.2251363694667816,31.708086013793945,4.6916608810424805,104.89395904541016,34.63,0
-0.1161670684814453,-0.9002867341041565,0.1500773429870605,29.80284118652344,4.6868109703063965,103.94673919677734,34.63,0
-0.1305270791053772,-0.9136186838150024,0.0963110029697418,27.75975608825684,4.683698654174805,103.3388671875,34.63,0
-0.1005580872297287,-0.9445654153823853,0.0786001831293106,25.796592712402344,4.681701183319092,102.94876861572266,34.63,0
-0.0869234874844551,-0.9588274955749512,0.07283216714859,22.67738914489746,4.680419445037842,102.69843292236328,34.63,0
-0.0781735852360725,-0.9120023250579834,0.0915216878056526,17.737953186035156,4.679596900939941,102.53778076171876,34.63,0
-0.0725584030151367,-0.8483660221099854,0.1147110983729362,12.164198875427246,4.6790690422058105,102.43468475341795,34.63,0
-0.0745526775717735,-0.8075278997421265,0.1351905018091201,7.40861701965332,4.679189682006836,102.36852264404295,34.63,0
-0.1094191372394561,-0.781320333480835,0.1651263236999511,3.296315670013428,4.679266929626465,102.32605743408205,34.63,0
-0.1429899781942367,-0.7756973505020142,0.1955329626798629,-1.0480287075042725,4.679316520690918,102.29881286621094,34.63,0
-0.170131579041481,-0.8000777363777161,0.231839507818222,-5.444554805755615,4.679348468780518,102.28132629394533,34.63,0
-0.1987450420856475,-0.8437125086784363,0.260736733675003,-9.233287811279297,4.67936897277832,102.27010345458984,34.63,0
-0.2227052897214889,-0.8997036814689636,0.2848790884017944,-12.205647468566896,4.679381847381592,102.26290130615234,34.63,0
-0.2548749148845672,-1.0475910902023315,0.3003722727298736,-14.18837070465088,4.67939043045044,102.2582778930664,34.63,0
-0.2755195498466491,-1.1536922454833984,0.3215104341506958,-15.192075729370115,4.67939567565918,102.25531005859376,34.63,0
-0.2831703126430511,-1.2945529222488403,0.3518690168857574,-15.477937698364258,4.681234836578369,102.25341033935548,34.63,0
-0.299275666475296,-1.2562004327774048,0.3321669995784759,-15.808273315429688,4.68241548538208,102.25218963623048,34.63,0
-0.2816222906112671,-1.1364258527755735,0.297132283449173,-16.643630981445312,4.683173179626465,102.25140380859376,34.63,0
-0.2535000443458557,-1.0147792100906372,0.2410623729228973,-17.598876953125,4.683659076690674,102.25090026855467,34.63,0
-0.2466483563184738,-0.9479089379310608,0.1994821429252624,-18.082927703857425,4.683970928192139,102.25057983398438,34.63,0
-0.2478491067886352,-0.9441798329353333,0.1727983504533767,-18.38998031616211,4.684171199798584,102.25037384033205,34.63,0
-0.2318263500928878,-0.8970045447349548,0.1444786787033081,-19.4934196472168,4.684299468994141,102.25023651123048,34.63,0
-0.2215438783168792,-0.8611323833465576,0.115109197795391,-21.792207717895508,4.68438196182251,102.25015258789062,34.63,0
-0.2373362779617309,-0.8381116986274719,0.0906637832522392,-24.335044860839844,4.686271190643311,102.2500991821289,34.63,0
-0.2530687153339386,-0.8121427893638611,0.0749761238694191,-25.46533203125,4.687483310699463,102.25006103515624,34.63,0
-0.2239804565906524,-0.8010752201080322,0.0705064609646797,-24.041139602661133,4.68826150894165,102.25003814697266,34.63,0
-0.1941177397966385,-0.8219615817070007,0.0676380842924118,-20.02824592590332,4.688760757446289,102.2500228881836,34.63,0
-0.1749535650014877,-0.8409630060195923,0.0657973289489746,-14.561863899230955,4.689081192016602,102.25001525878906,34.63,0
-0.1570573300123214,-0.8867436647415161,0.0646160393953323,-9.3091402053833,4.689286708831787,102.25000762939452,34.63,0
-0.145572543144226,-0.9385141730308532,0.0638579502701759,-5.451014041900635,4.689418792724609,102.25000762939452,34.63,0
-0.132604494690895,-0.9885308146476746,0.0745670050382614,-3.2867751121521,4.689503192901611,102.25000762939452,34.63,0
-0.1410756707191467,-1.0766063928604126,0.0870372354984283,-2.4388599395751958,4.6886396408081055,99.29438018798828,34.63,0
-0.1633053123950958,-1.1499215364456177,0.106235459446907,-1.801569938659668,4.688085556030273,97.39762878417967,34.63,0
-0.1943643391132354,-1.1130043268203735,0.1745335161685943,-0.1601879596710205,4.687729835510254,96.18040466308594,34.63,0
-0.2086984664201736,-1.038933038711548,0.2351565957069397,2.4551596641540527,4.687501430511475,95.39926147460938,34.63,0
-0.1899084001779556,-1.013789415359497,0.2404743582010269,4.5849432945251465,4.687355041503906,94.89796447753906,34.63,0
-0.1050789579749107,-0.9976537227630616,0.2382892221212387,4.529433727264404,4.68726110458374,94.57626342773438,34.63,0
-0.0506402999162673,-0.9761031866073608,0.2312891483306884,1.986007809638977,4.687201023101807,94.36981201171876,34.63,0
-0.0772802233695983,-0.9342844486236572,0.2100035846233368,-1.0613338947296145,4.687162399291992,94.2373275756836,34.63,0
-0.1111695170402526,-0.8850564956665039,0.201941505074501,-2.056812047958374,4.704581260681152,94.15230560302734,34.63,0
-0.1497110426425933,-0.842269241809845,0.1911699473857879,-0.7682269215583801,4.715759754180908,94.09774017333984,34.63,0
-0.1632492244243621,-0.8036153316497803,0.1954529285430908,1.0045127868652344,4.722933292388916,94.0627212524414,34.63,0
-0.1663394719362259,-0.7844072580337524,0.2093970477581024,1.8591316938400269,4.727536678314209,94.04025268554688,34.63,0
-0.1627248376607895,-0.7944716811180115,0.2239433676004409,1.3328042030334473,4.730491161346436,94.0258331298828,34.63,0
-0.1604051738977432,-0.8065282106399536,0.2388761341571808,-0.5168094038963318,4.732387065887451,94.0165786743164,34.63,0
-0.1757098734378814,-0.853449821472168,0.2540569007396698,-3.0508334636688232,4.7336039543151855,94.0106430053711,34.63,0
-0.2079226523637771,-0.956332504749298,0.2693968117237091,-5.762544631958008,4.734384536743164,94.00682830810548,34.63,0
-0.228594958782196,-1.022356629371643,0.2904366254806518,-8.731588363647461,4.777576923370361,94.00437927246094,34.63,0
-0.2474590241909027,-1.092716097831726,0.2983410060405731,-11.460942268371582,4.805295467376709,94.0028076171875,34.63,0
-0.2875537574291229,-1.1770530939102173,0.2978157997131347,-12.657184600830078,4.823083400726318,94.00180053710938,34.63,0
-0.2908931672573089,-1.1360136270523071,0.2974787652492523,-11.508186340332031,4.834498882293701,94.00115203857422,34.63,0
-0.2538517713546753,-1.0481013059616089,0.2580780386924743,-7.779375076293945,4.841824531555176,94.00074005126952,34.63,0
-0.2412762939929962,-0.9972820281982422,0.2159996032714843,-1.4241094589233398,4.8465256690979,94.00047302246094,34.63,0
-0.2499994039535522,-1.0094512701034546,0.1889960765838623,6.59516716003418,4.849542617797852,94.00030517578124,34.63,0
-0.2388040721416473,-1.0116630792617798,0.1828623265028,13.79787540435791,4.851478576660156,94.0001983642578,34.63,0
-0.1924351304769516,-0.9403113722801208,0.1733282655477523,17.53884506225586,4.921119213104248,94.00012969970705,34.63,0
-0.1738737523555755,-0.8889241814613342,0.1560142934322357,17.02695083618164,4.965810775756836,94.00008392333984,34.63,0
-0.1675599068403244,-0.8447512984275818,0.1505009680986404,14.219304084777832,4.994491100311279,94.00005340576172,34.63,0
-0.1467147171497345,-0.805208146572113,0.152560606598854,12.41751766204834,5.012896537780762,94.00003051757812,34.63,0
-0.1333374828100204,-0.7854294180870056,0.1538823544979095,13.052522659301758,5.024708271026611,94.0000228881836,34.63,0
-0.1359482854604721,-0.7951276302337646,0.1547305881977081,14.08340072631836,5.032288074493408,94.00001525878906,34.63,0
-0.1488192975521087,-0.8181447386741638,0.1664704829454422,12.201330184936523,5.037152290344238,94.00000762939452,34.63,0
-0.1570791751146316,-0.8665024638175964,0.174004465341568,6.264525413513184,5.040274143218994,94.00000762939452,34.63,0
-0.1567821204662323,-0.9591111540794371,0.195632666349411,-2.048671245574951,5.109756946563721,91.55310821533205,34.63,0
-0.1565914899110794,-1.0129443407058716,0.2207079529762268,-10.650911331176758,5.154346942901611,89.98282623291016,34.63,0
-0.1676646918058395,-1.13705575466156,0.2200064957141876,-19.094715118408203,5.182962417602539,88.97511291503906,34.63,0
-0.202759712934494,-1.1831166744232178,0.2083607912063598,-27.66613006591797,5.201326370239258,88.32841491699219,34.63,0
-0.2252816706895828,-1.1511003971099854,0.2120828032493591,-35.50260925292969,5.21311092376709,87.91340637207031,34.63,0
-0.2341371923685073,-1.0409897565841677,0.1920802742242813,-40.60326385498047,5.220673561096191,87.6470718383789,34.63,0
-0.2118312865495681,-0.9815226793289183,0.1680482625961303,-40.888702392578125,5.225526809692383,87.47615814208984,34.63,0
-0.1247455775737762,-0.9377623200416564,0.1806147694587707,-35.31467819213867,5.228641510009766,87.36647033691406,34.63,0
-0.0800545290112495,-0.8816906213760376,0.1718859076499939,-25.73319435119629,5.282971858978272,87.29608154296875,34.63,0
-0.0681677088141441,-0.8457069993019104,0.1494909077882766,-16.628725051879883,5.317837715148926,87.25090789794922,34.63,0
-0.0773327574133873,-0.8170170187950134,0.1295213103294372,-10.065902709960938,5.340212821960449,87.221923828125,34.63,0
-0.0888121351599693,-0.7874099016189575,0.1279015094041824,-2.53679633140564,5.35457181930542,87.20332336425781,34.63,0
-0.1129722595214843,-0.7796052694320679,0.1492531150579452,9.692968368530272,5.363786697387695,87.1913833618164,34.63,0
-0.1284768432378769,-0.8137811422348022,0.1909442245960235,24.48077774047852,5.369699954986572,87.18372344970703,34.63,0
-0.1384267807006836,-0.8525065779685974,0.2288947254419326,36.61826705932617,5.373495101928711,87.17880249023438,34.63,0
-0.1504098623991012,-0.9221405386924744,0.2532491683959961,43.8771858215332,5.375930309295654,87.17565155029297,34.63,0
-0.1636976897716522,-1.0228053331375122,0.2688784599304199,47.01652908325195,5.4054951667785645,87.17362976074219,34.63,0
-0.1834205985069275,-1.12099289894104,0.3012995421886444,46.96403503417969,5.424468040466309,87.17232513427734,34.63,0
-0.2184687256813049,-1.239981770515442,0.3221055269241333,44.82379150390625,5.436643600463867,87.17149353027344,34.63,0
-0.2465583682060241,-1.2827552556991575,0.3410553634166717,42.23939514160156,5.444457530975342,87.17095947265625,34.63,0
-0.2254002541303634,-1.1254782676696775,0.3252274096012115,39.824954986572266,5.449471950531006,87.17061614990234,34.63,0
-0.2174199819564819,-1.0245469808578491,0.2814832925796509,36.8281478881836,5.4526896476745605,87.17039489746094,34.63,0
-0.2122986912727356,-1.0661327838897705,0.2142264246940612,32.9453010559082,5.454754829406738,87.17024993896484,34.63,0
-0.1810232698917389,-1.1040157079696655,0.1486737430095672,29.342912673950195,5.456079959869385,87.17015838623047,34.63,0
-0.1497569680213928,-1.0779469013214111,0.1122035756707191,27.353540420532227,5.469189643859863,87.17009735107422,34.65,0
-0.1128987222909927,-0.960457444190979,0.1055924445390701,26.38497734069824,5.477602481842041,87.17005920410156,34.65,0
-0.0948430001735687,-0.8682661652565002,0.0957520231604576,24.01152992248535,5.483001708984375,87.17003631591797,34.65,0
-0.0944514274597168,-0.7923097610473633,0.0894370079040527,19.052698135375977,5.486466407775879,87.1700210571289,34.65,0
-0.0886023640632629,-0.7603586316108704,0.0965799465775489,13.724441528320312,5.48868989944458,87.17001342773438,34.65,0
-0.0904465466737747,-0.7566475868225098,0.0955660939216613,10.835294723510742,5.490117073059082,87.17000579833984,34.65,0
-0.1196189075708389,-0.7878527045249939,0.1005132421851158,9.543670654296877,5.491032600402832,87.17000579833984,34.65,0
-0.1439378261566162,-0.8190738558769226,0.1204813569784164,6.482836246490479,5.491620063781738,87.17000579833984,34.65,0
-0.1427509784698486,-0.8894897699356079,0.1276979744434356,0.7496991753578186,5.4754719734191895,85.52201843261719,34.65,0
-0.1307937800884246,-0.9570697546005248,0.1715136021375656,-4.735116481781006,5.465108871459961,84.46443176269531,34.65,0
-0.1399136632680893,-0.994840919971466,0.2052297294139862,-6.907907009124756,5.458458423614502,83.78573608398438,34.65,0
-0.1569618284702301,-1.0526669025421145,0.2156712412834167,-5.554443359375,5.454190731048584,83.35018920898438,34.65,0
-0.1735001355409622,-1.0729830265045166,0.2223720103502273,-2.633052110671997,5.451451778411865,83.0706787109375,34.65,0
-0.184113472700119,-1.04123854637146,0.2490632683038711,-0.2352155148983001,5.4496941566467285,82.89130401611328,34.65,0
-0.2133155912160873,-1.032062292098999,0.2493988573551178,0.5619847178459167,5.448566436767578,82.77619171142578,34.65,0
-0.198469191789627,-1.0317713022232056,0.2664075493812561,0.1886858344078064,5.447842597961426,82.70232391357422,34.65,0
-0.1329638808965683,-1.0035957098007202,0.2885182797908783,0.586822509765625,5.420294284820557,82.65491485595703,34.65,0
-0.1077196598052978,-0.9519275426864624,0.291512131690979,3.213988780975342,5.402615070343018,82.62449645996094,34.65,0
-0.130703791975975,-0.8515965938568115,0.2766400873661041,6.35089635848999,5.391269683837891,82.60497283935547,34.65,0
-0.1454536914825439,-0.7928077578544617,0.2726938426494598,6.930952548980713,5.383988857269287,82.59244537353516,34.65,0
-0.1605170965194702,-0.760678231716156,0.2701613903045654,5.637301445007324,5.379316329956055,82.58440399169922,34.65,0
-0.1757816970348358,-0.7624504566192627,0.2685361802577972,6.566154956817627,5.376317977905273,82.5792465209961,34.65,0
-0.1911754161119461,-0.7803810834884644,0.2674932181835174,11.135316848754885,5.374393939971924,82.57593536376953,34.65,0
-0.1954564452171325,-0.8030834794044495,0.2724216878414154,16.163349151611328,5.373158931732178,82.57380676269531,34.65,0
-0.198203757405281,-0.8456414341926575,0.2699867188930511,18.265121459960938,5.33610200881958,82.57244110107422,34.65,0
-0.1999668329954147,-0.9065393209457396,0.2684240937232971,16.869665145874023,5.312320709228516,82.57156372070312,34.65,0
-0.2066960483789444,-0.9960000514984132,0.2786168456077575,13.233470916748049,5.297059535980225,82.57100677490234,34.65,0
-0.2110144644975662,-1.0534107685089111,0.2851579785346985,9.108682632446287,5.287265777587891,82.57064819335938,34.65,0
-0.2417746484279632,-1.196611404418945,0.3005512356758117,5.791689872741699,5.280980587005615,82.57041931152344,34.65,0
-0.2391236722469329,-1.1821516752243042,0.3048319816589355,2.889198064804077,5.276947021484375,82.57026672363281,34.65,0
-0.2206290960311889,-1.1112966537475586,0.2739924490451813,-0.8435584306716919,5.274358749389648,82.5701675415039,34.65,0
-0.1639781445264816,-1.0714237689971924,0.2430058717727661,-4.697134971618652,5.272697448730469,82.57010650634766,34.65,0
-0.1052317321300506,-1.0738245248794556,0.2119249254465103,-5.579474925994873,5.238580226898193,82.570068359375,34.66,0
-0.0787272155284881,-1.047376275062561,0.1807834208011627,-1.5241873264312744,5.216685771942139,82.5700454711914,34.66,0
-0.0673159211874008,-0.9520345330238342,0.1552008092403412,5.312866687774658,5.202634811401367,82.57003021240234,34.66,0
-0.054395031183958,-0.8852518796920776,0.1275878250598907,10.667790412902832,5.193617820739746,82.57002258300781,34.66,0
-0.046103149652481,-0.8311991095542908,0.1042696163058281,13.301774978637695,5.187831401824951,82.57001495361328,34.66,0
-0.0407818965613842,-0.7909133434295654,0.0949031114578247,15.676386833190918,5.184117794036865,82.57000732421875,34.66,0
-0.0597581192851066,-0.7874513864517212,0.0888922289013862,18.91633033752441,5.181734561920166,82.57000732421875,34.66,0
-0.0831315144896507,-0.8188163638114929,0.0906325653195381,20.71968078613281,5.180205345153809,82.57000732421875,34.66,0
-0.1037289872765541,-0.8445423245429993,0.0973471850156784,19.64143943786621,5.147549629211426,81.29102325439453,34.66,0
-0.1281428188085556,-0.900236189365387,0.1016562432050705,17.39106559753418,5.126593112945557,80.47024536132812,34.66,0
-0.1438101977109909,-0.963966190814972,0.1156170964241027,15.445344924926758,5.113144397735596,79.94351959228516,34.66,0
-0.1202779784798622,-1.0048644542694092,0.1693585664033889,13.125503540039062,5.104513645172119,79.60549926757812,34.66,0
-0.1275674551725387,-1.0814905166625977,0.209444522857666,9.637685775756836,5.09897518157959,79.3885726928711,34.66,0
-0.1434409618377685,-1.1586536169052124,0.2071805000305175,5.1101393699646,5.095420837402344,79.2493667602539,34.66,0
-0.1480298936367035,-1.1577924489974976,0.2505097687244415,-0.113305740058422,5.093140125274658,79.16002655029297,34.66,0
-0.1453770399093628,-1.0732731819152832,0.2783160209655761,-5.095484256744385,5.091676235198975,79.10269927978516,34.66,0
-0.1604679077863693,-0.968653678894043,0.2681715786457062,-7.90584135055542,5.0705389976501465,79.06590270996094,34.66,0
-0.0973812937736511,-0.9295037388801576,0.2784548103809356,-7.344866752624512,5.056974411010742,79.04228973388672,34.66,0
-0.0568959340453147,-0.9267706871032716,0.2794561982154846,-4.960710525512695,5.048269271850586,79.02713775634766,34.66,0
-0.0700991824269294,-0.891430139541626,0.2577077448368072,-4.122133255004883,5.042683124542236,79.01741790771484,34.66,0
-0.0953655913472175,-0.8799461722373962,0.2325552850961685,-6.220757961273193,5.039098262786865,79.01117706298828,34.66,0
-0.1115801185369491,-0.8557830452919006,0.2108161151409149,-8.366449356079102,5.036797523498535,79.00717163085938,34.66,0
-0.1219856664538383,-0.8346787691116333,0.2024629414081573,-6.135776996612549,5.035321235656738,79.00460052490234,34.66,0
-0.1398589015007019,-0.8211352825164795,0.2138956785202026,1.7407938241958618,5.034373760223389,79.0029525756836,34.66,0
-0.156926691532135,-0.8124438524246216,0.2548191845417022,12.670948028564451,5.017698764801025,79.00189208984375,34.66,0
-0.1622820347547531,-0.8068661689758301,0.2922770977020263,23.1711368560791,5.006997585296631,79.00121307373047,34.66,0
-0.1657187938690185,-0.8368734121322632,0.3331087529659271,30.91983985900879,5.0001301765441895,79.00077819824219,34.66,0
-0.1903153955936432,-0.9344991445541382,0.3537143766880035,34.685184478759766,4.995723247528076,79.00049591064453,34.66,0
-0.2005023062229156,-0.9915519952774048,0.3669378757476806,34.24983596801758,4.992895126342773,79.00032043457031,34.66,0
-0.2070396840572357,-1.0281652212142944,0.3698261976242065,30.291149139404297,4.991080284118652,79.00020599365234,34.66,0
-0.2392238676548004,-1.107639193534851,0.3604842126369476,23.705963134765625,4.989915370941162,79.00012969970703,34.66,0
-0.2598778307437897,-1.1922277212142944,0.3488912880420685,15.861568450927734,4.989168167114258,79.00008392333984,34.66,0
-0.2563390135765075,-1.1289584636688232,0.2966694235801697,9.35146713256836,4.979507923126221,79.00005340576172,34.66,0
-0.2484702467918396,-1.0827580690383911,0.24636310338974,6.588775634765625,4.973308086395264,79.00003051757812,34.66,0
-0.2434205114841461,-1.0363160371780396,0.1916882991790771,7.269903659820557,4.969329833984375,79.0000228881836,34.66,0
-0.2345821112394333,-1.034501075744629,0.1566011607646942,8.477266311645508,4.966776371002197,79.00001525878906,34.66,0
-0.195323497056961,-0.9661630392074584,0.1396820247173309,7.274500370025635,4.965137958526611,79.00000762939453,34.66,0
-0.164531797170639,-0.9111120700836182,0.1120309829711914,3.127847909927368,4.964086532592773,79.00000762939453,34.66,0
-0.1447714567184448,-0.8701857924461365,0.0886883586645126,-1.729353666305542,4.963411808013916,79.00000762939453,34.66,0
-0.1208948567509651,-0.8663127422332764,0.0681106299161911,-4.817765235900879,4.962978839874268,79.00000762939453,34.66,0
-0.0943766832351684,-0.8750227689743042,0.054905030876398,-6.552532196044922,4.954437732696533,78.04345703125,34.66,0
-0.0605655238032341,-0.8918079137802124,0.0520282126963138,-9.22422695159912,4.948956489562988,77.42959594726562,34.66,0
-0.0276719182729721,-0.9193729758262634,0.0613775849342346,-13.15996265411377,4.945438861846924,77.03565979003906,34.66,0
-0.0065626953728497,-0.931464910507202,0.0785730183124542,-16.24457359313965,4.94318151473999,76.78285217285156,34.66,0
0.0125817628577351,-0.9840070009231568,0.0784125104546547,-16.7767391204834,4.941732883453369,76.62061309814453,34.66,0
-0.0031212973408401,-1.1072899103164673,0.06711395829916,-14.703596115112305,4.940803050994873,76.5165023803711,34.66,0
-0.0355897173285484,-1.0408636331558228,0.1102431714534759,-11.03733253479004,4.940206527709961,76.4496841430664,34.66,0
-0.0508283041417598,-1.0094306468963623,0.1547143310308456,-7.480790615081787,4.939823627471924,76.40680694580078,34.66,0
-0.0438142269849777,-1.039638638496399,0.2168400138616562,-5.227067470550537,4.934987545013428,76.37928771972656,34.66,0
-0.0001285768230445,-1.0422310829162598,0.2679042518138885,-3.565803050994873,4.931884288787842,76.36163330078125,34.66,0
0.0167108103632926,-0.999112606048584,0.2894787788391113,-0.4218054115772247,4.929892539978027,76.35030364990234,34.66,0
-0.000471512612421,-0.943452775478363,0.2921285331249237,5.715793609619141,4.928614616394043,76.34303283691406,34.66,0
-0.0394870117306709,-0.9077335000038148,0.2938289940357208,14.1005277633667,4.927794456481934,76.33836364746094,34.66,0
-0.0701226890087127,-0.8848109245300293,0.2893224656581878,21.494775772094727,4.927268028259277,76.33536529541016,34.66,0
-0.0953806787729263,-0.8812960982322693,0.2864304482936859,24.76395606994629,4.926929950714111,76.33344268798828,34.66,0
-0.1059920266270637,-0.884638249874115,0.290172278881073,24.601322174072266,4.926712989807129,76.33220672607422,34.66,0
-0.1128017753362655,-0.9035763740539552,0.2869758009910583,24.84088134765625,4.964809894561768,76.33141326904297,34.66,0
-0.1171718835830688,-0.9157297611236572,0.2849244773387909,27.21581268310547,4.989258289337158,76.3309097290039,34.66,0
-0.1143785938620567,-0.9291268587112428,0.283608078956604,29.155487060546875,5.004947662353516,76.33058166503906,34.66,0
-0.101390466094017,-0.9601154923439026,0.2715677320957184,27.79930877685547,5.015016078948975,76.33037567138672,34.66,0
-0.0986532121896743,-1.041577696800232,0.2582431435585022,23.86947059631348,5.021477699279785,76.33023834228516,34.66,0
-0.0745055004954338,-1.0658665895462036,0.238496646285057,20.4124755859375,5.02562427520752,76.33015441894531,34.66,0
-0.0310200192034244,-0.9862916469573976,0.2146289348602295,19.48728370666504,5.028285503387451,76.3301010131836,34.66,0
0.0024842335842549,-0.929627239704132,0.1881164610385894,20.079381942749023,5.029993057250977,76.33006286621094,34.66,0
-0.0151990847662091,-0.97722989320755,0.1319178640842437,18.26323699951172,5.117389678955078,76.33003997802734,34.68,0
0.0014416507910937,-1.0357674360275269,0.0902550667524337,10.921380043029783,5.173475742340088,76.33002471923828,34.68,0
0.0121207172051072,-1.0341490507125854,0.0579205080866813,-0.1707684695720672,5.209468364715576,76.33001708984375,34.68,0
0.0077783786691725,-0.9995238184928894,0.0259744990617036,-9.811203956604004,5.232566356658936,76.33000946044922,34.68,0
0.00499171577394,-0.9773033261299132,-0.0001243841979885,-14.306904792785645,5.247389316558838,76.33000946044922,34.68,0
-0.0023943786509335,-0.9574456810951232,-0.0168731454759836,-13.609411239624023,5.25690221786499,76.33000946044922,34.68,0
-0.0183298978954553,-0.9558977484703064,-0.0220237616449594,-10.374556541442873,5.263006687164307,76.33000946044922,34.68,0
-0.0341541729867458,-0.977295458316803,-0.0141335828229784,-7.965433120727539,5.266924381256104,76.33000946044922,34.68,0
-0.0611026026308536,-0.991027295589447,-0.0202656686305999,-7.569403171539307,5.370428562164307,75.60274505615234,34.68,0
-0.0951898768544197,-0.9998396039009094,-0.029798662289977,-7.594695091247559,5.436851501464844,75.13602447509766,34.68,0
-0.1338584572076797,-0.994299292564392,-0.0415141619741916,-7.112947940826416,5.479478359222412,74.83650970458984,34.68,0
-0.1642714887857437,-0.9795482754707336,-0.0434347242116928,-7.617034912109375,5.506833553314209,74.64430236816406,34.68,0
-0.2005821466445922,-0.9756796956062316,-0.0558627769351005,-9.97184944152832,5.524388790130615,74.52095794677734,34.68,0
-0.251873105764389,-0.9955881834030152,-0.0582406111061573,-12.679614067077637,5.535654544830322,74.44180297851562,34.68,0
-0.2903864681720733,-1.002766489982605,-0.0485710203647613,-14.668081283569336,5.542884349822998,74.39099884033203,34.68,0
-0.2983088195323944,-0.9905798435211182,-0.01997453533113,-16.70725440979004,5.5475239753723145,74.3583984375,34.68,0
-0.3089906871318817,-0.9771613478660583,0.0151703655719757,-19.19812774658203,5.690375804901123,74.33747863769531,34.68,0
-0.3214434683322906,-0.9461590647697448,0.0825065374374389,-21.34476089477539,5.782050132751465,74.32405090332031,34.68,0
-0.2958483099937439,-0.9206658005714417,0.187294527888298,-22.37125396728516,5.84088134765625,74.31543731689453,34.68,0
-0.2738250195980072,-0.92669677734375,0.2657369673252105,-22.094945907592773,5.878635883331299,74.30990600585938,34.68,0
-0.2261051088571548,-0.9193715453147888,0.3216745853424072,-21.387407302856445,5.902864456176758,74.30635833740234,34.68,0
-0.1786878854036331,-0.9034751057624816,0.3575721383094787,-21.280858993530277,5.918413162231445,74.30408477783203,34.68,0
-0.1650515645742416,-0.8764803409576416,0.3526202440261841,-19.600322723388672,5.928391456604004,74.30261993408203,34.68,0
-0.1618983447551727,-0.8367655873298645,0.3270513117313385,-11.851096153259276,5.934794902801514,74.30168151855469,34.68,0
-0.1598747819662094,-0.8168767094612122,0.3050448596477508,1.7845793962478638,6.022648334503174,74.30107879638672,34.68,0
-0.1473806202411651,-0.8209065198898315,0.2741290628910064,14.837844848632812,6.079027652740479,74.30068969726562,34.68,0
-0.1393625885248184,-0.834688127040863,0.2486913204193115,22.10049819946289,6.115208625793457,74.30044555664062,34.68,0
-0.1230215355753898,-0.8603256940841675,0.2211712896823883,24.1173095703125,6.138427257537842,74.30028533935547,34.68,0
-0.1125347837805748,-0.887973964214325,0.1979127526283264,23.358766555786133,6.153327941894531,74.30018615722656,34.68,0
-0.0946094468235969,-0.9225103855133056,0.1773889809846878,20.726015090942383,6.1628899574279785,74.30011749267578,34.68,0
-0.0775082185864448,-0.9670649766921996,0.1586202383041381,16.71854019165039,6.169026374816895,74.30007934570312,34.68,0
-0.0553380884230136,-0.9788641929626464,0.1409777551889419,12.477293968200684,6.172964572906494,74.300048828125,34.68,0
-0.035512801259756,-0.9584473967552184,0.1240580528974533,8.472944259643555,6.191099643707275,74.30003356933594,34.68,0
-0.0227900724858045,-0.9453450441360474,0.1243955120444297,4.606290340423584,6.202737808227539,74.3000259399414,34.68,0
-0.0146253565326333,-0.9369367361068726,0.1246120780706405,2.0424952507019043,6.210206508636475,74.30001831054688,34.68,0
0.0074076107703149,-0.9427363276481628,0.1303488314151764,2.041601181030273,6.214999675750732,74.30001068115234,34.68,0
0.0159493274986743,-0.9576537013053894,0.1340303421020507,2.9832448959350586,6.218075275421143,74.30001068115234,34.68,0
0.0326264575123786,-0.989617884159088,0.1363929212093353,1.9968740940093996,6.220049381256104,74.30001068115234,34.68,0
0.048926655203104,-0.9989351034164428,0.1267135441303253,-0.5742953419685364,6.221315860748291,74.30001068115234,34.68,0
0.0593871846795082,-1.010512113571167,0.1149041056632995,-2.1920807361602783,6.222128868103027,74.30001068115234,34.68,0
0.0605023726820945,-1.023539423942566,0.0961299389600753,-3.097726821899414,6.196025848388672,73.7052993774414,34.68,0
0.0556202642619609,-1.0318995714187622,0.0840817615389823,-5.953854084014893,6.179274082183838,73.32364654541016,34.68,0
0.0524872057139873,-1.0260690450668335,0.0819477066397667,-11.036148071289062,6.168523788452148,73.07872772216797,34.68,0
0.0336832664906978,-1.0167295932769775,0.0917737409472465,-15.676963806152344,6.161624908447266,72.92154693603516,34.68,0
0.021615982055664,-1.010736107826233,0.0980795249342918,-17.802518844604492,6.15719747543335,72.8206787109375,34.68,0
0.013871893286705,-1.0180853605270386,0.1021262109279632,-17.11734390258789,6.154356479644775,72.75595092773438,34.68,0
0.014499956741929,-1.0283994674682615,0.104723148047924,-14.030115127563477,6.152533054351807,72.71440887451172,34.68,0
0.0260985624045133,-1.0518118143081665,0.1063897088170051,-9.691575050354004,6.151362895965576,72.68775177001953,34.68,0
0.027944104745984,-1.083629846572876,0.1018614396452903,-5.746594905853272,6.10700273513794,72.67064666748047,34.68,0
0.0347262397408485,-1.1040488481521606,0.1045532301068306,-2.810102701187134,6.078535079956055,72.65966796875,34.68,0
0.0334808491170406,-1.1283481121063232,0.1062806621193885,-0.0765605643391609,6.060266017913818,72.65261840820312,34.68,0
0.0270838569849729,-1.138344168663025,0.1129870042204856,3.2325072288513184,6.048542022705078,72.6480941772461,34.68,0
0.0229786355048418,-1.1223679780960083,0.1228885278105735,6.918079376220703,6.041018486022949,72.64519500732422,34.68,0
0.0203441400080919,-1.1009198427200315,0.1404383033514022,10.662559509277344,6.036190032958984,72.6433334350586,34.68,0
0.0242512468248605,-1.0647644996643066,0.1572985053062439,15.147027015686035,6.0330915451049805,72.64213562011719,34.68,0
0.0267586037516593,-1.0135732889175415,0.1737161874771118,21.220558166503903,6.031103134155273,72.64137268066406,34.68,0
0.0227699056267738,-0.9695261120796204,0.1898498982191085,27.91977310180664,5.970609664916992,72.64088439941406,34.68,0
0.0146124148741364,-0.9300636649131776,0.2281924486160278,32.476890563964844,5.931788444519043,72.64056396484375,34.68,0
-0.0074159163050353,-0.882347822189331,0.2472007125616073,32.46367263793945,5.9068756103515625,72.6403579711914,34.68,0
-0.0271502062678337,-0.8517265319824219,0.2593991160392761,27.267621994018555,5.89088773727417,72.64022827148438,34.68,0
-0.0622056350111961,-0.8656622171401978,0.2728251218795776,18.132905960083008,5.880627632141113,72.64014434814453,34.68,0
-0.0958977416157722,-0.9193875193595886,0.2758434116840362,7.620587825775146,5.8740434646606445,72.64009094238281,34.68,0
-0.145508274435997,-1.0322341918945312,0.2665848135948181,-1.826874852180481,5.869817733764648,72.64006042480469,34.68,0
-0.1829432249069214,-1.0150883197784424,0.2886320650577545,-9.526948928833008,5.867105960845947,72.6400375366211,34.68,0
-0.2069668173789978,-0.9593028426170348,0.3139762580394745,-16.116397857666016,5.785032749176025,72.64002227783203,34.71,0
-0.2111882269382476,-0.878720760345459,0.3470340371131897,-21.68501091003418,5.732362747192383,72.6400146484375,34.71,0
-0.2138972878456115,-0.8214100003242493,0.3794441521167755,-25.348190307617188,5.6985626220703125,72.64000701904297,34.71,0
-0.2324291318655014,-0.7846312522888184,0.4002431035041809,-26.308969497680664,5.676871299743652,72.64000701904297,34.71,0
-0.2667129039764404,-0.7666265964508057,0.4079928994178772,-24.489389419555664,5.6629509925842285,72.64000701904297,34.71,0
-0.2999098002910614,-0.7718655467033386,0.4185640513896942,-20.59893035888672,5.654017925262451,72.64000701904297,34.71,0
-0.3324092030525207,-0.8032164573669434,0.4197502136230469,-16.149755477905273,5.648285388946533,72.64000701904297,34.71,0
-0.3588632345199585,-0.8233357071876526,0.4149136543273926,-12.789387702941896,5.644606590270996,72.64000701904297,34.71,0
-0.3646443486213684,-0.8306492567062378,0.4230053722858429,-11.320751190185549,5.554108619689941,72.17068481445312,34.71,0
-0.3739521205425262,-0.8241471648216248,0.4281981885433197,-11.492445945739746,5.496032238006592,71.8695068359375,34.71,0
-0.3799253106117248,-0.8087789416313171,0.4371283948421478,-12.526933670043944,5.458762168884277,71.67622375488281,34.71,0
-0.3781607747077942,-0.7877209186553955,0.4652504026889801,-13.710282325744627,5.434844493865967,71.55218505859375,34.71,0
-0.3826261758804321,-0.7742071151733398,0.4832974970340729,-14.82436180114746,5.419495582580566,71.47258758544922,34.71,0
-0.3854918181896209,-0.7599369883537292,0.4780857563018799,-16.191343307495117,5.4096455574035645,71.4215087890625,34.71,0
-0.3929286003112793,-0.7563769817352295,0.4691433906555176,-18.172025680541992,5.403324127197266,71.38872528076172,34.71,0
-0.3977010846138,-0.7596901655197144,0.4578069150447845,-20.521469116210938,5.399267673492432,71.36768341064453,34.71,0
-0.3951660096645355,-0.7618163824081421,0.4505318105220794,-22.548681259155277,5.407942295074463,71.35418701171875,34.71,0
-0.3823436200618744,-0.7687786221504211,0.4458630681037903,-24.107574462890625,5.413509368896484,71.34552001953125,34.71,0
-0.3685171604156494,-0.7900398969650269,0.4428669214248657,-25.88898277282715,5.417081832885742,71.33995819091797,34.71,0
-0.3484485745429992,-0.8148797154426575,0.446541965007782,-28.400733947753903,5.419374465942383,71.33638763427734,34.71,0
-0.3355697393417358,-0.8420160412788391,0.4489004015922546,-31.08740234375,5.42084550857544,71.33409881591797,34.71,0
-0.3273048400878906,-0.8650283217430115,0.4504138827323913,-32.89753341674805,5.421789646148682,71.33263397216797,34.71,0
-0.3164031207561493,-0.8797963261604309,0.4513851702213287,-33.34624099731445,5.422395706176758,71.3316879272461,34.71,0
-0.303809255361557,-0.8892735838890076,0.4408129155635834,-32.305057525634766,5.422784328460693,71.33108520507812,34.71,0
-0.2901294529438019,-0.9009532928466796,0.422832727432251,-28.89263343811035,5.588290691375732,71.33069610595703,34.71,0
-0.2757527828216553,-0.902850866317749,0.405696302652359,-21.629810333251957,5.694503307342529,71.3304443359375,34.71,0
-0.2665266394615173,-0.8928731083869934,0.3835035860538482,-10.165637016296388,5.762664318084717,71.33028411865234,34.71,0
-0.2606058418750763,-0.8808721303939819,0.3636637926101684,3.794097185134888,5.806406497955322,71.33018493652344,34.71,0
-0.2568062245845794,-0.8675728440284729,0.3509317636489868,17.71451759338379,5.834477424621582,71.33011627197266,34.71,0
-0.2543678283691406,-0.8646358847618103,0.3427610695362091,29.478076934814453,5.852491855621338,71.330078125,34.71,0
-0.2472052425146103,-0.8627511262893677,0.3375175893306732,37.3855094909668,5.864052295684815,71.33004760742188,34.71,0
-0.2426087111234665,-0.8671393990516663,0.3397504091262817,40.27109146118164,5.871471405029297,71.33003234863281,34.71,0
-0.239658921957016,-0.87555330991745,0.3467810750007629,38.24296188354492,5.9478440284729,71.33002471923828,34.68,0
-0.2433636933565139,-0.8809528350830078,0.3512929379940033,32.64591979980469,5.99685525894165,71.33001708984375,34.68,0
-0.2457412034273147,-0.8844179511070251,0.359786182641983,25.37833595275879,6.028307914733887,71.33000946044922,34.68,0
-0.247266948223114,-0.8866416811943054,0.3708344101905823,18.726089477539062,6.048492431640625,71.33000946044922,34.68,0
-0.2482460886240005,-0.882470965385437,0.3891201019287109,14.983698844909668,6.061445713043213,71.33000946044922,34.68,0
-0.2488744407892227,-0.8797944188117981,0.4008547961711883,15.00386905670166,6.069758415222168,71.33000946044922,34.68,0
-0.2492776811122894,-0.8780767917633057,0.4027876555919647,17.323991775512695,6.0750932693481445,71.33000946044922,34.68,0
-0.2551342248916626,-0.8825722932815552,0.3928325176239013,19.53301048278809,6.078516483306885,71.33000946044922,34.68,0
-0.2588926255702972,-0.8854572176933289,0.3864438831806183,20.212621688842773,6.245708465576172,70.88218688964844,34.68,0
-0.2669023275375366,-0.8873085975646973,0.3711484670639038,19.00435447692871,6.353003025054932,70.59479522705078,34.68,0
-0.2720424830913543,-0.8884966969490051,0.3613327443599701,15.538443565368652,6.421858310699463,70.41036987304688,34.68,0
-0.2753411531448364,-0.8892591595649719,0.3550336062908172,9.806879997253418,6.46604585647583,70.2920150756836,34.68,0
-0.2774580419063568,-0.8897484540939331,0.3509911596775055,3.3127880096435547,6.494402885437012,70.21605682373047,34.68,0
-0.2732187509536743,-0.8956602811813354,0.3539947271347046,-1.406462788581848,6.512600421905518,70.16731262207031,34.68,0
-0.2649004459381103,-0.8938563466072083,0.3615200221538543,-2.3965208530426025,6.52427864074707,70.13603210449219,34.68,0
-0.2595622539520263,-0.8871009349822998,0.3663493394851684,1.0773310661315918,6.531773090362549,70.11595916748047,34.68,0
-0.2561365067958832,-0.8827657103538513,0.3694485127925873,8.40823745727539,6.556628704071045,70.10308074951172,34.68,0
-0.2539380490779876,-0.8743858337402344,0.3714373707771301,17.28649139404297,6.572579383850098,70.09481048583984,34.68,0
-0.2525272071361542,-0.8690080642700195,0.3671159446239471,24.406326293945312,6.582815647125244,70.08950805664062,34.68,0
-0.251621812582016,-0.8711547255516052,0.3643426895141601,27.62479591369629,6.58938455581665,70.08610534667969,34.68,0
-0.2510407865047455,-0.872532308101654,0.3681607544422149,27.160924911499023,6.593600273132324,70.08391571044922,34.68,0
-0.250667929649353,-0.8734163641929626,0.3706109523773193,24.520235061645508,6.596305847167969,70.08251190185547,34.68,0
-0.2448308616876602,-0.8739837408065796,0.3777811229228973,20.53274345397949,6.598042011260986,70.08161163330078,34.68,0
-0.2354871928691864,-0.8743478059768677,0.3823825418949127,14.82830047607422,6.599156379699707,70.0810317993164,34.68,0
-0.2294909656047821,-0.8857769966125488,0.3853354752063751,7.0690507888793945,6.565902233123779,70.0806655883789,34.68,0
-0.2312407046556472,-0.8875138163566589,0.3872304856777191,-1.8512227535247805,6.544561386108398,70.08042907714844,34.68,0
-0.2267658114433288,-0.8830306529998779,0.3828488290309906,-10.219680786132812,6.530866146087647,70.08027648925781,34.68,0
-0.2238940894603729,-0.8745558261871338,0.3744391500949859,-16.876220703125,6.522077083587647,70.0801773071289,34.68,0
-0.2276489585638046,-0.8691172003746033,0.3634445369243622,-21.860937118530277,6.51643705368042,70.08011627197266,34.68,0
-0.2356563955545425,-0.8712247610092163,0.3563888072967529,-25.74053001403809,6.5128173828125,70.080078125,34.68,0
-0.2407951056957245,-0.8725772500038147,0.3518608510494232,-28.60281753540039,6.510494709014893,70.08004760742188,34.68,0
-0.2440928220748901,-0.8734452128410339,0.3545528650283813,-29.945274353027344,6.50900411605835,70.08003234863281,34.68,0
-0.2462091147899627,-0.87400221824646,0.3618782162666321,-29.201791763305664,6.462601661682129,70.08002471923828,34.73,0
-0.2531650066375732,-0.8799574375152588,0.3609814345836639,-26.173873901367188,6.432823181152344,70.08001708984375,34.73,0
-0.2576288878917694,-0.8893769383430481,0.3604059219360351,-21.46498107910156,6.413713455200195,70.08000946044922,34.73,0
-0.2604935467243194,-0.8954218626022339,0.3600365817546844,-16.6159725189209,6.401449680328369,70.08000946044922,34.73,0
-0.2623319327831268,-0.8937033414840698,0.3653973340988159,-13.059918403625488,6.393579483032227,70.08000946044922,34.73,0
-0.2579139173030853,-0.88700270652771,0.3688375651836395,-10.602300643920898,6.388528823852539,70.08000946044922,34.73,0
-0.2550787031650543,-0.882702648639679,0.3710452914237976,-7.7676591873168945,6.385287761688232,70.08000946044922,34.73,0
-0.2476614415645599,-0.8855409026145935,0.3724620938301086,-3.6915268898010254,6.38320779800415,70.08000946044922,34.73,0
-0.242901474237442,-0.8873623013496399,0.3733713030815124,1.131166934967041,6.306589126586914,69.74324035644531,34.73,0
-0.239846795797348,-0.8885312080383301,0.3683570325374603,5.798844814300537,6.257419586181641,69.5271224975586,34.73,0
-0.2378864884376526,-0.8780857920646667,0.3595413863658905,9.639780044555664,6.225865364074707,69.38843536376953,34.73,0
-0.2366284728050232,-0.8769803047180176,0.3482862412929535,12.018689155578612,6.205615997314453,69.29943084716797,34.73,0
-0.2414189279079437,-0.8762708306312561,0.3466610908508301,12.423989295959473,6.192620754241943,69.2423095703125,34.73,0
-0.244493156671524,-0.8758155703544617,0.3456181585788727,10.985947608947754,6.184281349182129,69.20565795898438,34.73,0
-0.2464660257101059,-0.8811211585998535,0.350546658039093,8.554830551147461,6.178929805755615,69.18213653564453,34.73,0
-0.2477321028709411,-0.8845259547233582,0.3537094891071319,6.170687198638916,6.175495147705078,69.16703796386719,34.73,0
-0.2485445886850357,-0.8867110013961792,0.3613369762897491,4.551116943359375,6.089285850524902,69.1573486328125,34.73,0
-0.2490659952163696,-0.8881132006645203,0.3662318587303161,4.077816963195801,6.033961772918701,69.15113067626953,34.73,0
-0.2494006156921386,-0.8890130519866943,0.3693731129169464,4.809444427490234,5.998457908630371,69.14714050292969,34.73,0
-0.2496153563261032,-0.8895905613899231,0.3713890016078949,6.038466930389404,5.975673675537109,69.14458465576172,34.73,0
-0.2497531622648239,-0.8899611830711365,0.3670848906040191,6.533411502838135,5.961051940917969,69.1429443359375,34.73,0
-0.2498416006565094,-0.8901990056037903,0.3643227517604828,5.744022846221924,5.951668739318848,69.14189147949219,34.73,0
-0.2498983442783355,-0.8903515934944153,0.3625501692295074,3.997867345809937,5.9456467628479,69.1412124633789,34.73,0
-0.2443369925022125,-0.8848517537117004,0.3614126443862915,1.5517321825027466,5.941782474517822,69.14077758789062,34.73,0
-0.2407680302858352,-0.8813222646713257,0.3550848662853241,-1.4833298921585083,5.891561508178711,69.14049530029297,34.73,0
-0.2384776771068573,-0.8790572881698608,0.3510240614414215,-4.61689043045044,5.85933256149292,69.14031982421875,34.73,0
-0.2370078563690185,-0.8776037096977234,0.3484180867671966,-7.398083209991455,5.838650226593018,69.14020538330078,34.73,0
-0.2416623830795288,-0.8822686672210693,0.3467456996440887,-9.999719619750977,5.825377464294434,69.14012908935547,34.73,0
-0.2446493953466415,-0.8852623701095581,0.345672458410263,-12.754820823669434,5.816859722137451,69.14008331298828,34.73,0
-0.2465662956237793,-0.8871835470199585,0.3505814969539642,-15.465103149414062,5.8113932609558105,69.14005279541016,34.73,0
-0.2477964460849762,-0.8884164690971375,0.3593296110630035,-17.329797744750977,5.807885646820068,69.14002990722656,34.73,0
-0.2485858798027038,-0.8892077207565308,0.364943653345108,-17.569902420043945,5.805634498596191,69.14002227783203,34.73,0
-0.2490925043821334,-0.8897154927253723,0.3685464262962341,-16.194229125976562,5.684530735015869,69.1400146484375,34.71,0
-0.2494176179170608,-0.8900413513183594,0.3652606904506683,-13.935691833496094,5.606813430786133,69.14000701904297,34.71,0
-0.2440284788608551,-0.8902504444122314,0.3575543165206909,-11.397189140319824,5.556938648223877,69.14000701904297,34.71,0
-0.2405700534582138,-0.8959823846817017,0.3414132595062256,-8.621700286865234,5.524931907653809,69.14000701904297,34.71,0
-0.2495461702346801,-0.9052585959434508,0.3310548663139343,-5.504250526428223,5.504392147064209,69.14000701904297,34.71,0
-0.260904312133789,-0.9056137800216676,0.3356029987335205,-2.2318360805511475,5.491210460662842,69.14000701904297,34.71,0
-0.2681933045387268,-0.894646167755127,0.3497172594070434,0.6456300616264343,5.482751369476318,69.14000701904297,34.71,0
-0.2672731876373291,-0.8932055830955505,0.3699705302715301,2.3596668243408203,5.477323055267334,69.14000701904297,34.71,0
-0.249889388680458,-0.9034765958786012,0.3661746084690094,2.528167247772217,5.414622783660889,69.18657684326172,34.71,0
-0.2443312406539917,-0.9100679755210876,0.3525430560111999,1.6116844415664673,5.374385356903076,69.21646118164062,34.71,0
-0.2407643347978592,-0.9031023979187012,0.3381973206996918,0.4861522018909454,5.348563194274902,69.23564147949219,34.71,0
-0.2384753078222274,-0.8930345177650452,0.3233932852745056,-0.3113836646080017,5.331992149353027,69.2479476928711,34.71,0
-0.2314085662364959,-0.8809757232666016,0.3194906711578369,-0.8446916937828064,5.321357727050781,69.25584411621094,34.71,0
-0.2212757617235183,-0.8788349032402039,0.3337795436382293,-1.6562554836273191,5.314533233642578,69.26091766357422,34.71,0
-0.2091753333806991,-0.8774610161781311,0.3541448712348938,-3.1981043815612797,5.310153484344482,69.26416778564453,34.71,0
-0.1958122104406356,-0.8821771144866943,0.3728119134902954,-5.136956691741943,5.307343006134033,69.2662582397461,34.71,0
-0.1928343027830124,-0.8908014297485352,0.3735958039760589,-6.510173320770264,5.264026641845703,69.2676010131836,34.71,0
-0.1965210288763046,-0.9019337892532348,0.3629033267498016,-6.7286481857299805,5.236228942871094,69.2684555053711,34.71,0
-0.2044847309589386,-0.9034801125526428,0.3448459506034851,-6.152337551116943,5.218389987945557,69.26900482177734,34.71,0
-0.2151931524276733,-0.9044724702835084,0.3276599943637848,-5.592618465423584,5.206942081451416,69.26936340332031,34.71,0
-0.2276629656553268,-0.8995115160942078,0.3166310489177704,-5.373143196105957,5.1995954513549805,69.26959228515625,34.71,0
-0.2412631511688232,-0.8963278532028198,0.3095532953739166,-5.038837432861328,5.194880485534668,69.26973724365234,34.71,0
-0.2443931996822357,-0.8998825550079346,0.3162067532539367,-4.014637470245361,5.191854953765869,69.26982879638672,34.71,0
-0.2464018762111663,-0.9021637439727784,0.3316721022129059,-2.3900692462921143,5.189913272857666,69.26988983154297,34.71,0
-0.2476909309625625,-0.9092254638671876,0.3415968716144562,-0.70265132188797,5.158829212188721,69.26992797851562,34.71,0
-0.2429203987121582,-0.9137572646141052,0.3479660153388977,0.6202689409255981,5.138881206512451,69.26995086669922,34.71,0
-0.2342611700296402,-0.916665494441986,0.3464556038379669,1.2471232414245603,5.12608003616333,69.26996612548828,34.71,0
-0.2287041693925857,-0.9129340648651124,0.3398885130882263,0.8970614671707153,5.117864608764648,69.26997375488281,34.71,0
-0.2251380085945129,-0.9049416780471802,0.3244785964488983,-0.1515804678201675,5.112592697143555,69.26998138427734,34.71,0
-0.2228494584560394,-0.899812638759613,0.3145894110202789,-1.0108323097229004,5.109209537506104,69.26998901367188,34.71,0
-0.2269785702228546,-0.8965210914611816,0.3082430958747864,-1.1681674718856812,5.107038497924805,69.26998901367188,34.71,0
-0.2296283990144729,-0.8944087624549866,0.3041703999042511,-1.0040254592895508,5.105645179748535,69.26998901367188,34.71,0
-0.2313289046287536,-0.8986510038375854,0.3127523064613342,-0.8843583464622498,5.073535442352295,69.26998901367188,34.71,0
-0.2324201911687851,-0.9069711565971376,0.3182596862316131,-0.6606772541999817,5.052929401397705,69.26998901367188,34.71,0
-0.2331205159425735,-0.9123106002807616,0.3273917734622955,-0.4562278091907501,5.039705753326416,69.26998901367188,34.71,0
-0.2279721647500991,-0.9157370924949646,0.3276544511318207,-0.9591398239135742,5.031219482421875,69.26998901367188,34.71,0
-0.2302660346031189,-0.9179360270500184,0.3278230428695678,-2.456964492797852,5.025773525238037,69.26998901367188,34.71,0
-0.2317381054162979,-0.9193471670150756,0.3279312252998352,-4.432051181793213,5.022278308868408,69.26998901367188,34.71,0
-0.2270850241184234,-0.9146550297737122,0.3280006349086761,-6.4232282638549805,5.020035266876221,69.26998901367188,34.71,0
-0.2296967059373855,-0.9116438627243042,0.3280451893806457,-8.456974983215332,5.018596172332764,69.26998901367188,34.71,0
-0.2313727438449859,-0.909711480140686,0.3280737698078155,-10.457136154174805,5.004360198974609,69.46344757080078,34.71,0
-0.2268505543470382,-0.908471405506134,0.3224943578243255,-11.772967338562012,4.995224475860596,69.58760070800781,34.71,0
-0.2295462489128112,-0.907675564289093,0.3189138174057007,-11.341995239257812,4.989361763000488,69.66727447509766,34.71,0
-0.2312761843204498,-0.9071648716926576,0.316616028547287,-8.367742538452148,4.985599517822266,69.7184066772461,34.71,0
-0.226788580417633,-0.9068371057510376,0.3151414394378662,-3.345780372619629,4.983184814453125,69.751220703125,34.71,0
-0.2239086925983429,-0.9066267609596252,0.3141951262950897,1.564418911933899,4.981635570526123,69.77227783203125,34.71,0
-0.2220605462789535,-0.9008939862251282,0.3135878443717956,4.0849690437316895,4.9806413650512695,69.7857894897461,34.71,0
-0.2264722883701324,-0.9028128385543824,0.3076003491878509,3.993624448776245,4.980003356933594,69.79446411132812,34.71,0
-0.2293034940958023,-0.8984464406967163,0.3093556761741638,3.3188016414642334,4.962608814239502,69.8000259399414,34.71,0
-0.2311203926801681,-0.8956443667411804,0.3048843741416931,4.24711799621582,4.951446056365967,69.80359649658203,34.71,0
-0.2322863787412643,-0.8994439244270325,0.3076127171516418,7.117793560028076,4.944282054901123,69.80589294433594,34.71,0
-0.2330346405506134,-0.9018822312355042,0.3093636333942413,10.475457191467283,4.939684867858887,69.80736541748047,34.71,0
-0.2335148304700851,-0.9090448021888732,0.3160850405693054,12.508404731750488,4.936734676361084,69.80831146240234,34.71,0
-0.2338229864835739,-0.9080435633659364,0.3203984498977661,12.1901273727417,4.934841156005859,69.80891418457031,34.71,0
-0.2284229695796966,-0.9074010252952576,0.3287643194198608,9.60704517364502,4.933626174926758,69.8093032836914,34.71,0
-0.2249575555324554,-0.9013909101486206,0.3285352885723114,5.692348957061768,4.932846546173096,69.80955505371094,34.71,0
-0.2227336466312408,-0.9031317234039308,0.3283883035182953,1.5357199907302856,4.920086860656738,69.8097152709961,34.71,0
-0.2213064730167389,-0.898651123046875,0.3226962089538574,-2.0668177604675293,4.911898612976074,69.809814453125,34.71,0
-0.2259883731603622,-0.9013735055923462,0.3190433382987976,-4.67607307434082,4.906643867492676,69.80988311767578,34.71,0
-0.2289929389953613,-0.9031205177307128,0.3166991472244262,-6.146335601806641,4.903271675109863,69.80992126464844,34.71,0
-0.2309211045503616,-0.904241681098938,0.3151947855949402,-6.491575717926025,4.9011077880859375,69.80995178222656,34.71,0
-0.2321584820747375,-0.9049611687660216,0.3142293691635132,-6.233065605163574,4.899718761444092,69.80996704101562,34.71,0
-0.2329525649547577,-0.9054229259490968,0.3192075788974762,-7.109698295593262,4.89882755279541,69.80997467041016,34.71,0
-0.2334621697664261,-0.9057192206382751,0.3224022984504699,-11.168865203857422,4.898255825042725,69.80998229980469,34.71,0
-0.2337891906499862,-0.9059093594551086,0.3244524896144867,-18.06572914123535,4.888707637786865,69.80998992919922,34.71,0
-0.2395968288183212,-0.906031370162964,0.3257682025432586,-24.54097366333008,4.882580280303955,69.80998992919922,34.71,0
-0.2433238476514816,-0.9061096906661988,0.3266125321388244,-27.42818069458008,4.878647804260254,69.80998992919922,34.71,0
-0.2401178479194641,-0.9061599373817444,0.3215565979480743,-26.13910484313965,4.876124382019043,69.80998992919922,34.71,0
-0.2380604296922683,-0.906192183494568,0.3239097893238067,-22.051706314086918,4.874505043029785,69.80998992919922,34.71,0
-0.2367400974035263,-0.9062129259109496,0.3198221325874328,-16.885021209716797,4.873465538024902,69.80998992919922,34.71,0
-0.2358927875757217,-0.9062262177467346,0.3171989321708679,-11.982258796691896,4.872798442840576,69.80998992919922,34.71,0
-0.235349029302597,-0.9062347412109376,0.3155155181884765,-8.08360767364502,4.872370719909668,69.80998992919922,34.71,0
-0.2350000739097595,-0.9062402248382568,0.3144351840019226,-5.223419666290283,4.86107873916626,69.96404266357422,34.71,0
-0.2347761392593383,-0.9062437415122986,0.3137418925762176,-3.0833969116210938,4.853832244873047,70.06290435791016,34.71,0
-0.2346324324607849,-0.9062460064888,0.3188947439193725,-1.4664384126663208,4.84918212890625,70.12635040283203,34.71,0
-0.2345402091741562,-0.9062474370002748,0.3166037797927856,-0.3141250610351562,4.846197605133057,70.16706848144531,34.71,0
-0.2344810217618942,-0.9062483310699464,0.3207313418388366,0.5149277448654175,4.844282627105713,70.19319915771484,34.71,0
-0.2344430387020111,-0.9006511569023132,0.3177824020385742,1.2189297676086426,4.843053340911865,70.20996856689453,34.71,0
-0.2344186604022979,-0.9026569724082948,0.3158899545669555,1.8032729625701904,4.842264652252197,70.2207260131836,34.71,0
-0.2344030141830444,-0.903944194316864,0.3146754801273346,1.984811782836914,4.8417582511901855,70.22763061523438,34.71,0
-0.2343929708003997,-0.9047702550888062,0.3138960897922516,1.470779538154602,4.837761402130127,70.23206329345703,34.71,0
-0.234386533498764,-0.9053003787994384,0.3189937174320221,0.2846677303314209,4.835196495056152,70.23490905761719,34.71,0
-0.2343824058771133,-0.9000428318977356,0.3166672885417938,-1.1751128435134888,4.833550453186035,70.23673248291016,34.71,0
-0.2343797534704208,-0.9022666215896606,0.320772111415863,-2.4056873321533203,4.832494258880615,70.23789978027344,34.71,0
-0.2343780547380447,-0.903693675994873,0.3178085684776306,-3.166738510131836,4.83181619644165,70.23865509033203,34.71,0
-0.2343769669532776,-0.9046095013618468,0.3215045034885406,-3.683797836303711,4.831381320953369,70.2391357421875,34.71,0
-0.2343762665987014,-0.9051972031593324,0.3238763511180877,-4.5243425369262695,4.83110237121582,70.23944091796875,34.71,0
-0.2343758195638656,-0.905574381351471,0.3253984749317169,-5.919991493225098,4.830923080444336,70.23963928222656,34.71,0
-0.2343755215406417,-0.9058164358139038,0.3207775056362152,-6.994767189025879,4.822545051574707,70.2397689819336,34.71,0
-0.2343753278255462,-0.9059717655181884,0.3178120255470276,-6.405517101287842,4.817168712615967,70.23985290527344,34.71,0
-0.2343752086162567,-0.9060714244842528,0.3159089386463165,-4.042623043060303,4.813718318939209,70.23990631103516,34.71,0
-0.2343751341104507,-0.9005376100540161,0.3146876692771911,-1.204283356666565,4.811504364013672,70.23993682861328,34.71,0
-0.2343750894069671,-0.90818190574646,0.3139039278030395,1.0900994539260864,4.810083389282227,70.23995971679688,34.71,0
-0.2343750596046447,-0.9130875468254088,0.3134009540081024,2.727300882339477,4.809171676635742,70.23997497558594,34.71,0
-0.2343750447034835,-0.9162357449531556,0.3130781948566437,3.688398122787476,4.808586597442627,70.23998260498047,34.71,0
-0.2287772595882415,-0.9070605039596558,0.3128710389137268,3.9648303985595694,4.808210849761963,70.239990234375,34.71,0
-0.2251849174499511,-0.9011723399162292,0.3015425503253937,3.895030975341797,4.80429744720459,70.239990234375,34.66,0
-0.222879558801651,-0.8973937034606934,0.2998703718185425,3.674691438674927,4.801785945892334,70.239990234375,34.66,0
-0.2158023416996002,-0.8949687480926514,0.3043950200080871,3.0317296981811523,4.800174236297607,70.239990234375,34.66,0
-0.211260586977005,-0.8990103602409363,0.3072986900806427,1.8631904125213623,4.799139976501465,70.239990234375,34.66,0
-0.2083459496498108,-0.9072017669677734,0.3147598803043365,0.6439717411994934,4.798476219177246,70.239990234375,34.66,0
-0.2064755111932754,-0.9124585390090942,0.325145810842514,-0.0273927915841341,4.798050403594971,70.239990234375,34.66,0
-0.2052751630544662,-0.910234272480011,0.3374086618423462,-0.0605700239539146,4.797776699066162,70.239990234375,34.66,0
-0.2157004028558731,-0.90880686044693,0.345278263092041,0.1044326722621917,4.797601222991943,70.239990234375,34.66,0
-0.2279884964227676,-0.9078908562660216,0.3391329646110534,0.0777666047215461,4.794275283813477,70.53376770019531,34.66,0
-0.241472065448761,-0.9129008054733276,0.3239937424659729,-0.0933968946337699,4.792140960693359,70.7222900390625,34.66,0
-0.2557228207588196,-0.9161158800125122,0.3086804747581482,-0.2283177971839904,4.790771484375,70.84327697753906,34.66,0
-0.2592703402042389,-0.9069835543632508,0.2932555377483368,-0.468953013420105,4.789892673492432,70.9209213256836,34.66,0
-0.2671447098255157,-0.9011229872703552,0.277758926153183,-1.074783444404602,4.789328575134277,70.97074890136719,34.66,0
-0.2721980512142181,-0.9029597640037536,0.2734118700027466,-1.9543832540512085,4.788966655731201,71.00272369384766,34.66,0
-0.2642454206943512,-0.9209318161010742,0.2818177044391632,-2.457956075668335,4.788734436035156,71.02323913574219,34.66,0
-0.2535441219806671,-0.9324652552604676,0.2872121036052704,-1.566627025604248,4.788585186004639,71.03640747070312,34.66,0
-0.2410788685083389,-0.9342690110206604,0.3074672222137451,1.3877893686294556,4.781144618988037,71.04486083984375,34.66,0
-0.2274816036224365,-0.9354265332221984,0.3316613435745239,5.848887920379639,4.776370048522949,71.05028533935547,34.66,0
-0.2131578922271728,-0.9305716156959534,0.3471877574920654,10.24868869781494,4.773305892944336,71.05376434326172,34.66,0
-0.1983679831027984,-0.9218581914901732,0.3515539169311523,13.294347763061523,4.771339416503906,71.05599975585938,34.66,0
-0.1944744437932968,-0.9162664413452148,0.3487581014633178,14.761646270751951,4.770077705383301,71.05743408203125,34.66,0
-0.197573572397232,-0.9126780033111572,0.3357683718204498,15.20529556274414,4.769268035888672,71.058349609375,34.66,0
-0.2051601856946945,-0.9047773480415344,0.3162367641925812,15.174737930297852,4.768748283386231,71.0589370727539,34.66,0
-0.2100288420915603,-0.8997071385383606,0.3037025034427643,14.77537441253662,4.768414497375488,71.05931854248047,34.66,0
-0.2131532579660415,-0.8964533805847168,0.2956587374210357,13.845561981201172,4.7668232917785645,71.05956268310547,34.66,0
-0.2151583284139633,-0.8943653106689453,0.2904967069625854,12.33888816833496,4.765802383422852,71.0597152709961,34.66,0
-0.2108473032712936,-0.8986231088638306,0.2983795404434204,10.454852104187012,4.7651472091674805,71.059814453125,34.66,0
-0.2080807238817215,-0.901355504989624,0.3090360760688782,8.686903953552246,4.764726638793945,71.05988311767578,34.66,0
-0.2063052952289581,-0.9031090140342712,0.3158748149871826,7.512928485870361,4.764456748962402,71.05992126464844,34.66,0
-0.2051659375429153,-0.898636519908905,0.320263534784317,6.59832239151001,4.764283657073975,71.05995178222656,34.66,0
-0.2044347524642944,-0.8957663178443909,0.3230799734592438,4.839879035949707,4.764172554016113,71.05996704101562,34.66,0
-0.2039655297994613,-0.8883266448974609,0.3248873949050903,1.8198111057281492,4.764101028442383,71.05997467041016,34.66,0
-0.2036644071340561,-0.8891500234603882,0.3260473012924194,-1.4940036535263062,4.757628440856934,71.05998229980469,34.68,0
-0.203471153974533,-0.8952762484550476,0.3267916440963745,-4.075606346130371,4.753474712371826,71.05998992919922,34.68,0
-0.2089449167251587,-0.9048054814338684,0.3272693157196045,-6.2267255783081055,4.750809192657471,71.05998992919922,34.68,0
-0.2124576568603515,-0.9109207391738892,0.3275758624076843,-8.911248207092285,4.749098300933838,71.05998992919922,34.68,0
-0.2147119343280792,-0.9092473983764648,0.3221748173236847,-12.059885025024414,4.748000621795654,71.05998992919922,34.68,0
-0.2161585986614227,-0.9025757908821106,0.3187087476253509,-14.0195951461792,4.747296333312988,71.05998992919922,34.68,0
-0.217086985707283,-0.8982943296432495,0.3108866512775421,-12.869733810424805,4.746844291687012,71.05998992919922,34.68,0
-0.2232805490493774,-0.8955467343330383,0.3058668673038482,-8.413105010986328,4.746553897857666,71.05998992919922,34.68,0
-0.2272552251815796,-0.8993812799453735,0.3026454746723175,-2.658376216888428,4.741777420043945,71.30360412597656,34.68,0
-0.2298059314489364,-0.9018420577049256,0.3005781471729278,2.0091378688812256,4.738711833953857,71.45994567871094,34.68,0
-0.2314428389072418,-0.9090189933776855,0.304849237203598,4.821768283843994,4.7367448806762695,71.5602798461914,34.68,0
-0.2324933111667633,-0.9136247634887696,0.3075901865959167,6.490614891052246,4.735482215881348,71.62466430664062,34.68,0
-0.2387652099132537,-0.9109827280044556,0.3149469494819641,7.633236408233643,4.7346720695495605,71.66598510742188,34.68,0
-0.2427901625633239,-0.9092872142791748,0.3252658545970917,7.933013439178467,4.734152317047119,71.69249725341797,34.68,0
-0.2453731447458267,-0.9137969017028807,0.3318879306316376,6.792675018310547,4.733818531036377,71.70951843261719,34.68,0
-0.2526285350322723,-0.9166909456253052,0.3305398225784302,4.477372646331787,4.733604431152344,71.7204360961914,34.68,0
-0.2572846114635467,-0.9129503965377808,0.3240769207477569,2.1568048000335693,4.736680030822754,71.72744750976562,34.68,0
-0.2602726221084595,-0.9105499386787416,0.3143316209316253,0.7571624517440796,4.738654136657715,71.73194122314453,34.68,0
-0.2621901631355285,-0.9034116864204408,0.3024798929691314,0.3712608516216278,4.739920616149902,71.73482513427734,34.68,0
-0.2634207308292389,-0.9044285416603088,0.2948741316795349,0.6717454791069031,4.740733623504639,71.73667907714844,34.68,0
-0.2586126625537872,-0.9050810933113098,0.2955909669399261,1.2192542552947998,4.741255283355713,71.73786926269531,34.68,0
-0.2555271089076996,-0.9054998755455016,0.2960509955883026,1.434476017951965,4.741590023040772,71.73863220214844,34.68,0
-0.2479492127895355,-0.9113664031028748,0.3075417578220367,0.7915914058685303,4.741805076599121,71.73912048339844,34.68,0
-0.2374883741140365,-0.9151312112808228,0.3149158656597137,-0.8820416927337646,4.741942882537842,71.73943328857422,34.68,0
-0.2307752072811126,-0.9175472259521484,0.3196481466293335,-3.331791877746582,4.744326591491699,71.73963928222656,34.68,0
-0.2208693176507949,-0.919097661972046,0.322685033082962,-6.086150646209717,4.745856761932373,71.7397689819336,34.68,0
-0.214512288570404,-0.9144948720932008,0.3190361559391022,-8.93925952911377,4.746838569641113,71.73985290527344,34.68,0
-0.2104327082633972,-0.9115411043167114,0.3110967576503753,-11.902314186096191,4.7474684715271,71.73990631103516,34.68,0
-0.2134124338626861,-0.9096454977989196,0.3060016930103302,-14.258819580078123,4.747872829437256,71.73993682861328,34.68,0
-0.215324655175209,-0.9084290266036988,0.302731990814209,-14.359554290771484,4.748132228851318,71.73995971679688,34.68,0
-0.2221495807170868,-0.9076483845710754,0.3006336688995361,-11.239290237426758,4.748298645019531,71.73997497558594,34.68,0
-0.2265294343233108,-0.9071474075317384,0.2992871105670929,-5.8119425773620605,4.748405456542969,71.73998260498047,34.68,0
-0.2293401658535003,-0.9068259000778198,0.3040207326412201,0.0964208394289016,4.759950160980225,71.739990234375,34.66,0
-0.2367417067289352,-0.912217378616333,0.301460713148117,5.07390022277832,4.767358779907227,71.739990234375,34.66,0
-0.2414915859699249,-0.910079538822174,0.3054156303405761,8.357725143432617,4.77211332321167,71.739990234375,34.66,0
-0.2445397824048996,-0.908707559108734,0.3079536557197571,9.934873580932615,4.775164604187012,71.739990234375,34.66,0
-0.2408981770277023,-0.9134249091148376,0.3095824122428894,10.549330711364746,4.777122497558594,71.739990234375,34.66,0
-0.2385611981153488,-0.9108544588088988,0.3050298988819122,10.864837646484377,4.778378963470459,71.739990234375,34.66,0
-0.2370614558458328,-0.90920490026474,0.3021083474159241,10.795035362243652,4.7791852951049805,71.739990234375,34.66,0
-0.2305012345314026,-0.9081462621688844,0.3002334535121918,9.890422821044922,4.779703140258789,71.739990234375,34.66,0
-0.2262912690639495,-0.9074668884277344,0.3046280443668365,8.05599308013916,4.78462553024292,71.95852661132812,34.66,0
-0.2235895544290542,-0.9070309400558472,0.3074482381343841,5.782493114471436,4.787784576416016,72.0987777709961,34.66,0
-0.2218557447195053,-0.9067511558532716,0.3092580735683441,3.811183452606201,4.789811611175537,72.18878173828125,34.66,0
-0.2263408601284027,-0.906571626663208,0.3104195296764374,2.3705639839172363,4.791112422943115,72.24653625488281,34.66,0
-0.2292191535234451,-0.9064564108848572,0.3111648857593536,0.915836215019226,4.791947364807129,72.28359985351562,34.66,0
-0.2310662716627121,-0.9063824415206908,0.3116432130336761,-1.160565972328186,4.792483329772949,72.30738830566406,34.66,0
-0.2322516441345214,-0.9063349962234496,0.3119501769542694,-3.600097179412842,4.792827129364014,72.3226547241211,34.66,0
-0.2330123484134674,-0.9063045382499696,0.3121471405029297,-5.584809303283691,4.793047904968262,72.33245086669922,34.66,0
-0.233500525355339,-0.9062849879264832,0.3122735619544983,-6.944465160369873,4.79961633682251,72.33873748779297,34.66,0
-0.2338138073682785,-0.9062724709510804,0.3123546838760376,-8.43321704864502,4.803831577301025,72.3427734375,34.66,0
-0.2340148538351059,-0.9062644243240356,0.3068089783191681,-10.699834823608398,4.806536674499512,72.3453598022461,34.66,0
-0.2341438829898834,-0.9062592387199402,0.3032500445842743,-13.383243560791016,4.808272361755371,72.3470230102539,34.66,0
-0.2342266887426376,-0.9062559008598328,0.3009661436080932,-15.076640129089355,4.809386253356934,72.34809112548828,34.66,0
-0.2342798262834549,-0.9062538146972656,0.3050982356071472,-14.243103981018066,4.81010103225708,72.3487777709961,34.66,0
-0.2343139201402664,-0.9062524437904358,0.3077499866485595,-10.73465061187744,4.810559749603272,72.34921264648438,34.66,0
-0.2287380248308181,-0.9062515497207642,0.3038539290428161,-6.175948619842529,4.810854434967041,72.34949493408203,34.66,0
-0.2307575196027755,-0.911848783493042,0.3013536632061004,-2.250897169113159,4.818387985229492,72.34967803955078,34.66,0
-0.2320535033941269,-0.9098429679870604,0.3053469359874725,0.6692233085632324,4.823222637176514,72.34979248046875,34.66,0
-0.2328851968050003,-0.9085557460784912,0.3079095780849457,2.8620378971099854,4.826325416564941,72.34986877441406,34.66,0
-0.2334189265966415,-0.91332745552063,0.3039563596248626,4.272842884063721,4.82831621170044,72.34991455078125,34.66,0
-0.2337614446878433,-0.9107918739318848,0.3014194071292877,4.669490337371826,4.829594135284424,72.34994506835938,34.66,0
-0.2339812517166137,-0.9091647267341614,0.2997913360595703,4.0283918380737305,4.830414295196533,72.34996795654297,34.66,0
-0.2341223210096359,-0.9081205129623412,0.2987465262413025,2.502790689468384,4.830940246582031,72.3499755859375,34.66,0
-0.2342128455638885,-0.9074503779411316,0.2980760335922241,0.6281037330627441,4.831277847290039,72.34998321533203,34.66,0
-0.2342709451913833,-0.9070203304290771,0.2976457476615906,-0.402998685836792,4.826445579528809,72.34999084472656,34.66,0
-0.2343082278966903,-0.912342131137848,0.3029673993587494,0.2715998291969299,4.823344230651856,72.34999084472656,34.66,0
-0.2343321442604065,-0.9157573580741882,0.3063825368881225,1.761378049850464,4.821353912353516,72.34999084472656,34.66,0
-0.2343474924564361,-0.9123512506484984,0.3029763996601105,2.2445321083068848,4.820076942443848,72.34999084472656,34.66,0
-0.2343573421239853,-0.9101654291152954,0.3007905185222626,1.375925064086914,4.8192572593688965,72.34999084472656,34.66,0
-0.2343636751174926,-0.9087626934051514,0.2993877530097961,0.2703690528869629,4.818731307983398,72.34999084472656,34.66,0
-0.2343677282333374,-0.9078624844551086,0.2984875440597534,-0.7973707318305969,4.818393707275391,72.34999084472656,34.66,0
-0.2343703359365463,-0.9072847962379456,0.2979098260402679,-2.8547110557556152,4.818177223205566,72.34999084472656,34.66,0
-0.2343720048666,-0.9069140553474426,0.297539085149765,-6.424850940704346,4.813906192779541,72.53270721435547,34.66,0
-0.234373077750206,-0.9122739434242249,0.3028989434242248,-10.449928283691406,4.8111653327941895,72.64996337890625,34.66,0
-0.2343737632036209,-0.9157136082649232,0.3063386082649231,-12.875357627868652,4.809406280517578,72.72521209716797,34.66,0
-0.2343742102384567,-0.91792094707489,0.3085459768772125,-12.092436790466309,4.808277606964111,72.77349853515625,34.66,0
-0.2343744933605194,-0.919337511062622,0.3099625408649444,-8.26895523071289,4.807553291320801,72.80448913574219,34.66,0
-0.2287769019603729,-0.9146488308906556,0.3108716011047363,-3.217897891998291,4.807088375091553,72.82437896728516,34.66,0
-0.2251846939325332,-0.9116398692131042,0.3114549815654754,1.2703166007995603,4.806789875030518,72.83714294433594,34.66,0
-0.222879409790039,-0.9097089171409608,0.3062315881252289,4.612746238708496,4.806598663330078,72.84532928466797,34.66,0
-0.2269977927207946,-0.9084697365760804,0.3028795123100281,7.194799423217773,4.800049304962158,72.8505859375,34.66,0
-0.2296407371759414,-0.9076744914054872,0.3007283508777618,9.417859077453612,4.795846462249756,72.85395812988281,34.66,0
-0.2313368171453476,-0.912761926651001,0.299347847700119,11.106019020080566,4.793149471282959,72.85612487792969,34.66,0
-0.2324252724647522,-0.916026771068573,0.2984619438648224,11.88486385345459,4.791418552398682,72.85751342773438,34.66,0
-0.233123779296875,-0.9181219339370728,0.3034911751747131,11.815052032470703,4.790307998657227,72.85840606689453,34.66,0
-0.2335720360279083,-0.9138687252998352,0.306718647480011,11.11105728149414,4.789595127105713,72.85897827148438,34.66,0
-0.2338597029447555,-0.9111392498016356,0.308789849281311,9.74571704864502,4.789137840270996,72.85934448242188,34.66,0
-0.2340443134307861,-0.9093876481056212,0.3045212626457214,7.844903945922852,4.788844108581543,72.85958099365234,34.66,0
-0.2341627776622772,-0.9082635641098022,0.3017819225788116,5.815409183502197,4.782687664031982,72.85973358154297,34.66,0
-0.2342388033866882,-0.9075421690940856,0.3000239729881286,3.585109233856201,4.7787370681762695,72.85983276367188,34.66,0
-0.2342875897884369,-0.9070792198181152,0.2988958358764648,0.5918281674385071,4.776201725006104,72.85989379882812,34.66,0
-0.2287211269140243,-0.9067821502685548,0.2981718480587005,-3.170531272888184,4.7745747566223145,72.85993194580078,34.66,0
-0.2251489013433456,-0.9065914750099182,0.3033050298690796,-6.695595264434815,4.77353048324585,72.85995483398438,34.66,0
-0.2228564471006393,-0.9064691662788392,0.3065991997718811,-9.04017734527588,4.772860527038574,72.85997009277344,34.66,0
-0.2213852852582931,-0.90639066696167,0.3087131977081299,-10.508970260620115,4.772430419921875,72.85997772216797,34.66,0
-0.2204411774873733,-0.9063403010368348,0.3044720590114593,-12.228975296020508,4.772154331207275,72.8599853515625,34.66,0
-0.2198352962732315,-0.9063079357147216,0.3017503619194031,-14.439791679382324,4.76968240737915,72.85999298095703,34.66,0
-0.2194464802742004,-0.9062871932983398,0.3000037372112274,-15.726011276245115,4.768095970153809,72.85999298095703,34.66,0
-0.2191969603300094,-0.9062738418579102,0.3044806122779846,-14.527277946472168,4.767077922821045,72.85999298095703,34.66,0
-0.2190368324518203,-0.9062653183937072,0.3073536157608032,-10.960007667541504,4.766424655914307,72.85999298095703,34.66,0
-0.2189340740442276,-0.906259834766388,0.3035995662212372,-6.492533206939697,4.766005039215088,72.85999298095703,34.66,0
-0.2188681215047836,-0.9062563180923462,0.3067882061004638,-2.325090169906616,4.765736103057861,72.85999298095703,34.66,0
-0.2188258022069931,-0.9062540531158448,0.303236722946167,1.0873454809188845,4.765563488006592,72.85999298095703,34.66,0
-0.2187986522912979,-0.90625262260437,0.300957590341568,3.6247599124908447,4.7654523849487305,72.85999298095703,34.66,0
-0.2187812179327011,-0.9062516689300536,0.299494981765747,5.543314933776856,4.761250019073486,73.02479553222656,34.66,0
-0.2243678122758865,-0.906251072883606,0.2985563576221466,7.301171779632568,4.7585530281066895,73.13055419921875,34.66,0
-0.2279529571533203,-0.9062507152557372,0.3035517632961273,8.844841957092285,4.756822109222412,73.19842529296875,34.66,0
-0.2302536964416504,-0.9062504768371582,0.3011597692966461,9.760246276855469,4.755711555480957,73.24198150634766,34.66,0
-0.2373279631137848,-0.9118480682373048,0.2996247112751007,10.071842193603516,4.754998683929443,73.26993560791016,34.66,0
-0.2418678104877472,-0.915440320968628,0.2986395955085754,10.185824394226074,4.754541397094727,73.28787231445312,34.66,0
-0.2447812259197235,-0.9177455902099608,0.2980074286460876,10.287632942199709,4.754248142242432,73.29938507080078,34.66,0
-0.2466508895158767,-0.919224977493286,0.2976017296314239,10.335054397583008,4.754059791564941,73.30677032470703,34.66,0
-0.2422529608011245,-0.9201743602752686,0.3029391467571258,10.143366813659668,4.749807357788086,73.31150817871094,34.66,0
-0.239430621266365,-0.9151858687400818,0.3063643872737884,9.400567054748535,4.7470784187316895,73.3145523071289,34.66,0
-0.237619400024414,-0.9119845032691956,0.3085625171661377,8.05689811706543,4.745326995849609,73.3165054321289,34.66,0
-0.2364570647478103,-0.9099300503730774,0.3043753802776336,6.410024642944336,4.744203090667725,73.31775665283203,34.66,0
-0.2301133722066879,-0.9086116552352904,0.3016883134841919,4.66888427734375,4.743481636047363,73.31855773925781,34.66,0
-0.2260423600673675,-0.907765567302704,0.2999639213085174,2.74544095993042,4.743018627166748,73.31907653808594,34.66,0
-0.2234298139810562,-0.9072226285934448,0.2988573014736175,0.522294819355011,4.742721557617188,73.31940460205078,34.66,0
-0.2217532396316528,-0.9124719500541688,0.2981471121311188,-1.5814992189407349,4.7425312995910645,73.31961822509766,34.66,0
-0.220677301287651,-0.9158406853675842,0.3032891452312469,-2.222243070602417,4.741950035095215,73.31975555419922,34.66,0
-0.2199868261814117,-0.9124047756195068,0.3065890073776245,-0.0969720333814621,4.7415771484375,73.31983947753906,34.66,0
-0.2195437252521515,-0.910199761390686,0.3031089007854461,4.390910625457764,4.741337776184082,73.31990051269531,34.66,0
-0.2192593663930893,-0.9087847471237184,0.3008755445480346,9.201983451843262,4.741184234619141,73.31993865966797,34.66,0
-0.2190768867731094,-0.9078766703605652,0.299442321062088,12.719362258911133,4.741085529327393,73.31996154785156,34.66,0
-0.2245575487613678,-0.9072939157485962,0.2985225617885589,14.854805946350098,4.741022109985352,73.31997680664062,34.66,0
-0.2224769443273544,-0.9125177264213562,0.2979322969913482,16.049665451049805,4.740981578826904,73.31998443603516,34.66,0
-0.2211417406797409,-0.9158700108528136,0.2975535094738006,16.250410079956055,4.740955829620361,73.31999206542969,34.66,0
-0.220284879207611,-0.918021321296692,0.3029082119464874,15.48359203338623,4.737725257873535,73.31999206542969,34.65,0
-0.2197349965572357,-0.9194019436836244,0.3063445389270782,14.403949737548828,4.735652446746826,73.31999206542969,34.65,0
-0.219382107257843,-0.9146901369094848,0.3029519915580749,13.331344604492188,4.73432207107544,73.31999206542969,34.65,0
-0.2247534245252609,-0.91726416349411,0.300774872303009,11.808268547058104,4.733468055725098,73.31999206542969,34.65,0
-0.2282004207372665,-0.9189160466194152,0.2993777096271515,9.82055950164795,4.732920169830322,73.31999206542969,34.65,0
-0.2304125130176544,-0.9199761152267456,0.2984811067581177,8.086392402648926,4.732568740844727,73.31999206542969,34.65,0
-0.2318321019411087,-0.9150586128234864,0.2979057133197784,6.711976051330566,4.7323431968688965,73.31999206542969,34.65,0
-0.2327431142330169,-0.917500615119934,0.3031342327594757,5.016709804534912,4.732198238372803,73.31999206542969,34.65,0
-0.2333277463912964,-0.9190678000450134,0.3064895868301391,2.8181872367858887,4.734400749206543,73.48479461669922,34.65,0
-0.233702927827835,-0.9200735092163086,0.3086428642272949,0.490162581205368,4.735814094543457,73.5905532836914,34.65,0
-0.2339437007904052,-0.9207189083099364,0.3100247085094452,-2.0857675075531006,4.736721038818359,73.6584243774414,34.65,0
-0.2285004407167434,-0.9155353307724,0.3109115064144134,-5.404748916625977,4.737303256988525,73.70198059082031,34.65,0
-0.2194094955921173,-0.9122087955474854,0.3058828115463257,-9.19699478149414,4.737677097320557,73.72993469238281,34.65,0
-0.2135754525661468,-0.91007399559021,0.3026556968688965,-11.992480278015137,4.737916946411133,73.74787139892578,34.65,0
-0.2098315060138702,-0.9031062722206116,0.3005847036838531,-12.113399505615234,4.738070487976074,73.75938415527344,34.65,0
-0.2074288427829742,-0.9042325615882874,0.2992556691169739,-9.22462558746338,4.738169193267822,73.76676940917969,34.65,0
-0.205886960029602,-0.9049553275108336,0.2984027862548828,-4.70892333984375,4.734560012817383,73.7715072631836,34.65,0
-0.2048974633216858,-0.9054191708564758,0.2978554368019104,-0.4460438787937164,4.73224401473999,73.77455139160156,34.65,0
-0.2098602354526519,-0.905716836452484,0.297504186630249,2.375608444213867,4.730757713317871,73.77650451660156,34.65,0
-0.213045060634613,-0.9059078693389891,0.2972787618637085,3.5236058235168457,4.729803562164307,73.77775573730469,34.65,0
-0.220686674118042,-0.9060304164886476,0.2971341013908386,3.572470188140869,4.729191303253174,73.77855682373047,34.65,0
-0.2255906164646148,-0.906109094619751,0.3026390373706817,3.388873815536499,4.728798389434815,73.7790756225586,34.65,0
-0.2287376821041107,-0.9061595797538756,0.3061718046665191,3.303295612335205,4.728546619415283,73.77940368652344,34.65,0
-0.2307572960853576,-0.9061919450759888,0.3084389269351959,2.897284030914306,4.728384971618652,73.77961730957031,34.65,0
-0.2320533692836761,-0.9062127470970154,0.30429607629776,1.7804934978485107,4.729658126831055,73.77975463867188,34.65,0
-0.2272873371839523,-0.9062260985374452,0.3016374111175537,0.2505569159984588,4.730475425720215,73.77983856201172,34.65,0
-0.2242287695407867,-0.9062346816062928,0.2999312281608581,-1.0465348958969116,4.73099946975708,73.77989959716797,34.65,0
-0.2222659587860107,-0.9118379354476928,0.2988363206386566,-1.900429368019104,4.731336116790772,73.77993774414062,34.65,0
-0.2210063338279724,-0.9154337644577026,0.2981336712837219,-2.670529365539551,4.7315521240234375,73.77996063232422,34.65,0
-0.2146002054214477,-0.917741358280182,0.3032805025577545,-3.806016206741333,4.731690883636475,73.77997589111328,34.65,0
-0.2104891240596771,-0.9136244654655457,0.3065834641456604,-5.459011077880859,4.7317795753479,73.77998352050781,34.65,0
-0.2134486436843872,-0.9109824895858764,0.3087030947208404,-7.469190120697021,4.731836795806885,73.77999114990234,34.65,0
-0.2153479009866714,-0.9092870354652404,0.310063362121582,-9.64410400390625,4.728660106658936,73.77999114990234,34.66,0
-0.216566726565361,-0.9081990122795104,0.31093630194664,-12.186262130737305,4.726621627807617,73.77999114990234,34.66,0
-0.2173489034175872,-0.9075007438659668,0.3114964962005615,-15.404754638671877,4.725313186645508,73.77999114990234,34.66,0
-0.223448634147644,-0.9126504063606262,0.3118560016155243,-18.69543838500977,4.72447395324707,73.77999114990234,34.66,0
-0.2273630946874618,-0.9159551858901978,0.3120867311954498,-20.323562622070312,4.723935127258301,73.77999114990234,34.66,0
-0.229875162243843,-0.9180759787559508,0.3122347891330719,-18.89642143249512,4.723589420318604,73.77999114990234,34.66,0
-0.2258894890546798,-0.9194369912147522,0.3123297989368438,-14.888801574707031,4.723367691040039,73.77999114990234,34.66,0
-0.2289294898509979,-0.91471266746521,0.3123907744884491,-10.081414222717283,4.723225116729736,73.77999114990234,34.66,0
-0.225282609462738,-0.9116808772087096,0.3124299049377441,-5.792564392089844,4.71854305267334,73.93404388427734,34.66,0
-0.2229422479867935,-0.9097352027893066,0.3068572282791137,-2.5100064277648926,4.715538501739502,74.03290557861328,34.66,0
-0.2214403450489044,-0.9084866046905518,0.3088787794113159,-0.4965965747833252,4.7136101722717285,74.09635162353516,34.66,0
-0.2260742783546447,-0.9076853394508362,0.3045783340930938,0.4300711750984192,4.712372779846191,74.13706970214844,34.66,0
-0.2290480732917785,-0.9071711301803588,0.3018185496330261,1.0355008840560913,4.711578369140625,74.16320037841797,34.66,0
-0.225358709692955,-0.9068410992622375,0.3056452572345733,1.6927239894866943,4.711068630218506,74.17996978759766,34.66,0
-0.2229910939931869,-0.9066293239593506,0.3081010282039642,1.989101886749268,4.7107415199279785,74.19072723388672,34.66,0
-0.2214716970920562,-0.9064934253692628,0.3096770048141479,1.7601388692855835,4.710531711578369,74.1976318359375,34.66,0
-0.2204966247081756,-0.9064062237739564,0.3106883764266968,1.6060383319854736,4.712233543395996,74.20206451416016,34.66,0
-0.2198708802461624,-0.9063502550125122,0.311337411403656,1.976462960243225,4.713325500488281,74.20491027832031,34.66,0
-0.2194693237543106,-0.9119120836257936,0.3117539286613464,2.4327173233032227,4.71402645111084,74.20673370361328,34.66,0
-0.2192116230726242,-0.9154813885688782,0.3120212256908417,2.188128709793091,4.714476108551025,74.20790100097656,34.66,0
-0.2246440201997757,-0.9121741652488708,0.3121927380561828,0.9348976612091064,4.714764595031738,74.20865631103516,34.66,0
-0.2281302213668823,-0.9100517630577089,0.312302827835083,-1.0910122394561768,4.714950084686279,74.20913696289062,34.66,0
-0.2303674668073654,-0.9086897373199464,0.306775689125061,-3.5196359157562256,4.715068817138672,74.20944213867188,34.66,0
-0.2318031936883926,-0.90781569480896,0.3032287061214447,-5.945169925689697,4.715145111083984,74.20964050292969,34.66,0
-0.2327245622873306,-0.9072547554969788,0.3065502047538757,-8.053454399108887,4.713817119598389,74.20977020263672,34.66,0
-0.2333158403635025,-0.9068948030471802,0.3086817562580108,-9.954564094543455,4.71296501159668,74.20985412597656,34.66,0
-0.2336952984333038,-0.9066637754440308,0.3100496828556061,-11.805120468139648,4.712418079376221,74.20990753173828,34.66,0
-0.2283410280942917,-0.9065155386924744,0.310927540063858,-12.8314847946167,4.712067127227783,74.2099380493164,34.66,0
-0.2249049693346023,-0.9064204096794128,0.3114908933639526,-11.62720775604248,4.711841583251953,74.2099609375,34.66,0
-0.2226999104022979,-0.9063593745231628,0.3118524253368377,-8.009806632995605,4.711697101593018,74.20997619628906,34.66,0
-0.2212848216295242,-0.9007224440574646,0.312084436416626,-3.5388214588165283,4.711604118347168,74.2099838256836,34.66,0
-0.2259744703769683,-0.8971049785614014,0.3066355288028717,0.2869471311569214,4.711544513702393,74.20999145507812,34.66,0
-0.2289840281009674,-0.8947834968566895,0.3031387329101562,3.286656618118286,4.712424755096436,74.20999145507812,34.66,0
-0.2309153825044632,-0.8932936787605286,0.3008947074413299,5.734753608703613,4.712989330291748,74.20999145507812,34.66,0
-0.2321548163890838,-0.8979353904724121,0.3050523996353149,7.488512516021728,4.713351726531982,74.20999145507812,34.66,0
-0.232950210571289,-0.9009141325950624,0.3077205717563629,8.492166519165039,4.7135844230651855,74.20999145507812,34.66,0
-0.2334606498479843,-0.9028257727622986,0.3150306046009063,9.297470092773438,4.713733673095703,74.20999145507812,34.66,0
-0.2281904518604278,-0.9040525555610656,0.3141239881515503,10.412557601928713,4.713829517364502,74.20999145507812,34.66,0
-0.2248083353042602,-0.904839813709259,0.3135421872138977,11.468501091003418,4.71389102935791,74.20999145507812,34.66,0
-0.2226378917694091,-0.9053450226783752,0.3131688237190246,11.859539031982422,4.713930606842041,74.20999145507812,34.66,0
-0.2212450206279754,-0.9056692123413086,0.3129292130470276,11.831043243408203,4.715792179107666,74.34971618652344,34.66,0
-0.2203511595726013,-0.9058772921562196,0.3127754330635071,11.923816680908203,4.716986656188965,74.43938446044922,34.66,0
-0.2197775393724441,-0.9060108065605164,0.3126767575740814,11.685999870300291,4.717753410339356,74.4969253540039,34.66,0
-0.2194094210863113,-0.9060965180397034,0.3126134276390075,10.336801528930664,4.718245029449463,74.53385162353516,34.66,0
-0.2247709482908249,-0.906151533126831,0.3125727772712707,8.281548500061035,4.718560695648193,74.55754852294922,34.66,0
-0.2282116711139679,-0.906186819076538,0.3125467002391815,6.432384490966797,4.71876335144043,74.57275390625,34.66,0
-0.2304197251796722,-0.9062094688415528,0.3069321811199188,4.54351282119751,4.718893527984619,74.58251190185547,34.66,0
-0.2374345064163208,-0.906224012374878,0.3033291101455688,1.7191848754882812,4.718976974487305,74.58877563476562,34.66,0
-0.2363384217023849,-0.9062333106994628,0.3066146373748779,-2.1102964878082275,4.714439868927002,74.5927963256836,34.66,0
-0.2412327826023101,-0.9062392711639404,0.308723121881485,-6.115509986877441,4.711528301239014,74.59537506103516,34.66,0
-0.2387759238481521,-0.906243085861206,0.3100762069225311,-8.907944679260254,4.709660053253174,74.59703063964844,34.66,0
-0.2371992617845535,-0.9062455892562866,0.3109445571899414,-8.897933006286621,4.708460807800293,74.59809112548828,34.66,0
-0.2361874431371688,-0.9062471985816956,0.3115018010139465,-5.692268371582031,4.707691192626953,74.5987777709961,34.66,0
-0.2355381250381469,-0.9118459820747375,0.3118593990802765,-1.0448548793792725,4.707197666168213,74.59921264648438,34.66,0
-0.2295236587524414,-0.9098411798477172,0.3120889067649841,2.7472496032714844,4.706880569458008,74.59949493408203,34.66,0
-0.2256639152765274,-0.9085546135902404,0.3122361898422241,4.8512067794799805,4.706677436828613,74.59967803955078,34.66,0
-0.2231869548559188,-0.9077289700508118,0.3067329227924347,5.7535834312438965,4.707464694976807,74.59979248046875,34.66,0
-0.2215973883867263,-0.9071991443634032,0.3087990283966064,5.899185180664063,4.707970142364502,74.59986877441406,34.66,0
-0.2205772846937179,-0.9068590998649596,0.3045271635055542,5.304769515991211,4.70829439163208,74.59991455078125,34.66,0
-0.2199226468801498,-0.906640887260437,0.3073834776878357,4.185297012329102,4.708502292633057,74.59994506835938,34.66,0
-0.2251003086566925,-0.9065008759498596,0.3092164993286133,3.1444523334503174,4.7086358070373535,74.59996795654297,34.66,0
-0.2228252589702606,-0.9064109921455384,0.310392826795578,2.483663320541382,4.70872163772583,74.5999755859375,34.66,0
-0.2213652729988098,-0.9063532948493958,0.3111477494239807,1.937799453735352,4.708776473999023,74.59998321533203,34.66,0
-0.2204283326864242,-0.9063162803649902,0.3116322159767151,1.3797060251235962,4.7088117599487305,74.59999084472656,34.66,0
-0.2198270559310913,-0.9062925577163696,0.3119431138038635,1.017971158027649,4.706998348236084,74.59999084472656,34.65,0
-0.2194411903619766,-0.9062772989273072,0.3065448403358459,0.7356745600700378,4.705834865570068,74.59999084472656,34.65,0
-0.2191935628652572,-0.906267523765564,0.3030805587768554,-0.0545250624418258,4.705088138580322,74.59999084472656,34.65,0
-0.219034656882286,-0.9062612652778624,0.3008573651313782,-1.6507327556610107,4.704608917236328,74.59999084472656,34.65,0
-0.2189326733350753,-0.9062572121620178,0.299430638551712,-3.563565492630005,4.704301357269287,74.59999084472656,34.65,0
-0.218867227435112,-0.9062546491622924,0.2985150516033172,-5.056221961975098,4.704103946685791,74.59999084472656,34.65,0
-0.2188252359628677,-0.9062529802322388,0.2979274988174438,-6.046366214752197,4.703977108001709,74.59999084472656,34.65,0
-0.218798279762268,-0.9062519073486328,0.3031482100486755,-7.219170093536377,4.703895568847656,74.59999084472656,34.65,0
-0.218780979514122,-0.9062512516975404,0.3064985573291778,-9.318856239318848,4.703384399414063,74.72896575927734,34.65,0
-0.2187698781490326,-0.906250774860382,0.3086486160755157,-12.28922176361084,4.703056335449219,74.81173706054688,34.65,0
-0.2187627553939819,-0.911848247051239,0.3100284039974212,-14.797304153442385,4.702846050262451,74.86485290527344,34.65,0
-0.2187581807374954,-0.909842610359192,0.3109138607978821,-14.86275577545166,4.70271110534668,74.89894104003906,34.65,0
-0.2187552452087402,-0.908555507659912,0.3114821016788482,-11.680441856384276,4.702624320983887,74.92081451416016,34.65,0
-0.2187533676624298,-0.9077295660972596,0.3118467628955841,-6.653930187225342,4.702568531036377,74.93485260009766,34.65,0
-0.2187521606683731,-0.907199501991272,0.3120808005332947,-1.9700956344604488,4.702532768249512,74.94386291503906,34.65,0
-0.218751385807991,-0.9068593382835388,0.3066332042217254,1.5587756633758545,4.702509880065918,74.94964599609375,34.65,0
-0.2187508940696716,-0.9066410660743712,0.30873504281044,4.403779029846191,4.702495098114014,74.95335388183594,34.65,0
-0.2187505811452865,-0.9065009355545044,0.3044860959053039,6.688108444213867,4.70248556137085,74.95573425292969,34.65,0
-0.2187503725290298,-0.9064110517501832,0.3073571324348449,7.885366439819336,4.702479362487793,74.95726013183594,34.65,0
-0.2187502384185791,-0.9119511246681212,0.3091996014118194,7.947930335998535,4.702475547790527,74.95824432373047,34.65,0
-0.2187501490116119,-0.909908652305603,0.3103820085525512,7.547423362731934,4.702473163604736,74.95886993408203,34.65,0
-0.2243478745222091,-0.9085978865623474,0.3111408054828644,7.157845497131348,4.702471733093262,74.95927429199219,34.65,0
-0.222342386841774,-0.9077567458152772,0.3116277456283569,6.714377880096436,4.702470779418945,74.95953369140625,34.65,0
-0.2210553884506225,-0.9072169661521912,0.3119402229785919,6.046450138092041,4.702470302581787,74.95970153808594,34.65,0
-0.2202294617891311,-0.9068705439567566,0.3121407628059387,5.066096305847168,4.701092720031738,74.95980834960938,34.65,0
-0.219699427485466,-0.9066482186317444,0.306671679019928,3.706116199493408,4.70020866394043,74.95987701416016,34.65,0
-0.2193592935800552,-0.906505525112152,0.3031619489192962,1.9878712892532349,4.699641227722168,74.95992279052734,34.65,0
-0.2191410064697265,-0.9064139723777772,0.3009096086025238,0.1615203469991684,4.699277400970459,74.95995330810547,34.65,0
-0.2190009206533432,-0.9063552021980286,0.3050619661808014,-1.4296879768371582,4.69904375076294,74.95996856689453,34.65,0
-0.2189110219478607,-0.9063175320625304,0.3077267110347748,-2.662205696105957,4.6988935470581055,74.95997619628906,34.65,0
-0.2188533395528793,-0.9062933325767516,0.3094367682933807,-3.818587303161621,4.698797225952148,74.9599838256836,34.65,0
-0.2188163101673126,-0.90627783536911,0.3105342090129852,-5.191219806671143,4.69873571395874,74.95999145507812,34.65,0
-0.2243903279304504,-0.9062678813934326,0.3112384676933288,-6.645308494567871,4.69823694229126,74.95999145507812,34.65,0
-0.2279674112796783,-0.9062615036964417,0.3116904199123382,-8.065689086914062,4.697916507720947,74.95999145507812,34.65,0
-0.2302629798650741,-0.906257390975952,0.3119804561138153,-9.894347190856934,4.697710990905762,74.95999145507812,34.65,0
-0.2317361384630203,-0.906254768371582,0.3121666014194488,-12.063830375671388,4.69757890701294,74.95999145507812,34.65,0
-0.2326815277338028,-0.9062530398368835,0.3066882789134979,-12.925858497619627,4.6974945068359375,74.95999145507812,34.65,0
-0.2276904582977295,-0.9062519669532776,0.3087703585624695,-10.842283248901367,4.697440147399902,74.95999145507812,34.65,0
-0.2244874686002731,-0.9062512516975404,0.3101065456867218,-6.427732467651367,4.6974053382873535,74.95999145507812,34.65,0
-0.2224319726228714,-0.906250774860382,0.3109640181064605,-1.8750909566879272,4.697382926940918,74.95999145507812,34.65,0
-0.2267106473445892,-0.9062504768371582,0.3059165179729461,1.4191200733184814,4.695532321929932,75.06747436523438,34.65,0
-0.2238586843013763,-0.906250298023224,0.3082751035690307,3.4400079250335693,4.694344997406006,75.1364517211914,34.65,0
-0.2220284640789032,-0.9118479490280152,0.3041909337043762,4.564933776855469,4.693583011627197,75.18071746826172,34.65,0
-0.2208539247512817,-0.9098424315452576,0.3071677088737488,5.17220401763916,4.693093776702881,75.20912170410156,34.65,0
-0.2201001793146133,-0.914153218269348,0.3034802675247192,5.780452251434326,4.692780017852783,75.22734832763672,34.65,0
-0.2252142429351806,-0.9113218188285828,0.3067116439342499,6.539796352386475,4.6925787925720215,75.23904418945312,34.65,0
-0.2284961491823196,-0.9095048308372498,0.3087853789329529,6.959030628204346,4.692449569702148,75.24655151367188,34.65,0
-0.2250045239925384,-0.9139365553855896,0.310116171836853,6.719345569610596,4.692366600036621,75.25137329101562,34.65,0
-0.2283615618944168,-0.9111827611923218,0.3109701871871948,6.106959819793701,4.692772388458252,75.25446319580078,34.65,0
-0.2305159270763397,-0.9094155430793762,0.3115182518959045,5.481098175048828,4.693032741546631,75.2564468383789,34.65,0
-0.2263007014989853,-0.9082814455032348,0.3062722086906433,4.893162250518799,4.693199634552002,75.25772094726562,34.65,0
-0.2235956043004989,-0.9075536727905272,0.3029055893421173,4.222087860107422,4.693306922912598,75.25853729248047,34.65,0
-0.2218596339225769,-0.9070866107940674,0.3007450997829437,3.254044532775879,4.693375587463379,75.25906372070312,34.65,0
-0.2207455784082412,-0.906786859035492,0.3049563765525818,1.89121687412262,4.693419933319092,75.2593994140625,34.65,0
-0.2256284207105636,-0.9065945148468018,0.3076589405536651,0.3108651340007782,4.693448066711426,75.25961303710938,34.65,0
-0.2287619560956955,-0.906471073627472,0.3037955164909363,-1.229952335357666,4.6934661865234375,75.25975036621094,34.65,0
-0.2307728677988052,-0.9063918590545654,0.3069139719009399,-2.5483572483062744,4.694396018981934,75.25984191894531,34.65,0
-0.232063353061676,-0.906341016292572,0.3033174276351928,-3.7276132106781006,4.694993019104004,75.25990295410156,34.65,0
-0.2272937446832656,-0.90630841255188,0.3066071569919586,-5.354957580566406,4.695375919342041,75.25994110107422,34.65,0
-0.229830652475357,-0.9062874913215636,0.3031205236911773,-7.828741550445557,4.695621967315674,75.25996398925781,34.65,0
-0.231458693742752,-0.9062740802764891,0.3064807951450348,-10.190110206604004,4.695779800415039,75.25997924804688,34.65,0
-0.2325034886598587,-0.9062654376029968,0.3030394315719604,-10.59490203857422,4.695880889892578,75.2599868774414,34.65,0
-0.2331739664077758,-0.9062598943710328,0.300830990076065,-8.271636962890625,4.695945739746094,75.25999450683594,34.65,0
-0.2336042523384094,-0.906256377696991,0.2994137406349182,-4.215574741363525,4.695987224578857,75.25999450683594,34.65,0
-0.2338803857564926,-0.9118518829345704,0.2985042035579681,0.1070086136460304,4.692800521850586,75.25999450683594,34.65,0
-0.2340575903654098,-0.9098449945449828,0.3035182952880859,3.859036922454834,4.690755844116211,75.25999450683594,34.65,0
-0.2341713011264801,-0.9085570573806764,0.3067360520362854,6.635878086090088,4.689443588256836,75.25999450683594,34.65,0
-0.2342442721128463,-0.907730519771576,0.3088010251522064,8.27100944519043,4.688601493835449,75.25999450683594,34.65,0
-0.2286933362483978,-0.9072000980377196,0.3101262152194977,9.022988319396973,4.688060760498047,75.25999450683594,34.65,0
-0.2251310646533966,-0.9068596959114076,0.3053788542747497,9.272698402404783,4.687714099884033,75.25999450683594,34.65,0
-0.2284427732229232,-0.9122390151023864,0.3023322820663452,9.185750007629396,4.687491416931152,75.25999450683594,34.65,0
-0.2249702662229538,-0.9100934267044068,0.305974930524826,8.979482650756836,4.687348365783691,75.25999450683594,34.65,0
-0.2283395826816558,-0.9087164998054504,0.3027148246765136,8.879355430603027,4.688633918762207,75.34597778320312,34.65,0
-0.2249040454626083,-0.9078328609466552,0.3062204420566559,8.686127662658691,4.689458847045898,75.40116119384766,34.65,0
-0.2226993143558502,-0.9072657823562622,0.3084701299667358,8.021156311035156,4.689988613128662,75.43656921386719,34.65,0
-0.2212844491004943,-0.9069018959999084,0.3099138736724853,6.931639194488525,4.690328598022461,75.45929718017578,34.65,0
-0.2203764617443084,-0.9066683650016784,0.310840368270874,5.555342674255371,4.69054651260376,75.473876953125,34.65,0
-0.2197937667369842,-0.9065184593200684,0.3058371841907501,3.489865064620972,4.690686225891113,75.48323822021484,34.65,0
-0.2194198220968246,-0.9064222574234008,0.3026264011859894,0.3300816416740417,4.690775871276856,75.48924255371094,34.65,0
-0.2191798537969589,-0.9063605666160583,0.3005659282207489,-3.349252700805664,4.690833568572998,75.49309539794922,34.65,0
-0.2190258502960205,-0.9063209295272828,0.2992436289787292,-6.452031135559082,4.687656879425049,75.49556732177734,34.65,0
-0.2189270257949829,-0.9062955379486084,0.298395037651062,-8.600849151611328,4.6856184005737305,75.49715423583984,34.65,0
-0.2188636064529419,-0.90627920627594,0.2978504598140716,-10.320180892944336,4.684309959411621,75.49817657470703,34.65,0
-0.2188229113817215,-0.9118665456771852,0.2975009977817535,-12.28695011138916,4.683470726013184,75.49883270263672,34.65,0
-0.2187967896461486,-0.9098543524742126,0.3028745055198669,-14.494909286499023,4.682931900024414,75.49925231933594,34.65,0
-0.2187800258398056,-0.9085630774497986,0.3063229024410248,-15.768547058105469,4.682586193084717,75.49951934814453,34.65,0
-0.2187692672014236,-0.9077343940734864,0.3085359036922455,-14.651304244995115,4.682364463806152,75.49969482421875,34.65,0
-0.2187623679637909,-0.9072026014328004,0.3043583035469055,-11.100504875183104,4.68222188949585,75.49980163574219,34.65,0
-0.2187579423189163,-0.9068613052368164,0.307275116443634,-6.571948528289795,4.683048725128174,75.49987030029297,34.65,0
-0.2187550961971283,-0.9066423177719116,0.303549200296402,-2.5408530235290527,4.683579444885254,75.49991607666016,34.65,0
-0.2187532633543014,-0.9065017700195312,0.3011581301689148,0.3434261977672577,4.683919906616211,75.49994659423828,34.65,0
-0.2187521010637283,-0.906411588191986,0.2996236681938171,2.043922185897827,4.684138298034668,75.49996948242188,34.65,0
-0.2187513411045074,-0.9063537120819092,0.2986389398574829,2.916665554046631,4.68427848815918,75.4999771118164,34.65,0
-0.2187508642673492,-0.906316578388214,0.2980069816112518,3.430168390274048,4.68436861038208,75.49998474121094,34.65,0
-0.2187505513429641,-0.9118905067443848,0.2976014316082001,3.759705066680908,4.684426307678223,75.49999237060547,34.65,0
-0.2187503576278686,-0.9098697304725648,0.3029389679431915,3.845792531967163,4.6844635009765625,75.49999237060547,34.65,0
-0.2187502235174179,-0.9085729122161864,0.3063642680644989,3.743405103683472,4.684028625488281,75.49999237060547,34.65,0
-0.2187501490116119,-0.9077407121658324,0.3085624277591705,3.6741161346435542,4.683749198913574,75.49999237060547,34.65,0
-0.2187500894069671,-0.9128044247627258,0.3099730908870697,3.69413685798645,4.68356990814209,75.49999237060547,34.65,0
-0.2187500596046447,-0.9104562401771544,0.3108783662319183,3.5672645568847656,4.683454990386963,75.49999237060547,34.65,0
-0.2187500447034835,-0.9089493155479432,0.3058615624904632,3.1669960021972656,4.683381080627441,75.49999237060547,34.65,0
-0.2187500298023224,-0.9079822897911072,0.3026420474052429,2.6700942516326904,4.683333873748779,75.49999237060547,34.65,0
-0.2187500149011612,-0.9073616862297058,0.3061737418174743,2.046692371368408,4.683303356170654,75.49999237060547,34.65,0
-0.2187500149011612,-0.9069634079933168,0.3028424084186554,0.8799576759338379,4.683283805847168,75.49999237060547,34.65,0
-0.2187500149011612,-0.9067078232765198,0.3007045388221741,-0.9363930225372314,4.680975914001465,75.56806182861328,34.65,0
-0.2187500149011612,-0.906543791294098,0.2993325889110565,-2.9295973777771,4.679494857788086,75.61174774169922,34.65,0
-0.2187500149011612,-0.9064385294914246,0.3040499091148376,-4.778350830078125,4.678544521331787,75.63978576660156,34.65,0
-0.2187500149011612,-0.906370997428894,0.3070772290229797,-6.573812007904053,4.677934646606445,75.65777587890625,34.65,0
-0.2187500149011612,-0.9063276648521424,0.303422212600708,-8.453298568725586,4.6775431632995605,75.66931915283203,34.65,0
-0.2187500149011612,-0.9062998294830322,0.3066743910312652,-10.40103816986084,4.677291870117188,75.67672729492188,34.65,0
-0.2187500149011612,-0.9062819480895996,0.3087614476680755,-11.934008598327637,4.677130699157715,75.68148040771484,34.65,0
-0.2187500149011612,-0.9062705039978028,0.3101008236408233,-11.90032958984375,4.677027225494385,75.68453216552734,34.65,0
-0.2187500149011612,-0.9062631726264954,0.3053625822067261,-9.438982009887695,4.6769609451293945,75.68649291992188,34.65,0
-0.2187500149011612,-0.906258463859558,0.3023218512535095,-5.247733116149902,4.6769185066223145,75.68775177001953,34.65,0
-0.2187500149011612,-0.9118531942367554,0.3003704845905304,-1.1106703281402588,4.676891326904297,75.68856048583984,34.65,0
-0.224347785115242,-0.9098458290100098,0.3047159612178802,1.741300106048584,4.676873683929443,75.68907928466797,34.65,0
-0.2279401123523712,-0.9085575938224792,0.307504653930664,3.3207502365112305,4.676862239837647,75.68940734863281,34.65,0
-0.2302454560995102,-0.9077308773994446,0.3036965131759643,4.151638984680176,4.676855087280273,75.68962097167969,34.65,0
-0.2261271178722381,-0.9072003364562988,0.3012526631355285,4.534387111663818,4.676850318908691,75.68975830078125,34.65,0
-0.2234842032194137,-0.9068598747253418,0.2996843457221985,4.568641185760498,4.676847457885742,75.6898422241211,34.65,0
-0.2273859083652496,-0.9066413640975952,0.2986778616905212,4.483146190643311,4.67592716217041,75.68990325927734,34.65,0
-0.2298898100852966,-0.9065011739730836,0.2980319857597351,4.485601425170898,4.675336837768555,75.68994140625,34.65,0
-0.2258988916873932,-0.9064111709594728,0.3032152652740478,4.462099075317383,4.674957752227783,75.6899642944336,34.65,0
-0.2233377546072006,-0.9063534140586852,0.3009438216686249,4.185488700866699,4.6747145652771,75.68997955322266,34.65,0
-0.2216941565275192,-0.906316339969635,0.3050839006900787,3.7679436206817623,4.674558639526367,75.68998718261719,34.65,0
-0.2206393927335739,-0.9062925577163696,0.3021430075168609,3.3531014919281006,4.6744585037231445,75.68999481201172,34.65,0
-0.2199625074863433,-0.9062772989273072,0.3058534860610962,2.656970739364624,4.674394130706787,75.68999481201172,34.65,0
-0.2195281237363815,-0.906267523765564,0.3026368618011474,1.450727939605713,4.674353122711182,75.68999481201172,34.65,0
-0.219249352812767,-0.9062612652778624,0.3005726337432861,0.0926710218191146,4.673867702484131,75.68999481201172,34.65,0
-0.2190704494714737,-0.9062572121620178,0.2992479205131531,-0.9651456475257874,4.673556327819824,75.68999481201172,34.65,0
-0.2245534211397171,-0.9062546491622924,0.298397809267044,-1.7586339712142944,4.673356056213379,75.68999481201172,34.65,0
-0.2224743068218231,-0.9062529802322388,0.2978522479534149,-2.640436887741089,4.673227787017822,75.68999481201172,34.65,0
-0.2211400419473648,-0.9062519073486328,0.2975021302700043,-3.865521192550659,4.673145294189453,75.68999481201172,34.65,0
-0.2202837914228439,-0.9062512516975404,0.2972774505615234,-5.4470415115356445,4.673092365264893,75.68999481201172,34.65,0
-0.2197342962026596,-0.906250774860382,0.2971332669258117,-7.242971897125244,4.67305850982666,75.68999481201172,34.65,0
-0.2249794453382492,-0.911848247051239,0.297040730714798,-8.821823120117188,4.673037052154541,75.68999481201172,34.65,0
-0.2227476984262466,-0.909842610359192,0.2969813644886017,-9.200922966003418,4.674859046936035,75.74015045166016,34.65,0
-0.2213154882192611,-0.908555507659912,0.2969432473182678,-7.509616851806641,4.676028251647949,75.7723388671875,34.65,0
-0.2259941548109054,-0.9077295660972596,0.2969188094139099,-4.185123920440674,4.676778793334961,75.79299926757812,34.65,0
-0.2289966493844986,-0.907199501991272,0.2969031035900116,-0.6257908344268799,4.677260398864746,75.80625915527344,34.65,0
-0.2253257036209106,-0.9068593382835388,0.2968930304050445,2.374899387359619,4.677569389343262,75.81476593017578,34.65,0
-0.2229699045419693,-0.912238836288452,0.2968865633010864,4.802130222320557,4.677767753601074,75.82022094726562,34.65,0
-0.2214580923318863,-0.9100933074951172,0.2968824207782745,6.470847129821777,4.6778950691223145,75.82372283935547,34.65,0
-0.220487892627716,-0.9087164402008056,0.3024775385856628,7.190641403198242,4.677976608276367,75.82597351074219,34.65,0
-0.2254630476236343,-0.9134305715560912,0.3004703819751739,7.494930744171143,4.674816131591797,75.8274154663086,34.65,0
-0.2286558151245117,-0.916455864906311,0.2991822957992553,8.095037460327148,4.672787666320801,75.82833862304688,34.65,0
-0.2251069843769073,-0.9127995371818542,0.2983556985855102,8.93155574798584,4.671485900878906,75.82893371582031,34.65,0
-0.2228295505046844,-0.9104531407356262,0.3034229874610901,9.468384742736816,4.670650482177734,75.82931518554688,34.65,0
-0.2213680148124694,-0.9089473485946656,0.301077127456665,9.52270221710205,4.670114517211914,75.82955932617188,34.65,0
-0.2204300910234451,-0.907980978488922,0.299571692943573,9.163476943969728,4.669770240783691,75.82971954345703,34.65,0
-0.219828188419342,-0.907360851764679,0.2986055910587311,8.270170211791992,4.669549465179443,75.82981872558594,34.65,0
-0.2194419205188751,-0.9069628715515136,0.2979855835437774,6.711688995361328,4.669407844543457,75.82988739013672,34.65,0
-0.2191940397024154,-0.9067074656486512,0.2975877225399017,4.679763317108154,4.66793966293335,75.82992553710938,34.65,0
-0.2190349549055099,-0.9121413230895996,0.2973323762416839,2.4729814529418945,4.66699743270874,75.8299560546875,34.65,0
-0.2189328670501709,-0.910030722618103,0.2971685230731964,0.1933951079845428,4.666392803192139,75.82997131347656,34.65,0
-0.2188673466444015,-0.908676266670227,0.2970633804798126,-2.218894720077514,4.666004657745361,75.8299789428711,34.65,0
-0.2188253104686737,-0.9134048223495485,0.2969958782196045,-4.809492588043213,4.665755748748779,75.82998657226562,34.65,0
-0.2187983244657516,-0.9164393544197084,0.2969525754451751,-7.579005241394043,4.665596008300781,75.82999420166016,34.65,0
-0.2187810093164444,-0.9127889275550842,0.2969247698783874,-10.52065658569336,4.665493488311768,75.82999420166016,34.65,0
-0.2187698930501938,-0.910446286201477,0.2969069480895996,-13.246761322021484,4.665427684783936,75.82999420166016,34.65,0
-0.2187627702951431,-0.908942937850952,0.2968955039978027,-14.548396110534668,4.664008617401123,75.82999420166016,34.65,0
-0.2187581956386566,-0.9135759472846984,0.2968881726264953,-13.209087371826172,4.663097858428955,75.82999420166016,34.65,0
-0.2187552601099014,-0.9109513759613036,0.2968834638595581,-9.548022270202637,4.662513256072998,75.82999420166016,34.65,0
-0.218753382563591,-0.9148648381233216,0.2968804240226745,-5.296213626861572,4.662137985229492,75.82999420166016,34.65,0
-0.2187521755695343,-0.9117785096168518,0.2968784868717193,-1.7794808149337769,4.6618971824646,75.82999420166016,34.65,0
-0.2187514007091522,-0.9097979068756104,0.2968772351741791,0.7962050437927246,4.661742687225342,75.82999420166016,34.65,0
-0.2187508940696716,-0.9085268378257751,0.2968764305114746,2.4992880821228027,4.661643505096436,75.82999420166016,34.65,0
-0.2187505811452865,-0.9133089184761048,0.296875923871994,3.3987696170806885,4.6615800857543945,75.82999420166016,34.65,0
-0.2187503725290298,-0.9107800126075744,0.2968755960464477,3.943761825561523,4.66291618347168,75.8694076538086,34.65,0
-0.2187502384185791,-0.9147548675537108,0.296875387430191,4.641016483306885,4.663773536682129,75.89469909667969,34.65,0
-0.2187501490116119,-0.9173057079315186,0.2968752384185791,5.35358476638794,4.664323806762695,75.91092681884766,34.65,0
-0.2187500894069671,-0.91894268989563,0.2968751490116119,5.717723369598389,4.664677143096924,75.92134094238281,34.65,0
-0.2187500596046447,-0.919993221759796,0.2968750894069671,5.915580749511719,4.66490364074707,75.92802429199219,34.65,0
-0.2187500447034835,-0.915069580078125,0.2968750596046448,6.339907646179199,4.665049076080322,75.93231201171875,34.65,0
-0.2187500298023224,-0.9175076484680176,0.2968750298023224,6.741189002990723,4.66514253616333,75.93506622314453,34.65,0
-0.2187500149011612,-0.9134745001792908,0.2968750298023224,6.536556243896484,4.665202617645264,75.93683624267578,34.65,0
-0.2187500149011612,-0.9164840579032898,0.2968750298023224,5.706632614135742,4.663864135742188,75.93797302246094,34.65,0
-0.2187500149011612,-0.912817656993866,0.2968750298023224,4.611570835113525,4.6630048751831055,75.9386978149414,34.65,0
-0.2187500149011612,-0.9160625338554382,0.2968750298023224,3.281872510910034,4.662453651428223,75.93916320800781,34.65,0
-0.2187500149011612,-0.9125471115112304,0.2968750298023224,1.5758957862854004,4.662099838256836,75.93946075439453,34.65,0
-0.2187500149011612,-0.9102911353111268,0.2968750298023224,-0.2569125592708587,4.661872863769531,75.93965148925781,34.65,0
-0.2187500149011612,-0.9088433384895324,0.2968750298023224,-1.8952556848526,4.661726951599121,75.93977355957031,34.65,0
-0.2187500149011612,-0.9079142808914183,0.2968750298023224,-3.620174407958984,4.661633491516113,75.93985748291016,34.65,0
-0.2187500149011612,-0.9073180556297302,0.2968750298023224,-5.988194465637207,4.66157341003418,75.93991088867188,34.65,0
-0.2187500149011612,-0.912533164024353,0.2968750298023224,-8.708016395568848,4.660616874694824,75.93994140625,34.65,0
-0.2187500149011612,-0.9102821946144104,0.2968750298023224,-10.32088565826416,4.660003185272217,75.9399642944336,34.65,0
-0.2187500149011612,-0.908837616443634,0.2968750298023224,-9.432089805603027,4.659609317779541,75.93997955322266,34.65,0
-0.2187500149011612,-0.9079105854034424,0.2968750298023224,-6.103128433227539,4.659356594085693,75.93998718261719,34.65,0
-0.2187500149011612,-0.91291344165802,0.2968750298023224,-1.8315776586532595,4.659194469451904,75.93999481201172,34.65,0
-0.224347785115242,-0.9161239862442015,0.2968750298023224,1.6906592845916748,4.659090518951416,75.93999481201172,34.65,0
-0.2223423421382904,-0.9181843400001526,0.2968750298023224,3.743238925933838,4.659023761749268,75.93999481201172,34.65,0
-0.2210553586483001,-0.9139087796211244,0.2968750298023224,4.705791473388672,4.658980846405029,75.93999481201172,34.65,0
-0.2202294468879699,-0.911164939403534,0.2968750298023224,5.280511379241943,4.662625312805176,75.93999481201172,34.63,0
-0.219699427485466,-0.9094040989875792,0.2968750298023224,5.70307207107544,4.664964199066162,75.93999481201172,34.63,0
-0.2193592935800552,-0.9138718843460084,0.2968750298023224,5.687641143798828,4.6664652824401855,75.93999481201172,34.63,0
-0.2191410064697265,-0.9167390465736388,0.2968750298023224,5.136769771575928,4.667428493499756,75.93999481201172,34.63,0
-0.2190009206533432,-0.9129812717437744,0.2968750298023224,4.571879863739014,4.668046951293945,75.93999481201172,34.63,0
-0.2189110219478607,-0.9105697274208068,0.2968750298023224,4.467311859130859,4.66844367980957,75.93999481201172,34.63,0
-0.2244511097669601,-0.9090221524238586,0.2968750298023224,4.518431186676025,4.668698310852051,75.93999481201172,34.63,0
-0.2280064225196838,-0.9080290198326112,0.2968750298023224,4.085501670837402,4.668861389160156,75.93999481201172,34.63,0
-0.2302880138158798,-0.9073916673660278,0.2968750298023224,3.0589139461517334,4.664834976196289,75.97223663330078,34.63,0
-0.2317522019147873,-0.9069826602935792,0.2968750298023224,1.705089449882507,4.662250995635986,75.99292755126953,34.63,0
-0.2326918393373489,-0.9067201614379884,0.2968750298023224,0.1054374352097511,4.660592555999756,76.00621032714844,34.63,0
-0.2332948446273803,-0.9121494889259338,0.2968750298023224,-1.7487021684646606,4.659528255462647,76.01473236083984,34.63,0
-0.2336818128824234,-0.9100359678268432,0.2968750298023224,-3.6443495750427246,4.6588454246521,76.02020263671875,34.63,0
-0.2283323854207992,-0.9086796045303344,0.2968750298023224,-5.351679801940918,4.658407211303711,76.02371215820312,34.63,0
-0.2248994261026382,-0.9134069681167604,0.2968750298023224,-6.733952045440674,4.658125877380371,76.02596282958984,34.63,0
-0.2226963490247726,-0.916440725326538,0.2968750298023224,-7.653258323669434,4.657945156097412,76.02741241455078,34.63,0
-0.2212825417518615,-0.912789821624756,0.2968750298023224,-8.28620719909668,4.659206390380859,76.02833557128906,34.63,0
-0.2203752398490905,-0.9160446524620056,0.2968750298023224,-9.057819366455078,4.660016059875488,76.0289306640625,34.63,0
-0.2197929918766021,-0.9181334376335144,0.2968750298023224,-9.621065139770508,4.660535335540772,76.02931213378906,34.63,0
-0.225017100572586,-0.9138761162757874,0.2968750298023224,-8.678465843200684,4.660868644714356,76.02955627441406,34.63,0
-0.2283696383237838,-0.9167417883872986,0.2968750298023224,-5.558592319488525,4.661082744598389,76.02971649169922,34.63,0
-0.230521097779274,-0.9129830002784728,0.2968750298023224,-1.2994143962860107,4.661220073699951,76.02981567382812,34.63,0
-0.2263040095567703,-0.9105708599090576,0.2968750298023224,2.404759168624878,4.661308288574219,76.0298843383789,34.63,0
-0.2235977351665496,-0.909022867679596,0.2968750298023224,4.857118606567383,4.661365032196045,76.02992248535156,34.63,0
-0.2218610048294067,-0.91362726688385,0.2968750298023224,6.387910842895508,4.66185998916626,76.02995300292969,34.63,0
-0.2207464575767517,-0.9165821075439452,0.2968750298023224,7.284303188323975,4.662177562713623,76.02996826171875,34.63,0
-0.2200312167406082,-0.912880539894104,0.2968750298023224,7.512046337127685,4.662381649017334,76.02997589111328,34.63,0
-0.2195722162723541,-0.9161028861999512,0.2968750298023224,7.285611152648926,4.662512302398682,76.02998352050781,34.63,0
-0.2248754203319549,-0.9181708097457886,0.2968750298023224,7.007742881774902,4.662596225738525,76.02999114990234,34.63,0
-0.228278711438179,-0.9139000773429872,0.2968750298023224,6.736275672912598,4.662650108337402,76.02999114990234,34.63,0
-0.2304627597332,-0.9167571663856506,0.2968750298023224,6.418760776519775,4.662684917449951,76.02999114990234,34.63,0
-0.2262665778398513,-0.9185906648635864,0.2968750298023224,6.351135730743408,4.662707328796387,76.02999114990234,34.63,0
-0.229171484708786,-0.9197673201560974,0.2968750298023224,6.762724876403809,4.659967422485352,76.02999114990234,34.66,0
-0.2254379093647003,-0.9149246215820312,0.2968750298023224,7.123588562011719,4.658208847045898,76.02999114990234,34.66,0
-0.2230419218540191,-0.917414665222168,0.2968750298023224,6.602829456329346,4.657080173492432,76.02999114990234,34.66,0
-0.2215043157339096,-0.9190126061439514,0.2968750298023224,5.05772590637207,4.656355857849121,76.02999114990234,34.66,0
-0.220517560839653,-0.9144403338432312,0.2968750298023224,3.0522983074188232,4.655891418457031,76.02999114990234,34.66,0
-0.2198843210935592,-0.9171038866043092,0.2968750298023224,1.1455447673797607,4.655592918395996,76.02999114990234,34.66,0
