acc_x,acc_y,acc_z,bvp,eda,hr,temp,label
0.0,0.0,0.0,0.0,0.0,0.0,23.63,0
0.0104166660457849,-0.0312499981373548,0.1666666567325592,-0.51666659116745,0.0997746661305427,9.083333015441896,23.63,0
0.0243902448564767,-0.0731707289814949,0.3986280560493469,-1.641707420349121,0.2336187362670898,21.268293380737305,23.63,0
0.0215946845710277,-0.1146179437637329,0.5954111218452454,-2.792525053024292,0.3500400483608246,31.86710929870605,23.63,0
0.040907971560955,-0.1341795176267624,0.7282986044883728,-3.7038540840148926,0.434975653886795,39.599517822265625,23.63,0
0.0979016497731208,-0.1638926863670349,0.8127793073654175,-4.591395378112793,0.4924806654453277,44.83468627929688,23.63,0
0.0797669366002082,-0.1778357326984405,0.8404453992843628,-5.56468677520752,0.5302122235298157,48.26970672607422,23.63,0
0.0847599729895591,-0.1812866181135177,0.8639427423477173,-6.405715465545654,0.5546491146087646,50.49440383911133,23.63,0
0.1103370413184166,-0.2058702856302261,0.8902593851089478,-6.63979959487915,0.5584718585014343,51.927490234375,23.63,0
0.0988032892346382,-0.176914095878601,0.9071742296218872,-6.07772159576416,0.5609288811683655,52.848594665527344,23.63,0
0.0578179322183132,-0.1695127338171005,0.9236326217651368,-5.42307710647583,0.5625066757202148,53.440086364746094,23.63,0
0.0538979172706604,-0.1871506869792938,0.9397947192192078,-5.665566921234131,0.5635194778442383,53.81977081298828,23.63,0
0.0401868894696235,-0.1928733885288238,0.9501677751541138,-6.738303184509277,0.5641695261001587,54.06345748901367,23.63,0
0.0313875488936901,-0.1965460479259491,0.9512271881103516,-7.727685928344727,0.5645866990089417,54.2198486328125,23.63,0
0.031338270753622,-0.1989029943943023,0.9519070982933044,-8.369791984558105,0.5648544430732727,54.32021331787109,23.63,0
0.0313066467642784,-0.1948177963495254,0.9523434042930604,-9.380149841308594,0.5650262832641602,54.38462448120117,23.63,0
0.0256885848939418,-0.1921961456537246,0.9526234269142152,-11.39708423614502,0.5802850723266602,54.42595672607422,23.63,0
0.0276810023933649,-0.1905137151479721,0.9528031349182128,-14.357335090637209,0.59007728099823,54.452484130859375,23.63,0
0.0233618486672639,-0.1894340217113495,0.958516240119934,-18.012516021728516,0.5963613390922546,54.469505310058594,23.63,0
0.026187838986516,-0.1943389177322387,0.9565848112106324,-22.53282356262207,0.6003941297531128,54.480430603027344,23.63,0
0.0280013959854841,-0.1974865943193435,0.955345332622528,-28.2424373626709,0.6029821038246155,54.48744201660156,23.63,0
0.0235674586147069,-0.1995065957307815,0.9545499086380004,-34.930233001708984,0.604642927646637,54.49193954467773,23.63,0
0.0207220129668712,-0.2064006924629211,0.9484416246414183,-42.1096305847168,0.6057087779045105,54.49482727050781,23.63,0
0.03009151853621,-0.2164227068424224,0.938923954963684,-50.00217819213867,0.6063927412033081,54.496681213378906,23.63,0
0.0305065531283617,-0.2172564715147018,0.9328160285949708,-59.17279052734375,0.6137174367904663,54.49787139892578,23.63,0
0.0419684462249279,-0.2345848679542541,0.9232985377311708,-69.11343383789062,0.6184179782867432,54.498634338378906,23.63,0
0.054921805858612,-0.2624985575675964,0.90599524974823,-78.76007843017578,0.6214345097541809,54.499122619628906,23.63,0
0.0632345229387283,-0.308400809764862,0.8613043427467346,-88.35060119628906,0.623370349407196,54.49943542480469,23.63,0
0.0573736019432544,-0.3546515703201294,0.759853184223175,-99.2736587524414,0.6246126890182495,54.499637603759766,23.63,0
0.0368190743029117,-0.3731370866298675,0.6723566055297852,-112.43473052978516,0.6254099607467651,54.4997673034668,23.63,0
0.0068350406363606,-0.3794022500514984,0.5994129776954651,-127.35088348388672,0.6259215474128723,54.49985122680664,23.63,0
-0.0236025378108024,-0.3834228813648224,0.5526019930839539,-139.6137237548828,0.6262499094009399,54.49990463256836,23.63,0
-0.0711244940757751,-0.3748075366020202,0.539354681968689,-139.01768493652344,0.629214882850647,55.03732681274414,23.61,0
-0.1296102255582809,-0.4196586906909942,0.5476466417312622,-114.95076751708984,0.6311176419258118,55.3822135925293,23.61,0
-0.1895340979099273,-0.4820282161235809,0.5697612762451172,-63.87729644775391,0.6323387026786804,55.6035385131836,23.61,0
-0.2615764439105987,-0.5836288928985596,0.5951487421989441,9.743659019470217,0.6331223249435425,55.74557495117188,23.61,0
-0.3022112846374511,-0.688014805316925,0.6114409565925598,94.4989242553711,0.6336252093315125,55.83672332763672,23.61,0
-0.3114950656890869,-0.8053836226463318,0.5995052456855774,173.41268920898438,0.6339479088783264,55.89521789550781,23.61,0
-0.3062573075294494,-0.931084156036377,0.5750522613525391,233.03294372558597,0.6341550350189209,55.93275833129883,23.61,0
-0.29729825258255,-1.0397404432296753,0.5537620186805725,272.6766662597656,0.63428795337677,55.95684814453125,23.61,0
-0.2971466183662414,-1.148654222488403,0.5177080631256104,300.3532409667969,0.6357503533363342,55.97230911254883,23.61,0
-0.313842624425888,-1.2241464853286743,0.477777361869812,321.8761901855469,0.6366888284683228,55.98223114013672,23.61,0
-0.3749371469020843,-1.2502020597457886,0.412967711687088,335.1510009765625,0.6372911334037781,55.98859786987305,23.61,0
-0.4533285200595855,-1.227738618850708,0.371376633644104,331.52508544921875,0.6376776099205017,55.99268341064453,23.61,0
-0.4980378150939941,-1.2021273374557495,0.3502836227416992,303.1385192871094,0.6379256844520569,55.995304107666016,23.61,0
-0.5043385624885559,-1.152104735374451,0.3311495780944824,249.5078887939453,0.6380848288536072,55.99698638916016,23.61,0
-0.4971864521503448,-1.1088075637817385,0.3300659954547882,175.0913848876953,0.6381869912147522,55.99806594848633,23.61,0
-0.470205545425415,-1.047435283660889,0.3349683880805969,87.006103515625,0.6382525563240051,55.99876022338867,23.61,0
-0.4304996728897095,-0.991256833076477,0.3493100106716156,-0.0956598222255706,0.639671802520752,55.99920272827149,23.61,0
-0.3938231766223907,-0.9552047252655028,0.3585136532783508,-67.41738891601562,0.6405825614929199,55.999488830566406,23.61,0
-0.3534929752349853,-0.9432641267776488,0.3644200265407562,-106.9627914428711,0.6411670446395874,55.99967193603516,23.61,0
-0.3220136165618896,-0.93560129404068,0.3682103753089905,-125.24726104736328,0.6415421366691589,55.99979019165039,23.61,0
-0.3074097335338592,-0.9418792724609376,0.3650450408458709,-131.06634521484375,0.641782820224762,55.9998664855957,23.61,0
-0.3204289078712463,-0.9459081292152404,0.3686114847660064,-128.67091369628906,0.6419373154640198,55.99991607666016,23.61,0
-0.3287838697433471,-0.9484935998916626,0.3764979839324951,-121.70606231689452,0.6420364379882812,55.99994659423828,23.61,0
-0.3117544949054718,-0.9613483548164368,0.3983524143695831,-113.95478057861328,0.6421000361442566,55.99996566772461,23.61,0
-0.2952282428741455,-0.9640000462532043,0.4179750978946686,-105.77762603759766,0.6416816115379333,55.999977111816406,23.61,0
-0.2342426925897598,-0.9712995290756226,0.4473611414432525,-95.39617156982422,0.6414130926132202,55.99998474121094,23.61,0
-0.1391279399394989,-0.953592836856842,0.455023854970932,-83.3206787109375,0.6412407755851746,55.9999885559082,23.61,0
-0.0892843008041381,-0.9254363775253296,0.4543435871601105,-72.17862701416016,0.6411301493644714,55.99999237060547,23.61,0
-0.1020797193050384,-0.8849760890007019,0.4371137022972107,-62.8823356628418,0.641059160232544,55.999996185302734,23.61,0
-0.1326821744441986,-0.8534132242202759,0.4204587638378143,-53.99312973022461,0.6410136222839355,55.999996185302734,23.61,0
-0.1635166257619857,-0.8219624161720276,0.4041728079319,-44.684478759765625,0.6409844160079956,55.999996185302734,23.61,0
-0.177706629037857,-0.8017790913581848,0.3881236612796783,-35.955718994140625,0.6409656405448914,55.999996185302734,23.61,0
-0.198008507490158,-0.7888266444206238,0.3778242468833923,-28.770605087280277,0.6450849771499634,56.17912673950195,23.63,0
-0.2222326248884201,-0.8085033297538757,0.3768124282360077,-22.84122467041016,0.6477285623550415,56.29408264160156,23.63,0
-0.2377782762050628,-0.8323262929916382,0.3817608952522278,-17.488418579101562,0.6494250297546387,56.36785507202149,23.63,0
-0.2477545738220214,-0.8644077777862549,0.3905343115329742,-12.759984970092772,0.650513768196106,56.41519546508789,23.63,0
-0.265352338552475,-0.9017891883850098,0.4073601365089416,-9.173831939697266,0.6512124538421631,56.44557571411133,23.63,0
-0.2878411114215851,-0.9481695294380188,0.4293535053730011,-6.81870698928833,0.6516607999801636,56.46507263183594,23.63,0
-0.3246642053127289,-1.0115203857421875,0.4378698170185089,-5.167603015899658,0.6519485712051392,56.47758483886719,23.63,0
-0.3482951521873474,-1.0353820323944092,0.4321395456790924,-3.789170265197754,0.6521332263946533,56.48561477661133,23.63,0
-0.3074823915958404,-0.9779239296913148,0.4060710966587066,-2.671704053878784,0.6568424701690674,56.49076843261719,23.63,0
-0.2309111505746841,-0.913061797618866,0.3893418610095978,-1.857848882675171,0.6598645448684692,56.49407577514648,23.63,0
-0.1929676830768585,-0.8714370131492615,0.3786059916019439,-1.192260503768921,0.6618039608001709,56.49619674682617,23.63,0
-0.2078021615743637,-0.8615179061889648,0.3661185801029205,-0.4892658591270447,0.6630485653877258,56.49755859375,23.63,0
-0.2397131770849228,-0.8663479685783386,0.352507084608078,0.2878899872303009,0.6638472676277161,56.49843215942383,23.63,0
-0.271387368440628,-0.869447648525238,0.3325764834880829,0.997995913028717,0.6643598675727844,56.49899291992188,23.63,0
-0.2693229615688324,-0.8714368343353271,0.3141883909702301,1.3677191734313965,0.6646888256072998,56.49935531616211,23.63,0
-0.2512048184871673,-0.8727133870124817,0.3079857230186462,1.1965726613998413,0.6648998856544495,56.49958801269531,23.63,0
-0.2115887552499771,-0.8735325932502747,0.3096030056476593,0.5672671794891357,0.6650353670120239,56.49973678588867,23.63,0
-0.1805676817893982,-0.8684605360031128,0.3106408715248108,-0.2485810220241546,0.6651222705841064,56.49983215332031,23.63,0
-0.1718556880950927,-0.848412275314331,0.322502464056015,-0.969187080860138,0.6651780605316162,56.49989318847656,23.63,0
-0.1606670618057251,-0.8467419743537903,0.3189190030097961,-1.3492313623428345,0.6652138829231262,56.49993133544922,23.63,0
-0.1702801585197448,-0.834474503993988,0.3054237961769104,-1.3889150619506836,0.6652368307113647,56.49995422363281,23.63,0
-0.2100359499454498,-0.8098086714744568,0.3079589009284973,-1.4179643392562866,0.665251612663269,56.49996948242188,23.63,0
-0.2243533730506897,-0.7939795255661011,0.3207813203334808,-1.64797842502594,0.6652610898017883,56.49998092651367,23.63,0
-0.2279437035322189,-0.8286035060882568,0.3346078097820282,-1.9711344242095947,0.6652671694755554,56.4999885559082,23.63,0
-0.2190522104501724,-0.8844098448753357,0.3546763956546783,-2.2931597232818604,0.6661888957023621,56.49999237060547,23.63,0
-0.2189439386129379,-0.9314186573028564,0.3675552606582641,-2.575051069259644,0.666780412197113,56.499996185302734,23.63,0
-0.2076789140701294,-0.9895750880241394,0.3758201599121094,-2.619814872741699,0.6671600341796875,56.499996185302734,23.63,0
-0.2004496604204177,-1.0716787576675415,0.3755263388156891,-2.347605466842652,0.6674036383628845,56.499996185302734,23.63,0
-0.2014081180095672,-1.0907814502716064,0.3809355497360229,-2.0081186294555664,0.6675599813461304,56.499996185302734,23.63,0
-0.1852298825979232,-0.9910849928855896,0.3620157837867737,-1.822498679161072,0.6676602959632874,56.499996185302734,23.63,0
-0.1692498475313186,-0.9103122353553772,0.327483057975769,-1.6997959613800049,0.6677246689796448,56.499996185302734,23.63,0
-0.1477992236614227,-0.9200524687767028,0.2997241616249084,-1.4060978889465332,0.6677659749984741,56.499996185302734,23.63,0
-0.1396312266588211,-0.9430965185165404,0.2875078916549682,-0.9417610168457032,0.6705467700958252,56.75077819824219,23.61,0
-0.1735738962888717,-0.9354937672615052,0.2852659523487091,-0.6258634924888611,0.6723313331604004,56.91171646118164,23.61,0
-0.1953563541173935,-0.8914303183555603,0.2950227558612823,-0.6703363060951233,0.6734765768051147,57.01499557495117,23.61,0
-0.2037373036146164,-0.8575551509857178,0.3068818747997284,-0.8457620143890381,0.6742115020751953,57.081275939941406,23.61,0
-0.1979201734066009,-0.8246204853057861,0.303296834230423,-0.8472803235054016,0.674683153629303,57.123809814453125,23.61,0
-0.1885892897844314,-0.8034849166870117,0.3065939247608185,-0.6619607210159302,0.6749858260154724,57.15110397338867,23.61,0
-0.1826012730598449,-0.7675302028656006,0.3199053704738617,-0.3603219091892242,0.6751800775527954,57.16862106323242,23.61,0
-0.212345153093338,-0.733260989189148,0.3284478783607483,0.0517896302044391,0.6753047108650208,57.17986297607422,23.61,0
-0.2482263892889022,-0.7448556423187256,0.3451255261898041,0.3520848155021667,0.6744668483734131,57.18707656860352,23.61,0
-0.2880462110042572,-0.8138719201087952,0.3782193660736084,0.2116174697875976,0.6739291548728943,57.191707611083984,23.61,0
-0.3136003017425537,-0.8693581819534302,0.4050548672676086,-0.1830453127622604,0.6735841035842896,57.19467926025391,23.61,0
-0.3244016468524933,-0.9273571372032166,0.4334719181060791,-0.174789160490036,0.673362672328949,57.19658660888672,23.61,0
-0.3145400285720825,-1.0093597173690796,0.4517083466053009,0.4682076275348663,0.6732205748558044,57.19781112670898,23.61,0
-0.2858203053474426,-1.1067664623260498,0.4690091907978058,1.2068603038787842,0.6731293797492981,57.1985969543457,23.61,0
-0.261791855096817,-1.1524832248687744,0.4857096672058105,1.52325177192688,0.6730708479881287,57.199100494384766,23.61,0
-0.2575673460960388,-1.1482349634170532,0.4740359783172607,1.446852684020996,0.6730332970619202,57.19942474365234,23.61,0
-0.2604540586471557,-1.0839331150054932,0.4273600280284881,1.1291309595108032,0.678517758846283,57.19963073730469,23.61,0
-0.2623066008090973,-1.0370701551437378,0.3694172203540802,0.5920559763908386,0.682037353515625,57.19976425170898,23.61,0
-0.257897675037384,-1.0125939846038818,0.3378306329250335,0.0575156696140766,0.6842960119247437,57.19984817504883,23.61,0
-0.2662638127803802,-0.9912887811660768,0.3287557363510132,-0.192374587059021,0.6857455372810364,57.19990158081055,23.61,0
-0.2548393905162811,-0.9664207696914672,0.3285297751426697,-0.2739230990409851,0.6866757273674011,57.19993591308594,23.61,0
-0.2139212191104889,-0.9168752431869508,0.3059936761856079,-0.4552289545536041,0.6872726678848267,57.19995880126953,23.61,0
-0.1820645183324813,-0.8738842606544495,0.2915312945842743,-0.6647276282310486,0.6876557469367981,57.199974060058594,23.61,0
-0.1672184914350509,-0.85189288854599,0.282250165939331,-0.7669286131858826,0.6879016160964966,57.19998550415039,23.61,0
-0.1744844913482666,-0.8321822881698608,0.265098512172699,-0.8540107607841492,0.6830097436904907,57.199989318847656,23.61,0
-0.1847451627254486,-0.8195331692695618,0.248493805527687,-0.924225389957428,0.6798704266548157,57.19999313354492,23.61,0
-0.1857321113348007,-0.8058179616928101,0.2490334063768386,-0.7901563048362732,0.6778557896614075,57.19999694824219,23.61,0
-0.1919632405042648,-0.8194074034690857,0.2549774646759033,-0.4676685035228729,0.6765629053115845,57.19999694824219,23.61,0
-0.2071575671434402,-0.8449216485023499,0.2587920129299164,-0.1890628933906555,0.675733208656311,57.19999694824219,23.61,0
-0.2281039655208587,-0.8836863040924072,0.2724355459213257,-0.1177471056580543,0.6752007603645325,57.19999694824219,23.61,0
-0.2415461540222168,-0.8973677158355713,0.2923867106437683,-0.2511095404624939,0.6748591065406799,57.19999694824219,23.61,0
-0.2277814894914627,-0.928538739681244,0.3219835460186004,-0.3474415838718414,0.6746398210525513,57.19999694824219,23.61,0
-0.1853614747524261,-0.9709336161613464,0.3465748727321625,-0.126238465309143,0.6767944693565369,57.72663497924805,23.61,0
-0.1581387519836425,-0.981346845626831,0.3567583858966827,0.3094881772994995,0.6781771779060364,58.06460189819336,23.61,0
-0.196646511554718,-0.9208561778068542,0.3800868988037109,0.6965897083282471,0.6790645122528076,58.28149032592773,23.61,0
-0.2213585823774337,-0.8876345157623291,0.4062533378601074,1.0166606903076172,0.6796339750289917,58.420677185058594,23.61,0
-0.2204240411520004,-0.9166947603225708,0.4174476861953735,1.1826554536819458,0.6799994111061096,58.5099983215332,23.61,0
-0.2142265290021896,-0.9241483807563782,0.4022404849529266,0.9345064163208008,0.680233895778656,58.56731796264648,23.61,0
-0.2102493196725845,-0.9009428024291992,0.3924813866615295,0.3955056369304657,0.6803843975067139,58.604103088378906,23.61,0
-0.2076969742774963,-0.8580619692802429,0.3862185478210449,-0.0471235811710357,0.68048095703125,58.62771224975586,23.61,0
-0.2116568088531494,-0.8249457478523254,0.3766016364097595,-0.3670032918453216,0.6805429458618164,58.642860412597656,23.61,0
-0.2253935486078262,-0.8148891925811768,0.3592345118522644,-0.694091260433197,0.6805827021598816,58.65258407592773,23.61,0
-0.2398067712783813,-0.8084354996681213,0.3424915075302124,-0.8395111560821533,0.6806082129478455,58.65882110595703,23.61,0
-0.2434585690498352,-0.7986961007118225,0.3373445868492126,-0.6963832378387451,0.6806246042251587,58.66282653808594,23.61,0
-0.2625954151153564,-0.7756525874137878,0.3508349359035492,-0.5651236772537231,0.6806351542472839,58.66539764404297,23.61,0
-0.2804740965366363,-0.7664623260498047,0.365090012550354,-0.6421047449111938,0.6806418895721436,58.66704559326172,23.61,0
-0.2919476330280304,-0.7997490167617798,0.3966292142868042,-0.6879242062568665,0.6806462407112122,58.6681022644043,23.61,0
-0.3049084544181824,-0.8658926486968994,0.4280647933483124,-0.5238693952560425,0.6806490421295166,58.66878128051758,23.61,0
-0.307628184556961,-0.9195353984832764,0.4538361132144928,-0.3469369411468506,0.6820279359817505,58.66921615600586,23.61,0
-0.3093735575675964,-0.9819490909576416,0.4703746736049652,-0.3480342924594879,0.6829128861427307,58.66949462890625,23.61,0
-0.3104936182498932,-1.0667848587036133,0.4977814853191376,-0.3594862520694732,0.6834807991981506,58.66967391967773,23.61,0
-0.3447990715503692,-1.1436185836791992,0.5209673643112183,-0.0838119834661483,0.6838452219963074,58.6697883605957,23.61,0
-0.344423234462738,-1.1257528066635132,0.4854667782783508,0.4800180792808532,0.684079110622406,58.669864654541016,23.61,0
-0.316193163394928,-1.05830979347229,0.4514890015125274,1.0711365938186646,0.6842291951179504,58.66991424560547,23.61,0
-0.2532945275306701,-0.9982354640960692,0.407292902469635,1.443317174911499,0.6843255162239075,58.6699447631836,23.61,0
-0.1961364895105362,-0.9708787798881532,0.378930389881134,1.4027204513549805,0.6843873262405396,58.66996383666992,23.61,0
-0.1818468570709228,-0.9589205980300904,0.3551312088966369,0.8822723627090454,0.6853448152542114,58.66997528076172,23.61,0
-0.1894699186086654,-0.917659878730774,0.3286626935005188,0.1828560084104538,0.6859592795372009,58.66998291015625,23.61,0
-0.1999597251415252,-0.8855833411216736,0.3004812002182007,-0.2301633656024933,0.6863536238670349,58.66998672485352,23.61,0
-0.1954959332942962,-0.864998459815979,0.2823959290981293,-0.2766783237457275,0.6866067051887512,58.66999053955078,23.61,0
-0.192631334066391,-0.8517882823944092,0.2651920616626739,-0.2097994089126587,0.6867691278457642,58.66999435424805,23.61,0
-0.20198854804039,-0.8377129435539246,0.2429560720920562,-0.2027061134576797,0.6868733167648315,58.66999435424805,23.61,0
-0.2023956924676895,-0.8342779874801636,0.2230885177850723,-0.2769707143306732,0.6869401931762695,58.66999435424805,23.61,0
-0.2026569694280624,-0.8320736289024353,0.2159364372491836,-0.3926984071731567,0.6869831085205078,58.66999435424805,23.61,0
-0.2084224224090576,-0.8418545722961426,0.2225421965122223,-0.5063741207122803,0.6819613575935364,59.04258346557617,23.59,0
-0.2177201360464096,-0.8705224990844727,0.2323791682720184,-0.6545587182044983,0.6787387132644653,59.28168869018555,23.59,0
-0.190100222826004,-0.9392998814582824,0.2442897409200668,-0.8857929110527039,0.6766706109046936,59.43513488769531,23.59,0
-0.1779731214046478,-0.9834372401237488,0.274324357509613,-1.0520986318588257,0.67534339427948,59.53360748291016,23.59,0
-0.1645928770303726,-1.0341532230377195,0.3047944009304046,-0.9402869343757628,0.6744917035102844,59.5968017578125,23.59,0
-0.1783972978591919,-1.0834931135177612,0.3131527602672577,-0.5604311227798462,0.6739451289176941,59.63735580444336,23.59,0
-0.192853957414627,-1.087167739868164,0.3353100121021271,-0.1446978896856308,0.6735943555831909,59.66337966918945,23.59,0
-0.218924731016159,-1.0167548656463623,0.3775181174278259,0.0361139550805091,0.6733692288398743,59.68008041381836,23.59,0
-0.1572866141796112,-0.9715678691864014,0.3710182011127472,-0.0520582310855388,0.6778151392936707,59.690799713134766,23.59,0
-0.112133041024208,-0.9481672644615172,0.3444558382034302,-0.0620685815811157,0.6806682348251343,59.69767761230469,23.59,0
-0.0999494045972824,-0.9219545125961304,0.3218118548393249,0.2646868824958801,0.6824991703033447,59.702091217041016,23.59,0
-0.1033261939883232,-0.8883394002914429,0.3184758126735687,0.7144123315811157,0.683674156665802,59.704925537109375,23.59,0
-0.1334820985794067,-0.8275827169418335,0.3107371628284454,0.9743596315383912,0.6844282150268555,59.70674133300781,23.59,0
-0.1752255111932754,-0.78299480676651,0.2945753931999206,1.0014584064483645,0.6849121451377869,59.70790863037109,23.59,0
-0.2076118141412735,-0.7599785923957825,0.2842037081718445,0.8934586644172668,0.6852226853370667,59.70865631103516,23.59,0
-0.2339932471513748,-0.7620014548301697,0.2831455171108246,0.7310036420822144,0.6854220032691956,59.70913696289063,23.59,0
-0.2509233355522156,-0.7632996439933777,0.2880642116069793,0.5407675504684448,0.6846317052841187,59.70944595336914,23.59,0
-0.2617881000041961,-0.7641327381134033,0.3080140650272369,0.2467213720083236,0.6841245293617249,59.70964431762695,23.59,0
-0.268760472536087,-0.7758628726005554,0.3320122957229614,-0.1820130944252014,0.6837990283966064,59.70977020263672,23.59,0
-0.26763716340065,-0.794586181640625,0.3418152034282684,-0.6040357947349548,0.6835901737213135,59.7098503112793,23.59,0
-0.2557207345962524,-0.8625794649124146,0.3648994565010071,-0.8175445199012756,0.6834561228752136,59.709903717041016,23.59,0
-0.2536712288856506,-0.9342024922370912,0.3965069353580475,-0.7360249757766724,0.6833701133728027,59.709938049316406,23.59,0
-0.2747470736503601,-0.974568247795105,0.4167907834053039,-0.4902513325214386,0.6833149194717407,59.7099609375,23.59,0
-0.3050656616687774,-1.050852656364441,0.4521988928318023,-0.2895370423793793,0.6832794547080994,59.70997619628906,23.59,0
-0.3413157165050506,-1.0942097902297974,0.4861173331737518,-0.0998264029622078,0.6823388338088989,59.7099838256836,23.59,0
-0.3589811325073242,-1.043665051460266,0.4910908937454223,0.3550985157489776,0.6817352175712585,59.70998764038086,23.59,0
-0.3647200167179107,-0.9944350719451904,0.4662937819957733,1.1235257387161257,0.6813478469848633,59.709991455078125,23.59,0
-0.3404140174388885,-0.9964287281036376,0.4391848742961883,1.8531080484390257,0.6810992956161499,59.70999526977539,23.59,0
-0.3080224990844726,-0.9921103715896606,0.4105923771858215,2.113522529602051,0.6809397339820862,59.70999526977539,23.59,0
-0.2816377282142639,-0.9725458025932312,0.3866455852985382,1.721759796142578,0.6808373928070068,59.70999526977539,23.59,0
-0.2423143982887268,-0.9264037609100342,0.3656801283359527,0.9293801188468932,0.6807717084884644,59.70999526977539,23.59,0
-0.2058833986520767,-0.8855968713760376,0.3522257208824157,0.259660542011261,0.6807295083999634,59.70999526977539,23.59,0
-0.1881018579006195,-0.8370182514190674,0.3323959112167358,-0.0554844997823238,0.680243194103241,59.99301910400391,23.59,0
-0.1934840083122253,-0.8058432936668396,0.3028769493103027,-0.23264841735363,0.679931104183197,60.17464828491211,23.59,0
-0.2025357335805893,-0.7858369946479797,0.2783356010913849,-0.4502367079257965,0.6797308325767517,60.29120635986328,23.59,0
-0.1971490681171417,-0.789791464805603,0.262586385011673,-0.6436110138893127,0.6796022653579712,60.36600875854492,23.59,0
-0.1936922222375869,-0.8147202730178833,0.2580772042274475,-0.7892029285430908,0.679519772529602,60.41401290893555,23.59,0
-0.2026693671941757,-0.8699026107788086,0.2663790285587311,-0.9650346636772156,0.6794668436050415,60.44481658935547,23.59,0
-0.2084303796291351,-0.9333043098449708,0.2717066705226898,-1.128029465675354,0.6794328689575195,60.4645881652832,23.59,0
-0.2009319067001342,-0.968394100666046,0.2695278525352478,-1.1323180198669434,0.6794110536575317,60.47727584838867,23.59,0
-0.2017176002264022,-0.9685215950012208,0.2849229574203491,-1.0025148391723633,0.6784791946411133,60.48541641235352,23.59,0
-0.1966240406036377,-0.9797989726066588,0.3171937465667724,-0.8941366076469421,0.6778811812400818,60.49064254760742,23.59,0
-0.1989530622959137,-1.015025019645691,0.3490988314151764,-0.7386038899421692,0.6774974465370178,60.49399566650391,23.59,0
-0.1892521381378173,-0.981653332710266,0.3807692229747772,-0.3199427127838135,0.6772511601448059,60.49614715576172,23.59,0
-0.1886244267225265,-0.9378461837768556,0.401093453168869,0.2210057079792022,0.6770931482315063,60.49752807617188,23.59,0
-0.149037167429924,-0.9321243762969972,0.3917452692985534,0.4929211735725403,0.6769917011260986,60.4984130859375,23.59,0
-0.1236323490738868,-0.9396480321884156,0.3689528405666351,0.4882920682430267,0.6769266128540039,60.49898147583008,23.59,0
-0.1297200918197631,-0.950074017047882,0.3543259501457214,0.5211471319198608,0.6768848299980164,60.49934768676758,23.59,0
-0.1448224037885666,-0.9231781959533693,0.3561348021030426,0.6640391945838928,0.6786940693855286,60.49958038330078,23.59,0
-0.1657097488641739,-0.8835269212722778,0.3516978621482849,0.6984179019927979,0.6798551678657532,60.49972915649414,23.59,0
-0.1903095990419387,-0.835689902305603,0.3264593780040741,0.4589521288871765,0.6806002855300903,60.49982452392578,23.59,0
-0.21169413626194,-0.804990828037262,0.3102627694606781,0.0043404321186244,0.6810784339904785,60.49988555908203,23.59,0
-0.2254174947738647,-0.790887713432312,0.3054665029048919,-0.4199584424495697,0.681385338306427,60.49992752075195,23.59,0
-0.2398221343755722,-0.7762393951416016,0.307986319065094,-0.6385104060173035,0.6815822720527649,60.49995422363281,23.59,0
-0.2546639740467071,-0.7612411379814148,0.3207989335060119,-0.6533743739128113,0.6817086338996887,60.49996948242188,23.59,0
-0.2585908472537994,-0.7572138905525208,0.3402168750762939,-0.5124450325965881,0.681789755821228,60.49998092651367,23.59,0
-0.2667086720466614,-0.7770205736160278,0.3638737499713897,-0.3145274221897125,0.680923581123352,60.4999885559082,23.59,0
-0.2831137478351593,-0.8569046258926392,0.3958486914634704,-0.2125933170318603,0.6803677082061768,60.49999237060547,23.59,0
-0.2992393672466278,-0.9529518485069276,0.4219661355018616,-0.200916513800621,0.680010974407196,60.499996185302734,23.59,0
-0.3151856362819671,-1.0537738800048828,0.4331290423870086,-0.1468495279550552,0.6797820329666138,60.499996185302734,23.59,0
-0.2918323874473572,-1.1184755563735962,0.4794771671295166,-0.076326698064804,0.6796351671218872,60.499996185302734,23.59,0
-0.2992367148399353,-1.1599974632263184,0.5092207193374634,-0.0597298070788383,0.6795408725738525,60.499996185302734,23.59,0
-0.2983906269073486,-1.0970793962478638,0.4723306894302368,0.0082423323765397,0.6794803738594055,60.499996185302734,23.59,0
-0.2866520881652832,-1.034311056137085,0.426265686750412,0.2417394667863845,0.6794415712356567,60.499996185302734,23.59,0
-0.2511301040649414,-0.9828344583511353,0.3799104988574981,0.6244518160820007,0.679875910282135,60.718536376953125,23.61,0
-0.2507252395153045,-0.9553974866867064,0.3501624166965484,1.0814266204833984,0.6801546812057495,60.85877990722656,23.61,0
-0.267258733510971,-0.943387806415558,0.3310717940330505,1.4570859670639038,0.6803335547447205,60.94878005981445,23.61,0
-0.2778689861297607,-0.9188873767852784,0.3132227659225464,1.544111728668213,0.6804483532905579,61.00653839111328,23.61,0
-0.2678847014904022,-0.891968846321106,0.2961705029010772,1.2846932411193848,0.6805220246315002,61.04360580444336,23.61,0
-0.2222929447889328,-0.8914874196052551,0.2796295583248138,0.7814512848854065,0.6805692911148071,61.06739044189453,23.61,0
-0.1930347830057144,-0.8855806589126587,0.2634167671203613,0.2292147278785705,0.6805996298789978,61.08265686035156,23.61,0
-0.1798563599586486,-0.881790041923523,0.2530123293399811,-0.1538395285606384,0.6806191205978394,61.09245300292969,23.61,0
-0.1769969761371612,-0.8793574571609497,0.2463353723287582,-0.3136799037456512,0.677418053150177,61.09873962402344,23.61,0
-0.175161987543106,-0.8777963519096375,0.2420504838228225,-0.4914903342723846,0.6753637790679932,61.10277557373047,23.61,0
-0.1795821785926818,-0.8935878872871399,0.2393006831407547,-0.8671268224716187,0.6740455031394958,61.10536575317383,23.61,0
-0.1936143487691879,-0.942906379699707,0.2375360131263733,-1.2514917850494385,0.673199474811554,61.107025146484375,23.61,0
-0.2026193886995315,-0.9801539182662964,0.2364035546779632,-1.2760354280471802,0.6726565361022949,61.10808944702149,23.61,0
-0.2083982974290847,-0.9928616881370544,0.2468723654747009,-0.8905376195907593,0.6723081469535828,61.10877227783203,23.61,0
-0.2065090984106063,-0.9954190254211426,0.2647861838340759,-0.4353578984737396,0.6720845699310303,61.10921096801758,23.61,0
-0.2052967250347137,-1.0026580095291138,0.3042711317539215,-0.1647452265024185,0.6719411015510559,61.109493255615234,23.61,0
-0.221312016248703,-0.9345324635505676,0.3408058285713196,0.0125010022893548,0.6741443276405334,61.109676361083984,23.61,0
-0.248383030295372,-0.8460311889648438,0.3810450136661529,0.1871512085199356,0.6755582690238953,61.10979080200195,23.61,0
-0.2153756767511367,-0.8228228092193604,0.4012704491615295,0.3278922438621521,0.676465630531311,61.10986709594727,23.61,0
-0.1550090312957763,-0.8471134305000305,0.3974566459655761,0.4576200842857361,0.6770479083061218,61.10991668701172,23.61,0
-0.1274647414684295,-0.901886224746704,0.3670202791690826,0.5050461888313293,0.6774216294288635,61.10994720458984,23.61,0
-0.1489728242158889,-0.9146451354026794,0.3642812967300415,0.2381277531385421,0.6776614189147949,61.10996627807617,23.61,0
-0.1683732569217682,-0.9060397148132324,0.3737191259860992,-0.2591794729232788,0.677815318107605,61.10997772216797,23.61,0
-0.1976166516542434,-0.8725284337997437,0.3797757923603058,-0.5353317260742188,0.6779140830039978,61.1099853515625,23.61,0
-0.2163833826780319,-0.8342294692993164,0.372467041015625,-0.4044488668441772,0.6766003370285034,61.109989166259766,23.61,0
-0.2284267842769622,-0.7928580641746521,0.3397878408432007,-0.1520747244358062,0.6757572293281555,61.10999298095703,23.61,0
-0.236155554652214,-0.7775038480758667,0.318816214799881,-0.0832625031471252,0.6752161979675293,61.1099967956543,23.61,0
-0.2411154359579086,-0.7732481360435486,0.3109556138515472,-0.2003186792135238,0.6748690009117126,61.1099967956543,23.61,0
-0.2666895091533661,-0.770517110824585,0.3171066641807556,-0.3399249315261841,0.6746461987495422,61.1099967956543,23.61,0
-0.2942970097064972,-0.779960036277771,0.3266518414020538,-0.440263956785202,0.6745032072067261,61.1099967956543,23.61,0
-0.3232094645500183,-0.8419976830482483,0.3663640320301056,-0.5655595660209656,0.674411416053772,61.1099967956543,23.61,0
-0.341763824224472,-0.9209942817687988,0.4142401218414306,-0.6925405263900757,0.6743525266647339,61.1099967956543,23.61,0
-0.3480731546878814,-1.005276441574097,0.4449642598628998,-0.7023780941963196,0.6752329468727112,61.17806625366211,23.61,0
-0.3017421662807464,-1.0705593824386597,0.4926700890064239,-0.4901541769504547,0.6757979393005371,61.22174835205078,23.61,0
-0.2720095813274383,-1.1180520057678225,0.5344805121421814,0.0186268091201782,0.6761605143547058,61.24978256225586,23.61,0
-0.2529289424419403,-1.0645633935928345,0.5277253985404968,0.7714596390724182,0.6763932108879089,61.26777267456055,23.61,0
-0.2294885218143463,-0.9238798022270204,0.4730103611946106,1.4981995820999146,0.6765425205230713,61.2793197631836,23.61,0
-0.2200435847043991,-0.8391949534416199,0.4211040735244751,1.9000930786132808,0.6766383647918701,61.28672790527344,23.61,0
-0.2419712394475937,-0.9024023413658142,0.3821958303451538,1.814077854156494,0.6766998767852783,61.291481018066406,23.61,0
-0.2392498254776001,-0.9709540605545044,0.3460312187671661,1.264482855796814,0.6767393350601196,61.294532775878906,23.61,0
-0.2207100540399551,-0.9813599586486816,0.2780406475067138,0.5606920719146729,0.6767646670341492,61.29648971557617,23.61,0
-0.186421200633049,-1.016026735305786,0.2176149040460586,0.0588835775852203,0.6767809391021729,61.29774856567383,23.61,0
-0.1532210409641266,-1.032676100730896,0.1900326907634735,-0.230905070900917,0.6767913699150085,61.29855346679688,23.61,0
-0.1655017435550689,-1.0601540803909302,0.1779297888278961,-0.4741959869861603,0.6767980456352234,61.299072265625,23.61,0
-0.1677850037813186,-1.0777878761291504,0.1645650714635849,-0.6589866876602173,0.6768023371696472,61.29940414428711,23.61,0
-0.1636524945497512,-1.0331264734268188,0.1224017143249511,-0.662932276725769,0.6768050789833069,61.299617767333984,23.61,0
-0.2169782370328903,-0.9988675713539124,0.106539249420166,-0.4720052480697632,0.6768068671226501,61.29975509643555,23.61,0
-0.2623951733112335,-0.9992733001708984,0.1075551807880401,-0.2097588330507278,0.6768079996109009,61.299842834472656,23.61,0
-0.269150048494339,-1.0051313638687134,0.130598247051239,-0.0486293323338031,0.6722180247306824,61.29990005493164,23.61,0
-0.2566916346549988,-1.0032930374145508,0.1453859508037567,-0.059868112206459,0.6692724227905273,61.29993438720703,23.61,0
-0.2039143294095993,-0.9797222018241882,0.1716691702604293,-0.1996358186006546,0.6673821210861206,61.29995727539063,23.61,0
-0.1532515734434127,-0.947802484035492,0.1997317820787429,-0.4397988617420196,0.6661689877510071,61.29997253417969,23.61,0
-0.1319346874952316,-0.8993293642997742,0.2233385294675827,-0.694233775138855,0.6653904914855957,61.29998397827149,23.61,0
-0.1630369275808334,-0.8458309769630432,0.2440857589244842,-0.7106298804283142,0.6648908853530884,61.29998779296875,23.61,0
-0.1885943263769149,-0.8003032803535461,0.2629978954792022,-0.3521466553211212,0.6645702719688416,61.299991607666016,23.61,0
-0.2273866981267929,-0.782281756401062,0.3031235039234161,0.1537655293941497,0.6643645167350769,61.29999542236328,23.61,0
-0.2578791677951813,-0.7987054586410522,0.3568626642227173,0.4533528387546539,0.6660689115524292,61.29999542236328,23.61,0
-0.2774474918842315,-0.7980496883392334,0.3913493752479553,0.4091607630252838,0.6671627163887024,61.29999542236328,23.61,0
-0.3012008666992187,-0.7584444284439087,0.3910898566246032,0.0906122028827667,0.6678646206855774,61.29999542236328,23.61,0
-0.3612266182899475,-0.7050392031669617,0.3909233212471008,-0.3359336256980896,0.668315052986145,61.29999542236328,23.61,0
-0.4109432399272918,-0.6707667708396912,0.3796209096908569,-0.5917533040046692,0.6686041355133057,61.29999542236328,23.61,0
-0.4540440440177917,-0.6487727165222168,0.3499765694141388,-0.4406569898128509,0.6687896847724915,61.29999542236328,23.61,0
-0.4761058986186981,-0.6066693067550659,0.3365502953529358,-0.0069299642927944,0.6689087152481079,61.29999542236328,23.61,0
-0.4062972962856293,-0.5236720442771912,0.3167385458946228,0.2785762250423431,0.66898512840271,61.29999542236328,23.61,0
-0.3335092961788177,-0.5039958357810974,0.2816334068775177,0.2396779656410217,0.6676570177078247,61.32149124145508,23.61,0
-0.3315803408622741,-0.5529442429542542,0.275898277759552,0.1036554649472236,0.6668047308921814,61.33528900146485,23.61,0
-0.3583313226699829,-0.5619654655456543,0.2386311590671539,0.07010268419981,0.6662577986717224,61.34414291381836,23.61,0
-0.3531074523925781,-0.6181347370147705,0.231508582830429,0.0306575652211904,0.6659067869186401,61.34982299804688,23.61,0
-0.3385595381259918,-0.6597787141799927,0.2269377261400222,-0.1307939141988754,0.6656815409660339,61.35346984863281,23.61,0
-0.3460168242454529,-0.7592744827270508,0.1904177665710449,-0.277395099401474,0.6655369997024536,61.35580825805664,23.61,0
-0.4459646642208099,-0.9462761878967284,0.2397524267435073,-0.195929080247879,0.6654441952705383,61.3573112487793,23.61,0
-0.4989098906517029,-0.987914264202118,0.2042392790317535,0.1429571509361267,0.6653846502304077,61.3582763671875,23.61,0
-0.5440826416015625,-1.0762107372283936,0.1982423067092895,0.6721189618110657,0.6648871302604675,61.35889434814453,23.61,0
-0.645842969417572,-1.110483169555664,0.2167848944664001,1.326971173286438,0.6645678877830505,61.35929107666016,23.61,0
-0.7055491209030151,-1.0932928323745728,0.2062933593988418,1.919181227684021,0.6643630266189575,61.35954666137695,23.61,0
-0.7102784514427185,-1.054272174835205,0.2835271060466766,2.1559245586395264,0.664231538772583,61.359710693359375,23.61,0
-0.7748889923095703,-0.9396665692329408,0.2603202164173126,1.96750807762146,0.664147138595581,61.35981369018555,23.61,0
-0.8387433886528015,-0.8157393336296082,0.1950474083423614,1.5277440547943115,0.6640929579734802,61.35988235473633,23.61,0
-0.8629281520843506,-0.7474055290222168,0.2427234649658203,0.9338446855545044,0.6640582084655762,61.35992431640625,23.61,0
-0.8224707841873169,-0.7315416932106018,0.3292969465255737,0.1944567263126373,0.6640359163284302,61.35995101928711,23.61,0
-0.863680899143219,-0.670981228351593,0.2449104785919189,-0.5379853248596191,0.6598901748657227,61.35997009277344,23.61,0
-0.9069204926490784,-0.654508113861084,0.2635271549224853,-1.0044419765472412,0.6572296619415283,61.359981536865234,23.61,0
-0.9178758263587952,-0.666327714920044,0.3594408929347992,-1.0959975719451904,0.655522346496582,61.359989166259766,23.61,0
-0.8409397006034851,-0.6627172827720642,0.404199481010437,-1.032945156097412,0.654426634311676,61.35999298095703,23.61,0
-0.8531420826911926,-0.6492047905921936,0.3769452273845672,-1.1608628034591677,0.6537234783172607,61.3599967956543,23.61,0
-0.93934166431427,-0.6125443577766418,0.3650527894496918,-1.4650726318359375,0.653272271156311,61.3599967956543,23.61,0
-0.9162907600402832,-0.5610289573669434,0.3910075426101684,-1.606558322906494,0.6529827117919922,61.3599967956543,23.61,0
-0.8847047090530396,-0.5279693007469177,0.3908704817295074,-1.45732319355011,0.6527968645095825,61.3599967956543,23.61,0
-0.8084568381309509,-0.4731668829917907,0.4075758457183838,-1.189589023590088,0.6540547609329224,61.3599967956543,23.61,0
-0.7763186693191528,-0.4324000775814056,0.4182963967323303,-0.92104309797287,0.6548619866371155,61.3599967956543,23.61,0
-0.7500964999198914,-0.4062382876873016,0.4419695436954498,-0.7988618016242981,0.6553800106048584,61.3599967956543,23.61,0
-0.7444641590118408,-0.4006447196006775,0.4683571755886078,-1.0285544395446775,0.6557124853134155,61.3599967956543,23.61,0
-0.7240563035011292,-0.3970550894737243,0.5188778638839722,-1.5019723176956177,0.6559258103370667,61.3599967956543,23.61,0
-0.7389485836029053,-0.3723603785037994,0.5512991547584534,-1.8666883707046509,0.6560627222061157,61.3599967956543,23.61,0
-0.731712281703949,-0.3565127253532409,0.5888985991477966,-2.0075953006744385,0.6561505794525146,61.3599967956543,23.61,0
-0.6934818029403687,-0.3239515125751495,0.6130277514457703,-2.058612823486328,0.6562069654464722,61.3599967956543,23.61,0
-0.668947696685791,-0.2974578142166137,0.6341102123260498,-2.1379263401031494,0.6548659801483154,61.52838134765625,23.59,0
-0.647605299949646,-0.2804556787014007,0.6476397514343262,-2.289137363433838,0.6540054678916931,61.63644027709961,23.59,0
-0.6339089870452881,-0.263946920633316,0.6507244110107422,-2.5187313556671143,0.6534532308578491,61.70578384399414,23.59,0
-0.6363150477409363,-0.2589503228664398,0.63591068983078,-2.916851758956909,0.6530988216400146,61.75028610229492,23.59,0
-0.6658480167388916,-0.2613415718078613,0.6040129661560059,-3.616581916809082,0.6528713703155518,61.778846740722656,23.59,0
-0.6680072546005249,-0.2852672338485718,0.6059339642524719,-4.491954803466797,0.6527253985404968,61.79717254638672,23.59,0
-0.6693928837776184,-0.3062191307544708,0.6071667671203613,-5.197021961212158,0.6526317596435547,61.80893325805664,23.59,0
-0.6646843552589417,-0.308469295501709,0.5967623591423035,-5.602920055389404,0.6525716781616211,61.81648254394531,23.59,0
-0.6448693871498108,-0.2987177670001983,0.5900853872299194,-5.712933540344238,0.6520741581916809,61.821327209472656,23.59,0
-0.6321532726287842,-0.2924598157405853,0.619387149810791,-5.3822855949401855,0.6517549157142639,61.82443618774414,23.59,0
-0.6239928007125854,-0.2996393740177154,0.6829735040664673,-4.514483451843262,0.6515500545501709,61.82643127441406,23.59,0
-0.6243536472320557,-0.3042467832565307,0.746170699596405,-3.155081033706665,0.6514185667037964,61.82770919799805,23.59,0
-0.6021941304206848,-0.3183991014957428,0.7755314707756042,-1.089697241783142,0.6513341665267944,61.82852935791016,23.59,0
-0.587973415851593,-0.3274812400341034,0.7663846015930176,1.8156630992889404,0.6512799859046936,61.82905578613281,23.59,0
-0.5956407189369202,-0.350102961063385,0.7381235957145691,4.82658052444458,0.6512452363967896,61.82939529418945,23.59,0
-0.6005611419677734,-0.3758158385753631,0.7255851030349731,6.805387496948242,0.6512229442596436,61.8296127319336,23.59,0
-0.5981209874153137,-0.3923168778419494,0.717538595199585,7.405329704284668,0.6525857448577881,61.82975387573242,23.59,0
-0.5965550541877747,-0.3917107582092285,0.7179725766181946,7.2529520988464355,0.6534603238105774,61.82984161376953,23.59,0
-0.6067456603050232,-0.3913217782974243,0.7126533389091492,6.972453594207764,0.6540215611457825,61.82989883422852,23.59,0
-0.590894341468811,-0.391072154045105,0.6980441808700562,6.555995941162109,0.6543817520141602,61.82993698120117,23.59,0
-0.5807218551635742,-0.4133030474185943,0.6886688470840454,5.715525150299072,0.6546128988265991,61.829959869384766,23.59,0
-0.5797914862632751,-0.4331673383712768,0.6882501244544983,4.49905252456665,0.6547612547874451,61.82997512817383,23.59,0
-0.5791944265365601,-0.4291217625141144,0.6935791373252869,3.2562382221221924,0.6548564434051514,61.829986572265625,23.59,0
-0.5844090580940247,-0.4097322225570678,0.6858034729957581,2.111161708831787,0.6549175381660461,61.82999038696289,23.59,0
-0.593353271484375,-0.3916913568973541,0.6752157211303711,1.0897114276885986,0.653579592704773,61.82999420166016,23.59,0
-0.6382775902748108,-0.3913093209266662,0.6628233194351196,0.4449511766433716,0.6527209877967834,61.82999801635742,23.59,0
-0.6671074628829956,-0.3966619372367859,0.6660661697387695,0.1314933001995086,0.6521700024604797,61.82999801635742,23.59,0
-0.6352288126945496,-0.4112924933433532,0.6849405765533447,-0.3741848468780517,0.6518164277076721,61.82999801635742,23.59,0
-0.6091731786727905,-0.4262793064117431,0.7026508450508118,-1.1178613901138306,0.6515895128250122,61.82999801635742,23.59,0
-0.5924521684646606,-0.4358969926834106,0.7028207182884216,-1.5162934064865112,0.6514438986778259,61.82999801635742,23.59,0
-0.5929171442985535,-0.4364712834358215,0.6861364245414734,-1.4674652814865112,0.6513504385948181,61.82999801635742,23.59,0
-0.6100088357925415,-0.4312420487403869,0.6754294037818909,-1.4862862825393677,0.6512904763221741,61.82999801635742,23.59,0
-0.6321728825569153,-0.4222884476184845,0.6741560101509094,-1.6882410049438477,0.6521701812744141,62.0843620300293,23.59,0
-0.6519942283630371,-0.4221403300762176,0.6901321411132812,-1.699618935585022,0.6527347564697266,62.247596740722656,23.59,0
-0.6367255449295044,-0.4108497202396393,0.6947869062423706,-1.4167319536209106,0.6530970335006714,62.352352142333984,23.59,0
-0.6325247883796692,-0.3924085199832916,0.6865785717964172,-1.0238194465637207,0.6533295512199402,62.419578552246094,23.59,0
-0.6410245299339294,-0.374976247549057,0.6813108921051025,-0.5173079371452332,0.653478741645813,62.46271896362305,23.59,0
-0.6464791893959045,-0.3637892007827759,0.6835281848907471,0.1445041000843048,0.6535744667053223,62.49040603637695,23.59,0
-0.6499796509742737,-0.3510122299194336,0.6793533563613892,0.7232677340507507,0.6536359190940857,62.50817489624024,23.59,0
-0.6690194010734558,-0.342812716960907,0.6598808765411377,0.9442167282104492,0.653675377368927,62.51957702636719,23.59,0
-0.6476513147354126,-0.3487462699413299,0.6641778349876404,0.7707424163818359,0.6532413959503174,62.526893615722656,23.59,0
-0.6395363211631775,-0.3469563126564026,0.6613376140594482,0.2080120891332626,0.652962863445282,62.53158950805664,23.59,0
-0.6399263739585876,-0.3514054119586944,0.6595149636268616,-0.7299105525016785,0.6527841091156006,62.53460311889648,23.59,0
-0.6401766538619995,-0.3542605638504028,0.6639430522918701,-1.7617243528366089,0.6526694297790527,62.53653717041016,23.59,0
-0.64593505859375,-0.3448973000049591,0.6667847037315369,-2.4632914066314697,0.6525958180427551,62.53777694702149,23.59,0
-0.6608260273933411,-0.3332907259464264,0.6798039078712463,-2.7057273387908936,0.652548611164093,62.53857421875,23.59,0
-0.6647844314575195,-0.3314400613307953,0.6825610995292664,-2.7359187602996826,0.6525182723999023,62.5390853881836,23.59,0
-0.6505313515663147,-0.335850179195404,0.6675371527671814,-2.783954381942749,0.6524988412857056,62.53941345214844,23.59,0
-0.635786771774292,-0.3442781269550323,0.6578956842422485,-2.696555852890014,0.6538634896278381,62.53962326049805,23.59,0
-0.6263245344161987,-0.3552844822406769,0.662903904914856,-2.106664657592773,0.654739260673523,62.53975677490234,23.59,0
-0.6146544814109802,-0.356749951839447,0.6773133873939514,-1.0402520895004272,0.6553012728691101,62.53984451293945,23.59,0
-0.6127630472183228,-0.3632881641387939,0.6921583414077759,0.0023677304852753,0.655661940574646,62.53990173339844,23.59,0
-0.6059514880180359,-0.3786795735359192,0.7016850113868713,0.6893739700317383,0.6558933854103088,62.53993606567383,23.59,0
-0.6015802025794983,-0.3941546678543091,0.7077986598014832,1.0621861219406128,0.6560419201850891,62.53995895385742,23.59,0
-0.5931771993637085,-0.426476776599884,0.7061243057250977,1.23694908618927,0.656137228012085,62.53997421264648,23.59,0
-0.5653935670852661,-0.4528170228004455,0.7050497531890869,1.4924049377441406,0.6561983823776245,62.53998565673828,23.59,0
-0.5531613826751709,-0.4697206914424896,0.6931646466255188,2.2438840866088867,0.6562376618385315,62.53998947143555,23.59,0
-0.5509092211723328,-0.4861662685871124,0.6799396872520447,3.3924992084503174,0.6562628746032715,62.53999328613281,23.59,0
-0.5494639277458191,-0.4967200756072998,0.6770504713058472,4.297995567321777,0.6562790274620056,62.53999710083008,23.59,0
-0.5485364198684692,-0.4978951215744018,0.6584029793739319,4.68204927444458,0.6562893986701965,62.53999710083008,23.59,0
-0.5703322887420654,-0.4762580990791321,0.6408383250236511,4.838948249816895,0.6562960743904114,62.53999710083008,23.59,0
-0.601112961769104,-0.4567749500274658,0.6351641416549683,4.907393932342529,0.6563003659248352,62.53999710083008,23.59,0
-0.6208662390708923,-0.4274784624576568,0.6595116257667542,4.693373203277588,0.6563031077384949,62.53999710083008,23.59,0
-0.6391404867172241,-0.4086776673793793,0.6751364469528198,4.197769165039063,0.6563048362731934,62.53999710083008,23.59,0
-0.6340745687484741,-0.4134057164192199,0.6739680171012878,3.743581295013428,0.6563059687614441,62.808692932128906,23.57,0
-0.6140302419662476,-0.4276354610919952,0.6732181906700134,3.473605155944824,0.6563066840171814,62.98112487792969,23.57,0
-0.5955691337585449,-0.4255717396736145,0.6783347725868225,3.146299123764038,0.6563071608543396,63.09178161621094,23.57,0
-0.6061129570007324,-0.4130518138408661,0.6760205030441284,2.577995538711548,0.6563074588775635,63.16279602050781,23.57,0
-0.6240749359130859,-0.4106150269508362,0.67453533411026,1.9338500499725344,0.6563076376914978,63.20836639404297,23.57,0
-0.6244063377380371,-0.4202467799186706,0.6735822558403015,1.391501784324646,0.6563077569007874,63.23761367797852,23.57,0
-0.6134234666824341,-0.4432212114334106,0.6785683631896973,0.903733491897583,0.6563078165054321,63.25638198852539,23.57,0
-0.6007775068283081,-0.4523670971393585,0.6873659491539001,0.4653217494487762,0.6563078761100769,63.26842498779297,23.57,0
-0.5982598662376404,-0.447040855884552,0.6930117607116699,0.18039171397686,0.6549307703971863,63.276153564453125,23.57,0
-0.5854486227035522,-0.4380249977111816,0.691037118434906,-0.0275380033999681,0.6540470123291016,63.28111267089844,23.57,0
-0.5772271156311035,-0.4154458045959472,0.6897699236869812,-0.4511639475822449,0.6534798741340637,63.284297943115234,23.57,0
-0.5831465721130371,-0.3897602260112762,0.6945545077323914,-1.1636794805526731,0.6531159281730652,63.28634262084961,23.57,0
-0.5869453549385071,-0.3732767105102539,0.7312116026878357,-1.8824589252471924,0.6528823375701904,63.28765487670898,23.57,0
-0.5725898742675781,-0.3515029847621918,0.7827248573303223,-2.354477882385254,0.6527324318885803,63.28849411010742,23.57,0
-0.563377320766449,-0.3487254083156585,0.7877942323684692,-2.610819101333618,0.6526362299919128,63.28903579711914,23.57,0
-0.5462697148323059,-0.3637362420558929,0.7742541432380676,-2.671429395675659,0.6525745391845703,63.28938293457031,23.57,0
-0.5240954756736755,-0.367771565914154,0.7655649185180664,-2.4989535808563232,0.6525349020957947,63.28960418701172,23.57,0
-0.5098653435707092,-0.3703612089157104,0.7487931251525879,-2.266461133956909,0.6525095105171204,63.28974533081055,23.57,0
-0.5119287967681885,-0.3664253056049347,0.7268344163894653,-2.203242540359497,0.6524931788444519,63.28983688354492,23.57,0
-0.5244485139846802,-0.3694972693920135,0.7183403372764587,-2.2773149013519287,0.6524826884269714,63.28989410400391,23.57,0
-0.5044940710067749,-0.3658708930015564,0.7464759945869446,-2.299772262573242,0.6524760127067566,63.28993225097656,23.57,0
-0.4804929494857788,-0.363543689250946,0.7365429401397705,-2.120725154876709,0.6524717211723328,63.28995513916016,23.57,0
-0.4818837344646454,-0.3620502352714538,0.7245706915855408,-1.7013040781021118,0.6524689197540283,63.28997039794922,23.57,0
-0.5051673650741577,-0.3722873628139496,0.744876503944397,-1.124042272567749,0.6524671316146851,63.289981842041016,23.57,0
-0.5257072448730469,-0.3844547271728515,0.7635053396224976,-0.481313019990921,0.6538431644439697,63.28998947143555,23.57,0
-0.5388885140419006,-0.3810675144195556,0.7586669325828552,0.2177596241235733,0.6547262072563171,63.28999328613281,23.57,0
-0.5473474860191345,-0.3844915628433227,0.7555619478225708,1.0138940811157229,0.6552928686141968,63.28999710083008,23.57,0
-0.5471782088279724,-0.3922866880893707,0.7535693645477295,1.9511338472366333,0.6556565165519714,63.28999710083008,23.57,0
-0.5190806984901428,-0.3972891569137573,0.7522906064987183,2.9287707805633545,0.6558899283409119,63.28999710083008,23.57,0
-0.4842560291290283,-0.4004994332790375,0.7570677399635315,3.6385610103607178,0.6560397148132324,63.28999710083008,23.57,0
-0.4842986464500427,-0.4081573784351349,0.7545356750488281,3.95434308052063,0.6561358571052551,63.28999710083008,23.57,0
-0.4955215454101562,-0.4074740409851074,0.7473129630088806,4.11400318145752,0.6561975479125977,63.28999710083008,23.57,0
-0.4971259832382202,-0.4070355296134949,0.748275637626648,4.298862934112549,0.6553192734718323,63.56943893432617,23.61,0
-0.4869600832462311,-0.4123518764972687,0.7600889801979065,4.3637566566467285,0.6547556519508362,63.7487678527832,23.61,0
-0.4804361760616302,-0.4101658463478088,0.7676700949668884,4.136708736419678,0.6543939113616943,63.86385345458984,23.61,0
-0.487445056438446,-0.4143607318401336,0.7669374346733093,3.6470749378204346,0.654161810874939,63.93770599365234,23.61,0
-0.5087363123893738,-0.4170527756214142,0.7552716732025146,2.960268259048462,0.6540128588676453,63.98509979248047,23.61,0
-0.5168020129203796,-0.4131825864315033,0.7533830404281616,2.060945749282837,0.6539172530174255,64.01551818847656,23.61,0
-0.4827936887741089,-0.4106989204883575,0.7745621204376221,1.0109121799468994,0.6538559198379517,64.0350341796875,23.61,0
-0.4497735500335693,-0.4035072922706604,0.7881536483764648,0.0504551753401756,0.6538165211677551,64.04756164550781,23.61,0
-0.4061920344829559,-0.3988921046257019,0.8080714344978333,-0.7199615836143494,0.6537912487983704,64.05560302734375,23.61,0
-0.3950172662734985,-0.3959303498268127,0.8320490717887878,-1.454403281211853,0.6537750363349915,64.06076049804688,23.61,0
-0.4102370142936706,-0.3940296769142151,0.8362410068511963,-2.1729233264923096,0.6537646651268005,64.06407165527344,23.61,0
-0.4088086485862732,-0.4040054678916931,0.838931143283844,-2.6734366416931152,0.6537579894065857,64.06619262695312,23.61,0
-0.4078919887542724,-0.4104073643684387,0.8406575322151184,-2.933733463287353,0.6537536978721619,64.06755828857422,23.61,0
-0.4073037207126617,-0.3921246230602264,0.8417654037475586,-3.1616806983947754,0.6537509560585022,64.06843566894531,23.61,0
-0.3565462529659271,-0.3747940361499786,0.8536719679832458,-3.4763453006744385,0.6537491679191589,64.0689926147461,23.61,0
-0.3463641107082367,-0.3636722862720489,0.8557150959968567,-3.871737957000733,0.6537480354309082,64.06935119628906,23.61,0
-0.3286342620849609,-0.3397416472434997,0.8458307385444641,-4.340432643890381,0.6514519453048706,64.069580078125,23.61,0
-0.2836696207523346,-0.33557990193367,0.8506830930709839,-4.741526126861572,0.6499784588813782,64.06973266601562,23.61,0
-0.2604116797447204,-0.3608979880809784,0.8817859292030334,-4.780387878417969,0.6490328311920166,64.06983184814453,23.61,0
-0.2846705019474029,-0.3827434778213501,0.8737570643424988,-4.336009502410889,0.6484259963035583,64.06989288330078,23.61,0
-0.3730094730854034,-0.3799693286418915,0.8238223791122437,-3.685410261154175,0.648036539554596,64.06993103027344,23.61,0
-0.4129070043563843,-0.3781890273094177,0.8029727339744568,-3.156833410263061,0.6477866172790527,64.06995391845703,23.61,0
-0.4329131841659546,-0.377046525478363,0.800788164138794,-2.706563234329224,0.6476262211799622,64.0699691772461,23.61,0
-0.4289586842060089,-0.3875088989734649,0.7993862628936768,-2.002027034759521,0.6475233435630798,64.06997680664062,23.61,0
-0.4376164376735687,-0.3998208045959472,0.798486590385437,-0.919363021850586,0.6447030305862427,64.06998443603516,23.61,0
-0.4431724846363067,-0.4133196473121643,0.8091048002243042,0.2268329709768295,0.6428930759429932,64.06999206542969,23.61,0
-0.4187491834163666,-0.410786896944046,0.8159189224243164,1.080620527267456,0.6417315602302551,64.06999206542969,23.61,0
-0.4030756950378418,-0.4035637378692627,0.8146940469741821,1.5712110996246338,0.6409862041473389,64.06999206542969,23.61,0
-0.4210062325000763,-0.3989283442497253,0.8083102107048035,1.6961673498153689,0.6405078768730164,64.06999206542969,23.61,0
-0.4157196879386902,-0.3847580552101135,0.7986156940460205,1.3428654670715332,0.6402009129524231,64.06999206542969,23.61,0
-0.4179248809814453,-0.3700666129589081,0.7923942804336548,0.5644199848175049,0.6400039196014404,64.06999206542969,23.61,0
-0.4305355846881866,-0.3718340396881103,0.8051950931549072,-0.2933991253376007,0.6398774981498718,64.06999206542969,23.61,0
-0.4274328649044037,-0.3729682564735412,0.8134099245071411,-0.9979487657546996,0.6425506472587585,64.26703643798828,23.59,0
-0.4142461717128753,-0.3792939186096191,0.8130839467048645,-1.6220518350601196,0.6442661285400391,64.39348602294922,23.59,0
-0.4169792532920837,-0.3889511525630951,0.8184725046157837,-2.187363624572754,0.6453670263290405,64.47463989257812,23.59,0
-0.4355265200138092,-0.3951486051082611,0.8051372766494751,-2.568061113357544,0.6460735201835632,64.52671813964844,23.59,0
-0.4306357502937317,-0.4047235250473022,0.7965794801712036,-2.7944579124450684,0.6465268731117249,64.56013488769531,23.59,0
-0.4163016080856323,-0.4108681678771972,0.7966853380203247,-2.9003381729125977,0.6468178033828735,64.58158111572266,23.59,0
-0.4071027636528015,-0.4148114621639251,0.8023510575294495,-2.5849504470825195,0.6470045447349548,64.59534454345703,23.59,0
-0.412395030260086,-0.4173420369625091,0.8003892302513123,-1.658872365951538,0.6471243500709534,64.60417938232422,23.59,0
-0.4325846135616302,-0.4133682250976562,0.7935324311256409,-0.6776505708694458,0.6490373015403748,64.60984802246094,23.59,0
-0.4399433732032776,-0.4052202999591827,0.7947299480438232,-0.5136938095092773,0.6502649188041687,64.61348724365234,23.59,0
-0.4502635598182678,-0.3999914228916168,0.7899006605148315,-1.2467985153198242,0.6510527729988098,64.6158218383789,23.59,0
-0.4512887001037597,-0.4022336006164551,0.7868015170097351,-1.731593132019043,0.6515583395957947,64.61731719970703,23.59,0
-0.4463487863540649,-0.4036725163459778,0.7848126292228699,-0.6490845680236816,0.6518827676773071,64.61827850341797,23.59,0
-0.4487764239311218,-0.4045959115028381,0.7891340851783752,1.872720718383789,0.6520909667015076,64.618896484375,23.59,0
-0.4447365701198578,-0.405188500881195,0.786309540271759,4.300732135772705,0.652224600315094,64.61929321289062,23.59,0
-0.4365462362766266,-0.4111665785312652,0.7844969034194946,5.522128105163574,0.6523103713989258,64.61954498291016,23.59,0
-0.4368879199028015,-0.4150029420852661,0.7889314293861389,5.8509626388549805,0.6514475345611572,64.61970520019531,23.59,0
-0.4259116649627685,-0.4174649119377136,0.7917772531509399,6.194544792175293,0.6508938074111938,64.61981201171875,23.59,0
-0.4244655072689056,-0.4190448522567749,0.7936035394668579,7.1852898597717285,0.6505385041236877,64.61988067626953,23.59,0
-0.434732973575592,-0.4200587868690491,0.7891777753829956,8.913779258728027,0.6503104567527771,64.61992645263672,23.59,0
-0.4469198286533355,-0.4151116907596588,0.7807398438453674,10.821937561035156,0.6501641273498535,64.61995697021484,23.59,0
-0.4603384137153625,-0.4175347089767456,0.7809225916862488,12.164709091186523,0.6500701904296875,64.6199722290039,23.59,0
-0.4633519351482391,-0.4190896451473236,0.7754421234130859,12.618009567260742,0.6500099301338196,64.61997985839844,23.59,0
-0.4652858376502991,-0.4200875163078308,0.7719250917434692,11.895042419433594,0.6499712467193604,64.61998748779297,23.59,0
-0.4665268957614898,-0.4151301085948944,0.7696680426597595,9.424840927124023,0.6517825126647949,64.6199951171875,23.59,0
-0.4841166734695434,-0.4119487404823303,0.7682195901870728,5.324639797210693,0.6529448628425598,64.6199951171875,23.59,0
-0.4954047799110412,-0.4099071323871612,0.7616922855377197,0.866253674030304,0.6536908149719238,64.6199951171875,23.59,0
-0.4914532899856567,-0.4141947031021118,0.7575034499168396,-2.7400577068328857,0.654169499874115,64.6199951171875,23.59,0
-0.4945152103900909,-0.4169462323188782,0.7548152804374695,-5.12961483001709,0.6544767022132874,64.6199951171875,23.59,0
-0.4964801669120788,-0.4187119901180267,0.7530901432037354,-6.340663433074951,0.6546738147735596,64.6199951171875,23.59,0
-0.497741162776947,-0.4198451638221741,0.7519830465316772,-6.519554615020752,0.6548003554344177,64.6199951171875,23.59,0
-0.4985504150390625,-0.4205723702907562,0.7568703889846802,-6.075474739074707,0.6548815369606018,64.6199951171875,23.59,0
-0.4990697503089905,-0.4210390448570251,0.7544090151786804,-5.450145244598389,0.655392587184906,64.79912567138672,23.61,0
-0.4994030296802521,-0.4213385283946991,0.7528294324874878,-4.7944817543029785,0.6557205319404602,64.9140853881836,23.61,0
-0.4940191209316253,-0.4215307235717773,0.7462179660797119,-4.076361179351807,0.6559309959411621,64.98785400390625,23.61,0
-0.4961618185043335,-0.42165407538414,0.7475728988647461,-3.303828477859497,0.6560660600662231,65.03519439697266,23.61,0
-0.4919390976428985,-0.4105376601219177,0.7484424114227295,-2.589524269104004,0.6561527252197266,65.0655746459961,23.61,0
-0.4948269724845886,-0.3978060185909271,0.7490004301071167,-1.9663265943527224,0.656208336353302,65.08507537841797,23.61,0
-0.5134735703468323,-0.4008311331272125,0.7549563050270081,-1.2797881364822388,0.6562440395355225,65.09758758544922,23.61,0
-0.508646547794342,-0.4083702564239502,0.7531806826591492,-0.4128807485103607,0.6562669277191162,65.10562133789062,23.61,0
-0.5055488348007202,-0.4132084250450134,0.7464433908462524,0.4622997045516968,0.6539866328239441,65.11077117919922,23.61,0
-0.5147565007209778,-0.4107155203819275,0.7421197891235352,1.009609937667847,0.6525232791900635,65.11407470703125,23.61,0
-0.5206654071807861,-0.4091157019138336,0.7449429631233215,1.0419929027557373,0.6515842080116272,65.11619567871094,23.61,0
-0.5244573950767517,-0.4080890417098999,0.7467547059059143,0.7797508835792542,0.6509815454483032,65.11756134033203,23.61,0
-0.5212931036949158,-0.4130279719829559,0.7479173541069031,0.6472848057746887,0.6505947709083557,65.11843872070312,23.61,0
-0.519262433052063,-0.4161974787712097,0.7430657148361206,0.6697530150413513,0.650346577167511,65.1189956665039,23.61,0
-0.5235570669174194,-0.4182314872741699,0.7399522066116333,0.3617399930953979,0.6501873135566711,65.11935424804688,23.61,0
-0.5263131260871887,-0.4139390289783478,0.7379541397094727,-0.4843712747097015,0.6500850915908813,65.11958312988281,23.61,0
-0.5224840044975281,-0.4111843705177307,0.7366718649864197,-1.4393529891967771,0.6518555283546448,65.11973571777344,23.61,0
-0.5256245136260986,-0.4094165861606598,0.7358490228652954,-2.009214401245117,0.6529917120933533,65.11983489990234,23.61,0
-0.5276398658752441,-0.4082821309566498,0.7353209257125854,-2.102642774581909,0.6537208557128906,65.1198959350586,23.61,0
-0.5289332270622253,-0.4075540900230407,0.7349820137023926,-1.8759937286376955,0.6541887521743774,65.11993408203125,23.61,0
-0.5297632217407227,-0.4070868790149688,0.734764575958252,-1.494093418121338,0.6544890403747559,65.11995697021484,23.61,0
-0.5302958488464355,-0.4067870676517486,0.7402227520942688,-1.0483875274658203,0.6546817421913147,65.1199722290039,23.61,0
-0.5250399112701416,-0.4065946638584137,0.7437255382537842,-0.5402394533157349,0.6548054218292236,65.11997985839844,23.61,0
-0.521666944026947,-0.4064711928367615,0.7459734082221985,0.0473887436091899,0.6548848152160645,65.11998748779297,23.61,0
-0.5195024013519287,-0.4063919484615326,0.7474159598350525,0.6466143727302551,0.6521814465522766,65.1199951171875,23.61,0
-0.5181133151054382,-0.4063411056995392,0.7483417391777039,1.0562409162521362,0.6504465937614441,65.1199951171875,23.61,0
-0.5228196382522583,-0.4063084721565246,0.7489358186721802,1.0790830850601196,0.6493332982063293,65.1199951171875,23.61,0
-0.5258398652076721,-0.4062875211238861,0.7493170499801636,0.7748926281929016,0.6486188173294067,65.1199951171875,23.61,0
-0.5277780890464783,-0.4062740802764892,0.7495617270469666,0.3647261559963226,0.6481602787971497,65.1199951171875,23.61,0
-0.5290219187736511,-0.400667667388916,0.7497187256813049,-0.0382155030965805,0.6478660702705383,65.1199951171875,23.61,0
-0.5298201441764832,-0.3970698118209839,0.7498195171356201,-0.4544335901737213,0.6476772427558899,65.1199951171875,23.61,0
-0.5303323864936829,-0.4003586769104004,0.7498841881752014,-0.8791717290878296,0.6475560665130615,65.1199951171875,23.61,0
-0.5250633358955383,-0.402469277381897,0.7443279027938843,-1.252056360244751,0.6497736573219299,65.29553985595703,23.59,0
-0.5216819643974304,-0.4038237631320953,0.7463600039482117,-1.4770219326019287,0.6511967778205872,65.40819549560547,23.59,0
-0.5251097679138184,-0.4046929776668548,0.7476640343666077,-1.5103319883346558,0.6521100401878357,65.4804916381836,23.59,0
-0.5217117667198181,-0.4052507877349853,0.7485008835792542,-1.43497896194458,0.6526961326599121,65.52688598632812,23.59,0
-0.5195311307907104,-0.4056087732315063,0.7490379810333252,-1.3364657163619995,0.6530722379684448,65.5566635131836,23.59,0
-0.5181317329406738,-0.4058384895324707,0.7493826150894165,-1.219506859779358,0.6533136367797852,65.57577514648438,23.59,0
-0.5228314399719238,-0.4059859216213226,0.749603807926178,-1.0942933559417725,0.6534685492515564,65.5880355834961,23.59,0
-0.5258474349975586,-0.4060805439949035,0.7441479563713074,-0.9351218938827516,0.6535679697990417,65.59590148925781,23.59,0
-0.5221851468086243,-0.4061412513256073,0.7406467199325562,-0.6287680268287659,0.6517953276634216,65.6009521484375,23.59,0
-0.5198349356651306,-0.406180202960968,0.7439975738525391,-0.1885525584220886,0.6506577730178833,65.60419464111328,23.59,0
-0.5183266997337341,-0.4062052071094513,0.7461479902267456,0.1763515919446945,0.6499277353286743,65.60627746582031,23.59,0
-0.5173587799072266,-0.4062212407588959,0.7475280165672302,0.3352919816970825,0.6494592428207397,65.60761260986328,23.59,0
-0.5167376399040222,-0.406231552362442,0.748413622379303,0.3513089716434479,0.6491585969924927,65.60846710205078,23.59,0
-0.5163390040397644,-0.4006403982639313,0.7489819526672363,0.2684407830238342,0.6489656567573547,65.60901641845703,23.59,0
-0.5160831809043884,-0.4026500880718231,0.7493466734886169,0.0934531763195991,0.6488417983055115,65.60936737060547,23.59,0
-0.515919029712677,-0.3983420133590698,0.7495807409286499,-0.0797475725412368,0.6487623453140259,65.6095962524414,23.59,0
-0.5158137083053589,-0.4011751115322113,0.7497309446334839,-0.1765675395727157,0.6500884890556335,65.6097412109375,23.59,0
-0.5157461166381836,-0.3973954617977142,0.7498273253440857,-0.2745267748832702,0.6509395241737366,65.60983276367188,23.59,0
-0.5213004946708679,-0.3949698805809021,0.7498891949653625,-0.4341209232807159,0.6514856815338135,65.60989379882812,23.59,0
-0.519267201423645,-0.3990110754966736,0.749928891658783,-0.5580347180366516,0.6518361568450928,65.60993194580078,23.59,0
-0.5123645663261414,-0.4016044735908508,0.749954342842102,-0.551573634147644,0.6520611047744751,65.60995483398438,23.59,0
-0.5191304087638855,-0.3976709842681885,0.7499706745147705,-0.4686106145381927,0.6522054076194763,65.60997009277344,23.59,0
-0.5234723687171936,-0.3895489275455475,0.749981164932251,-0.4368651807308197,0.6522980332374573,65.60997772216797,23.59,0
-0.5262587666511536,-0.3899344503879547,0.7499879002571106,-0.5311352014541626,0.6523574590682983,65.6099853515625,23.59,0
-0.5224491357803345,-0.3901818394660949,0.75559002161026,-0.7385178804397583,0.6528549194335938,65.60999298095703,23.59,0
-0.5200043320655823,-0.3903405964374542,0.7535873651504517,-0.9002647995948792,0.6531741619110107,65.60999298095703,23.59,0
-0.5184354186058044,-0.3904424905776977,0.7523021697998047,-0.8428487181663513,0.6533790230751038,65.60999298095703,23.59,0
-0.5174285769462585,-0.3905078768730163,0.7514774203300476,-0.6125432848930359,0.6535105109214783,65.60999298095703,23.59,0
-0.5223802328109741,-0.3905498385429382,0.7509481310844421,-0.4145904779434204,0.6535948514938354,65.60999298095703,23.59,0
-0.5199601054191589,-0.3905767798423767,0.756206214427948,-0.3126337826251983,0.6536490321159363,65.60999298095703,23.59,0
-0.5128092169761658,-0.3905940651893616,0.7595805525779724,-0.2006303668022155,0.6536837816238403,65.60999298095703,23.59,0
-0.5138179659843445,-0.3906051516532898,0.7561482191085815,-0.0069454591721296,0.6537060737609863,65.60999298095703,23.59,0
-0.5088675618171692,-0.3906122744083404,0.7539455890655518,0.1890018880367279,0.6532610654830933,65.74971771240234,23.59,0
-0.5056906938552856,-0.3906168341636657,0.7525320649147034,0.2216026484966278,0.6529754996299744,65.83938598632812,23.59,0
-0.509249746799469,-0.3906197547912597,0.7572227120399475,0.0920557603240013,0.65279221534729,65.89692687988281,23.59,0
-0.5059359669685364,-0.3906216323375702,0.7602328658103943,-0.008992850780487,0.6526746153831482,65.93385314941406,23.59,0
-0.5038093328475952,-0.3906228244304657,0.7621646523475647,0.0300546623766422,0.6525991559028625,65.95755004882812,23.59,0
-0.5080423951148987,-0.3906235992908478,0.7578065991401672,0.1518426537513733,0.6525506973266602,65.9727554321289,23.59,0
-0.5051611661911011,-0.3906241059303283,0.7550098299980164,0.2586597800254822,0.6525196433067322,65.98251342773438,23.59,0
-0.5089099407196045,-0.3906244337558746,0.7588127851486206,0.2591399252414703,0.6524996757507324,65.98877716064453,23.59,0
-0.511315643787384,-0.3962224125862121,0.7556555271148682,0.1483882069587707,0.6524868607521057,65.9927978515625,23.59,0
-0.5072617530822754,-0.3942171037197113,0.7592271566390991,0.0665664076805114,0.6524786353111267,65.99537658691406,23.59,0
-0.4990623891353607,-0.3929302096366882,0.7671170234680176,0.1573609113693237,0.6524733901023865,65.99703216552734,23.59,0
-0.4993982911109924,-0.3921043574810028,0.7665824890136719,0.3195222914218902,0.6524699926376343,65.99809265136719,23.59,0
-0.4996138513088226,-0.3971721529960632,0.7606416940689087,0.3483540415763855,0.6524678468704224,65.998779296875,23.59,0
-0.4997521936893463,-0.4004243612289428,0.7568292021751404,0.2522141635417938,0.6524664759635925,65.99921417236328,23.59,0
-0.4998409748077392,-0.4025114476680755,0.7543826103210449,0.2263429015874862,0.6524655818939209,65.99949645996094,23.59,0
-0.4998979568481445,-0.3982530236244201,0.7584102749824524,0.2957220077514648,0.6524649858474731,65.99967956542969,23.59,0
-0.4999345242977142,-0.4011180102825165,0.7609950304031372,0.29008948802948,0.6529239416122437,65.99979400634766,23.59,0
-0.4943602085113525,-0.4029565751552582,0.7626537680625916,0.1360066831111908,0.6532184481620789,65.99987030029297,23.59,0
-0.5019784569740295,-0.3985387086868286,0.7637182474136353,-0.0237785838544368,0.6534074544906616,65.99991607666016,23.59,0
-0.5012696385383606,-0.3957035541534424,0.7588036060333252,-0.0582506358623504,0.6535287499427795,65.99994659423828,23.59,0
-0.5064125657081604,-0.3938841223716736,0.7556496262550354,0.0378521867096424,0.6536065936088562,65.99996948242188,23.59,0
-0.5041152238845825,-0.3927165269851684,0.7536256313323975,0.2070026993751526,0.653656542301178,65.9999771118164,23.59,0
-0.508238673210144,-0.3975650072097778,0.757924497127533,0.3585446774959564,0.6536886096000671,65.99998474121094,23.59,0
-0.5052871108055115,-0.3950786888599396,0.7606832385063171,0.3698137700557709,0.6537091732025146,65.99999237060547,23.59,0
-0.5089907646179199,-0.3934831321239471,0.7624536752700806,0.1585085242986679,0.6532630920410156,65.99999237060547,23.59,0
-0.5113674998283386,-0.3924591839313507,0.7635897994041443,-0.2386230230331421,0.6529768109321594,65.99999237060547,23.59,0
-0.5072950124740601,-0.3973998427391052,0.7587211728096008,-0.6331996917724609,0.6527931094169617,65.99999237060547,23.59,0
-0.5102792978286743,-0.3949727118015289,0.7555967569351196,-0.8004344701766968,0.652675211429596,65.99999237060547,23.59,0
-0.5065966844558716,-0.3934151232242584,0.7535916566848755,-0.7286273241043091,0.6525995135307312,65.99999237060547,23.59,0
-0.5042333602905273,-0.3924155533313751,0.7523049116134644,-0.5714857578277588,0.6525509357452393,65.99999237060547,23.59,0
-0.5083144903182983,-0.3973718583583832,0.7570769190788269,-0.4097375869750976,0.6525197625160217,65.99999237060547,23.59,0
-0.510933518409729,-0.4005525112152099,0.7601393461227417,-0.2880240380764007,0.652499794960022,65.99999237060547,23.59,0
-0.5070164799690247,-0.3969959020614624,0.7621046304702759,-0.3460531532764435,0.6511098146438599,66.12538146972656,23.59,0
-0.5101005434989929,-0.3947134912014007,0.7633658051490784,-0.551673948764801,0.6502178311347961,66.20584869384766,23.59,0
-0.5120797157287598,-0.3988465368747711,0.7641751766204834,-0.6692992448806763,0.6496453881263733,66.25749206542969,23.59,0
-0.5077520608901978,-0.4014988839626312,0.7590968012809753,-0.6623851656913757,0.6492780447006226,66.29063415527344,23.59,0
-0.5049748420715332,-0.3976032435894012,0.7558377981185913,-0.6400352120399475,0.6490423083305359,66.31190490722656,23.59,0
-0.5087903141975403,-0.395103245973587,0.7593441605567932,-0.5003021359443665,0.648891031742096,66.32555389404297,23.59,0
-0.5056411027908325,-0.399096667766571,0.7559965252876282,-0.181344673037529,0.6487939357757568,66.33431243896484,23.59,0
-0.5036201477050781,-0.4016593992710113,0.7538481950759888,0.1129082664847374,0.6487316489219666,66.33993530273438,23.59,0
-0.5023232102394104,-0.4033040106296539,0.752469539642334,0.2515867948532104,0.6486916542053223,66.34354400634766,23.59,0
-0.5014908909797668,-0.3987616598606109,0.7571825981140137,0.3083395361900329,0.6486659646034241,66.34585571289062,23.59,0
-0.5009567737579346,-0.4014444053173065,0.7546094059944153,0.2946041226387024,0.6486495137214661,66.34734344482422,23.59,0
-0.5062117576599121,-0.4031660556793213,0.7585558295249939,0.1747296750545501,0.6486389636993408,66.34829711914062,23.59,0
-0.5039863586425781,-0.3986731171607971,0.7610884308815002,0.0476450845599174,0.6486321687698364,66.34890747070312,23.59,0
-0.5081560015678406,-0.4013876020908355,0.7627136707305908,-0.0016673117643222,0.6486278176307678,66.34929656982422,23.59,0
-0.5052340626716614,-0.4031296074390411,0.7581589221954346,-0.0691389217972755,0.6486250162124634,66.34954833984375,23.59,0
-0.5089566707611084,-0.404247522354126,0.7552359104156494,-0.2593239247798919,0.6486232280731201,66.3497085571289,23.59,0
-0.5057478547096252,-0.4049649238586426,0.7533600926399231,-0.3957040011882782,0.6481631398200989,66.34981536865234,23.59,0
-0.503688633441925,-0.3998275399208069,0.7521563172340393,-0.2181143015623092,0.6478678584098816,66.34988403320312,23.59,0
-0.5079649090766907,-0.3965306580066681,0.7513837814331055,0.1323025524616241,0.6476783752441406,66.34992218017578,23.59,0
-0.5051113963127136,-0.3944149017333984,0.7564858198165894,0.3213541507720947,0.6475567817687988,66.3499526977539,23.59,0
-0.5088779926300049,-0.3930571377277374,0.7597600221633911,0.3674424886703491,0.6474787592887878,66.34996795654297,23.59,0
-0.5112951397895813,-0.3921858072280884,0.7562634348869324,0.4400102496147156,0.6474286913871765,66.3499755859375,23.59,0
-0.50724858045578,-0.391626626253128,0.7540194988250732,0.4758323431015014,0.6473965644836426,66.34998321533203,23.59,0
-0.5102494955062866,-0.3968655467033386,0.7525795102119446,0.3698481619358063,0.6473759412765503,66.34999084472656,23.59,0
-0.5065775513648987,-0.4002276062965393,0.7572531700134277,0.2230169624090194,0.6478216648101807,66.34999084472656,23.59,0
-0.5098188519477844,-0.3967874050140381,0.7546546459197998,0.132371723651886,0.6481077075004578,66.34999084472656,23.59,0
-0.5063011646270752,-0.39457967877388,0.7585848569869995,0.1064440086483955,0.6482912302017212,66.34999084472656,23.59,0
-0.504043698310852,-0.3931628763675689,0.7611070275306702,0.1220482736825943,0.6484090089797974,66.34999084472656,23.59,0
-0.508192777633667,-0.3978514373302459,0.7571278214454651,0.1463924944400787,0.6484845876693726,66.34999084472656,23.59,0
-0.5108554363250732,-0.3952625095844269,0.7601720094680786,0.1369371861219406,0.6485331058502197,66.34999084472656,23.59,0
-0.5125641822814941,-0.3936010897159576,0.7565277814865112,0.0520526431500911,0.6485642194747925,66.34999084472656,23.59,0
-0.5080629587173462,-0.3981326520442962,0.7597869038581848,-0.0704903006553649,0.6485841870307922,66.34999084472656,23.59,0
-0.5051743388175964,-0.4010407626628876,0.7562806606292725,-0.0774798020720481,0.6476791501045227,66.46463775634766,23.57,0
-0.503320574760437,-0.3973092436790466,0.7596283555030823,0.1544847190380096,0.6470983624458313,66.5382080078125,23.57,0
-0.502130925655365,-0.3949145674705505,0.7617766857147217,0.5039704442024231,0.6467256546020508,66.5854263305664,23.57,0
-0.5069652795791626,-0.393377810716629,0.7575575709342957,0.6816768050193787,0.6464864611625671,66.61572265625,23.57,0
-0.5044699311256409,-0.3923915922641754,0.7548500299453735,0.5700162053108215,0.6463329792022705,66.63516998291016,23.57,0
-0.5028685331344604,-0.3973564803600311,0.7531124949455261,0.3407255709171295,0.6462344527244568,66.64764404296875,23.57,0
-0.5018408298492432,-0.3949448764324188,0.7519974112510681,0.1864148825407028,0.6461712718009949,66.65565490722656,23.57,0
-0.5011813640594482,-0.3933972418308258,0.7512817978858948,0.1267954856157302,0.6461306810379028,66.66079711914062,23.57,0
-0.5007581114768982,-0.3924040794372558,0.756420373916626,0.1458564102649688,0.6470224857330322,66.66409301757812,23.57,0
-0.5060842633247375,-0.3973644971847534,0.7597180008888245,0.1903317868709564,0.6475948095321655,66.66620635986328,23.57,0
-0.5095022916793823,-0.4005478024482727,0.7562364339828491,0.0612402036786079,0.6479620933532715,66.66756439208984,23.57,0
-0.5060980319976807,-0.3969928920269012,0.7540022134780884,-0.2688010632991791,0.6481977701187134,66.6684341430664,23.57,0
-0.5039133429527283,-0.4003093242645263,0.7581661939620972,-0.4698548316955566,0.6483490467071533,66.66899108886719,23.57,0
-0.5081091523170471,-0.4024376273155212,0.7608383893966675,-0.3695947229862213,0.6484461426734924,66.66934967041016,23.57,0
-0.5052039623260498,-0.3982056677341461,0.7569554448127747,-0.2371846139430999,0.6485084295272827,66.6695785522461,23.57,0
-0.5089373588562012,-0.3954898416996002,0.7544636130332947,-0.2131152153015136,0.648548424243927,66.66973114013672,23.57,0
-0.505735456943512,-0.3993447422981262,0.7584622502326965,-0.1403476595878601,0.6485740542411804,66.66983032226562,23.57,0
-0.5036807060241699,-0.4018186032772064,0.7554305791854858,-0.0470761395990848,0.6485905051231384,66.66989135742188,23.57,0
-0.5079598426818848,-0.3978084027767181,0.7534850239753723,-0.1054448410868644,0.6486010551452637,66.66992950439453,23.57,0
-0.5051081776618958,-0.4008326828479767,0.7522364854812622,-0.2539623379707336,0.6486078500747681,66.66995239257812,23.57,0
-0.5088759064674377,-0.4027734696865082,0.7570330500602722,-0.3456897735595703,0.6486122012138367,66.66996765136719,23.57,0
-0.5056960582733154,-0.3984211981296539,0.7601111531257629,-0.3400687873363495,0.6486150026321411,66.66997528076172,23.57,0
-0.509253203868866,-0.4012259244918823,0.7564887404441833,-0.1824108213186264,0.6486167907714844,66.66998291015625,23.57,0
-0.5059381723403931,-0.3974280655384063,0.7597618699073792,0.0907286182045936,0.6486179232597351,66.66999053955078,23.57,0
-0.5094085335731506,-0.3949908018112182,0.7618623971939087,0.2445183396339416,0.6481597423553467,66.66999053955078,23.57,0
-0.5060378313064575,-0.399024486541748,0.7576125860214233,0.1963261216878891,0.6478657126426697,66.66999053955078,23.57,0
-0.5038747191429138,-0.4016130864620209,0.7548853158950806,0.0973301976919174,0.6476770043373108,66.66999053955078,23.57,0
-0.5080843567848206,-0.4032742977142334,0.753135085105896,-0.002025450579822,0.6475558876991272,66.66999053955078,23.57,0
-0.5051880478858948,-0.3987425863742828,0.7576096653938293,-0.1159422323107719,0.6474781632423401,66.66999053955078,23.57,0
-0.5089271664619446,-0.3958343863487243,0.7604812383651733,-0.124561108648777,0.6474282741546631,66.66999053955078,23.57,0
-0.5057289600372314,-0.3939680755138397,0.7567262649536133,0.0382888466119766,0.6473962664604187,66.66999053955078,23.57,0
-0.5092743039131165,-0.392770379781723,0.7599142789840698,0.2717692852020263,0.647375762462616,66.66999053955078,23.57,0
-0.5115494728088379,-0.3975995481014251,0.7619602084159851,0.4968376755714416,0.6478215456008911,66.77030181884766,23.59,0
-0.507411777973175,-0.4006986320018768,0.7576753497123718,0.6126130223274231,0.6481075882911682,66.83467864990234,23.59,0
-0.5047564506530762,-0.4026874601840973,0.7549256086349487,0.4540435671806335,0.6482911705970764,66.87599182128906,23.59,0
-0.5086501836776733,-0.3983660042285919,0.7587587237358093,0.0835896432399749,0.6484090089797974,66.90250396728516,23.59,0
-0.5055512189865112,-0.3955927193164825,0.7556208372116089,-0.1684766858816146,0.6484845876693726,66.91951751708984,23.59,0
-0.5091602206230164,-0.3938129842281341,0.7536071538925171,-0.1117012202739715,0.6485331058502197,66.93043518066406,23.59,0
-0.5114762783050537,-0.3982686400413513,0.7523148655891418,0.0608718879520893,0.6485642194747925,66.93744659423828,23.59,0
-0.507364809513092,-0.3955302536487579,0.7570832967758179,-0.0075094061903655,0.6485841870307922,66.94194030761719,23.59,0
-0.5103240609169006,-0.3993706703186035,0.7601433992385864,-0.355911523103714,0.6476791501045227,66.94482421875,23.59,0
-0.5066254138946533,-0.3962374627590179,0.7565094232559204,-0.6045739650726318,0.6470983624458313,66.9466781616211,23.59,0
-0.5098496079444885,-0.3942267596721649,0.7541773915290833,-0.5205360651016235,0.6467256546020508,66.94786834716797,23.59,0
-0.5119186639785767,-0.3985341787338257,0.7526808381080627,-0.3089720606803894,0.6464864611625671,66.9486312866211,23.59,0
-0.5076487064361572,-0.4012984335422516,0.7573181986808777,-0.2305236607789993,0.6463329792022705,66.9491195678711,23.59,0
-0.5049085021018982,-0.3974745869636535,0.7602941989898682,-0.3270656168460846,0.6462344527244568,66.94943237304688,23.59,0
-0.5031499862670898,-0.4006184339523315,0.7566062211990356,-0.5394888520240784,0.6461712718009949,66.94963836669922,23.59,0
-0.5020214915275574,-0.4026359915733337,0.75983726978302,-0.7080530524253845,0.6461306810379028,66.94976806640625,23.59,0
-0.5012972950935364,-0.4039307236671448,0.7563129663467407,-0.6406816244125366,0.6474817991256714,66.9498519897461,23.59,0
-0.5064303278923035,-0.3991638422012329,0.7540513277053833,-0.3932397067546844,0.648348867893219,66.94990539550781,23.59,0
-0.5041266083717346,-0.3961047232151031,0.7581976652145386,-0.2487760335206985,0.6489052772521973,66.94993591308594,23.59,0
-0.5026482343673706,-0.3997393548488617,0.7608585357666016,-0.3065357506275177,0.6492623686790466,66.94995880126953,23.59,0
-0.5072972774505615,-0.4020718336105346,0.7569683790206909,-0.3292723000049591,0.6494914889335632,66.9499740600586,23.59,0
-0.5102807283401489,-0.403568685054779,0.7600696682929993,-0.0680049806833267,0.6496385335922241,66.94998168945312,23.59,0
-0.512195348739624,-0.4045292735099792,0.7676576972007751,0.3791022300720215,0.6497328877449036,66.94998931884766,23.59,0
-0.5078262686729431,-0.4051457345485687,0.7613316774368286,0.6731950640678406,0.6497934460639954,66.94998931884766,23.59,0
-0.5050224661827087,-0.4055413603782654,0.7572720050811768,0.6863806843757629,0.6479958891868591,66.94998931884766,23.59,0
-0.5032231211662292,-0.4057952463626861,0.7546667456626892,0.573034942150116,0.646842360496521,66.94998931884766,23.59,0
-0.5020684003829956,-0.4059581756591797,0.7529948353767395,0.4250620603561401,0.6461020708084106,66.94998931884766,23.59,0
-0.501327395439148,-0.4060627222061157,0.7575196623802185,0.2799455225467682,0.645626962184906,66.94998931884766,23.59,0
-0.5008518695831299,-0.4061298072338104,0.760423481464386,0.2262264043092727,0.6453220844268799,66.94998931884766,23.59,0
-0.5005466938018799,-0.4061728715896606,0.7622869610786438,0.159509390592575,0.645126461982727,66.94998931884766,23.59,0
-0.500350832939148,-0.4006027281284332,0.7634828090667725,-0.0731822773814201,0.6450008749961853,66.94998931884766,23.59,0
-0.5002251267433167,-0.4026259183883667,0.7586525082588196,-0.3299876451492309,0.644920289516449,66.94998931884766,23.59,0
-0.5001444816589355,-0.403924286365509,0.7611504793167114,-0.3622352480888366,0.6453278660774231,66.96790313720703,23.57,0
-0.5000927448272705,-0.4047574996948242,0.7627534866333008,-0.1787230819463729,0.6455894708633423,66.97940063476562,23.57,0
-0.5000595450401306,-0.4052922129631042,0.7581844329833984,0.0178611185401678,0.6457573175430298,66.98677825927734,23.57,0
-0.5056359767913818,-0.4056353569030761,0.7552523016929626,0.1010266318917274,0.6458650231361389,66.99151611328125,23.57,0
-0.5036168694496155,-0.4058555662631988,0.7533706426620483,0.0970762595534324,0.6459341645240784,66.99455261230469,23.57,0
-0.5023211240768433,-0.4059968888759613,0.7521631121635437,0.0981237143278122,0.6459785103797913,66.99650573730469,23.57,0
-0.5014895796775818,-0.406087577342987,0.7569859623908997,0.1131262108683586,0.6460070013999939,66.99775695800781,23.57,0
-0.5009559392929077,-0.400547981262207,0.7600809335708618,0.079763039946556,0.6460253000259399,66.9985580444336,23.57,0
-0.5062112212181091,-0.4025907814502716,0.7564693689346313,0.0547699034214019,0.6455777287483215,66.99907684326172,23.57,0
-0.5039860010147095,-0.4039017260074615,0.7541516423225403,0.0960519611835479,0.6452904939651489,66.99940490722656,23.57,0
-0.5025579929351807,-0.4047430157661438,0.7526642680168152,0.1404572874307632,0.6451061964035034,66.99961853027344,23.57,0
-0.501641571521759,-0.4052829146385193,0.7573075294494629,0.115215428173542,0.6449878811836243,66.999755859375,23.57,0
-0.5010534524917603,-0.4056293666362762,0.7546895742416382,0.041695449501276,0.6449119448661804,66.99983978271484,23.57,0
-0.5062738060951233,-0.4058517217636108,0.7586072683334351,0.0016797085991129,0.6448632478713989,66.9999008178711,23.57,0
-0.5040261745452881,-0.4059944152832031,0.7555236220359802,0.0655643045902252,0.6448320150375366,66.99993896484375,23.57,0
-0.5025837421417236,-0.4004881978034973,0.7535447478294373,0.2068738788366317,0.6448119282722473,66.99996185302734,23.57,0
-0.5072558522224426,-0.4025523960590362,0.7578725814819336,0.3333839774131775,0.645258367061615,66.9999771118164,23.57,0
-0.4990586042404175,-0.3982793092727661,0.7606499195098877,0.3715799748897552,0.6455448269844055,66.99998474121094,23.57,0
-0.499395877122879,-0.3955371081829071,0.7624322772026062,0.2671192586421966,0.6457287073135376,66.99999237060547,23.57,0
-0.4996123015880584,-0.3993750810623169,0.763576090335846,0.0209535937756299,0.6458466649055481,66.99999237060547,23.57,0
-0.4997512102127075,-0.4018380641937256,0.7643101215362549,-0.2301683276891708,0.6459223628044128,66.99999237060547,23.57,0
-0.4998403489589691,-0.4034186601638794,0.7647811770439148,-0.3447504341602325,0.6459709405899048,66.99999237060547,23.57,0
-0.4998975396156311,-0.404433012008667,0.7594857215881348,-0.3717091679573059,0.6460021138191223,66.99999237060547,23.57,0
-0.4999342560768127,-0.405083954334259,0.7616851925849915,-0.417670339345932,0.6460221409797668,66.99999237060547,23.57,0
-0.499957799911499,-0.4055016934871673,0.7574988603591919,-0.4758261740207672,0.6455757021903992,66.99999237060547,23.57,0
-0.4999729096889496,-0.4057697653770447,0.7548123598098755,-0.5023995041847229,0.6452891826629639,66.99999237060547,23.57,0
-0.499982625246048,-0.4059418141841888,0.7586860656738281,-0.4585489630699157,0.6451053023338318,66.99999237060547,23.57,0
-0.5055866241455078,-0.4060522317886352,0.7555742263793945,-0.3086006343364715,0.6449873447418213,66.99999237060547,23.57,0
-0.5091829299926758,-0.4061230719089508,0.7535772323608398,-0.0833997204899787,0.6449116468429565,66.99999237060547,23.57,0
-0.5058930516242981,-0.4061685502529144,0.757893443107605,0.0897818878293037,0.6448630690574646,66.99999237060547,23.57,0
-0.503781795501709,-0.406197726726532,0.7606633305549622,0.1328509300947189,0.6448318958282471,66.99999237060547,23.57,0
-0.5024269223213196,-0.4062164425849914,0.756843090057373,0.1067515313625335,0.6448118686676025,66.99999237060547,23.57,0
-0.501557469367981,-0.4062284529209137,0.7599892616271973,0.1150804683566093,0.6461761593818665,67.02865600585938,23.57,0
-0.5009995102882385,-0.4062361717224121,0.7620083093643188,0.17416413128376,0.6470516920089722,67.04705047607422,23.57,0
-0.500641405582428,-0.4062411189079284,0.7577062249183655,0.2658192813396454,0.647613525390625,67.05885314941406,23.57,0
-0.5004116296768188,-0.4062443077564239,0.760543167591095,0.4142026603221893,0.6479741334915161,67.0664291381836,23.57,0
-0.5002641677856445,-0.4062463343143463,0.7623637914657593,0.6025735139846802,0.6482055187225342,67.0712890625,23.57,0
-0.5001695156097412,-0.4062476456165313,0.7579343914985657,0.6876333355903625,0.6483539938926697,67.07440948486328,23.57,0
-0.5001087784767151,-0.4062484800815582,0.7606896162033081,0.570256233215332,0.6484493017196655,67.076416015625,23.57,0
-0.500069797039032,-0.4062490165233612,0.7624577283859253,0.3337144255638122,0.6485104560852051,67.07769775390625,23.57,0
-0.5000447630882263,-0.4062493741512298,0.7579946517944336,0.1496723443269729,0.649467945098877,67.07852172851562,23.57,0
-0.5000287294387817,-0.4062496125698089,0.7607282996177673,0.0924685150384903,0.6500824093818665,67.07905578613281,23.57,0
-0.5000184178352356,-0.4062497615814209,0.7624825835227966,0.1166621819138526,0.6504766941070557,67.07939147949219,23.57,0
-0.5000118017196655,-0.4006520807743072,0.7580106258392334,0.1429360061883926,0.6507297158241272,67.0796127319336,23.57,0
-0.5056053400039673,-0.4026575684547424,0.7607385516166687,0.1383015811443328,0.6508921384811401,67.07975006103516,23.57,0
-0.4979993999004364,-0.403944581747055,0.7624891400337219,0.1102494448423385,0.6509963274002075,67.07984161376953,23.57,0
-0.4987161159515381,-0.4047705233097076,0.7580147981643677,0.0456737168133258,0.6510632038116455,67.07990264892578,23.57,0
-0.4991760849952698,-0.4053005576133728,0.7607412338256836,-0.0889142453670501,0.6511061191558838,67.07994079589844,23.57,0
-0.4994712471961975,-0.4056406915187835,0.7624908685684204,-0.2541016936302185,0.6525108218193054,67.07996368408203,23.57,0
-0.4996606707572937,-0.4058589935302734,0.7636137008666992,-0.3350314795970917,0.6534122228622437,67.0799789428711,23.57,0
-0.4997822344303131,-0.4059990644454956,0.7587364912033081,-0.2938205897808075,0.6539907455444336,67.07998657226562,23.57,0
-0.4998602569103241,-0.4060889780521393,0.7556065917015076,-0.2924518287181854,0.6543619632720947,67.07999420166016,23.57,0
-0.4999103248119354,-0.4061466753482818,0.7591957449913025,-0.4312939047813415,0.654600203037262,67.07999420166016,23.57,0
-0.4999424517154693,-0.4061836898326874,0.7614990472793579,-0.5168121457099915,0.6547530889511108,67.07999420166016,23.57,0
-0.4999630749225616,-0.4062074422836303,0.7629771828651428,-0.3065822720527649,0.6548511981964111,67.07999420166016,23.57,0
-0.4999763071537018,-0.4062227010726928,0.7639257907867432,0.1041894853115081,0.6549142003059387,67.07999420166016,23.57,0
-0.5055825710296631,-0.406232476234436,0.7589367628097534,0.3427211046218872,0.6563317775726318,67.07999420166016,23.57,0
-0.4979847967624664,-0.4062387645244598,0.7613328695297241,0.2557644248008728,0.6572414636611938,67.07999420166016,23.57,0
-0.4987067580223083,-0.4062427878379822,0.7628705501556396,0.0745704919099807,0.657825231552124,67.07999420166016,23.57,0
-0.4991700649261474,-0.4062453806400299,0.763857364654541,0.062185350805521,0.6581999063491821,67.07999420166016,23.57,0
-0.4994674026966095,-0.4062470495700836,0.7644906044006348,0.1975403130054474,0.658440351486206,67.07999420166016,23.57,0
-0.4996581971645355,-0.4062480926513672,0.7648969888687134,0.3273942470550537,0.6585946083068848,67.07999420166016,23.57,0
-0.5053784251213074,-0.4062487781047821,0.7651578187942505,0.4035618603229522,0.6586936116218567,67.07999420166016,23.57,0
-0.5034515857696533,-0.4006514549255371,0.7653251886367798,0.4488592743873596,0.6587571501731873,67.07999420166016,23.57,0
-0.5022150278091431,-0.4026571810245514,0.765432596206665,0.4062770307064056,0.6583390235900879,67.13731384277344,23.57,0
-0.5014214515686035,-0.4039443433284759,0.7655014991760254,0.2571426331996918,0.6580706834793091,67.17410278320312,23.57,0
-0.5009121894836426,-0.4047703742980957,0.7599479556083679,0.1721844971179962,0.657898485660553,67.19770812988281,23.57,0
-0.5005853772163391,-0.4053004682064056,0.7619817852973938,0.2717140018939972,0.6577879786491394,67.21286010742188,23.57,0
-0.5003756880760193,-0.4056406319141388,0.7632870078086853,0.4000726640224457,0.6577170491218567,67.22257995605469,23.57,0
-0.5002411007881165,-0.4058589339256286,0.7641246318817139,0.3713860213756561,0.6576715111732483,67.22882080078125,23.57,0
-0.5001547336578369,-0.4059990346431732,0.7646621465682983,0.1738478243350982,0.6576423048973083,67.23282623291016,23.57,0
-0.5000993013381958,-0.4060889482498169,0.7594093084335327,-0.1535450667142868,0.6576235294342041,67.23539733886719,23.57,0
-0.5000637173652649,-0.4005488753318786,0.7616361379623413,-0.5176977515220642,0.6603658199310303,67.23704528808594,23.57,0
-0.5000408887863159,-0.3969935774803161,0.7630651593208313,-0.7585551142692566,0.6621256470680237,67.23810577392578,23.57,0
-0.505623996257782,-0.4003097712993622,0.7639822363853455,-0.8486371636390686,0.6632550358772278,67.23878479003906,23.57,0
-0.5092069506645203,-0.4024378955364227,0.7645707726478577,-0.8240473866462708,0.6639797687530518,67.23921966552734,23.57,0
-0.5059084892272949,-0.3982058465480804,0.7649484872817993,-0.5539042353630066,0.6644448637962341,67.239501953125,23.57,0
-0.5093895196914673,-0.3954899609088897,0.7595930695533752,-0.0330320782959461,0.6647433638572693,67.23967742919922,23.57,0
-0.5116234421730042,-0.3937470614910126,0.761754035949707,0.3693026602268219,0.6649349331855774,67.23979187011719,23.57,0
-0.507459282875061,-0.39262855052948,0.763140857219696,0.3588047623634338,0.6650578379631042,67.2398681640625,23.57,0
-0.5159825086593628,-0.3975085318088531,0.7584330439567566,0.1048701107501983,0.6646774411201477,67.23991394042969,23.57,0
-0.5102566480636597,-0.4006402194499969,0.7554118633270264,-0.0509254001080989,0.6644333004951477,67.23994445800781,23.57,0
-0.5121799111366272,-0.3970521986484527,0.7590708136558533,0.0282227974385023,0.6642765998840332,67.2399673461914,23.57,0
-0.5246096849441528,-0.3947496116161346,0.761418879032135,0.2151534259319305,0.6641760468482971,67.23997497558594,23.57,0
-0.5157930850982666,-0.3988697230815887,0.7629257440567017,0.2742109596729278,0.6641115546226501,67.23998260498047,23.57,0
-0.5101351141929626,-0.3959159851074219,0.7582949995994568,0.1007387191057205,0.6640701293945312,67.239990234375,23.57,0
-0.5121018886566162,-0.3996182382106781,0.7553232312202454,-0.1574713736772537,0.6640435457229614,67.239990234375,23.57,0
-0.5077663064002991,-0.3963963389396667,0.753416121006012,-0.2515242397785187,0.6640264987945557,67.239990234375,23.57,0
-0.5161795020103455,-0.3943287134170532,0.7521922588348389,-0.1327531635761261,0.6653926968574524,67.239990234375,23.57,0
-0.5159808397293091,-0.3985995948314667,0.7514068484306335,-0.0314547009766101,0.6662694811820984,67.239990234375,23.57,0
-0.5158533453941345,-0.4013404250144958,0.7509028315544128,-0.1993145942687988,0.6668321490287781,67.239990234375,23.57,0
-0.5157715678215027,-0.397501528263092,0.7505793571472168,-0.5864782929420471,0.6671932339668274,67.239990234375,23.57,0
-0.5213168263435364,-0.3894401788711548,0.7503718137741089,-0.8635982871055603,0.6674249172210693,67.239990234375,23.57,0
-0.5192776918411255,-0.3842668831348419,0.7502385973930359,-0.77632737159729,0.6675736308097839,67.239990234375,23.57,0
-0.5291646122932434,-0.3865447342395782,0.7557508945465088,-0.4623764455318451,0.6676690578460693,67.239990234375,23.57,0
-0.5299116969108582,-0.3880065083503723,0.7592883706092834,-0.232240229845047,0.6677302718162537,67.239990234375,23.57,0
-0.5191956162452698,-0.3889445960521698,0.7559607625007629,-0.0881346315145492,0.6682288646697998,67.27940368652344,23.57,0
-0.5235142111778259,-0.3895466029644012,0.7538252472877502,0.154812216758728,0.6685488224029541,67.30469512939453,23.57,0
-0.5206878185272217,-0.3899329602718353,0.7580525875091553,0.4217813611030578,0.6687541604042053,67.3209228515625,23.57,0
-0.5188740491867065,-0.3901808857917785,0.7551676630973816,0.564446210861206,0.6688859462738037,67.33133697509766,23.57,0
-0.5177100300788879,-0.3903400003910064,0.7533162832260132,0.6739131808280945,0.66897052526474,67.33802032470703,23.57,0
-0.5169630646705627,-0.3904421031475067,0.7577259540557861,0.8014839887619019,0.6690247654914856,67.3423080444336,23.57,0
-0.5164836645126343,-0.3905076384544372,0.7549580931663513,0.7400485277175903,0.6690595746040344,67.34506225585938,23.57,0
-0.5161760449409485,-0.3905496895313263,0.7531818151473999,0.3996864557266235,0.6690819263458252,67.34683227539062,23.57,0
-0.5215764045715332,-0.3905766606330871,0.7520418763160706,0.0343760699033737,0.6700141429901123,67.34796905517578,23.57,0
-0.5250420570373535,-0.3905939757823944,0.756908118724823,-0.1319901794195175,0.6706123948097229,67.34869384765625,23.57,0
-0.5216683149337769,-0.390605092048645,0.7544332146644592,-0.1742680966854095,0.6709963083267212,67.34915924072266,23.57,0
-0.5251010060310364,-0.3906122148036957,0.7528449892997742,-0.2300602346658706,0.6712427139282227,67.34945678710938,23.57,0
-0.5217061638832092,-0.3906168043613434,0.7574235200881958,-0.26944699883461,0.6714008450508118,67.34964752197266,23.57,0
-0.5195275545120239,-0.3906197547912597,0.7547639608383179,-0.2911405861377716,0.6715022921562195,67.34976959228516,23.57,0
-0.5181294083595276,-0.3906216323375702,0.7530572414398193,-0.3910440802574157,0.6715673804283142,67.349853515625,23.57,0
-0.5172321796417236,-0.3906228244304657,0.7519619464874268,-0.4802344143390655,0.6716091632843018,67.34990692138672,23.57,0
-0.5166563987731934,-0.3906235992908478,0.7568568587303162,-0.3762557506561279,0.6720952391624451,67.34993743896484,23.57,0
-0.5162869095802307,-0.3906241059303283,0.759998083114624,-0.141147181391716,0.6724072098731995,67.34996032714844,23.57,0
-0.5160498023033142,-0.3906244337558746,0.7564162015914917,0.0849660784006118,0.672607421875,67.3499755859375,23.57,0
-0.5102998614311218,-0.3962224125862121,0.7541175484657288,0.2838111817836761,0.672735869884491,67.34998321533203,23.57,0
-0.5122076272964478,-0.3998148739337921,0.7526423931121826,0.3720101714134216,0.6728183031082153,67.34999084472656,23.57,0
-0.5078341364860535,-0.3965225219726562,0.7516957521438599,0.2244044095277786,0.6728712320327759,67.34999084472656,23.57,0
-0.5106252431869507,-0.3944096863269806,0.7510882616043091,-0.0351189412176609,0.6729052066802979,67.34999084472656,23.57,0
-0.512416422367096,-0.3986515700817108,0.7506983876228333,-0.1300145834684372,0.6729269623756409,67.34999084472656,23.57,0
-0.5079681277275085,-0.4013737738132477,0.7504481673240662,0.0312065463513135,0.6747770309448242,67.34999084472656,23.57,0
-0.5107112526893616,-0.4031207263469696,0.7502875924110413,0.2349811047315597,0.6759642958641052,67.34999084472656,23.57,0
-0.5068738460540771,-0.4042418003082275,0.7501845359802246,0.2045359760522842,0.676726222038269,67.34999084472656,23.57,0
-0.5100089907646179,-0.4049612581729889,0.7501184344291687,-0.0407042168080806,0.6772151589393616,67.34999084472656,23.57,0
-0.5064231753349304,-0.405422955751419,0.7500759959220886,-0.1980852484703064,0.6775289177894592,67.34999084472656,23.57,0
-0.5041220188140869,-0.4057192504405975,0.7500487565994263,-0.1235371306538581,0.6777302622795105,67.34999084472656,23.57,0
-0.5082430243492126,-0.405909389257431,0.7500312924385071,0.053276278078556,0.6778594851493835,67.34999084472656,23.57,0
-0.5052899122238159,-0.4060314297676086,0.7500200867652893,0.2491441816091537,0.6779423952102661,67.34999084472656,23.57,0
-0.5089925527572632,-0.4061097204685211,0.7500128746032715,0.428579568862915,0.6775367259979248,67.37149047851562,23.59,0
-0.5113686919212341,-0.4061599671840668,0.7500082850456238,0.4720793664455414,0.6772763729095459,67.38528442382812,23.59,0
-0.512893557548523,-0.4061922132968902,0.750005304813385,0.3316139876842499,0.6771093010902405,67.3941421508789,23.59,0
-0.5138721466064453,-0.4062129259109497,0.7500033974647522,0.1519069820642471,0.6770020723342896,67.39982604980469,23.59,0
-0.5145001411437988,-0.4062262177467346,0.7500022053718567,-0.0135746831074357,0.6769332885742188,67.40347290039062,23.59,0
-0.5093053579330444,-0.4062347412109375,0.7500014305114746,-0.2917349338531494,0.6768891215324402,67.40581512451172,23.59,0
-0.5115694403648376,-0.4062401950359344,0.7500008940696716,-0.6207103729248047,0.6768608093261719,67.40731811523438,23.59,0
-0.5130223631858826,-0.4062437117099762,0.7500005960464478,-0.7458460330963135,0.6768426299095154,67.40827941894531,23.59,0
-0.5083569884300232,-0.4062459766864776,0.7500003576278687,-0.6076138019561768,0.6777487993240356,67.40889739990234,23.59,0
-0.5053630471229553,-0.4118452072143554,0.7500002384185791,-0.3612709641456604,0.6783303022384644,67.40929412841797,23.59,0
-0.5034416913986206,-0.4098406732082367,0.7500001788139343,-0.1100353449583053,0.6787034869194031,67.4095458984375,23.59,0
-0.5022086501121521,-0.414152055978775,0.7500001192092896,0.0941841229796409,0.6789429783821106,67.40970611572266,23.59,0
-0.5014173984527588,-0.411321073770523,0.7500000596046448,0.1679192185401916,0.6790966987609863,67.4098129272461,23.59,0
-0.506507396697998,-0.4095043241977691,0.7500000596046448,0.1005957424640655,0.6791953444480896,67.40988159179688,23.59,0
-0.509773850440979,-0.4083384275436401,0.7500000596046448,-0.0250078327953815,0.6792586445808411,67.40992736816406,23.59,0
-0.5062723159790039,-0.407590240240097,0.7500000596046448,-0.0912826731801033,0.6792992353439331,67.40995788574219,23.59,0
-0.5096229910850525,-0.4071100950241089,0.7500000596046448,0.0023238235153257,0.6816206574440002,67.40997314453125,23.59,0
-0.5061754584312439,-0.4068019688129425,0.7500000596046448,0.2271935641765594,0.6831104159355164,67.40998077392578,23.59,0
-0.503963053226471,-0.4122020006179809,0.7500000596046448,0.4073277711868286,0.6840664744377136,67.40998840332031,23.59,0
-0.508141040802002,-0.4156674146652221,0.7555978298187256,0.4727714657783508,0.6846799850463867,67.40999603271484,23.59,0
-0.5052244663238525,-0.4122935533523559,0.7591901421546936,0.4825263023376465,0.685073733329773,67.40999603271484,23.59,0
-0.5089505314826965,-0.4101284146308899,0.7558977007865906,0.3741439580917358,0.6853263974189758,67.40999603271484,23.59,0
-0.5113416910171509,-0.4143367111682892,0.7537847757339478,0.1147138997912406,0.6854885220527649,67.40999603271484,23.59,0
-0.5016806721687317,-0.4114395976066589,0.7524288296699524,-0.0625211000442504,0.6855925917625427,67.40999603271484,23.59,0
-0.5010785460472107,-0.4095803797245025,0.7515586614608765,0.0422768034040927,0.6847411394119263,67.40999603271484,23.59,0
-0.5006921291351318,-0.4083872437477112,0.7510002851486206,0.2564156651496887,0.6841947436332703,67.40999603271484,23.59,0
-0.5004441738128662,-0.4076215624809265,0.750641942024231,0.3580119013786316,0.6838440895080566,67.40999603271484,23.59,0
-0.5002850294113159,-0.412727952003479,0.7504119873046875,0.3408112823963165,0.6836190819740295,67.40999603271484,23.59,0
-0.5057806968688965,-0.4104071855545044,0.7502644062042236,0.2222956418991089,0.6834746599197388,67.40999603271484,23.59,0
-0.5037097334861755,-0.4145156145095825,0.7501696944236755,-0.0185593515634536,0.683381974697113,67.40999603271484,23.59,0
-0.5023806691169739,-0.4171521663665771,0.7501088976860046,-0.269855797290802,0.6833224892616272,67.40999603271484,23.59,0
-0.5015277862548828,-0.4188441634178161,0.7500698566436768,-0.3523066937923431,0.683284342288971,67.40999603271484,23.59,0
-0.5009804368019104,-0.4143322110176086,0.7500448226928711,-0.2296727299690246,0.6846370100975037,67.46731567382812,23.57,0
-0.4950314164161682,-0.4114367067813873,0.7556265592575073,-0.0327483192086219,0.6855050921440125,67.50410461425781,23.57,0
-0.4968114495277405,-0.4095785319805145,0.7536107897758484,0.0757135599851608,0.6860621571540833,67.5277099609375,23.57,0
-0.5035515427589417,-0.4083860516548157,0.7523171901702881,0.062918908894062,0.686419665813446,67.54286193847656,23.57,0
-0.5022791624069214,-0.4132185578346252,0.7514870166778564,0.0941163673996925,0.6866490840911865,67.55258178710938,23.57,0
-0.5014626383781433,-0.4163197875022888,0.750954270362854,0.2861007153987884,0.6867963075637817,67.55882263183594,23.57,0
-0.5065364241600037,-0.4127122163772583,0.7506123781204224,0.4343832731246948,0.6868907809257507,67.56282806396484,23.57,0
-0.5097924470901489,-0.4103970825672149,0.7503929734230042,0.2751795947551727,0.6869513988494873,67.56539916992188,23.57,0
-0.506284236907959,-0.4145091474056244,0.7446544170379639,-0.1458373814821243,0.684695303440094,67.56704711914062,23.57,0
-0.5096306204795837,-0.4115502536296844,0.7465695142745972,-0.509168803691864,0.683247447013855,67.56810760498047,23.57,0
-0.5117781758308411,-0.4096513986587524,0.747798502445221,-0.5381271839141846,0.6823183298110962,67.56878662109375,23.57,0
-0.5131563544273376,-0.4140305817127228,0.7485871911048889,-0.24502694606781,0.6817220449447632,67.56922149658203,23.57,0
-0.5140407681465149,-0.4112431406974792,0.7490933537483215,0.0397974736988544,0.6813393831253052,67.56950378417969,23.57,0
-0.5146083235740662,-0.4094543159008026,0.7494181394577026,0.0398700311779975,0.6810938119888306,67.5696792602539,23.57,0
-0.5149725675582886,-0.408306360244751,0.7496265769004822,-0.1607076376676559,0.6809362173080444,67.56979370117188,23.57,0
-0.5096085071563721,-0.4075696468353271,0.7497603297233582,-0.3001745641231537,0.6808351278305054,67.56986999511719,23.57,0
-0.5117639899253845,-0.4070968627929687,0.7498462200164795,-0.2607036828994751,0.6821473836898804,67.56991577148438,23.57,0
-0.513147234916687,-0.406793475151062,0.749901294708252,-0.0956531092524528,0.6829895377159119,67.5699462890625,23.57,0
-0.5140349268913269,-0.4065987765789032,0.7499366402626038,0.0711706429719924,0.6835299730300903,67.5699691772461,23.57,0
-0.5146045684814453,-0.4064738154411316,0.7499593496322632,0.124489888548851,0.6838767528533936,67.56997680664062,23.57,0
-0.509372353553772,-0.4063936173915863,0.7499738931655884,0.0548124127089977,0.6840993165969849,67.56998443603516,23.57,0
-0.5116124153137207,-0.4063421785831451,0.7499832510948181,-0.0543889366090297,0.6842421293258667,67.56999206542969,23.57,0
-0.5074521899223328,-0.4063091576099396,0.7499892711639404,-0.0958074703812599,0.6843338012695312,67.56999206542969,23.57,0
-0.5047823786735535,-0.4062879681587219,0.749993085861206,-0.0579011440277099,0.6843926310539246,67.56999206542969,23.57,0
-0.5086668133735657,-0.4062743782997131,0.7499955892562866,-0.0299924723803997,0.6835121512413025,67.56999206542969,23.57,0
-0.5111596584320068,-0.4062656462192535,0.7499971985816956,0.0058305859565734,0.6829471588134766,67.56999206542969,23.57,0
-0.5071616172790527,-0.4118578135967254,0.7499982118606567,0.1506273299455642,0.6825845241546631,67.56999206542969,23.57,0
-0.5101937055587769,-0.4098487794399261,0.7499988675117493,0.3259488046169281,0.68235182762146,67.56999206542969,23.57,0
-0.5121394991874695,-0.408559501171112,0.7499992847442627,0.3130698800086975,0.6822025179862976,67.56999206542969,23.57,0
-0.5077904462814331,-0.4077320992946625,0.7499995231628418,0.0970155298709869,0.6821066737174988,67.56999206542969,23.57,0
-0.5049994587898254,-0.4072011113166809,0.7499997019767761,-0.1097046434879303,0.6820451617240906,67.56999206542969,23.57,0
-0.5088061690330505,-0.4124581515789032,0.7499998211860657,-0.1348884850740432,0.6820057034492493,67.56999206542969,23.57,0
-0.5056512951850891,-0.4102340340614319,0.7499998807907104,-0.011329579167068,0.6819803714752197,67.64881134033203,23.55,0
-0.5092244744300842,-0.408806711435318,0.7499999403953552,0.1217020601034164,0.681964099407196,67.69939422607422,23.55,0
-0.5115175247192383,-0.4078907370567322,0.7499999403953552,0.1461703181266784,0.6819536685943604,67.73185729980469,23.55,0
-0.5129890441894531,-0.4129007160663605,0.7499999403953552,0.0114044500514864,0.6819469928741455,67.752685546875,23.55,0
-0.5083356499671936,-0.4161158204078674,0.7499999403953552,-0.1646449118852615,0.6819427013397217,67.76605224609375,23.55,0
-0.505349338054657,-0.4181790947914123,0.7499999403953552,-0.1128247752785682,0.681939959526062,67.7746353149414,23.55,0
-0.5034328699111938,-0.4195031821727752,0.7499999403953552,0.260775089263916,0.6819381713867188,67.78014373779297,23.55,0
-0.5022030472755432,-0.4147551357746124,0.7499999403953552,0.6509981751441956,0.681937038898468,67.78367614746094,23.55,0
-0.5070115923881531,-0.411708116531372,0.7499999403953552,0.6793012022972107,0.6814773678779602,67.78594207763672,23.55,0
-0.5100973844528198,-0.415350466966629,0.7499999403953552,0.3929454982280731,0.6811823844909668,67.78739929199219,23.55,0
-0.5120776891708374,-0.4120901525020599,0.755597710609436,0.1733531355857849,0.6809930801391602,67.788330078125,23.55,0
-0.5077507495880127,-0.4099978804588318,0.753592312335968,0.2008124589920044,0.6808716058731079,67.78892517089844,23.55,0
-0.5049740076065063,-0.4142529368400574,0.7523053288459778,0.2470948845148086,0.6807936429977417,67.78931427001953,23.55,0
-0.5031920075416565,-0.4169836044311523,0.75147944688797,0.0725894570350647,0.6807436347007751,67.78955841064453,23.55,0
-0.496450662612915,-0.4187359809875488,0.7509494423866272,-0.2006139755249023,0.6807115077972412,67.78971862792969,23.55,0
-0.4977222383022308,-0.4142627716064453,0.750609278678894,-0.3401144444942474,0.6806908845901489,67.7898178100586,23.55,0
-0.4985382556915283,-0.4169899225234985,0.7503910064697266,-0.3042476773262024,0.6806776523590088,67.78988647460938,23.55,0
-0.4934641718864441,-0.4131422638893127,0.7502509355545044,-0.1522577404975891,0.6806691884994507,67.78992462158203,23.55,0
-0.4958056807518005,-0.410673052072525,0.7501610517501831,-0.0188935901969671,0.6806637644767761,67.78995513916016,23.55,0
-0.4973083138465881,-0.4146862328052521,0.7557011246681213,-0.1267672330141067,0.6806602478027344,67.78997039794922,23.55,0
-0.492674857378006,-0.4172616600990295,0.7592564225196838,-0.4109488725662231,0.6806579828262329,67.78997802734375,23.55,0
-0.4952991306781769,-0.4189144372940063,0.7559402585029602,-0.5431641936302185,0.6806565523147583,67.78998565673828,23.55,0
-0.4913854897022247,-0.4255728423595428,0.7538121342658997,-0.495457112789154,0.6806556582450867,67.78999328613281,23.55,0
-0.4888739287853241,-0.424248069524765,0.7524464130401611,-0.4863369166851043,0.6806550621986389,67.78999328613281,23.55,0
-0.4928599298000335,-0.4233978986740112,0.7515699863433838,-0.4697363674640655,0.6801953911781311,67.78999328613281,23.55,0
-0.4954179227352142,-0.4228523075580597,0.7510074973106384,-0.3121974766254425,0.6799004077911377,67.78999328613281,23.55,0
-0.4970594942569732,-0.422502189874649,0.7506465315818787,-0.1752723455429077,0.679711103439331,67.78999328613281,23.55,0
-0.4925151765346527,-0.4222774803638458,0.7504149079322815,-0.1984615176916122,0.6795896291732788,67.78999328613281,23.55,0
-0.495196670293808,-0.4221332967281341,0.7502662539482117,-0.21692556142807,0.6795116662979126,67.78999328613281,23.55,0
-0.4913197159767151,-0.4220407605171203,0.750170886516571,-0.060393676161766,0.679461658000946,67.78999328613281,23.55,0
-0.4944294989109039,-0.4219813644886017,0.7557074427604675,0.1797799319028854,0.6794295310974121,67.78999328613281,23.55,0
-0.4964251816272735,-0.4219432473182678,0.7536627054214478,0.3159966468811035,0.6794089078903198,67.78999328613281,23.55,0
-0.4921081066131592,-0.4219188094139099,0.7523505091667175,0.3031005859375,0.6803138852119446,67.86522674560547,23.57,0
-0.4949354231357574,-0.4219031035900116,0.7515084147453308,0.2554163038730621,0.680894672870636,67.91351318359375,23.57,0
-0.4967498481273651,-0.4218930304050445,0.7509680390357971,0.300049364566803,0.6812673807144165,67.94449615478516,23.57,0
-0.4979142248630523,-0.4218865633010864,0.7506212592124939,0.3967612087726593,0.6815065741539001,67.9643783569336,23.57,0
-0.4930636882781982,-0.4218824207782745,0.7503986954689026,0.3728435039520263,0.6816600561141968,67.97714233398438,23.57,0
-0.495548665523529,-0.421879768371582,0.7502558827400208,0.1568702459335327,0.6817585825920105,67.9853286743164,23.57,0
-0.4971433877944946,-0.4218780696392059,0.7501642107963562,-0.1142842546105384,0.6818217635154724,67.99058532714844,23.57,0
-0.4981667995452881,-0.4218769669532776,0.7501053810119629,-0.2381395399570465,0.6818623542785645,67.99395751953125,23.57,0
-0.4988235533237457,-0.4218762516975403,0.7500676512718201,-0.120581068098545,0.6818884015083313,67.99612426757812,23.57,0
-0.4992450177669525,-0.4218758046627044,0.7500433921813965,0.0981642305850982,0.6819050908088684,67.99751281738281,23.57,0
-0.4995155036449432,-0.4218755066394806,0.7500278353691101,0.1919688731431961,0.681915819644928,67.99840545654297,23.57,0
-0.4940913021564483,-0.4218753278255462,0.7500178813934326,0.083786241710186,0.6819226741790771,67.99897766113281,23.57,0
-0.496208131313324,-0.4218752086162567,0.7500115036964417,-0.1361073106527328,0.6819270849227905,67.99934387207031,23.57,0
-0.4975666105747223,-0.4218751192092895,0.7500073909759521,-0.3417086899280548,0.6819299459457397,67.99958038330078,23.57,0
-0.4984383881092071,-0.4218750894069671,0.750004768371582,-0.3554268479347229,0.681931734085083,67.9997329711914,23.57,0
-0.5045956373214722,-0.4218750596046448,0.7500030398368835,-0.1206152215600013,0.6819329261779785,67.99983215332031,23.57,0
-0.5029492378234863,-0.4218750298023224,0.7500019669532776,0.0515688173472881,0.6805565357208252,67.99989318847656,23.57,0
-0.501892626285553,-0.4218750298023224,0.7500012516975403,-0.0600530616939067,0.6796732544898987,67.99993133544922,23.57,0
-0.5012145638465881,-0.4218750298023224,0.7500007748603821,-0.1603461802005767,0.6791064143180847,67.99995422363281,23.57,0
-0.5007794499397278,-0.4162772595882416,0.755598247051239,-0.0240842849016189,0.6787426471710205,67.99996948242188,23.57,0
-0.5005002021789551,-0.4126849174499511,0.7591903805732727,0.0741084739565849,0.6785091757774353,67.9999771118164,23.57,0
-0.5059188008308411,-0.410379558801651,0.7614956498146057,-0.0527535676956176,0.67835932970047,67.99998474121094,23.57,0
-0.5037983655929565,-0.408900111913681,0.7573772668838501,-0.2094004154205322,0.6782631874084473,67.99999237060547,23.57,0
-0.5024375915527344,-0.4079506993293762,0.7547342777252197,-0.2955970466136932,0.6782014966011047,67.99999237060547,23.57,0
-0.5015643239021301,-0.4073414206504822,0.7530381679534912,-0.4440600275993347,0.6781619191169739,67.99999237060547,23.57,0
-0.5010039210319519,-0.4069504141807556,0.7575474977493286,-0.6396471261978149,0.6781365275382996,67.99999237060547,23.57,0
-0.5006442666053772,-0.4066994786262512,0.754843533039093,-0.6791818737983704,0.6781201958656311,67.99999237060547,23.57,0
-0.5004134774208069,-0.4065384566783905,0.7531083226203918,-0.4537727236747741,0.6781097054481506,67.99999237060547,23.57,0
-0.50026535987854,-0.40643510222435,0.7519947290420532,-0.090580977499485,0.6781030297279358,67.99999237060547,23.57,0
-0.5001702904701233,-0.4063687920570373,0.7512801289558411,0.2284764051437378,0.678098738193512,67.99999237060547,23.57,0
-0.5001092553138733,-0.4063262343406677,0.7508215308189392,0.4762199819087982,0.6780959367752075,67.99999237060547,23.57,0
-0.5000700950622559,-0.4062989354133606,0.7505272030830383,0.6961113214492798,0.6780941486358643,67.99999237060547,23.57,0
-0.5000450015068054,-0.4062814116477966,0.7503383159637451,0.8443900942802429,0.6776341199874878,68.05731964111328,23.57,0
-0.5000289082527161,-0.4062701463699341,0.7502171397209167,0.9108862280845642,0.6773388981819153,68.09410858154297,23.57,0
-0.5000185370445251,-0.4062629342079162,0.7501393556594849,0.9714725017547609,0.6771494150161743,68.11771392822266,23.57,0
-0.5000119209289551,-0.4062583148479461,0.7556871771812439,0.9709450006484984,0.6770278215408325,68.13286590576172,23.57,0
-0.5000076293945312,-0.4062553346157074,0.7536497116088867,0.752069354057312,0.6769497990608215,68.14258575439453,23.57,0
-0.5000048875808716,-0.4062534272670746,0.7579399347305298,0.4074007272720337,0.6768997311592102,68.1488265991211,23.57,0
-0.5056009292602539,-0.4062522053718567,0.7550954222679138,0.2041251361370086,0.6768676042556763,68.15283203125,23.57,0
-0.5035943388938904,-0.4006536304950714,0.7588677406311035,0.1524912118911743,0.676846981048584,68.15540313720703,23.57,0
-0.5079044103622437,-0.4026585817337036,0.761288583278656,0.0978600829839706,0.6782108545303345,68.15705108642578,23.57,0
-0.5050725936889648,-0.4039452373981476,0.757244348526001,0.0628009662032127,0.6790861487388611,68.15811157226562,23.57,0
-0.503255307674408,-0.404770940542221,0.7546489834785461,0.0868755280971527,0.6796478629112244,68.1587905883789,23.57,0
-0.5076868534088135,-0.4053008258342743,0.7529834508895874,0.0915774703025817,0.6800082921981812,68.15922546386719,23.57,0
-0.5105307698249817,-0.4056408703327179,0.7519146203994751,0.0981774777173996,0.6802396178245544,68.15950775146484,23.57,0
-0.5123558044433594,-0.4002613127231598,0.7512286901473999,0.2170554101467132,0.6803880929946899,68.15968322753906,23.57,0
-0.5135270357131958,-0.4024068117141723,0.7563862800598145,0.2861792743206024,0.680483341217041,68.15979766845703,23.57,0
-0.5086808800697327,-0.4037836492061615,0.7540983557701111,0.1084192916750907,0.6805444955825806,68.15987396240234,23.57,0
-0.5055708885192871,-0.4046672284603119,0.7526301145553589,-0.1382121294736862,0.6778294444084167,68.15991973876953,23.57,0
-0.5091728568077087,-0.4052342772483825,0.7516878843307495,-0.2140867263078689,0.6760870814323425,68.15995025634766,23.57,0
-0.5058866143226624,-0.4055981636047363,0.7510831952095032,-0.22695292532444,0.674968957901001,68.15997314453125,23.57,0
-0.5093754529953003,-0.4058316946029663,0.7506951093673706,-0.3211915493011474,0.67425137758255,68.15998077392578,23.57,0
-0.5116143822669983,-0.405981570482254,0.7560438513755798,-0.3780858814716339,0.6737908720970154,68.15998840332031,23.57,0
-0.5130512118339539,-0.4004799723625183,0.759476363658905,-0.2927898168563843,0.673495352268219,68.15999603271484,23.57,0
-0.5083755254745483,-0.4025471210479736,0.7560814023017883,-0.1126615703105926,0.6733056902885437,68.15999603271484,23.57,0
-0.5109726786613464,-0.4038737118244171,0.7539026737213135,0.1462374180555343,0.6731839776039124,68.15999603271484,23.57,0
-0.5070416331291199,-0.404725044965744,0.758102297782898,0.4521043002605438,0.6749419569969177,68.15999603271484,23.57,0
-0.5045189261436462,-0.4052713811397552,0.760797381401062,0.673470139503479,0.6760700941085815,68.15999603271484,23.57,0
-0.5029000043869019,-0.4056219756603241,0.7569291591644287,0.6650617718696594,0.6767941117286682,68.15999603271484,23.57,0
-0.501861035823822,-0.400249183177948,0.760044515132904,0.3551468551158905,0.6772587299346924,68.15999603271484,23.57,0
-0.5011942982673645,-0.4023990333080292,0.7564460039138794,-0.0730235204100608,0.6775568723678589,68.15999603271484,23.57,0
-0.5007664561271667,-0.4037786722183227,0.7541366815567017,-0.2367387861013412,0.6777482032775879,68.15999603271484,23.57,0
-0.5004918575286865,-0.4046640396118164,0.7582524418830872,-0.0301177594810724,0.6778709888458252,68.15999603271484,23.57,0
-0.5059134364128113,-0.399634450674057,0.7552959322929382,0.2135395556688308,0.6779497861862183,68.15999603271484,23.57,0
-0.5037949085235596,-0.4020045101642608,0.753398597240448,0.1979411840438842,0.6761643290519714,68.1922378540039,23.57,0
-0.5080331563949585,-0.4035255014896393,0.7521810531616211,-0.0341886393725872,0.6750184893608093,68.21292877197266,23.57,0
-0.5107529759407043,-0.4045015871524811,0.7513996958732605,-0.2906334698200226,0.6742831468582153,68.22621154785156,23.57,0
-0.5069006681442261,-0.4051279723644256,0.7508982419967651,-0.4552049934864044,0.6738112568855286,68.23473358154297,23.57,0
-0.5044284462928772,-0.4055299460887909,0.7505764365196228,-0.5106614828109741,0.6735084652900696,68.24020385742188,23.57,0
-0.5028419494628906,-0.4057879149913788,0.7503699064254761,-0.4781813025474548,0.673314094543457,68.24371337890625,23.57,0
-0.5074215531349182,-0.4059534668922424,0.7502374053001404,-0.3892684876918793,0.6731894016265869,68.24596405029297,23.57,0
-0.5103604793548584,-0.4060597121715545,0.7501523494720459,-0.2283146530389785,0.6731093525886536,68.2474136352539,23.57,0
-0.5122465491294861,-0.4061278700828552,0.7556955218315125,0.0146966911852359,0.6739758253097534,68.24833679199219,23.57,0
-0.5134568810462952,-0.4061716198921203,0.7592528462409973,0.1993079781532287,0.674531877040863,68.24893188476562,23.57,0
-0.5086358785629272,-0.4061996936798095,0.755937933921814,0.160147562623024,0.6748887300491333,68.24931335449219,23.57,0
-0.5111398100852966,-0.4062177240848541,0.7538106441497803,-0.0226166620850563,0.6751177310943604,68.24955749511719,23.57,0
-0.5127466917037964,-0.4062292873859405,0.7580432295799255,-0.1434867978096008,0.6752647161483765,68.24971771240234,23.57,0
-0.5081800818443298,-0.4062367081642151,0.7607594728469849,-0.1135770231485366,0.6753590106964111,68.24981689453125,23.57,0
-0.510847270488739,-0.4062414765357971,0.7625026106834412,0.0811635553836822,0.6754195690155029,68.24988555908203,23.57,0
-0.5069611668586731,-0.4062445163726806,0.7636212110519409,0.3028663694858551,0.6754584312438965,68.24992370605469,23.57,0
-0.504467248916626,-0.4062464833259582,0.7587413191795349,0.3269174993038177,0.6745654940605164,68.24995422363281,23.57,0
-0.502866804599762,-0.4062477350234985,0.7612074613571167,0.2097968310117721,0.6739924550056458,68.24996948242188,23.57,0
