acc_x,acc_y,acc_z,bvp,eda,hr,temp,label
0.0,0.0,0.0,0.0,0.0,0.0,33.49,2
-0.0416666641831398,-0.1432291567325592,0.0729166641831398,-17.621665954589844,1.1196787357330322,11.804999351501465,33.49,2
-0.0933689028024673,-0.3311737775802612,0.1581554859876632,-41.904388427734375,2.621687173843384,27.64097595214844,33.49,2
-0.1233907788991928,-0.4996366202831268,0.282132476568222,-56.41461563110352,3.928175687789917,41.4155502319336,33.49,2
-0.1399551630020141,-0.6278775930404663,0.3245365917682647,-57.21248626708984,4.881329536437988,51.46484375,33.49,2
-0.1676391065120697,-0.7201918363571167,0.3312870860099792,-49.88964080810547,5.5266547203063965,58.26863861083984,33.49,2
-0.2080160677433014,-0.7918694019317627,0.3246102035045624,-38.517066955566406,5.950080871582031,62.732906341552734,33.49,2
-0.2062695771455764,-0.8103947639465332,0.3481825888156891,-23.5208683013916,6.224313259124756,65.62419891357422,33.49,2
-0.2051445394754409,-0.811147928237915,0.3745476007461548,-5.742910385131836,6.319371700286865,67.48668670654297,33.47,2
-0.2156107127666473,-0.8955516815185547,0.3467363715171814,8.569676399230957,6.380469799041748,68.68378448486328,33.47,2
-0.2223316133022308,-0.8937870860099792,0.3400702476501465,8.942294120788574,6.419704437255859,69.45250701904297,33.47,2
-0.2154513448476791,-0.8926543593406677,0.3413884341716766,-8.016831398010254,6.444889545440674,69.94596099853516,33.47,2
-0.216633066534996,-0.8863297700881958,0.3422344624996185,-37.42618179321289,6.461053371429443,70.26266479492188,33.47,2
-0.2173914611339569,-0.882270872592926,0.3427774012088775,-71.80538940429688,6.471426963806152,70.46591186523438,33.47,2
-0.2122804224491119,-0.8796660304069519,0.3431258499622345,-113.92351531982422,6.478084564208984,70.59635162353516,33.47,2
-0.2145981937646865,-0.8779944181442261,0.3377516865730285,-167.33114624023438,6.482357025146484,70.68006134033203,33.47,2
-0.2160856127738952,-0.8769216537475586,0.3343028426170349,-227.37106323242188,6.486475944519043,70.73377990722656,33.47,2
-0.2170401513576507,-0.8818309903144836,0.3320895731449127,-278.8450927734375,6.489119052886963,70.76824951171875,33.47,2
-0.2176527231931686,-0.8849815130233765,0.3306692242622375,-275.91632080078125,6.490815162658691,70.79037475585938,33.47,2
-0.2180458307266235,-0.8814055323600769,0.3241599500179291,-215.65872192382807,6.491903781890869,70.80457305908203,33.47,2
-0.2182981073856353,-0.8791106939315796,0.3143849074840545,-135.6244354248047,6.492602348327637,70.81368255615234,33.47,2
-0.2184600085020065,-0.88323575258255,0.3137096166610718,-60.23112869262695,6.493050575256348,70.81952667236328,33.47,2
-0.21856389939785,-0.8858830332756042,0.3020807206630707,2.16699481010437,6.493338584899902,70.82328033447266,33.47,2
-0.2242283523082733,-0.8875818848609924,0.2946179509162903,44.18451690673828,6.493523120880127,70.82569122314453,33.47,2
-0.2222656905651092,-0.8774765729904175,0.2898287773132324,66.55608367919922,6.478034973144531,70.82723236083984,33.47,2
-0.2154083997011184,-0.8653937578201294,0.2811575829982757,78.43013763427734,6.468095779418945,70.8282241821289,33.47,2
-0.2166055589914322,-0.8632375001907349,0.264397382736206,86.84197998046875,6.461717128753662,70.828857421875,33.47,2
-0.2285693734884262,-0.895440399646759,0.2480438649654388,90.6674575805664,6.457623481750488,70.82926940917969,33.47,2
-0.2362470626831054,-0.916106343269348,0.2375491112470626,85.3625717163086,6.454996585845947,70.82952880859375,33.47,2
-0.2523697018623352,-0.9405640959739684,0.2308141887187957,74.3559799194336,6.453310966491699,70.82969665527344,33.47,2
-0.2683140635490417,-0.9506618976593018,0.232089877128601,63.670597076416016,6.452229022979736,70.82980346679688,33.47,2
-0.2785462439060211,-0.9515443444252014,0.232908546924591,55.67049026489258,6.451534748077393,70.82987213134766,33.47,2
-0.2739171087741852,-0.940915048122406,0.2334339171648025,47.45188522338867,6.46394157409668,70.7403564453125,33.47,2
-0.2709463834762573,-0.9340938329696656,0.2337710708379745,38.32638931274414,6.471903800964356,70.68290710449219,33.47,2
-0.263442188501358,-0.9465096592903136,0.2339874356985092,31.244930267333984,6.477013111114502,70.64604187011719,33.47,2
-0.2586264312267303,-0.9488796591758728,0.2397240549325943,31.15359878540039,6.480292320251465,70.62238311767578,33.47,2
-0.2499381750822067,-0.9448028206825256,0.2378077208995819,37.32508850097656,6.482396602630615,70.6072006225586,33.47,2
-0.2499603182077407,-0.9477843046188354,0.2365779280662536,44.85383987426758,6.483747005462647,70.59745788574219,33.47,2
-0.2555723190307617,-0.9496976733207704,0.2357887178659439,49.98271179199219,6.484613418579102,70.59120178222656,33.47,2
-0.2703693211078644,-0.9397299885749816,0.2296844720840454,51.20698165893555,6.485169410705566,70.58718872070312,33.47,2
-0.2686696350574493,-0.9501266479492188,0.225767120718956,47.8834342956543,6.498838424682617,70.5846176147461,33.49,2
-0.2619810998439789,-0.9679941534996032,0.2232531905174255,38.90785217285156,6.507610321044922,70.58296203613281,33.49,2
-0.2520910203456878,-1.0466338396072388,0.2104443460702896,22.693885803222656,6.51323938369751,70.58190155029297,33.49,2
-0.2513419091701507,-1.0915024280548096,0.2022243589162826,-1.3250926733016968,6.516851902008057,70.58122253417969,33.49,2
-0.2620567083358764,-1.0979053974151611,0.1801559180021286,-28.97000312805176,6.51917028427124,70.5807876586914,33.49,2
-0.2801283895969391,-1.0796233415603638,0.1715914458036422,-51.60113143920898,6.520658016204834,70.58050537109375,33.49,2
-0.2861279845237732,-1.0399020910263062,0.1660952568054199,-66.96281433105469,6.521612644195557,70.580322265625,33.49,2
-0.2619893252849579,-0.975226879119873,0.1513725668191909,-77.3154525756836,6.522225379943848,70.58020782470703,33.49,2
-0.2409007400274276,-0.9393198490142822,0.1419243961572647,-86.1839599609375,6.556127071380615,70.58013153076172,33.49,2
-0.2105739712715149,-0.9442656636238098,0.1246655508875846,-95.3575210571289,6.577883243560791,70.58008575439453,33.49,2
-0.1743186712265014,-0.9530373811721802,0.0967964977025985,-98.97322845458984,6.5918450355529785,70.5800552368164,33.49,2
-0.1510521173477172,-0.9698621034622192,0.0733139663934707,-85.48367309570312,6.600804805755615,70.58003234863281,33.49,2
-0.1417187452316284,-0.986257016658783,0.0806353315711021,-54.96955871582031,6.6065545082092285,70.58002471923828,33.49,2
-0.1245335787534713,-0.9799849987030028,0.1189204081892967,-23.46096611022949,6.610244274139404,70.58001708984375,33.49,2
-0.1023095771670341,-0.9031888842582704,0.1714784353971481,-4.265179634094238,6.612612247467041,70.58000946044922,33.49,2
-0.093645267188549,-0.8259167075157166,0.1940115988254547,3.6075940132141113,6.614131927490234,70.58000946044922,33.49,2
-0.0880850106477737,-0.7819256782531738,0.2028743177652359,5.105972766876221,6.66605806350708,70.58000946044922,33.49,2
-0.1404945105314254,-0.7648903131484985,0.1973663568496704,2.853975534439087,6.699381351470947,70.58000946044922,33.49,2
-0.1909212321043014,-0.753957986831665,0.193831667304039,1.1114195585250854,6.720766067504883,70.58000946044922,33.49,2
-0.2344777435064315,-0.7861266732215881,0.1915632933378219,3.4109246730804443,6.734489917755127,70.58000946044922,33.49,2
-0.2848209142684936,-0.8179662227630615,0.1733142584562301,7.964047431945801,6.743297100067139,70.58000946044922,33.49,2
-0.3115304708480835,-0.8551923036575317,0.1672008633613586,11.08302116394043,6.74894905090332,70.58000946044922,33.49,2
-0.3454644680023193,-0.9742440581321716,0.1744731813669204,12.851731300354004,6.752575874328613,70.58000946044922,33.49,2
-0.3784368932247162,-1.0842312574386597,0.1903356909751892,15.33025360107422,6.754903316497803,70.58000946044922,33.49,2
-0.393998920917511,-1.149216890335083,0.2341019809246063,18.35027313232422,6.807348251342773,70.47252655029297,33.49,2
-0.4039857387542724,-1.1909209489822388,0.2621886730194092,19.95158576965332,6.841004371643066,70.40354919433594,33.49,2
-0.4047969281673431,-1.1952931880950928,0.2690175473690033,19.85428810119629,6.862603187561035,70.35928344726562,33.49,2
-0.3885241746902466,-1.108534574508667,0.2510088086128235,19.283123016357425,6.876463890075684,70.33087921142578,33.49,2
-0.372483491897583,-1.041662335395813,0.2338540703058242,18.07109260559082,6.885358810424805,70.31265258789062,33.49,2
-0.3677872717380523,-1.004345417022705,0.2060518264770507,14.832053184509276,6.8910675048828125,70.30095672607422,33.49,2
-0.3367846310138702,-1.019581913948059,0.1770143955945968,9.564931869506836,6.894730567932129,70.29344940185547,33.49,2
-0.3000956177711487,-1.0237621068954468,0.1583798378705978,3.573098659515381,6.89708137512207,70.28862762451172,33.49,2
-0.2541595995426178,-0.998455822467804,0.140823483467102,-2.314182996749878,6.903180122375488,70.28553771972656,33.49,2
-0.2302782982587814,-0.982215702533722,0.1239590495824813,-8.048388481140137,6.90709400177002,70.28355407714844,33.49,2
-0.2261482030153274,-0.9382070899009703,0.113136425614357,-13.927971839904783,6.909605503082275,70.28227996826172,33.49,2
-0.2067044228315353,-0.8819760084152222,0.1005933210253715,-20.71051406860352,6.91121768951416,70.28146362304688,33.49,2
-0.1830309629440307,-0.851487934589386,0.0869460999965667,-29.01473999023437,6.912251949310303,70.28093719482422,33.49,2
-0.1622409373521804,-0.8263246417045593,0.0669925510883331,-38.02322006225586,6.9129157066345215,70.28060150146484,33.49,2
-0.1544968634843826,-0.8045785427093506,0.0541875101625919,-46.26198959350586,6.913341522216797,70.28038787841797,33.49,2
-0.1607227176427841,-0.8018186688423157,0.0515677481889724,-52.717079162597656,6.9136152267456055,70.2802505493164,33.49,2
-0.1647181063890457,-0.8840141892433167,0.0442887619137764,-56.58372497558594,6.914249897003174,70.28015899658203,33.49,2
-0.1560865640640258,-0.959153652191162,0.0564108490943908,-58.20529556274414,6.914657115936279,70.28009796142578,33.49,2
-0.1449495702981948,-1.0577538013458252,0.0865812078118324,-58.45059585571289,6.914918422698975,70.28005981445312,33.49,2
-0.1545958071947097,-1.10983407497406,0.1227361261844635,-57.82343292236328,6.915085792541504,70.28003692626953,33.49,2
-0.2055684030055999,-1.104071855545044,0.1795249134302139,-55.24991226196289,6.915193557739258,70.28002166748047,33.49,2
-0.2606707811355591,-1.0276029109954834,0.2047731429338455,-49.7542724609375,6.915262699127197,70.28001403808594,33.49,2
-0.3072278499603271,-0.9897251129150392,0.1929871290922165,-42.92076873779297,6.91530704498291,70.2800064086914,33.49,2
-0.2643344402313232,-0.9878084063529968,0.1854235529899597,-37.81174087524414,6.915335178375244,70.2800064086914,33.49,2
-0.2088190466165542,-0.992176115512848,0.1973630040884018,-35.486026763916016,6.920861721038818,70.2800064086914,33.49,2
-0.16199691593647,-0.9837835431098938,0.1994272768497467,-34.63837814331055,6.924407958984375,70.2800064086914,33.49,2
-0.1767313629388809,-0.9280176758766174,0.1839586943387985,-33.42804718017578,6.926683902740479,70.2800064086914,33.49,2
-0.1973826289176941,-0.8698392510414124,0.1628362983465194,-30.243837356567383,6.928144454956055,70.2800064086914,33.49,2
-0.2218309789896011,-0.8101125955581665,0.149281159043312,-24.31330108642578,6.929081916809082,70.2800064086914,33.49,2
-0.2375205159187317,-0.7717834711074829,0.1461800187826156,-17.093229293823242,6.929683208465576,70.2800064086914,33.49,2
-0.2363936156034469,-0.7639793753623962,0.1665809899568557,-11.349203109741213,6.930069446563721,70.2800064086914,33.49,2
-0.2300726622343063,-0.7813622355461121,0.2020642608404159,-7.594949245452881,6.930316925048828,70.2800064086914,33.49,2
-0.2204184532165527,-0.8037131428718567,0.2304331511259079,-3.5233702659606934,6.904771327972412,70.11162567138672,33.49,2
-0.2142229378223419,-0.8684366345405579,0.2430409044027328,2.482234001159668,6.888377189636231,70.0035629272461,33.49,2
-0.2158447951078415,-0.954754650592804,0.2567296028137207,9.51761245727539,6.877856731414795,69.93421936035156,33.49,2
-0.2280811518430709,-1.0269418954849243,0.2879053056240082,16.28236961364746,6.871105194091797,69.88971710205078,33.49,2
-0.26392263174057,-1.140440821647644,0.2799232304096222,22.79464340209961,6.866772651672363,69.86116027832031,33.49,2
-0.2925213873386383,-1.1908867359161377,0.2803985476493835,29.45656967163086,6.863992214202881,69.84283447265625,33.49,2
-0.3164722025394439,-1.105706810951233,0.2639102637767792,36.12855529785156,6.862207889556885,69.83106994628906,33.49,2
-0.3318424522876739,-1.0678365230560305,0.2365357130765915,42.84281921386719,6.861062526702881,69.82351684570312,33.49,2
-0.3417061865329742,-1.0715224742889404,0.1853816509246826,50.0571174621582,6.8497700691223145,69.81867218017578,33.49,2
-0.3088517487049103,-1.073887825012207,0.152553915977478,57.27703857421875,6.842523097991943,69.81556701660156,33.49,2
-0.270974338054657,-1.047416925430298,0.1426825225353241,62.06083679199219,6.837872505187988,69.81356811523438,33.49,2
-0.2522645592689514,-0.9688539505004884,0.136347621679306,61.5267333984375,6.834887981414795,69.81228637695312,33.49,2
-0.2570510506629944,-0.9128389358520508,0.1210867017507553,55.3121337890625,6.832973003387451,69.81147003173828,33.49,2
-0.2601227462291717,-0.8545006513595581,0.1056953445076942,46.15430450439453,6.831743717193604,69.81094360351562,33.49,2
-0.2397028654813766,-0.8058669567108154,0.1126113831996917,36.859561920166016,6.830955028533936,69.81060791015625,33.49,2
-0.2210007905960083,-0.7746566534042358,0.1170497015118599,27.7313175201416,6.830448627471924,69.81038665771484,33.49,2
-0.19780333340168,-0.7546276450157166,0.1254957318305969,17.900259017944336,6.803041934967041,69.81024932861328,33.49,2
-0.1829165369272232,-0.7473719716072083,0.1309159100055694,7.553688049316406,6.785453796386719,69.8101577758789,33.49,2
-0.1789608299732208,-0.787497878074646,0.1343942582607269,-2.71529507637024,6.774166584014893,69.81009674072266,33.49,2
-0.1820200532674789,-0.8804216980934143,0.1478220224380493,-13.26050090789795,6.766923427581787,69.81005859375,33.49,2
-0.1783855110406875,-0.9456526041030884,0.1732325106859207,-24.71381568908692,6.762274742126465,69.8100357055664,33.49,2
-0.1872486174106598,-1.065882921218872,0.2119305878877639,-36.71765899658203,6.759291648864746,69.81002044677734,33.49,2
-0.204132005572319,-1.120648741722107,0.2367647886276245,-47.29067993164063,6.7573771476745605,69.81001281738281,33.49,2
-0.2485534399747848,-1.0942187309265137,0.2527019381523132,-53.07271194458008,6.756148815155029,69.81000518798828,33.49,2
-0.2826583385467529,-1.032475233078003,0.2125495225191116,-51.44883346557617,6.75536060333252,69.81000518798828,33.49,2
-0.28775155544281,-1.0096452236175537,0.1867820173501968,-43.18424987792969,6.754854679107666,69.81000518798828,33.49,2
-0.2350423485040664,-1.0229830741882324,0.187039241194725,-31.901195526123047,6.75452995300293,69.81000518798828,33.49,2
-0.1732277423143386,-1.025944709777832,0.1983998566865921,-20.71954917907715,6.754321575164795,69.81000518798828,33.49,2
-0.1391564607620239,-0.9774653911590576,0.1944949030876159,-9.961236000061035,6.75418758392334,69.81000518798828,33.49,2
-0.1508781313896179,-0.8903764486312866,0.1640000492334365,2.126817464828491,6.754101753234863,69.81000518798828,33.49,2
-0.1807915121316909,-0.8232921957969666,0.1332346647977829,16.383026123046875,6.75404691696167,69.81000518798828,33.49,2
-0.2223792970180511,-0.7578502893447876,0.1302845329046249,30.07096290588379,6.754011631011963,69.81000518798828,33.49,2
-0.249067947268486,-0.7158534526824951,0.1507824063301086,38.13141250610352,6.737923622131348,69.65237426757812,33.49,2
-0.2773907482624054,-0.7168911695480347,0.2031211853027343,37.779815673828125,6.727599143981934,69.55121612548828,33.49,2
-0.301164448261261,-0.7679370641708374,0.2646980583667755,30.63264274597168,6.720973491668701,69.48629760742188,33.49,2
-0.3108232617378235,-0.8566731214523315,0.2986167967319488,19.91263008117676,6.716721534729004,69.44463348388672,33.49,2
-0.3226195275783539,-1.0535632371902466,0.3259816467761993,7.644948959350586,6.713993072509766,69.41790008544922,33.49,2
-0.3245919048786163,-1.1967092752456665,0.3547383844852447,-4.319044589996338,6.712242126464844,69.40074157714844,33.49,2
-0.2922710180282593,-1.3053654432296753,0.3508017063140869,-12.946228981018066,6.711118221282959,69.38973236083984,33.49,2
-0.3107137382030487,-1.2519437074661257,0.3146887421607971,-15.759902000427246,6.710396766662598,69.3826675415039,33.49,2
-0.3281469941139221,-1.133694052696228,0.2803179621696472,-12.657426834106444,6.70442533493042,69.37812805175781,33.49,2
-0.3617257475852966,-1.0690038204193115,0.2190763503313064,-4.973724365234375,6.7005934715271,69.37521362304688,33.49,2
-0.3776769042015075,-1.0442826747894287,0.1629816889762878,6.029699325561523,6.698134422302246,69.37334442138672,33.49,2
-0.3599245548248291,-1.0508091449737549,0.1213855892419815,19.04530334472656,6.696556091308594,69.37214660644531,33.49,2
-0.3093476891517639,-1.0326063632965088,0.1002893820405006,32.41715621948242,6.69554328918457,69.37137603759766,33.49,2
-0.2600970566272735,-0.9985337853431702,0.0867510512471199,44.93569564819336,6.69489336013794,69.37088775634766,33.49,2
-0.2340886145830154,-0.9542768597602844,0.0724651515483856,56.387149810791016,6.694476127624512,69.37056732177734,33.49,2
-0.2229956686496734,-0.9202775359153748,0.0576995126903057,66.3907241821289,6.69420862197876,69.370361328125,33.49,2
-0.2158768475055694,-0.8872631788253784,0.0538215488195419,73.10063171386719,6.680266380310059,69.37023162841797,33.49,2
-0.1945150792598724,-0.8548809289932251,0.0569306686520576,73.9709701538086,6.671319007873535,69.37014770507812,33.49,2
-0.1752085536718368,-0.8340998888015747,0.0701214745640754,67.92681884765625,6.665577411651611,69.3700942993164,33.49,2
-0.1460254043340683,-0.7983726859092712,0.0897821187973022,56.263092041015625,6.661892414093018,69.37006378173828,33.49,2
-0.121699571609497,-0.7810428142547607,0.1079969629645347,41.33697509765625,6.659527778625488,69.37004089355469,33.49,2
-0.1060886532068252,-0.8091059327125549,0.1476750820875167,24.80447196960449,6.658010482788086,69.37002563476562,33.49,2
-0.1128637865185737,-0.8327130079269409,0.2179204076528549,7.438125610351562,6.657036781311035,69.3700180053711,33.49,2
-0.1228094547986984,-0.8926448225975037,0.2518042623996734,-9.84713077545166,6.656411647796631,69.37001037597656,33.49,2
-0.1739742010831833,-0.9702900648117064,0.2903423011302948,-25.67597770690918,6.669780731201172,69.37001037597656,33.49,2
-0.2347976714372635,-1.0257160663604736,0.3486604392528534,-38.73948669433594,6.678360462188721,69.37001037597656,33.49,2
-0.2682328820228576,-1.0053075551986694,0.3189123570919037,-48.27290344238281,6.683866500854492,69.37001037597656,33.49,2
-0.2449074983596801,-1.0313949584960938,0.2270506918430328,-54.02189636230469,6.687399864196777,69.37001037597656,33.49,2
-0.2243408262729644,-1.064929723739624,0.2016858160495758,-55.221378326416016,6.689667224884033,69.37001037597656,33.49,2
-0.188751220703125,-1.047265887260437,0.2133969664573669,-49.70730209350586,6.691122531890869,69.37001037597656,33.49,2
-0.1771074086427688,-1.01353919506073,0.2209125012159347,-35.28840255737305,6.692056179046631,69.37001037597656,33.49,2
-0.2032217234373092,-0.9191243052482604,0.2033444494009018,-12.25659465789795,6.692655563354492,69.37001037597656,33.49,2
-0.2535670399665832,-0.8473386764526367,0.1808747351169586,16.069608688354492,6.703597545623779,69.44165802001953,33.49,2
-0.2970713078975677,-0.7956730127334595,0.1720527410507202,44.21804428100586,6.710619449615479,69.48764038085938,33.49,2
-0.3249898552894592,-0.762516975402832,0.1943801641464233,65.99722290039062,6.715125560760498,69.51714324951172,33.49,2
-0.3429063558578491,-0.797217071056366,0.2310997098684311,77.57710266113281,6.718017578125,69.53607940673828,33.49,2
-0.3600019216537475,-0.8474745154380798,0.2658597528934479,80.13968658447266,6.719873428344727,69.54823303222656,33.49,2
-0.3541795611381531,-0.8909223675727844,0.2769711911678314,78.12638854980469,6.721064567565918,69.5560302734375,33.49,2
-0.3504430949687958,-0.963586926460266,0.2729063332080841,75.18280792236328,6.721828937530518,69.56103515625,33.49,2
-0.3480452299118042,-1.0773921012878418,0.2814932763576507,73.08241271972656,6.722319602966309,69.56424713134766,33.49,2
-0.3409086465835571,-1.1336324214935305,0.2926016747951507,73.6690902709961,6.718503475189209,69.5663070678711,33.5,2
-0.347524344921112,-1.2145063877105713,0.3109259605407715,79.4588623046875,6.716054439544678,69.567626953125,33.5,2
-0.374161034822464,-1.1768423318862915,0.2890987694263458,90.90201568603516,6.71448278427124,69.56847381591797,33.5,2
-0.3744615912437439,-1.0966938734054563,0.2471024692058563,102.6449737548828,6.713473796844482,69.56902313232422,33.5,2
-0.3690567016601562,-1.0452592372894287,0.1865650117397308,104.33775329589844,6.712826728820801,69.56937408447266,33.5,2
-0.3599903881549835,-1.0178492069244385,0.1421177834272384,89.47087097167969,6.712411403656006,69.56959533691406,33.5,2
-0.3261832594871521,-1.022650122642517,0.1247896626591682,63.91963195800781,6.71214485168457,69.56974029541016,33.5,2
-0.2709011733531952,-1.0313289165496826,0.1024739220738411,40.6760139465332,6.711973667144775,69.56983184814453,33.5,2
-0.2130331993103027,-1.0257028341293335,0.0881529599428176,25.92081451416016,6.71048641204834,69.56989288330078,33.5,2
-0.1647013127803802,-0.9829079508781432,0.0845603644847869,15.409245491027832,6.709532260894775,69.56993103027344,33.5,2
-0.1504780203104019,-0.9386513233184814,0.0710592940449714,2.7486937046051025,6.708920001983643,69.56995391845703,33.5,2
-0.1637414246797561,-0.8822610974311829,0.045601762831211,-15.066987037658691,6.708527088165283,69.5699691772461,33.5,2
-0.166655346751213,-0.8516708612442017,0.0180690381675958,-37.74577331542969,6.708274841308594,69.56997680664062,33.5,2
-0.1573297828435897,-0.8376376032829285,0.0004001204506494,-60.9552116394043,6.708112716674805,69.56998443603516,33.5,2
-0.1401496231555938,-0.8286318778991699,0.0002567742776591,-77.63023376464844,6.708008766174316,69.56999206542969,33.5,2
-0.1347221583127975,-0.8340480327606201,0.0001647829485591,-84.1791000366211,6.707942008972168,69.56999206542969,33.5,2
-0.136836901307106,-0.8655127286911011,0.0224968455731868,-83.64203643798828,6.719833850860596,69.56999206542969,33.5,2
-0.1325962394475937,-0.896900475025177,0.0704149231314659,-81.37712097167969,6.727465629577637,69.56999206542969,33.5,2
-0.1410703808069229,-0.9562277793884276,0.1179593056440353,-79.74091339111328,6.732363224029541,69.56999206542969,33.5,2
-0.1968885660171508,-1.0166916847229004,0.2212416231632232,-77.66986083984375,6.735506057739258,69.56999206542969,33.5,2
-0.2662961184978485,-1.0442984104156494,0.3155111372470855,-73.51053619384766,6.737523078918457,69.56999206542969,33.5,2
-0.3164356648921966,-1.0284281969070437,0.3424212336540222,-66.61746978759766,6.7388176918029785,69.56999206542969,33.5,2
-0.2926345765590668,-1.029439091682434,0.2813217639923095,-56.150089263916016,6.739648342132568,69.56999206542969,33.5,2
-0.2437737733125686,-1.052478909492493,0.2365138530731201,-40.26133346557617,6.74018144607544,69.56999206542969,33.5,2
-0.1676355302333831,-1.0784600973129272,0.2189542651176452,-19.02692985534668,6.772195816040039,69.60224151611328,33.5,2
-0.1299699246883392,-1.072742223739624,0.2020877599716186,2.933158159255981,6.792740345001221,69.62293243408203,33.5,2
-0.1505805104970932,-1.013095140457153,0.1856660395860672,19.945676803588867,6.805924892425537,69.63621520996094,33.5,2
-0.2141871601343155,-0.9356326460838318,0.1695297509431839,30.544483184814453,6.814385890960693,69.64473724365234,33.5,2
-0.2606040239334106,-0.8691283464431763,0.1591744124889373,36.74789810180664,6.819815635681152,69.65020751953125,33.5,2
-0.2791961431503296,-0.8096563816070557,0.1525289416313171,40.11268997192383,6.823300361633301,69.65371704101562,33.5,2
-0.274334192276001,-0.777088463306427,0.1594598144292831,40.620452880859375,6.825536727905273,69.65596771240234,33.5,2
-0.2712140679359436,-0.7617860436439514,0.1974942982196808,38.78242874145508,6.826971530914307,69.65741729736328,33.5,2
-0.2748095095157623,-0.779954731464386,0.2219026386737823,35.94416046142578,6.836154937744141,69.65834045410156,33.5,2
-0.2827146351337433,-0.8307987451553345,0.2431642860174179,33.1518440246582,6.842048168182373,69.658935546875,33.5,2
-0.2933854758739471,-0.9417963624000548,0.2736020982265472,32.16597366333008,6.845829963684082,69.65931701660156,33.5,2
-0.300233393907547,-1.013028264045715,0.2875375747680664,34.98690414428711,6.848257064819336,69.65956115722656,33.5,2
-0.3046279847621918,-1.1147185564041138,0.2964805662631988,41.41157150268555,6.8498148918151855,69.65972137451172,33.5,2
-0.3130459785461426,-1.1239997148513794,0.2910240888595581,48.5761604309082,6.850814342498779,69.65982055664062,33.5,2
-0.3016548156738281,-1.0795758962631226,0.2651313543319702,55.76059722900391,6.8514556884765625,69.6598892211914,33.5,2
-0.3055401742458343,-1.0510672330856323,0.2261237800121307,64.509033203125,6.851867198944092,69.65992736816406,33.5,2
-0.3192291259765625,-1.0271742343902588,0.1842976510524749,74.76629638671875,6.866361141204834,69.65995788574219,33.5,2
-0.3224161267280578,-1.0342321395874023,0.1518582701683044,84.31877136230469,6.875662326812744,69.65997314453125,33.5,2
-0.2852769494056701,-0.9939793348312378,0.1422360986471176,92.41583251953124,6.881631374359131,69.65998077392578,33.5,2
-0.2390520721673965,-0.9513540863990784,0.1360611319541931,99.95506286621094,6.885462284088135,69.65998840332031,33.5,2
-0.2205831557512283,-0.9239996671676636,0.1097073033452034,103.90840911865234,6.887920379638672,69.65999603271484,33.5,2
-0.2199264168739318,-0.9008473753929138,0.0871971547603607,102.05320739746094,6.889498233795166,69.65999603271484,33.5,2
-0.2251027375459671,-0.8915873765945435,0.067153662443161,96.01183319091795,6.890510559082031,69.65999603271484,33.5,2
-0.2060334980487823,-0.8912426233291626,0.0654864534735679,93.48904418945312,6.891160011291504,69.65999603271484,33.5,2
-0.1881981790065765,-0.8854236006736755,0.0700143054127693,96.34469604492188,6.876888275146484,69.65999603271484,33.5,2
-0.1655569523572921,-0.876091480255127,0.0785177946090698,98.58928680419922,6.867729663848877,69.65999603271484,33.5,2
-0.1454293429851532,-0.886896014213562,0.0783770754933357,97.54342651367188,6.861852169036865,69.65999603271484,33.5,2
-0.1213170513510704,-0.9050253033638,0.095080092549324,99.87445831298828,6.858080387115479,69.65999603271484,33.5,2
-0.100245401263237,-0.9334529042243958,0.0946035757660865,115.3101806640625,6.85565996170044,69.65999603271484,33.5,2
-0.114711694419384,-0.9740872383117676,0.0998955518007278,136.71241760253906,6.854106426239014,69.65999603271484,33.5,2
-0.1687775254249572,-0.9609795808792114,0.1424760520458221,155.05792236328125,6.853109836578369,69.65999603271484,33.5,2
-0.2090716361999511,-0.9245789647102356,0.1865950971841812,170.10189819335938,6.8524699211120605,69.65999603271484,33.5,2
-0.234930083155632,-0.9460013508796692,0.2261037081480026,196.93829345703125,6.854354381561279,69.67432403564453,33.5,2
-0.1843512505292892,-1.0213245153427124,0.2626536190509796,241.62437438964844,6.855563640594482,69.68352508544922,33.5,2
-0.1239037960767746,-1.0864559412002563,0.2805114686489105,294.53387451171875,6.856339931488037,69.68942260742188,33.5,2
-0.1298942863941192,-1.094666838645935,0.2919715940952301,334.74688720703125,6.856837749481201,69.6932144165039,33.5,2
-0.1617275178432464,-1.0607516765594482,0.2937282621860504,281.6004943847656,6.857157230377197,69.69564056396484,33.5,2
-0.1933518052101135,-1.010998010635376,0.2612689435482025,135.08013916015625,6.857362270355225,69.69720458984375,33.5,2
-0.2024509012699127,-0.9678734540939332,0.2292428910732269,-21.45339012145996,6.857493877410889,69.69820404052734,33.5,2
-0.2026924043893814,-0.9290030598640442,0.2086904048919677,-151.38143920898438,6.857578277587891,69.69884490966797,33.5,2
-0.1972496062517166,-0.904058277606964,0.206696555018425,-247.0142059326172,6.847992897033691,69.69925689697266,33.5,2
-0.1937567293643951,-0.8936479091644287,0.2054170221090316,-296.9000549316406,6.841841697692871,69.69952392578125,33.5,2
-0.1747218817472458,-0.8925649523735046,0.1989981085062027,-305.802734375,6.837893962860107,69.69969177246094,33.5,2
-0.1513108611106872,-0.8974677324295044,0.2004766017198562,-297.5331726074219,6.835360527038574,69.69979858398438,33.5,2
-0.1362870186567306,-0.9118096232414246,0.2014254033565521,-287.62261962890625,6.83373498916626,69.69986724853516,33.5,2
-0.1098522618412971,-0.9490022659301758,0.1796431988477707,-275.243896484375,6.832691669464111,69.69991302490234,33.5,2
-0.0872901827096939,-0.9896636605262756,0.1600668579339981,-252.1492156982422,6.832022190093994,69.69994354248047,33.5,2
-0.0672133639454841,-1.0381488800048828,0.136308342218399,-223.6680145263672,6.831592559814453,69.69996643066406,33.5,2
-0.0823180899024009,-1.0412750244140625,0.1434525847434997,-195.63507080078125,6.81341552734375,69.6999740600586,33.5,2
-0.0920114293694496,-1.0096945762634275,0.1424395740032196,-169.0433807373047,6.801750659942627,69.69998168945312,33.5,2
-0.0982320606708526,-0.9838303327560424,0.1361917108297348,-140.70758056640625,6.794264793395996,69.69998931884766,33.5,2
-0.107821874320507,-0.989623248577118,0.1209866479039192,-113.80330657958984,6.7894606590271,69.69998931884766,33.5,2
-0.1083782911300659,-1.021329641342163,0.0832400396466255,-95.90715789794922,6.786377906799316,69.69998931884766,33.5,2
-0.1311264634132385,-1.0080903768539429,0.0422231182456016,-86.27104949951172,6.784399509429932,69.69998931884766,33.5,2
-0.1513227075338363,-0.982800841331482,0.0159008186310529,-78.43916320800781,6.783129692077637,69.69998931884766,33.5,2
-0.1642834991216659,-0.9665714502334596,-0.0121868681162595,-67.77771759033203,6.782314777374268,69.69998931884766,33.5,2
-0.1726009845733642,-0.9617541432380676,-0.0358097031712532,-56.6044807434082,6.795562744140625,69.69998931884766,33.5,2
-0.1723408997058868,-1.0034449100494385,-0.0621650256216526,-47.39207458496094,6.8040642738342285,69.69998931884766,33.5,2
-0.1665762066841125,-1.035797357559204,-0.0734805837273597,-41.1003303527832,6.809520244598389,69.69998931884766,33.5,2
-0.1684745401144027,-1.0509616136550903,-0.0751444846391677,-37.76841735839844,6.813021183013916,69.69998931884766,33.5,2
-0.1864861100912094,-1.0383020639419556,-0.0650167316198349,-36.71212387084961,6.815268039703369,69.69998931884766,33.5,2
-0.1924471110105514,-1.007786750793457,-0.0473217703402042,-36.49641036987305,6.816709995269775,69.69998931884766,33.5,2
-0.1962725520133972,-0.960214912891388,-0.0135750668123364,-35.85283279418945,6.817635536193848,69.69998931884766,33.5,2
-0.209923043847084,-0.9632726907730104,-0.0143094705417752,-35.64044570922852,6.8182291984558105,69.69998931884766,33.5,2
-0.2410742342472076,-1.038006067276001,-0.0427696406841278,-37.162879943847656,6.840643405914307,69.68208312988281,33.5,2
-0.2554675042629242,-1.029987931251526,-0.0386426411569118,-39.422454833984375,6.855027198791504,69.67059326171875,33.5,2
-0.281497597694397,-0.9912556409835817,-0.0303963962942361,-39.90163803100586,6.8642578125,69.66321563720703,33.5,2
-0.3429844081401825,-0.9104217290878296,0.0028844394255429,-37.49714279174805,6.870181560516357,69.65847778320312,33.5,2
-0.3712475597858429,-0.8305583596229553,0.0690243616700172,-33.052188873291016,6.873983383178711,69.65544128417969,33.5,2
-0.3557985723018646,-0.784904420375824,0.1114691570401191,-27.16881561279297,6.876422882080078,69.65349578857422,33.5,2
-0.3458842933177948,-0.9179418087005616,0.1219144612550735,-18.889907836914062,6.877988338470459,69.6522445678711,33.5,2
-0.3339241147041321,-0.9585353136062622,0.1230198815464973,-6.999372482299805,6.878993034362793,69.65144348144531,33.5,2
-0.331846535205841,-1.0517592430114746,0.0621537566184997,7.792858600616455,6.90901517868042,69.65092468261719,33.55,2
-0.3752954602241516,-1.1339759826660156,0.0510822534561157,21.896434783935547,6.928281307220459,69.65059661865234,33.55,2
-0.3751896023750305,-1.1195647716522217,0.0495749749243259,30.420658111572266,6.940645217895508,69.65038299560547,33.55,2
-0.3807194530963897,-1.0487408638000488,0.0654010102152824,31.283823013305664,6.948579788208008,69.6502456665039,33.55,2
-0.4682348072528839,-0.9697035551071168,0.1371327638626098,27.574487686157227,6.953671932220459,69.65016174316406,33.55,2
-0.5971682071685791,-0.9301775097846984,0.2503393590450287,23.965227127075195,6.956939697265625,69.65010070800781,33.55,2
-0.6519213318824768,-0.9383985996246338,0.2949999868869781,21.928451538085938,6.959036827087402,69.65006256103516,33.55,2
-0.709449827671051,-0.988456666469574,0.3236605823040008,20.40282821655273,6.960382461547852,69.65003967285156,33.55,2
-0.8247371912002563,-1.0261788368225098,0.4372154772281647,18.764577865600582,6.978688716888428,69.6500244140625,33.55,2
-0.8483420014381409,-1.016800045967102,0.5884573459625244,16.69937515258789,6.990436553955078,69.65001678466797,33.55,2
-0.7851213812828064,-1.0163791179656982,0.8422533273696899,13.432290077209473,6.9979753494262695,69.65000915527344,33.55,2
-0.5766167640686035,-1.1784443855285645,1.206644892692566,9.06431007385254,7.002813339233398,69.65000915527344,33.55,2
-0.2916706204414367,-1.2264708280563354,1.4796748161315918,4.84965705871582,7.005918025970459,69.65000915527344,33.55,2
0.070320188999176,-1.2796825170516968,1.5597275495529177,1.263621807098389,7.00791072845459,69.65000915527344,33.55,2
0.2802339792251587,-1.2858418226242063,1.471156358718872,-2.488632202148437,7.009189605712891,69.65000915527344,33.55,2
0.269402414560318,-1.300990104675293,1.0952433347702026,-6.533850193023682,7.010010242462158,69.65000915527344,33.55,2
0.1504958719015121,-1.3163092136383057,0.5909086465835571,-9.545416831970217,7.014208793640137,69.65000915527344,33.55,2
0.0685907155275344,-1.376520037651062,0.2504623532295227,-10.63257884979248,7.016903400421143,69.65000915527344,33.55,2
0.105593092739582,-1.2472267150878906,0.0375812835991382,-10.524177551269531,7.018632411956787,69.65000915527344,33.55,2
0.0677635669708252,-1.074689269065857,-0.0934357643127441,-10.28623104095459,7.019742012023926,69.65000915527344,33.55,2
-0.0628709569573402,-0.8911935687065125,-0.2166993767023086,-10.230259895324709,7.020454406738281,69.65000915527344,33.55,2
-0.2138779759407043,-0.672676682472229,-0.4413450062274933,-10.624250411987305,7.02091121673584,69.65000915527344,33.55,2
-0.3611655533313751,-0.4428807199001312,-0.6918673515319824,-12.24205207824707,7.021204471588135,69.65000915527344,33.55,2
-0.629217267036438,-0.2954109013080597,-0.9925825595855712,-15.419061660766602,7.021392822265625,69.65000915527344,33.55,2
-0.8180307149887085,-0.2735443413257599,-1.202357530593872,-19.195432662963867,7.026562690734863,69.6392593383789,33.55,2
-0.8944181203842163,-0.8136913180351257,-1.040297031402588,-22.23151016235352,7.029880523681641,69.63236236572266,33.55,2
-0.8482770323753357,-1.2386953830718994,-0.6787983179092407,-24.172725677490234,7.032009601593018,69.62793731689453,33.55,2
-0.773884117603302,-1.511438488960266,-0.2452893555164337,-25.35041618347168,7.033376216888428,69.62509155273438,33.55,2
-0.5470142364501953,-1.686469316482544,0.3463870882987976,-25.69061088562012,7.034253120422363,69.6232681274414,33.55,2
-0.2894667387008667,-1.7987940311431885,0.9332086443901062,-24.70876693725586,7.034815788269043,69.62210083007812,33.55,2
0.4635787904262543,-1.8093020915985107,1.309796929359436,-21.79657554626465,7.035176753997803,69.62134552001953,33.55,2
1.0084155797958374,-1.6816989183425903,1.5514696836471558,-15.96536922454834,7.0354084968566895,69.62086486816406,33.55,2
1.3580604791641235,-1.7453527450561523,1.7065613269805908,-6.476784706115723,6.878572940826416,69.62055969238281,33.53,2
1.2297825813293457,-1.836582064628601,1.044792890548706,5.806715488433838,6.777924537658691,69.620361328125,33.53,2
0.901159167289734,-1.895127773284912,0.3905992209911346,18.601268768310547,6.713334560394287,69.62023162841797,33.53,2
0.4719543755054474,-1.9326990842819207,-0.3594933152198791,29.46318244934082,6.671884059906006,69.62014770507812,33.53,2
0.1685265749692917,-1.6713236570358276,-0.5833619236946106,36.81707000732422,6.6452836990356445,69.6200942993164,33.53,2
0.0241840332746505,-1.4867945909500122,-0.5199102163314819,41.13870620727539,6.628212928771973,69.62006378173828,33.53,2
-0.465888649225235,-1.1388657093048096,-0.5127772092819214,44.56411361694336,6.617258071899414,69.62004089355469,33.53,2
-0.9259312748908995,-0.798031747341156,-0.4634174704551697,47.9445915222168,6.610228061676025,69.62002563476562,33.53,2
-1.2771378755569458,-0.5009353160858154,-0.0566903352737426,50.0638313293457,6.711750030517578,69.6200180053711,33.53,2
-1.4185553789138794,-0.4446224868297577,0.445028007030487,51.50981903076172,6.776901245117188,69.62001037597656,33.53,2
-1.3749624490737915,-0.5820151567459106,0.8173819184303284,56.42159652709961,6.818711280822754,69.62001037597656,33.53,2
-0.9943272471427916,-1.0900189876556396,1.0619350671768188,67.05410766601562,6.8455424308776855,69.62001037597656,33.53,2
-0.5261464715003967,-1.416026592254639,1.1852885484695437,78.4094009399414,6.862761497497559,69.62001037597656,33.53,2
-0.0689573660492897,-1.6252394914627075,1.040538668632507,82.90574645996094,6.873811721801758,69.62001037597656,33.53,2
0.3196024596691131,-1.6979247331619265,0.7685177326202393,81.29869079589844,6.8809027671813965,69.62001037597656,33.53,2
0.5689578056335449,-1.5766366720199585,0.537972629070282,83.90010833740234,6.885453701019287,69.62001037597656,33.53,2
0.6674041748046875,-1.258096694946289,0.4180109202861786,96.17039489746094,6.892045974731445,69.62001037597656,33.53,2
0.7529724836349487,-1.0144916772842407,0.3298308551311493,106.28386688232422,6.896276473999023,69.62001037597656,33.53,2
0.718320906162262,-0.8301711678504944,0.2228620052337646,92.34626007080078,6.898991584777832,69.62001037597656,33.53,2
0.5225525498390198,-1.070142388343811,0.0422600656747818,43.17675018310547,6.900733947753906,69.62001037597656,33.53,2
0.3185508251190185,-1.3360975980758667,-0.0792376324534416,-28.874849319458008,6.901852130889893,69.62001037597656,33.53,2
0.2212209105491638,-1.1765036582946775,-0.0340568237006664,-95.7633819580078,6.902569770812988,69.62001037597656,33.53,2
0.1643579453229904,-0.9621299505233764,0.0005353898741304,-134.1817169189453,6.9030303955078125,69.62001037597656,33.53,2
0.1390621215105056,-0.8581439256668091,0.067516878247261,-139.798583984375,6.90332555770874,69.62001037597656,33.53,2
0.1900020092725753,-0.8138027787208557,0.2280550003051757,-124.26145935058594,6.990729331970215,69.61642456054688,33.53,2
0.2226922959089279,-0.8077382445335388,0.3534702360630035,-103.01268005371094,7.046819686889648,69.61412048339844,33.53,2
0.1820955127477646,-0.8598241209983826,0.4899322390556335,-85.9264144897461,7.082815170288086,69.6126480102539,33.53,2
0.1224561929702758,-0.9436298608779908,0.6278856992721558,-73.59288787841797,7.105915069580078,69.61170196533203,33.53,2
0.1065742075443267,-0.9750204086303712,0.7276118397712708,-58.75282287597656,7.120739459991455,69.61109161376953,33.53,2
0.0012198989279568,-0.9503828883171082,0.7244369983673096,-35.14622116088867,7.130252838134766,69.61070251464844,33.53,2
-0.0887815281748771,-0.9401696920394896,0.6832151412963867,-6.658934116363525,7.13635778427124,69.6104507446289,33.53,2
-0.1745281368494033,-0.9000288248062134,0.6343702673912048,17.77743148803711,7.140275955200195,69.61029052734375,33.53,2
-0.2351531535387039,-0.8854643106460571,0.5862311124801636,36.35758972167969,7.298856735229492,69.61018371582031,33.5,2
-0.2852543294429779,-0.8705198168754578,0.5385448336601257,55.507320404052734,7.400624752044678,69.61011505126953,33.5,2
-0.3230041563510895,-0.8833204507827759,0.5023447871208191,79.70858001708984,7.465933322906494,69.61007690429688,33.5,2
-0.341632068157196,-0.8915351629257202,0.4679180979728699,109.86004638671876,7.507844924926758,69.61004638671875,33.5,2
-0.3423908352851867,-0.8688179850578308,0.4402272701263428,144.8438720703125,7.534741401672363,69.61003112792969,33.5,2
-0.3484755456447601,-0.8374460935592651,0.4168591201305389,175.93565368652344,7.552001953125,69.61002349853516,33.5,2
-0.3411847949028015,-0.8229112029075623,0.4074605405330658,188.0140686035156,7.5630784034729,69.61001586914062,33.5,2
-0.1349861472845077,-0.7799968719482422,0.4406135082244873,170.45440673828125,7.570186614990234,69.6100082397461,33.5,2
-0.1705929487943649,-0.7860435843467712,0.4059114158153534,125.16190338134766,7.753555774688721,69.6100082397461,33.5,2
-0.1878455728292465,-0.7787284851074219,0.467608243227005,61.258819580078125,7.871231555938721,69.6100082397461,33.5,2
-0.1317440271377563,-0.8020229339599609,0.5519838929176331,-6.981658458709717,7.946749210357666,69.6100082397461,33.5,2
-0.1405234783887863,-0.8057764172554016,0.583740234375,-64.38825988769531,7.995212078094482,69.6100082397461,33.5,2
-0.1965375989675521,-0.7745985388755798,0.5985218286514282,-103.59658813476562,8.026312828063965,69.6100082397461,33.5,2
-0.2268864512443542,-0.7769814729690552,0.5968123078346252,-130.2987518310547,8.046271324157715,69.6100082397461,33.5,2
-0.2519603669643402,-0.7729129195213318,0.5677263140678406,-153.61102294921875,8.05907917022705,69.6100082397461,33.5,2
-0.2512580454349518,-0.787095308303833,0.5378651022911072,-151.4503631591797,8.067298889160156,69.6100082397461,33.5,2
-0.2060251384973526,-0.8129900693893433,0.5075063109397888,-112.38224792480467,8.222166061401367,69.6100082397461,33.5,2
-0.1602039486169815,-0.7736300826072693,0.5048171281814575,-63.59034729003906,8.321551322937012,69.6100082397461,33.5,2
-0.1531896442174911,-0.7651644349098206,0.5142868757247925,-26.68252944946289,8.385331153869629,69.6100082397461,33.5,2
-0.1654815822839737,-0.7709271907806396,0.514766275882721,-13.813011169433594,8.426260948181152,69.6100082397461,33.5,2
-0.1733698397874832,-0.7802231907844543,0.5262694954872131,-32.831825256347656,8.452527046203613,69.6100082397461,33.5,2
-0.1728343069553375,-0.7805910706520081,0.5448471307754517,-81.92678833007812,8.469383239746094,69.6100082397461,33.5,2
-0.1668928563594818,-0.820011556148529,0.5623669624328613,-139.42469787597656,8.48020076751709,69.6100082397461,33.5,2
-0.135091096162796,-0.8285160064697266,0.5792079567909241,-179.680419921875,8.487142562866211,69.6100082397461,33.5,2
-0.1482692062854766,-0.7947892546653748,0.5956133008003235,-195.1175842285156,8.578454971313477,69.60283660888672,33.5,2
-0.1455306112766266,-0.7787431478500366,0.6117390990257263,-194.88916015625,8.637053489685059,69.59823608398438,33.5,2
-0.1605664640665054,-0.7404568195343018,0.6164899468421936,-180.51974487304688,8.67465877532959,69.59528350830078,33.5,2
-0.1982044726610183,-0.7662668228149414,0.6027454137802124,-146.32057189941406,8.69879150390625,69.59339141845703,33.5,2
-0.2055650651454925,-0.7548413276672363,0.6051205396652222,-97.6654052734375,8.714278221130371,69.59217834472656,33.5,2
