acc_x,acc_y,acc_z,bvp,eda,hr,temp,label
0.0,0.0,0.0,0.0,0.0,0.0,27.87,2
-0.0494791641831398,-0.1562499850988388,0.0364583320915699,18.20499992370605,0.3259909749031067,11.554999351501465,27.87,2
-0.1200457364320755,-0.3658536672592163,0.085365854203701,36.65414810180664,0.7632960081100464,27.05561065673828,27.87,2
-0.1913932710886001,-0.5581395626068115,0.1279069781303405,46.24325942993164,1.1436760425567627,40.53847503662109,27.87,2
-0.1633721590042114,-0.6557168960571289,0.1696194261312484,46.146484375,1.4211838245391846,50.37495040893555,27.87,2
-0.2267464995384216,-0.7711883187294006,0.1868810653686523,37.66280746459961,1.6090682744979858,57.03466033935547,27.87,2
-0.2572230100631714,-0.858060359954834,0.1871010363101959,23.79777908325196,1.7323474884033203,61.40438461303711,27.87,2
-0.2881198227405548,-0.8641090989112854,0.1872434914112091,9.094128608703612,1.81218945980072,64.23444366455078,27.87,2
-0.2968423366546631,-0.8568251729011536,0.1761549115180969,-2.9391915798187256,1.8549110889434808,66.05748748779297,27.87,2
-0.296854019165039,-0.9192792177200316,0.1746224611997604,-11.063797950744627,1.882370114326477,67.22923278808594,27.87,2
-0.3136509954929352,-0.9425948858261108,0.1736383885145187,-15.202940940856934,1.9000030755996704,67.98167419433594,27.87,2
-0.3356276452541351,-0.92397803068161,0.1618122160434723,-15.456226348876951,1.9113218784332275,68.46467590332031,27.87,2
-0.3497325479984283,-0.9176270961761476,0.1542220264673233,-12.38743019104004,1.9185863733291624,68.77467346191406,27.87,2
-0.3419916033744812,-0.9135512113571168,0.1549485474824905,-8.232629776000977,1.923248529434204,68.97361755371094,27.87,2
-0.3370238244533539,-0.9221310019493104,0.155414804816246,-7.117514133453369,1.9262404441833496,69.1012954711914,27.87,2
-0.3282380104064941,-0.9276370406150818,0.1613117754459381,-13.728239059448242,1.928160548210144,69.1832275390625,27.87,2
-0.31700199842453,-0.9255727529525756,0.170693889260292,-29.384708404541016,1.9505088329315183,69.23580932617188,27.87,2
-0.3265846669673919,-0.9298457503318788,0.1711170375347137,-50.22643661499024,1.964850664138794,69.2695541381836,27.87,2
-0.3271365165710449,-0.9269901514053344,0.1657908111810684,-71.06397247314453,1.974054455757141,69.29120635986328,27.87,2
-0.3386861979961395,-0.9363531470298768,0.167970523238182,-88.10128021240234,1.9799609184265137,69.30510711669922,27.87,2
-0.3405003547668457,-0.9311662316322328,0.1637715548276901,-100.109619140625,1.9837512969970703,69.31402587890625,27.87,2
-0.3416645526885986,-0.9334353804588318,0.1610769033432006,-105.14685821533205,1.986183762550354,69.31974792480469,27.87,2
-0.2976294755935669,-0.9348915815353394,0.1761409491300583,-100.7879867553711,1.9877448081970213,69.32341766357422,27.87,2
-0.3253480494022369,-0.9246305227279664,0.1690148711204528,-86.784423828125,1.9887465238571167,69.32577514648438,27.87,2
-0.3319406807422638,-0.934838891029358,0.1700395345687866,-68.52245330810547,1.9494526386260984,69.32728576660156,27.87,2
-0.3361714482307434,-0.9357922673225404,0.1650993227958679,-52.70450592041016,1.9242360591888428,69.32826232910156,27.87,2
-0.3388865292072296,-0.9364040493965148,0.1675267666578292,-41.31388473510742,1.908053517341613,69.32888793945312,27.87,2
-0.3406288921833038,-0.9367966651916504,0.1690845489501953,-35.71651077270508,1.897668480873108,69.32928466796875,27.87,2
-0.3417470455169678,-0.937048614025116,0.1700842529535293,-39.44005584716797,1.891003966331482,69.32954406738281,27.87,2
-0.3424646258354187,-0.9372103214263916,0.1707258075475692,-60.53065872192383,1.8867270946502688,69.32970428466797,27.87,2
-0.3429251313209533,-0.9373140931129456,0.1711375117301941,-93.68716430664062,1.883982419967652,69.3298110961914,27.87,2
-0.3376228809356689,-0.9373806715011596,0.1714017242193222,-128.72935485839844,1.8822211027145384,69.32987976074219,27.87,2
-0.3398179709911346,-0.9374234080314636,0.171571284532547,-161.82899475097656,1.8815497159957888,68.39128875732422,27.91,2
-0.3412266373634338,-0.9318530559539796,0.1660823225975036,-204.16465759277344,1.881118893623352,67.78895568847656,27.91,2
-0.3421306610107422,-0.9282783269882202,0.1681575924158096,-261.80303955078125,1.8808423280715945,67.40241241455078,27.91,2
-0.342710793018341,-0.9315820336341858,0.1638916134834289,-317.8406066894531,1.880664825439453,67.15435028076172,27.91,2
-0.3430830836296081,-0.9337021708488464,0.1611539423465728,-361.9669799804688,1.880550980567932,66.99515533447266,27.91,2
-0.3433220088481903,-0.9350627660751344,0.1593970656394958,-400.756591796875,1.8804779052734373,66.89299774169922,27.91,2
-0.343475341796875,-0.935935914516449,0.1582695990800857,-463.9616088867188,1.880431056022644,66.82743835449219,27.91,2
-0.3435737490653991,-0.9308984875679016,0.1575460582971573,-544.486572265625,1.880400896072388,66.78536224365234,27.91,2
-0.3436369001865387,-0.9276657700538636,0.157081738114357,-619.5427856445312,1.8753318786621087,66.75836181640625,27.91,2
-0.3436774313449859,-0.9255911707878112,0.1567837595939636,-686.5538940429688,1.872078895568848,66.74103546142578,27.91,2
-0.3493011891841888,-0.9242598414421082,0.1621903032064438,-781.1002807617188,1.8699913024902344,66.72991943359375,27.91,2
-0.3529102206230163,-0.9290032386779784,0.1656599193811416,-923.02392578125,1.8686516284942627,66.72278594970703,27.91,2
-0.3496285080909729,-0.9264494776725768,0.1622887402772903,-1063.473876953125,1.8677918910980225,66.71820831298828,27.91,2
-0.3531202673912048,-0.9248106479644777,0.1601253151893615,-1152.5926513671875,1.8672401905059808,66.71527099609375,27.91,2
-0.3721543848514557,-0.918161153793335,0.1643347293138504,-1019.1658325195312,1.866886138916016,66.71337890625,27.91,2
-0.3955649435520172,-0.9306871891021729,0.1614383161067962,-606.08203125,1.866658926010132,66.71216583251953,27.91,2
-0.4161862730979919,-0.9499212503433228,0.1595795601606369,-132.0456085205078,1.867431282997132,66.71138763427734,27.91,2
-0.4406153857707977,-0.9286779165267944,0.1583867222070694,257.26776123046875,1.8679269552230835,66.71089172363281,27.91,2
-0.4562925994396209,-0.9038496017456056,0.157621219754219,533.83984375,1.8682451248168943,66.7105712890625,27.91,2
-0.4663533270359039,-0.9047095775604248,0.1459344178438186,689.4382934570312,1.8684492111206048,66.71036529541016,27.91,2
-0.4728097319602966,-0.9052614569664,0.1496300548315048,735.4749755859375,1.8685802221298216,66.71023559570312,27.91,2
-0.4769530892372131,-0.9000178575515747,0.1520016938447952,729.8270874023438,1.868664264678955,66.71015167236328,27.91,2
-0.4740142822265625,-0.902250587940216,0.1591214537620544,712.7034301757812,1.8687182664871216,66.71009826660156,27.91,2
-0.472128301858902,-0.9036834239959716,0.1636905074119568,689.7880249023438,1.8687529563903809,66.7100601196289,27.91,2
-0.4653202295303345,-0.8990051746368408,0.1666226685047149,636.7021484375,1.8710705041885376,66.71003723144531,27.91,2
-0.4553534090518951,-0.8904051184654236,0.1685043573379516,565.3472290039062,1.8725577592849727,66.71002197265625,27.91,2
-0.4433595240116119,-0.8848861455917358,0.1697119176387787,504.4552001953125,1.8735122680664065,66.71001434326172,27.91,2
-0.4300647675991058,-0.8813443779945374,0.1704868525266647,463.1892395019531,1.8741247653961184,66.71000671386719,27.91,2
-0.4159351587295532,-0.8734737038612366,0.1709841638803482,421.9683837890625,1.874517798423767,66.71000671386719,27.91,2
-0.4012698233127594,-0.8684227466583252,0.1769010871648788,361.5631408691406,1.8747700452804563,66.71000671386719,27.91,2
-0.3862606883049011,-0.8651813268661499,0.1806982308626175,293.28887939453125,1.8749319314956665,66.71000671386719,27.91,2
-0.3766286969184875,-0.8631011843681335,0.1831350177526474,233.4101104736328,1.8750358819961548,66.71000671386719,27.91,2
-0.3592518866062164,-0.8729618191719055,0.1902965754270553,187.26649475097656,1.8764797449111936,66.67776489257812,27.87,2
-0.3425026834011078,-0.9072786569595336,0.1892946809530258,145.4232635498047,1.8774062395095823,66.65707397460938,27.87,2
-0.3429495394229889,-0.9852789640426636,0.17185840010643,106.89149475097656,1.8780008554458616,66.64379119873047,27.87,2
-0.3600296378135681,-0.9905529022216796,0.1718643456697464,76.82598876953125,1.8783824443817136,66.63526916503906,27.87,2
-0.3765884339809418,-0.965948522090912,0.171868160367012,55.378543853759766,1.8786273002624512,66.62979888916016,27.87,2
-0.3872149288654327,-0.9557566046714784,0.1830661594867706,37.51992416381836,1.878784418106079,66.62628936767578,27.87,2
-0.3884366154670715,-0.9492160677909852,0.1902523934841156,20.255517959594727,1.878885269165039,66.62403869628906,27.87,2
-0.3388406634330749,-0.9114320278167723,0.1780707836151123,6.174018383026123,1.8789499998092647,66.62258911132812,27.87,2
-0.3126105964183807,-0.9263688325881958,0.1646555513143539,-3.521870851516724,1.8780733346939087,66.62166595458984,27.87,2
-0.3125709891319275,-0.9583455324172974,0.1560464203357696,-10.303016662597656,1.8775107860565183,66.6210708618164,27.87,2
-0.3461321890354156,-0.9508774876594543,0.1281304806470871,-15.210064888000488,1.8771497011184688,66.62068939208984,27.87,2
-0.3676698505878448,-0.8957049250602722,0.1158134117722511,-17.628280639648438,1.8769179582595823,66.62044525146484,27.87,2
-0.3646981716156006,-0.8547005653381348,0.119104579091072,-17.152414321899414,1.8767693042755127,66.62028503417969,27.87,2
-0.3459977805614471,-0.8507774472236633,0.1380099803209304,-15.077238082885742,1.876673936843872,66.62018585205078,27.87,2
-0.3339969515800476,-0.865053117275238,0.1557401567697525,-13.086316108703612,1.876612663269043,66.6201171875,27.87,2
-0.3318932950496673,-0.8798122406005859,0.1727161407470703,-11.543545722961426,1.8765733242034912,66.62007904052734,27.87,2
-0.3361410498619079,-0.8836860060691833,0.1836103498935699,-10.077001571655272,1.878384232521057,66.62004852294922,27.87,2
-0.3444647789001465,-0.8805741667747498,0.1961994022130966,-8.738192558288574,1.879546403884888,66.62003326416016,27.87,2
-0.3610020279884338,-0.8785771727561951,0.2154738754034042,-7.907682418823242,1.8802921772003167,66.62002563476562,27.87,2
-0.3660168945789337,-0.8772956132888794,0.2278431206941604,-7.657732486724853,1.880770802497864,66.6200180053711,27.87,2
-0.3692351579666137,-0.8820709586143494,0.2357809841632843,-7.658545017242432,1.8810778856277464,66.62001037597656,27.87,2
-0.3768982291221618,-0.8907333016395569,0.2520706057548523,-7.479937553405762,1.881274938583374,66.62001037597656,27.87,2
-0.3706203997135162,-0.9018900394439696,0.2457310259342193,-7.060798645019531,1.881401419639588,66.62001037597656,27.87,2
-0.3833849728107452,-0.9370386600494384,0.2416626363992691,-6.670011520385742,1.881482601165772,66.62001037597656,27.87,2
-0.3971743285655975,-0.9763883352279664,0.2334540039300918,-6.265176296234131,1.879698634147644,66.62001037597656,27.87,2
-0.4452079534530639,-1.068814039230347,0.2225884050130844,-5.532476425170898,1.8785537481307983,66.62001037597656,27.87,2
-0.4704353809356689,-1.0553563833236694,0.2100177258253097,-4.646693229675293,1.8778190612792969,66.62001037597656,27.87,2
-0.475429356098175,-1.0243289470672607,0.2075483500957489,-3.9922666549682617,1.8773475885391235,66.62001037597656,27.87,2
-0.4730364382266998,-1.026808500289917,0.1947681009769439,-3.454068183898926,1.877045035362244,66.62001037597656,27.87,2
-0.4770985543727875,-1.050790786743164,0.1753709316253662,-2.890146255493164,1.8768508434295648,66.62001037597656,27.87,2
-0.4573143124580383,-1.0773768424987793,0.1629229336977005,-2.7037999629974365,1.8767262697219849,66.62001037597656,27.87,2
-0.4278245866298675,-1.0720471143722534,0.1549345254898071,-3.1430954933166504,1.8766462802886963,66.62001037597656,27.87,2
-0.3921064436435699,-1.029442310333252,0.1330147087574005,-3.607721328735352,1.87797212600708,66.51611328125,27.85,2
-0.3691846132278442,-0.9741122126579284,0.0965567305684089,-3.2538626194000244,1.878822922706604,66.4494400024414,27.85,2
-0.3488769233226776,-0.9386045336723328,0.0731600970029831,-1.9340909719467163,1.8793689012527464,66.40664672851562,27.85,2
-0.3358446061611175,-0.8990244269371033,0.0581454895436763,-0.2738928496837616,1.8797193765640257,66.37918853759766,27.85,2
-0.3218834400177002,-0.862428605556488,0.0485099777579307,1.0745502710342407,1.8799442052841189,66.36156463623047,27.85,2
-0.3073261976242065,-0.8277480006217957,0.0367286875844001,1.9363209009170528,1.8800885677337649,66.35025787353516,27.85,2
-0.2923864424228668,-0.8110897541046143,0.0291681326925754,2.349635124206543,1.8801811933517456,66.34300231933594,27.85,2
-0.2827989459037781,-0.8003994226455688,0.0299139767885208,2.0739076137542725,1.880240559577942,66.33834838867188,27.85,2
-0.2766462564468384,-0.8327234387397766,0.0527837164700031,0.6717206239700317,1.8811968564987185,66.33535766601562,27.85,2
-0.2726978063583374,-0.8814559578895569,0.0674601942300796,-1.8331161737442017,1.8818106651306152,66.33344268798828,27.85,2
-0.2757616937160492,-0.9127296805381776,0.104867585003376,-4.62640905380249,1.882204532623291,66.33220672607422,27.85,2
-0.2665323615074157,-0.994374930858612,0.1344712674617767,-6.598112106323242,1.882457256317139,66.33141326904297,27.85,2
-0.2494139671325683,-1.0691611766815186,0.1422736644744873,-7.00361967086792,1.8826195001602173,66.3309097290039,27.85,2
-0.2552216947078705,-1.1843280792236328,0.169671893119812,-6.013532161712647,1.8827235698699951,66.33058166503906,27.85,2
-0.2869376242160797,-1.1854645013809204,0.2040478140115738,-4.873007774353027,1.882790327072144,66.33037567138672,27.85,2
-0.3240844011306762,-1.0294560194015503,0.2149127572774887,-5.072554588317871,1.8828332424163816,66.33023834228516,27.85,2
-0.2919453382492065,-0.9685232043266296,0.1994941532611847,-7.016977787017822,1.8810243606567385,66.33015441894531,27.85,2
-0.2769181132316589,-0.9630066752433776,0.1951971501111984,-9.74081802368164,1.8798635005950928,66.3301010131836,27.85,2
-0.2672744989395141,-0.9258798360824584,0.2036351412534713,-11.829166412353516,1.87911856174469,66.33006286621094,27.85,2
-0.2722813189029693,-0.8796628713607788,0.2090501487255096,-12.4313383102417,1.878640413284301,66.33003997802734,27.85,2
-0.2978855073451996,-0.8388079404830933,0.1845363229513168,-11.79674243927002,1.878333568572998,66.33002471923828,27.85,2
-0.3423056900501251,-0.846176266670227,0.1744025349617004,-10.812701225280762,1.87813663482666,66.33001708984375,27.85,2
-0.3820075392723083,-0.8676981329917908,0.162301480770111,-9.754873275756836,1.8780102729797363,66.33000946044922,27.85,2
-0.3850948214530945,-0.8871074318885803,0.1713290363550186,-7.904518604278564,1.8779292106628416,66.33000946044922,27.85,2
-0.3870760500431061,-0.899563193321228,0.1883179545402526,-4.571104526519775,1.878336429595948,66.33000946044922,27.85,2
-0.3883474767208099,-0.8907632231712341,0.2104160189628601,-0.049498151987791,1.878597855567932,66.33000946044922,27.85,2
-0.4003589749336242,-0.885115921497345,0.2245972752571106,4.722312927246094,1.87876558303833,66.33000946044922,27.85,2
-0.3968717157840729,-0.8926873803138733,0.2336979955434799,9.131634712219238,1.8788732290267944,66.33000946044922,27.85,2
-0.383438229560852,-0.9199373722076416,0.239538311958313,13.036056518554688,1.8789422512054443,66.33000946044922,27.85,2
-0.3692196309566498,-0.9430226683616638,0.2432862967252731,16.240291595458984,1.8789865970611568,66.33000946044922,27.85,2
-0.3656927049160003,-0.9746307730674744,0.2344959825277328,18.400480270385746,1.87901508808136,66.33000946044922,27.85,2
-0.3802226483821869,-1.0564905405044556,0.2176593095064163,19.34252548217773,1.879033327102661,66.33000946044922,27.85,2
-0.4175360202789306,-1.131414532661438,0.2124522775411605,19.198318481445312,1.8762906789779663,66.24760437011719,27.85,2
-0.4470793604850769,-1.07313871383667,0.1979151666164398,18.64720344543457,1.8745306730270384,66.1947250366211,27.85,2
-0.438049703836441,-0.9909584522247314,0.1941838562488556,18.791507720947266,1.873401165008545,66.1607894897461,27.85,2
-0.4154616594314575,-0.943817675113678,0.1917893141508102,19.90156555175781,1.872676372528076,66.13900756835938,27.85,2
-0.4233570694923401,-0.991934299468994,0.1902526319026947,20.911291122436523,1.872211217880249,66.12503051757812,27.85,2
-0.4172283411026001,-1.02841055393219,0.189266487956047,20.706621170043945,1.8719127178192136,66.1160659790039,27.85,2
-0.3853063881397247,-0.995841145515442,0.1830358505249023,18.991777420043945,1.871721148490905,66.11031341552734,27.85,2
-0.359222948551178,-0.9693422317504884,0.167841836810112,15.623519897460938,1.871598243713379,66.10662078857422,27.85,2
-0.3536796569824219,-0.9523367285728456,0.1301023215055465,10.441854476928713,1.8719782829284668,66.104248046875,27.85,2
-0.3445245027542114,-0.9190325140953064,0.1002855077385902,4.096448421478272,1.872222185134888,66.10272216796875,27.85,2
-0.333051472902298,-0.8864642381668091,0.0755530148744583,-1.8923454284667969,1.872378706932068,66.10174560546875,27.85,2
-0.3200909793376922,-0.8543682098388672,0.0652789026498794,-6.333899021148682,1.8724790811538696,66.10111999511719,27.85,2
-0.3061759173870086,-0.828173041343689,0.0586855635046958,-9.162736892700195,1.8725435733795168,66.10071563720703,27.85,2
-0.2916482388973236,-0.8113625049591064,0.0600521154701709,-10.942296028137209,1.8725849390029907,66.10045623779297,27.85,2
-0.2879229784011841,-0.8397588729858398,0.0721246376633644,-12.166714668273926,1.872611403465271,66.10029602050781,27.85,2
-0.2743367850780487,-0.8523842692375183,0.0742743164300918,-13.249829292297363,1.8726284503936768,66.10018920898438,27.85,2
-0.2656179368495941,-0.8996709585189819,0.0924471765756607,-14.510956764221191,1.872639417648316,66.1001205444336,27.85,2
-0.265620470046997,-0.9356145858764648,0.1041094735264778,-15.986635208129885,1.872646450996399,66.1000747680664,27.85,2
-0.265622079372406,-0.97547447681427,0.1059958860278129,-17.879440307617188,1.8726509809494016,66.10004425048828,27.85,2
-0.2824164628982544,-1.0794230699539185,0.1239998042583465,-20.75286674499512,1.872653841972351,66.10002899169922,27.85,2
-0.3099874556064605,-1.0901535749435425,0.1411514580249786,-23.994070053100582,1.8726556301116943,66.10002136230469,27.85,2
-0.3220831453800201,-0.9794865250587464,0.1577561795711517,-24.830934524536133,1.8726568222045896,66.10001373291016,27.85,2
-0.3242476880550384,-0.9364556670188904,0.1572165787220001,-20.932758331298828,1.8726575374603271,66.10000610351562,27.85,2
-0.3312345445156097,-0.9928075671195984,0.1568702906370163,-13.512255668640137,1.872658014297485,66.10000610351562,27.85,2
-0.3301205337047577,-0.9897865653038024,0.167843610048294,-5.859066009521484,1.8712811470031736,66.10000610351562,27.85,2
-0.3294056057929992,-0.9542611837387084,0.1692878901958465,0.1521613001823425,1.870397567749024,66.10000610351562,27.85,2
-0.3513379096984863,-0.8922786116600037,0.164616972208023,4.307174682617188,1.86983060836792,66.10000610351562,27.85,2
-0.3710105717182159,-0.863697350025177,0.1616194397211074,6.651191234588623,1.869466781616211,66.10000610351562,27.85,2
-0.3780376017093658,-0.8677465915679932,0.1652935743331909,7.847344875335693,1.869233250617981,66.10000610351562,27.85,2
-0.3601560294628143,-0.8815407156944275,0.1900425106287002,9.27774429321289,1.869083404541016,66.10000610351562,27.85,2
-0.3486806750297546,-0.8903930187225342,0.2059249579906463,11.639470100402832,1.868987202644348,66.10000610351562,27.85,2
-0.3581097722053528,-0.8848783373832703,0.2217151820659637,14.727840423583984,1.8689254522323608,66.10000610351562,27.85,2
-0.3697586059570312,-0.8813393712043762,0.2318484336137771,18.676612854003903,1.86980402469635,65.99969482421875,27.83,2
-0.3716363608837127,-0.9014593362808228,0.2495469152927398,23.83673667907715,1.8703678846359253,65.93531799316406,27.83,2
-0.3728414177894592,-0.9591533541679382,0.2553070187568664,29.552114486694336,1.8707298040390008,65.89400482177734,27.83,2
-0.3624191880226135,-1.001775860786438,0.253405749797821,34.1406364440918,1.8709620237350464,65.86749267578125,27.83,2
-0.3501330316066742,-1.0291285514831543,0.2409900724887848,36.23979949951172,1.8711110353469849,65.85047912597656,27.83,2
-0.3534440398216247,-1.0858663320541382,0.2162290811538696,35.65949249267578,1.8712066411972048,65.83956146240234,27.83,2
-0.4339376986026764,-1.1614618301391602,0.2115344405174255,33.019317626953125,1.8712680339813232,65.83255004882812,27.83,2
-0.4576050043106079,-1.086823582649231,0.1749350428581237,29.333091735839844,1.871307373046875,65.82805633544922,27.83,2
-0.4448044598102569,-1.0277295112609863,0.1570454388856887,26.107666015625,1.8708733320236208,65.8251724243164,27.83,2
-0.4421875774860382,-1.0569796562194824,0.1679560095071792,24.79727935791016,1.87059485912323,65.82331848144531,27.83,2
-0.4517037570476532,-1.0869462490081787,0.1581644713878631,25.496856689453125,1.8704161643981927,65.82212829589844,27.83,2
-0.4074307382106781,-1.050199270248413,0.1462830454111099,26.683815002441406,1.8703014850616453,65.82136535644531,27.83,2
-0.3454322218894958,-0.9874327778816224,0.1386582404375076,26.67528343200684,1.8702278137207031,65.82087707519531,27.83,2
-0.3112429082393646,-0.9471529126167296,0.1169717460870742,24.842693328857425,1.870180606842041,65.82056427001953,27.83,2
-0.2948999404907226,-0.9101080298423768,0.0806635096669197,21.327220916748047,1.8701503276824951,65.82035827636719,27.83,2
-0.2900097370147705,-0.8807370066642761,0.0517651960253715,16.434417724609375,1.8701308965682983,65.82022857666016,27.83,2
-0.2924692630767822,-0.8450950384140015,0.0276221483945846,10.625479698181152,1.8682823181152344,65.82014465332031,27.83,2
-0.2884498834609985,-0.8166242837905884,0.0121285300701856,4.47223424911499,1.8670960664749143,65.8200912475586,27.83,2
-0.2858704626560211,-0.8095489740371704,0.0021856180392205,-1.665518283843994,1.866334795951844,65.82006072998047,27.83,2
-0.2786173820495605,-0.8218017220497131,0.0014026038115844,-7.549713134765625,1.865846276283264,65.82003784179688,27.83,2
-0.2739627659320831,-0.8408604264259338,0.0064978851005434,-12.611995697021484,1.8655327558517456,65.82002258300781,27.83,2
-0.2653779089450836,-0.8698844909667969,0.0153655167669057,-16.19027328491211,1.865331530570984,65.82001495361328,27.83,2
-0.2710641920566559,-0.9164993762969972,0.0434473492205143,-18.300312042236328,1.8652024269104004,65.82000732421875,27.83,2
-0.2691155672073364,-0.968805193901062,0.0614686533808708,-19.715316772460938,1.8651195764541624,65.82000732421875,27.83,2
-0.2622672617435455,-1.0751430988311768,0.0674359127879142,-21.25750160217285,1.8691977262496948,65.82000732421875,27.83,2
-0.2746657431125641,-1.1657757759094238,0.0936564579606056,-23.225231170654297,1.871814846992493,65.82000732421875,27.83,2
-0.3162090182304382,-1.0448098182678225,0.13847216963768,-25.197355270385746,1.8734943866729736,65.82000732421875,27.83,2
-0.326075792312622,-0.9839741587638856,0.1616345345973968,-25.96497344970703,1.874572277069092,65.82000732421875,27.83,2
-0.3324077129364013,-1.0065088272094729,0.1709010303020477,-24.17190361022949,1.8752639293670648,65.82000732421875,27.83,2
-0.3308733999729156,-1.020970344543457,0.2048366069793701,-19.6428451538086,1.8757078647613523,65.82000732421875,27.83,2
-0.3242909908294678,-0.9910664558410645,0.2322122901678085,-13.612350463867188,1.875992774963379,65.82000732421875,27.83,2
-0.303273469209671,-0.904702603816986,0.2385848760604858,-7.492469310760498,1.8761755228042605,65.82000732421875,27.83,2
-0.3289700448513031,-0.882865846157074,0.2482722103595733,-1.9314275979995728,1.8730796575546265,65.8235855102539,27.83,2
-0.3566561639308929,-0.8912433981895447,0.2488912045955658,3.1169328689575195,1.8710929155349727,65.82588195800781,27.83,2
-0.3632279932498932,-0.9022173881530762,0.2436906695365905,7.854196548461914,1.8698179721832275,65.82735443115234,27.83,2
-0.3562498688697815,-0.9092598557472228,0.2515487968921661,12.273591995239258,1.868999719619751,65.82830047607422,27.83,2
-0.3629672527313232,-0.9025837779045104,0.2677872478961944,16.248964309692383,1.86847460269928,65.82891082763672,27.83,2
-0.3784736096858978,-0.8815061450004578,0.2670125961303711,19.71010398864746,1.86813759803772,65.82929992675781,27.83,2
-0.3772291541099548,-0.8623819351196289,0.2609176933765411,22.4364070892334,1.8679213523864744,65.82955169677734,27.83,2
-0.3652350008487701,-0.8780980110168457,0.2626041173934936,24.17882537841797,1.8677825927734373,65.8297119140625,27.83,2
-0.3631356060504913,-0.8993791937828064,0.2636863589286804,25.20744514465332,1.867234230041504,65.82981872558594,27.83,2
-0.3617883324623108,-0.9186340570449828,0.24198979139328,26.02518844604492,1.86688232421875,65.82988739013672,27.83,2
-0.3665215075016022,-0.9589795470237732,0.2168706357479095,26.39591789245605,1.8666565418243408,65.82992553710938,27.83,2
-0.3807545304298401,-0.9960665106773376,0.2007506042718887,25.612796783447266,1.866511583328247,65.8299560546875,27.83,2
-0.4066818058490753,-1.0814423561096191,0.1736123710870742,23.687952041625977,1.8664186000823968,65.82997131347656,27.83,2
-0.440113753080368,-1.13063383102417,0.1673921644687652,21.53197479248047,1.8663588762283323,65.8299789428711,27.83,2
-0.4503729045391083,-1.067039966583252,0.1634003967046737,20.13406181335449,1.8663206100463867,65.82998657226562,27.83,2
-0.4513588547706604,-1.1213911771774292,0.1720342636108398,19.97855567932129,1.86629605293274,65.82999420166016,27.83,2
-0.4407960474491119,-1.1730639934539795,0.1719772070646286,20.69917106628418,1.867198467254639,65.82999420166016,27.83,2
-0.378039687871933,-1.133453607559204,0.1663428097963333,21.132959365844727,1.8677775859832764,65.82999420166016,27.83,2
-0.3209729492664337,-1.0800451040267944,0.1627269834280014,20.23983764648437,1.868149280548096,65.82999420166016,27.83,2
-0.2899485826492309,-1.0177817344665527,0.1324176788330078,17.814491271972656,1.8683878183364868,65.82999420166016,27.83,2
-0.2980277836322784,-0.972226858139038,0.0961735919117927,13.947283744812012,1.86854088306427,65.82999420166016,27.83,2
-0.3088103532791137,-0.942992389202118,0.0729142278432846,8.599471092224121,1.86863911151886,65.82999420166016,27.83,2
-0.287741094827652,-0.8962424993515015,0.0411943793296813,2.2190933227539062,1.868702054023743,65.82999420166016,27.83,2
-0.2574267387390136,-0.8438500165939331,0.0208384077996015,-4.304451942443848,1.8687424659729004,65.82999420166016,27.83,2
-0.2435705065727234,-0.8102275133132935,0.0245684385299682,-10.511460304260254,1.8678501844406128,65.82999420166016,27.83,2
-0.2402761429548263,-0.7886505722999573,0.0269621592015028,-16.47234344482422,1.8672776222229004,65.82999420166016,27.83,2
-0.2437597811222076,-0.7971948385238647,0.0340960845351219,-22.17138290405273,1.8669102191925049,65.82999420166016,27.83,2
-0.2347998321056366,-0.8250691294670105,0.0498697757720947,-27.49459457397461,1.8666744232177728,65.82999420166016,27.83,2
-0.2346476316452026,-0.8541527986526489,0.0655901953577995,-32.24344253540039,1.866523027420044,65.82999420166016,27.83,2
-0.2345499545335769,-0.9231969714164734,0.0812764316797256,-35.892852783203125,1.86642587184906,65.82999420166016,27.83,2
-0.2456828206777572,-1.029081106185913,0.0969407334923744,-38.216922760009766,1.866363525390625,65.82999420166016,27.83,2
-0.2696205675601959,-1.1306180953979492,0.1237865015864372,-39.536415100097656,1.8663235902786253,65.82999420166016,27.83,2
-0.3185690939426422,-1.061432123184204,0.1522101163864135,-39.269004821777344,1.8676750659942627,65.80850219726562,27.81,2
-0.349981427192688,-0.9778480529785156,0.1648529767990112,-35.564979553222656,1.8685423135757449,65.79470825195312,27.81,2
-0.3757378458976745,-1.041761875152588,0.1505753397941589,-27.75318145751953,1.8690989017486568,65.78585815429688,27.81,2
-0.3698757290840149,-1.0547891855239868,0.1749994307756424,-17.695751190185547,1.869456052780152,65.7801742553711,27.81,2
-0.3549182116985321,-1.0127694606781006,0.1962711811065673,-7.726964950561523,1.8696852922439573,65.77652740478516,27.81,2
-0.350917100906372,-0.9130325317382812,0.2043243944644928,1.095831274986267,1.8698323965072632,65.77418518066406,27.81,2
-0.3595449924468994,-0.8490270972251892,0.1982969343662262,8.491761207580566,1.869926810264588,65.7726821899414,27.81,2
-0.3762774169445038,-0.8359410166740417,0.2056244015693664,14.52777099609375,1.8699873685836792,65.77172088623047,27.81,2
-0.3758197724819183,-0.8555319905281067,0.2103267461061477,19.694643020629883,1.8677313327789309,65.77110290527344,27.81,2
-0.3699283003807068,-0.8737021088600159,0.2245399951934814,24.21419143676757,1.8662835359573364,65.77070617675781,27.81,2
-0.3717452883720398,-0.8741670846939087,0.2392590045928955,27.766605377197266,1.8653544187545776,65.77045440673828,27.81,2
-0.3785090744495392,-0.8688676953315735,0.2431070506572723,30.40101432800293,1.8647581338882449,65.77029418945312,27.81,2
-0.3940452337265014,-0.887857973575592,0.2511742711067199,32.6827507019043,1.8643754720687864,65.77018737792969,27.81,2
-0.3928199112415313,-0.9448270201683044,0.2507535815238952,34.602027893066406,1.864129900932312,65.7701187133789,27.81,2
-0.3864358067512512,-0.9925820231437684,0.2504836022853851,35.37513732910156,1.8639723062515257,65.77007293701172,27.81,2
-0.3655455112457275,-1.0288262367248535,0.2279192507266998,34.291358947753906,1.8638712167739868,65.7700424194336,27.81,2
-0.3633348643779754,-1.074476718902588,0.2078409790992736,31.23851776123047,1.8647241592407229,65.77002716064453,27.81,2
-0.4234917461872101,-1.1709458827972412,0.19495590031147,26.81456756591797,1.8652714490890503,65.77001953125,27.81,2
-0.4620969593524933,-1.1153010129928589,0.1642958968877792,21.994367599487305,1.8656227588653564,65.77001190185547,27.81,2
-0.4476871490478515,-1.0404069423675537,0.1502178460359573,17.49666976928711,1.865848183631897,65.77000427246094,27.81,2
-0.4104508757591247,-1.0203330516815186,0.1523789167404174,13.933199882507324,1.865992784500122,65.77000427246094,27.81,2
-0.3977503180503845,-1.0410374402999878,0.1481679826974868,12.198086738586426,1.866085648536682,65.77000427246094,27.81,2
-0.3895998299121856,-1.06551992893219,0.1454656571149826,12.47104835510254,1.8661452531814573,65.77000427246094,27.81,2
-0.3507826924324035,-1.008460283279419,0.1381336748600006,13.3985595703125,1.8661835193634035,65.77000427246094,27.81,2
-0.3146765232086181,-0.9606471061706544,0.1278306692838668,13.33817195892334,1.8657491207122805,65.77000427246094,27.81,2
-0.3027012050151825,-0.9411589503288268,0.0988276898860931,11.54037380218506,1.8654704093933103,65.77000427246094,27.81,2
-0.2950161397457123,-0.9118592143058776,0.0690196976065635,7.77853536605835,1.8652914762496948,65.77000427246094,27.81,2
-0.2900843024253845,-0.8818607926368713,0.0498906448483467,2.097095012664795,1.8651766777038568,65.77000427246094,27.81,2
-0.2813215851783752,-0.8402184247970581,0.0320169441401958,-4.841313362121582,1.865103006362915,65.77000427246094,27.81,2
-0.2756981551647186,-0.8134947419166565,0.0149488570168614,-12.113471031188965,1.865055680274964,65.77000427246094,27.81,2
-0.2664915919303894,-0.8131383657455444,0.0039955419488251,-19.1304931640625,1.8650254011154173,65.77000427246094,27.81,2
-0.2661811411380768,-0.8185074329376221,0.0081618838012218,-25.496553421020508,1.8650059700012207,65.77000427246094,27.81,2
-0.265981912612915,-0.8499418497085571,0.0164333768188953,-30.83940887451172,1.864534497261048,66.26081848144531,27.83,2
-0.2658540606498718,-0.8701146841049194,0.0385348685085773,-35.135128021240234,1.864231944084168,66.57579040527344,27.83,2
-0.2713697850704193,-0.9054515361785888,0.063913881778717,-38.70512008666992,1.8640377521514893,66.77792358398438,27.83,2
-0.2637138962745666,-0.9953019618988036,0.0746028944849968,-41.741310119628906,1.8639131784439087,66.90763854980469,27.83,2
-0.2532030045986175,-1.0921472311019895,0.0870602652430534,-44.10892105102539,1.86383318901062,66.99088287353516,27.83,2
-0.2744466066360473,-1.092721462249756,0.1342391073703766,-45.348876953125,1.8637819290161133,67.04430389404297,27.83,2
-0.3160683810710907,-0.9587433338165284,0.1589179933071136,-44.46080017089844,1.8637490272521973,67.0785903930664,27.83,2
-0.3371810913085937,-0.8895572423934937,0.1635599434375763,-40.00020599365234,1.8637279272079468,67.10059356689453,27.83,2
-0.3451322317123413,-0.9515153169631958,0.1609410941600799,-31.28014373779297,1.8641732931137085,67.11470794677734,27.83,2
-0.3446370363235473,-0.996874213218689,0.1816515773534774,-19.586565017700195,1.8644590377807613,67.12377166748047,27.83,2
-0.3387214839458465,-0.9644073843955994,0.2173334658145904,-7.410621166229248,1.8646425008773804,67.12958526611328,27.83,2
-0.3405229747295379,-0.9043876528739928,0.2234387248754501,3.480631351470948,1.864760160446167,67.13331604003906,27.83,2
-0.3584724068641662,-0.8770659565925598,0.2329545021057129,12.5586519241333,1.8648357391357424,67.13571166992188,27.83,2
-0.3867846429347992,-0.8819236159324646,0.2334634065628051,19.73503494262696,1.8648842573165887,67.13724517822266,27.83,2
-0.3881604671478271,-0.90183424949646,0.2337899953126907,24.956626892089844,1.864915370941162,67.13822937011719,27.83,2
-0.3834456205368042,-0.9090139865875244,0.2507928907871246,28.339786529541016,1.864935278892517,67.13886260986328,27.83,2
-0.3972132503986358,-0.8968282341957092,0.2617043852806091,30.15622901916504,1.864948034286499,67.13926696777344,27.83,2
-0.4116462767124176,-0.8834103345870972,0.2631089687347412,30.938581466674805,1.864956259727478,67.1395263671875,27.83,2
-0.4209085702896118,-0.8971905708312988,0.2696081399917602,31.47647476196289,1.8649615049362185,67.13969421386719,27.83,2
-0.421254813671112,-0.9228273034095764,0.2681811451911926,32.129764556884766,1.8649649620056152,67.13980102539062,27.83,2
-0.4102814495563507,-0.978463888168335,0.2616676092147827,32.294647216796875,1.8649671077728271,67.1398696899414,27.83,2
-0.3920438289642334,-1.0477548837661743,0.2406942695379257,30.888612747192383,1.864968538284301,67.1399154663086,27.83,2
-0.3915355205535888,-1.1202107667922974,0.21603924036026,27.31728172302246,1.8649694919586184,67.13994598388672,27.83,2
-0.447187066078186,-1.138719916343689,0.2058148384094238,21.95513916015625,1.864970088005066,67.13996887207031,27.83,2
-0.4773032367229461,-1.0778268575668335,0.1768623143434524,16.031301498413086,1.865888595581055,67.13997650146484,27.83,2
-0.4518478810787201,-1.0331515073776243,0.1582822501659393,11.273175239562988,1.8664780855178835,67.13998413085938,27.83,2
-0.4467076361179352,-1.0940457582473757,0.1575541794300079,8.979188919067383,1.866856336593628,67.1399917602539,27.83,2
-0.4434089362621307,-1.138721942901611,0.1514891684055328,8.91857624053955,1.8670991659164429,67.1399917602539,27.83,2
-0.4021075963973999,-1.1002192497253418,0.1419992297887802,9.556784629821776,1.8672549724578853,67.1399917602539,27.83,2
-0.3532116711139679,-1.0475215911865234,0.1359091252088546,9.633171081542969,1.8673549890518188,67.1399917602539,27.83,2
-0.3106375336647033,-0.9969099760055542,0.1152075231075286,8.872529029846191,1.8674191236495967,67.1399917602539,27.83,2
-0.294511467218399,-0.9532347917556764,0.0795313343405723,7.177064895629883,1.867460250854492,67.1399917602539,27.83,2
-0.2897604405879974,-0.9196088314056396,0.051038634032011,4.1830830574035645,1.8665684461593628,67.63796997070312,27.81,2
-0.2867115139961242,-0.875638484954834,0.0271558817476034,-0.0168002545833587,1.8659961223602293,67.9575424194336,27.81,2
-0.2791571021080017,-0.8306275606155396,0.01182930637151,-4.653799533843994,1.8656288385391235,68.16262817382812,27.81,2
-0.2631135880947113,-0.8241332173347473,0.0019935937598347,-9.248883247375488,1.8653931617736816,68.29424285888672,27.81,2
-0.2640133202075958,-0.8199655413627625,-0.004318400286138,-14.196820259094238,1.8652418851852417,68.37870788574219,27.81,2
-0.2701884806156158,-0.8060954213142395,-0.0027713007293641,-19.79394149780273,1.865144848823548,68.43290710449219,27.81,2
-0.2797491252422333,-0.8307809829711914,0.0150148617103695,-25.3705997467041,1.8650826215744016,68.46768951416016,27.81,2
-0.2802868187427521,-0.8578183054924011,0.0208312235772609,-29.963245391845703,1.8650426864624023,68.4900131225586,27.81,2
-0.28622967004776,-0.9199514985084534,0.0413571521639823,-33.3189582824707,1.8645581007003784,68.50434112548828,27.81,2
-0.2844456732273102,-0.9990094304084778,0.0601272843778133,-35.92386245727539,1.8642470836639404,68.51353454589844,27.81,2
-0.2888985872268677,-1.072135329246521,0.0721728801727294,-38.58074951171875,1.8640475273132324,68.5194320678711,27.81,2
-0.3197450637817383,-1.0462923049926758,0.1190874651074409,-41.39280319213867,1.8639194965362549,68.5232162475586,27.81,2
-0.3563338816165924,-0.9793277382850648,0.1491945534944534,-42.516727447509766,1.8638372421264648,68.52564239501953,27.81,2
-0.3574233949184418,-0.9531471133232116,0.1461244523525238,-39.12520217895508,1.863784551620484,68.52720642089844,27.81,2
-0.3693181276321411,-1.0147147178649902,0.160947561264038,-30.697120666503903,1.863750696182251,68.52820587158203,27.81,2
-0.3769514858722687,-1.0430296659469604,0.1928512752056121,-20.050737380981445,1.8637290000915527,68.52884674072266,27.81,2
-0.3762523531913757,-0.9884295463562012,0.2189230173826217,-10.287955284118652,1.865092158317566,68.52925872802734,27.81,2
-0.375803679227829,-0.930999219417572,0.2356543540954589,-2.245805263519287,1.865967035293579,68.52952575683594,27.81,2
-0.3643202185630798,-0.9053393006324768,0.2351960092782974,4.645567417144775,1.8665283918380733,68.52969360351562,27.81,2
-0.3793418705463409,-0.9168611168861388,0.2404996454715728,10.834263801574709,1.866888642311096,68.52980041503906,27.81,2
-0.3833841383457184,-0.91865736246109,0.2495009899139404,16.579187393188477,1.8671199083328247,68.52986907958984,27.81,2
-0.3859782218933105,-0.9030168056488036,0.255277544260025,21.97842025756836,1.867268323898316,68.52991485595703,27.81,2
-0.3988385200500488,-0.8817840218544006,0.2589845955371856,26.7509765625,1.8673635721206665,68.52994537353516,27.81,2
-0.4070914983749389,-0.8849513530731201,0.2445702403783798,30.6663818359375,1.8674246072769165,68.52996826171875,27.81,2
-0.4011922478675842,-0.8981795310974121,0.2297221720218658,34.02455139160156,1.865627408027649,68.52997589111328,27.81,2
-0.3918086886405945,-0.9010708332061768,0.214595764875412,37.09318923950195,1.864474058151245,68.52998352050781,27.81,2
-0.3857868611812591,-0.9700996279716492,0.2048885077238083,39.31682586669922,1.8637338876724243,68.52999114990234,27.81,2
-0.3987157046794891,-1.0759738683700562,0.2098544985055923,39.48276138305664,1.8632588386535645,68.52999114990234,27.81,2
-0.4517948925495147,-1.0487556457519531,0.1906502842903137,36.70169448852539,1.862954020500183,68.52999114990234,27.81,2
-0.4074892103672027,-1.0032997131347656,0.1503372490406036,31.176755905151367,1.8627583980560305,68.52999114990234,27.81,2
-0.3566652834415436,-1.007715344429016,0.1300644427537918,24.24205207824707,1.8626328706741333,68.52999114990234,27.81,2
-0.3520382940769195,-1.0441356897354126,0.1170545220375061,17.892993927001953,1.862552285194397,68.52999114990234,27.81,2
-0.3490689396858215,-1.0395193099975586,0.1254988312721252,13.65373420715332,1.8643370866775515,68.96707153320312,27.81,2
-0.3191745281219482,-0.9973723292350768,0.0973312482237815,11.44552993774414,1.8654824495315552,69.24755859375,27.81,2
-0.2999899983406067,-0.959129273891449,0.0680593699216842,9.92453670501709,1.8662174940109253,69.42755889892578,27.81,2
-0.2876784801483154,-0.95697820186615,0.0492743588984012,7.981155395507812,1.8666892051696773,69.54307556152344,27.81,2
-0.2741798758506775,-0.955597758293152,0.0204258989542722,5.365461349487305,1.8669918775558472,69.6172103881836,27.81,2
-0.2655172646045685,-0.9267230033874512,0.0075103910639882,2.1678476333618164,1.8671860694885247,69.66477966308594,27.81,2
-0.2767513990402221,-0.8802039623260498,0.0160152856260538,-1.535764455795288,1.8673107624053955,69.6953125,27.81,2
-0.317547470331192,-0.8223618865013123,0.0102776885032653,-5.682321548461914,1.867390751838684,69.71490478515625,27.81,2
-0.3661191463470459,-0.7628510594367981,0.0065956288017332,-10.285099983215332,1.8679009675979608,69.72747802734375,27.81,2
-0.3916918635368347,-0.7190626263618469,0.0658082142472267,-15.467259407043455,1.8682284355163568,69.73554992675781,27.81,2
-0.3913096487522125,-0.6573750972747803,0.0982096642255783,-21.214693069458008,1.868438601493836,69.74073028564453,27.81,2
-0.424651026725769,-0.5842009782791138,0.1469919234514236,-27.09560203552246,1.8685734272003167,69.74404907226562,27.81,2
-0.4796342253684997,-0.5036553740501404,0.2174819856882095,-32.22384262084961,1.8686599731445312,69.74617767333984,27.81,2
-0.5205170512199402,-0.4575636088848114,0.2515228986740112,-35.862361907958984,1.868715524673462,69.74754333496094,27.81,2
-0.5187644362449646,-0.4727667570114136,0.2509773075580597,-38.243927001953125,1.8687511682510376,69.74842071533203,27.81,2
-0.5120419263839722,-0.5385010242462158,0.2338338494300842,-40.27025985717773,1.868774056434632,69.74898529052734,27.81,2
-0.4965322613716125,-0.6478587985038757,0.2172344028949737,-42.30506896972656,1.868329763412476,69.74935150146484,27.81,2
-0.4697857201099396,-0.7180383205413818,0.139408528804779,-43.5643196105957,1.86804473400116,69.74958038330078,27.81,2
-0.3910458385944366,-0.718293309211731,0.0670732706785202,-42.41992950439453,1.8678617477416992,69.7497329711914,27.81,2
-0.1222019121050834,-0.8919879198074341,-0.2088560909032821,-37.51182556152344,1.867744326591492,69.74983215332031,27.81,2
0.0279355626553297,-1.0930194854736328,-0.3747361004352569,-29.13869285583496,1.867668986320496,69.74989318847656,27.81,2
0.5385204553604126,-1.0820856094360352,-0.5091772079467773,-19.0757064819336,1.867620587348938,69.74993133544922,27.81,2
0.7430334091186523,-1.4053375720977783,-0.7298004031181335,-8.666279792785645,1.8675895929336548,69.74995422363281,27.81,2
0.4488472044467926,-1.6127821207046509,-0.9609480500221252,1.8579939603805544,1.8675696849823,69.74996948242188,27.81,2
-0.4228730797767639,-1.6955281496047974,-0.8517876863479614,12.16219997406006,1.868474721908569,69.7499771118164,27.81,2
-0.4225155115127563,-1.7990096807479858,-0.3619017601013183,21.35429954528809,1.8690555095672607,69.74998474121094,27.81,2
-0.4110904932022095,-1.6135183572769165,0.0476410016417503,28.851089477539062,1.869428277015686,69.74999237060547,27.81,2
-0.5772895812988281,-1.5392628908157349,0.1033443138003349,34.668800354003906,1.8696675300598145,69.74999237060547,27.81,2
-0.6055777668952942,-1.4244366884231567,0.1838736981153488,38.914581298828125,1.869821071624756,69.74999237060547,27.81,2
-0.5173737406730652,-1.2443901300430298,0.280335009098053,41.478065490722656,1.8699195384979248,69.74999237060547,27.81,2
-0.4215850830078125,-1.117651104927063,0.3086516857147217,42.23468017578125,1.8699827194213867,69.74999237060547,27.81,2
-0.3937000632286072,-1.036317229270935,0.304432600736618,41.17614364624024,1.870023250579834,69.74999237060547,27.81,2
-0.2862406969070434,-1.1632506847381592,0.3353116810321808,38.336544036865234,1.871426463127136,69.925537109375,27.79,2
-0.2228772193193435,-1.1159604787826538,0.2879548072814941,34.042274475097656,1.8723269701004028,70.03819274902344,27.79,2
-0.0926498025655746,-1.4270765781402588,0.0840328782796859,29.280216217041016,1.872904896736145,70.11048889160156,27.79,2
-0.0090773403644561,-1.6267329454421997,-0.2371568083763122,25.01687431335449,1.8732757568359373,70.1568832397461,27.79,2
0.162107914686203,-1.4861677885055542,-0.5104511380195618,21.14522933959961,1.8735136985778809,70.18666076660156,27.79,2
0.3167469501495361,-1.6198720932006836,-0.7754001021385193,16.718875885009766,1.873666405677796,70.20577239990234,27.79,2
0.4719631373882293,-1.5545358657836914,-0.9510268568992616,11.41706657409668,1.8737643957138064,70.21803283691406,27.79,2
0.5827674865722656,-1.2830981016159058,-0.9125941395759584,5.965437412261963,1.873827338218689,70.22589874267578,27.79,2
0.637082040309906,-1.0473294258117676,-0.8207569122314453,0.8153284788131714,1.8637688159942627,70.23094940185547,27.79,2
0.5096025466918945,-0.8736355900764465,-0.6442677974700928,-4.54969596862793,1.857313871383667,70.23419189453125,27.79,2
0.3326313495635986,-0.7509733438491821,-0.4862250685691833,-10.56853199005127,1.853171348571777,70.23627471923828,27.79,2
0.2246592044830322,-0.6834513545036316,-0.3959978818893432,-16.401491165161133,1.850512981414795,70.23760986328125,27.79,2
0.0770000517368316,-0.9368016719818116,-0.2821175158023834,-20.65347480773925,1.8488069772720337,70.23846435546875,27.79,2
-0.0569435134530067,-1.1665606498718262,-0.1754490137100219,-22.78744506835937,1.8477121591567995,70.239013671875,27.79,2
-0.1484985649585724,-1.0621068477630615,-0.0566153340041637,-23.089296340942383,1.847009539604187,70.23936462402344,27.79,2
-0.1848622262477874,-0.9055100083351136,0.0644274726510047,-20.456356048583984,1.846558690071106,70.23959350585938,27.79,2
-0.2193938791751861,-0.8274062871932983,0.1421057879924774,-12.830358505249023,1.8421379327774048,70.23973846435547,27.79,2
-0.230358749628067,-0.7716860175132751,0.1527708321809768,-1.014895796775818,1.8393008708953853,70.23983001708984,27.79,2
-0.2206020504236221,-0.707939088344574,0.1540172696113586,11.873382568359377,1.8374801874160769,70.2398910522461,27.79,2
-0.2255363166332245,-0.7118121981620789,0.1884038150310516,25.45371437072754,1.8363118171691888,70.23992919921875,27.79,2
-0.2231050729751587,-0.7310910224914551,0.2216666638851165,42.54843521118164,1.835561990737915,70.23995208740234,27.79,2
-0.2159470617771148,-0.777049720287323,0.1982306540012359,61.20346832275391,1.835080862045288,70.2399673461914,27.79,2
-0.2561356425285339,-0.9352921843528748,0.1328108012676239,73.36507415771484,1.834772109985352,70.23997497558594,27.79,2
-0.2987197041511535,-1.0088542699813845,0.1076214239001274,74.61715698242188,1.8345739841461184,70.23998260498047,27.79,2
-0.2980588376522064,-0.9664977192878724,0.0914563313126564,71.04993438720703,1.8450050354003904,70.239990234375,27.79,2
-0.2752436101436615,-0.9952934980392456,0.0642891824245452,69.6061782836914,1.8516991138458248,70.239990234375,27.79,2
-0.2717976570129394,-1.0081751346588137,0.0356593206524848,66.82388305664062,1.8559949398040767,70.239990234375,27.79,2
-0.2695862650871277,-0.9884530305862428,0.0060907760635018,56.41869354248047,1.8587517738342283,70.239990234375,27.79,2
-0.2737648785114288,-0.9534053802490234,-0.0128846131265163,37.45658874511719,1.860520958900452,70.239990234375,27.79,2
-0.2764464914798736,-0.9197182655334472,-0.0194641519337892,13.959698677062988,1.8616563081741333,70.239990234375,27.79,2
-0.2613740563392639,-0.9708709120750428,-0.0348820723593235,-3.25446891784668,1.862384915351868,70.239990234375,27.79,2
-0.2684947550296783,-1.0148932933807373,-0.0391786284744739,3.9266140460968018,1.8628524541854856,70.239990234375,27.79,2
-0.3010532855987549,-0.975970983505249,-0.0251425877213478,31.86475372314453,1.887022852897644,70.41195678710938,27.77,2
-0.3219474852085113,-0.9286018013954164,-0.0105372909456491,42.46030807495117,1.902534008026123,70.5223159790039,27.77,2
-0.3185628652572632,-0.9093985557556152,0.004433321300894,23.59077262878418,1.9124882221221924,70.5931396484375,27.77,2
-0.3387818932533264,-0.908270537853241,0.0420294739305973,-0.9286518692970276,1.9188761711120603,70.63858795166016,27.77,2
-0.3405617475509643,-0.8907533288002014,0.0773520693182945,-21.6507511138916,1.9229756593704224,70.66775512695312,27.77,2
-0.3361061811447143,-0.879511833190918,0.12800894677639,-44.27803039550781,1.9256064891815183,70.68647003173828,27.77,2
-0.3276490867137909,-0.8778954148292542,0.1661153882741928,-62.04473114013672,1.9272947311401367,70.698486328125,27.77,2
-0.3334173560142517,-0.8824558854103088,0.2017654627561569,-65.78324890136719,1.928378224372864,70.70619201660156,27.77,2
-0.359510213136673,-0.8853825330734253,0.2190458476543426,-64.2809829711914,1.959370732307434,70.71113586425781,27.77,2
-0.3762550950050354,-0.8984562158584595,0.2301354110240936,-76.5652847290039,1.9792598485946653,70.71430969238281,27.77,2
-0.3814032077789306,-0.9180417060852052,0.2652409076690674,-104.76184844970705,1.992023587226868,70.71634674072266,27.77,2
-0.4015003144741058,-0.9362083077430724,0.2989651560783386,-129.11553955078125,2.0002145767211914,70.71765899658203,27.77,2
-0.4199952483177185,-0.9534643888473512,0.3262052237987518,-138.34226989746094,2.0054712295532227,70.71849822998047,27.77,2
-0.426266461610794,-0.9421472549438475,0.326893001794815,-148.13980102539062,2.0088446140289307,70.71903991699219,27.77,2
-0.4134976267814636,-0.929286777973175,0.3329321444034576,-178.172607421875,2.011009454727173,70.7193832397461,27.77,2
-0.3829122483730316,-0.9266314506530762,0.3312099575996399,-223.2798767089844,2.0123987197875977,70.7196044921875,27.77,2
-0.3800776302814483,-0.9249274134635924,0.3245069682598114,-261.5024108886719,2.048636674880981,70.7197494506836,27.77,2
-0.4118451774120331,-0.9238338470458984,0.3258031606674194,-269.88836669921875,2.071892023086548,70.71984100341797,27.77,2
-0.3986451029777527,-0.8951432108879089,0.3434283137321472,-236.6999664306641,2.08681583404541,70.71990203857422,27.77,2
-0.3901740610599518,-0.8879267573356628,0.3603368699550628,-170.46173095703125,2.09639310836792,70.71994018554688,27.77,2
-0.3791400790214538,-0.8888934254646301,0.3599922657012939,-90.21499633789062,2.102539300918579,70.71996307373047,27.77,2
-0.377656877040863,-0.8895137906074524,0.3485755622386932,-6.68187427520752,2.106483697891236,70.71997833251953,27.77,2
-0.35991171002388,-0.8899118900299072,0.3580423295497894,77.79234313964844,2.1090149879455566,70.71998596191406,27.77,2
-0.3205350041389465,-0.8901673555374146,0.3473242223262787,154.26158142089844,2.110639333724976,70.7199935913086,27.77,2
-0.2896675169467926,-0.8847335577011108,0.3460437357425689,207.83843994140625,2.159881830215454,70.7199935913086,27.77,2
-0.2642607688903808,-0.8812464475631714,0.334026426076889,232.6196746826172,2.191482782363892,70.7199935913086,27.77,2
-0.2311628758907318,-0.8678130507469177,0.3263144195079803,235.49301147460932,2.2117624282836914,70.7199935913086,27.77,2
-0.2099225521087646,-0.8535944819450378,0.3325608372688293,223.5476226806641,2.2247767448425293,70.7199935913086,27.77,2
-0.2186828255653381,-0.8612631559371948,0.3421672284603119,199.32308959960932,2.233128547668457,70.7199935913086,27.77,2
-0.224304661154747,-0.8605867028236389,0.3539298176765442,167.1826934814453,2.23848819732666,70.7199935913086,27.77,2
-0.2894879579544067,-0.8657503724098206,0.3446850478649139,134.58029174804688,2.2419278621673584,70.7199935913086,27.77,2
-0.2809388637542724,-0.874661922454834,0.3779367208480835,104.15337371826172,2.2441351413726807,70.7199935913086,27.77,2
-0.26425701379776,-0.8579897284507751,0.4272646009922027,72.87269592285156,2.296046495437622,70.93495178222656,27.71,2
-0.2927359640598297,-0.8248993754386902,0.4253337383270263,40.87932968139648,2.329360246658325,71.0728988647461,27.71,2
-0.2606321573257446,-0.8260549902915955,0.457681268453598,13.6555757522583,2.3507392406463623,71.16142272949219,27.71,2
-0.2288342416286468,-0.8267965912818909,0.4784400463104248,-6.029092311859131,2.3644590377807617,71.21823120117188,27.71,2
-0.214025929570198,-0.8608591556549072,0.5085551738739014,-22.262067794799805,2.373263597488404,71.25469207763672,27.71,2
-0.2101205885410308,-0.8211430311203003,0.4775013327598572,-39.368125915527344,2.3789138793945312,71.27809143066406,27.71,2
-0.2132121473550796,-0.8908176422119141,0.4855616390705108,-55.74833297729492,2.382539749145508,71.29310607910156,27.71,2
-0.1984028071165084,-0.8739553093910217,0.4795387387275696,-66.53248596191406,2.384866714477539,71.30274200439453,27.71,2
-0.1721056997776031,-0.857536256313324,0.4868691265583038,-70.3147964477539,2.433182954788208,71.30892181396484,27.71,2
-0.1552297323942184,-0.8637927770614624,0.4523889422416687,-70.15186309814453,2.4641895294189453,71.3128890991211,27.71,2
-0.1388019323348999,-0.8678078651428223,0.4750437438488006,-68.5103759765625,2.4840877056121826,71.31543731689453,27.71,2
