acc_x,acc_y,acc_z,bvp,eda,hr,temp,label
0.0,0.0,0.0,0.0,0.0,0.0,25.31,2
-0.0156249990686774,-0.1536458283662796,0.0520833283662796,-0.6799999475479126,0.8456758260726929,12.166666030883787,25.31,2
-0.0365853644907474,-0.3387957513332367,0.1219512224197387,-2.093902349472046,1.980119109153748,28.48780632019043,25.31,2
-0.0747508332133293,-0.5147944688796997,0.1877076476812362,-3.601229429244995,2.9668893814086914,42.68438720703125,25.31,2
-0.0919182002544403,-0.6378568410873413,0.2410186976194381,-4.779483795166016,3.686791658401489,53.04155731201172,25.31,2
-0.1035412326455116,-0.699216365814209,0.2771125435829162,-5.851258754730225,4.174195766448975,60.05379867553711,25.31,2
-0.0945083796977996,-0.7950077652931213,0.2952422201633453,-7.229751110076904,4.494002819061279,64.65483856201172,25.31,2
-0.1277135759592056,-0.8458884954452515,0.290245920419693,-9.02950954437256,4.701126575469971,67.63470458984375,25.31,2
-0.177054300904274,-0.9066153168678284,0.2367158681154251,-10.364171028137209,4.761660099029541,69.55425262451172,25.31,2
-0.2199569642543792,-0.9624309539794922,0.2079044878482818,-9.607176780700684,4.800567626953125,70.78802490234375,25.31,2
-0.2195246666669845,-0.936711847782135,0.1894031465053558,-6.853821754455566,4.825552463531494,71.5802993774414,25.31,2
-0.2584278583526611,-0.8922162652015686,0.183124154806137,-4.9502854347229,4.841590404510498,72.0888671875,25.31,2
-0.2386159598827362,-0.9420242309570312,0.1567039936780929,-6.243442535400391,4.851883888244629,72.41527557373047,25.31,2
-0.2147058993577957,-0.9627941250801086,0.1341506093740463,-9.871299743652344,4.858489990234375,72.624755859375,25.31,2
-0.2049592435359954,-0.9593300819396972,0.1308723539113998,-13.650425910949709,4.862729072570801,72.75918579101562,25.31,2
-0.204302117228508,-0.9571070671081544,0.1287685483694076,-17.02505111694336,4.865449905395508,72.845458984375,25.31,2
-0.1814893335103988,-0.9556804895401,0.1330162137746811,-21.2255973815918,4.851588249206543,72.90082550048828,25.31,2
-0.1780449301004409,-0.9603627324104308,0.1301443427801132,-27.568330764770508,4.8426923751831055,72.93635559082031,25.31,2
-0.170236736536026,-0.9521719813346864,0.1283013373613357,-35.82676315307617,4.836983680725098,72.95915985107422,25.31,2
-0.1708236634731292,-0.9469156265258788,0.1215208321809768,-44.329376220703125,4.833320140838623,72.97379302978516,25.31,2
-0.1712003201246261,-0.9435424208641052,0.1227672696113586,-52.250675201416016,4.830969333648682,72.98318481445312,25.31,2
-0.1714420318603515,-0.9469754695892334,0.1235671639442443,-60.95251083374024,4.829460620880127,72.98921203613281,25.31,2
-0.1715971529483795,-0.9491785764694214,0.1240804865956306,-72.00743865966797,4.828492164611816,72.99308013916016,25.31,2
-0.1772944629192352,-0.9505923986434937,0.124409906566143,-85.10625457763672,4.827870845794678,72.99555969238281,25.31,2
-0.1809506714344024,-0.9514997005462646,0.1246213093400001,-99.27668762207033,4.883016586303711,72.99715423583984,25.31,2
-0.1832970231771469,-0.9520819783210754,0.1247569769620895,-114.65787506103516,4.918406009674072,72.99817657470703,25.31,2
-0.184802770614624,-0.9524556398391724,0.1248440444469451,-131.7332000732422,4.941117286682129,72.99883270263672,25.31,2
-0.1857690662145614,-0.9526954293251038,0.1248999163508415,-150.31488037109375,4.955691814422607,72.99925231933594,25.31,2
-0.1919869631528854,-0.9528493285179138,0.1249357685446739,-168.01821899414062,4.965044975280762,72.99951934814453,25.31,2
-0.1959772557020187,-0.9585458636283876,0.1249587833881378,-177.23683166503906,4.971047401428223,72.99969482421875,25.31,2
-0.198537990450859,-0.9622015953063964,0.1305713206529617,-167.38229370117188,4.974899291992188,72.99980163574219,25.31,2
-0.2001813203096389,-0.958949863910675,0.1341731250286102,-133.09263610839844,4.9773712158203125,72.99987030029297,25.31,2
-0.2012359201908111,-0.9624608159065248,0.1364845633506775,-76.19322967529297,4.986301898956299,71.44866180419922,25.31,2
-0.2019127011299133,-0.9591161608695984,0.137967899441719,-1.867959976196289,4.9920334815979,70.45318603515625,25.31,2
-0.2023470103740692,-0.9569697976112366,0.1389198303222656,78.55297088623047,4.995711326599121,69.81434631347656,25.31,2
-0.1970279514789581,-0.9611901640892028,0.1395307183265686,146.78564453125,4.998071670532227,69.40437316894531,25.31,2
-0.1936144977807998,-0.958300769329071,0.1343249827623367,191.1000823974609,4.999586582183838,69.14128112792969,25.31,2
-0.1914239376783371,-0.9564465284347534,0.1309842318296432,216.3070526123047,5.000558376312256,68.97244262695312,25.31,2
-0.1900181621313095,-0.9552565813064576,0.1288403421640396,233.69793701171875,5.0011820793151855,68.86408996582031,25.31,2
-0.1891160160303115,-0.9544929265975952,0.1274645179510116,248.4015655517578,5.001582622528076,68.7945556640625,25.31,2
-0.1829392910003662,-0.9596006274223328,0.1265815794467926,261.09405517578125,5.010102272033691,68.74993133544922,25.31,2
-0.1789754182100296,-0.9628784656524658,0.1316127479076385,273.7032775878906,5.015569686889648,68.72129821777344,25.31,2
-0.1764316409826278,-0.964981973171234,0.1292436867952346,287.98223876953125,5.019078731536865,68.70291900634766,25.31,2
-0.1747991889715194,-0.9607341289520264,0.1277233511209488,302.0072326660156,5.0213303565979,68.69112396240234,25.31,2
-0.1737515777349472,-0.958008110523224,0.1267476826906204,310.4774169921875,5.022775650024414,68.68355560302734,25.31,2
-0.1786770522594452,-0.9562587141990662,0.1261215656995773,307.1178894042969,5.023703098297119,68.67869567871094,25.31,2
-0.1818379461765289,-0.9551360607147216,0.1257197558879852,286.773193359375,5.024298191070557,68.67558288574219,25.31,2
-0.1838664263486862,-0.9544155597686768,0.1254618912935257,247.37088012695312,5.024680137634277,68.673583984375,25.31,2
-0.1851681768894195,-0.953953206539154,0.125296413898468,190.4828491210937,5.029974937438965,68.67230224609375,25.31,2
-0.1804057955741882,-0.9536564946174622,0.1307879984378814,118.94496154785156,5.03337287902832,68.67147827148438,25.31,2
-0.182947352528572,-0.9534660577774048,0.1343121826648712,36.54752731323242,5.035553455352783,68.67094421386719,25.31,2
-0.1845783740282058,-0.9477460980415344,0.1309760212898254,-46.75005722045898,5.036952495574951,68.67060852050781,25.31,2
-0.1856250613927841,-0.9552708864212036,0.128835067152977,-114.82971954345705,5.037850379943848,68.6703872680664,25.31,2
-0.1918945461511612,-0.9545021057128906,0.1274611204862594,-156.89283752441406,5.038426876068115,68.67024993896484,25.31,2
-0.195917934179306,-0.9540087580680848,0.1321771740913391,-175.15579223632812,5.038796901702881,68.67015838623047,25.31,2
-0.1929021477699279,-0.9592899084091188,0.1352036744356155,-177.98394775390625,5.039034366607666,68.67009735107422,25.31,2
-0.190966784954071,-0.9626790285110474,0.1371459066867828,-171.56971740722656,5.038268566131592,68.67005920410156,25.31,2
-0.189724788069725,-0.9592562317848206,0.1327945441007614,-160.29904174804688,5.037776947021484,68.67003631591797,25.31,2
-0.1889277398586273,-0.957059681415558,0.1300020962953567,-147.80335998535156,5.037461280822754,68.6700210571289,25.31,2
-0.1884162425994873,-0.95565003156662,0.1282100528478622,-134.80099487304688,5.037258625030518,68.67001342773438,25.31,2
-0.188087984919548,-0.9603431820869446,0.1270600259304046,-119.9831085205078,5.037128925323486,68.67000579833984,25.31,2
-0.1878773421049118,-0.9633550047874452,0.1263220012187957,-103.7923355102539,5.037045478820801,68.67000579833984,25.31,2
-0.1877421587705612,-0.9708855748176576,0.1314461529254913,-88.90231323242188,5.036992073059082,68.67000579833984,25.31,2
-0.1820576339960098,-0.9701204895973206,0.1347345411777496,-76.82103729248047,5.036957740783691,68.67000579833984,25.31,2
-0.1784096211194992,-0.9696295261383056,0.1368448436260223,-66.19474792480469,5.038312911987305,67.17607116699219,25.31,2
-0.1760685443878173,-0.9581188559532166,0.1326013356447219,-55.33784103393555,5.039182662963867,66.21734619140625,25.31,2
-0.1689683943986892,-0.9451342225074768,0.1242803260684013,-44.834503173828125,5.039740562438965,65.60209655761719,25.31,2
-0.1588141620159149,-0.9256058931350708,0.1021470576524734,-36.19888305664063,5.040098667144775,65.20726013183594,25.31,2
-0.1578955352306366,-0.913073718547821,0.082345426082611,-29.37805938720703,5.040328502655029,64.9538803100586,25.31,2
-0.1629037857055664,-0.893835723400116,0.0696378797292709,-23.20955848693848,5.040475845336914,64.79127502441406,25.31,2
-0.166117787361145,-0.875892162322998,0.0614829063415527,-17.40594482421875,5.040570259094238,64.68692016601562,25.31,2
-0.1737781316041946,-0.8699747920036316,0.056249514222145,-12.67123317718506,5.040631294250488,64.61995697021484,25.31,2
-0.1786940991878509,-0.8829706311225891,0.0528910234570503,-9.313918113708496,5.042965412139893,64.57698059082031,25.31,2
-0.187446653842926,-0.9025061726570128,0.0507357381284236,-6.779633522033691,5.044463634490967,64.54940032958984,25.31,2
-0.1874657720327377,-0.9262385368347168,0.060548149049282,-4.52632474899292,5.045424938201904,64.53170013427734,25.31,2
-0.193075805902481,-0.9638596773147584,0.0668451860547065,-2.643206596374512,5.046041965484619,64.52033996582031,25.31,2
-0.1966760009527206,-0.9880027770996094,0.0764840394258499,-1.3989040851593018,5.046437740325928,64.51305389404297,25.31,2
-0.1933886259794235,-0.9978986382484436,0.082669697701931,-0.725772500038147,5.04669189453125,64.50837707519531,25.31,2
-0.1856812089681625,-1.0042492151260376,0.0866392999887466,-0.3869423270225525,5.046854972839356,64.50537872314453,25.31,2
-0.1919305771589279,-1.0251179933547974,0.0891867652535438,-0.2160741239786148,5.046959400177002,64.50344848632812,25.31,2
-0.2127343863248825,-1.0385103225708008,0.0908215790987014,-0.1100033298134803,5.042894840240479,64.50221252441406,25.31,2
-0.2260850667953491,-1.047104835510254,0.0918707102537155,-0.0096900165081024,5.040286540985107,64.50141906738281,25.31,2
-0.2346527725458145,-1.0862069129943848,0.1037395298480987,0.108423925936222,5.038612365722656,64.50090789794922,25.31,2
-0.2401510328054428,-1.111300349235535,0.1113562509417533,0.2200484126806259,5.037538051605225,64.50057983398438,25.31,2
-0.2268861830234527,-1.0994150638580322,0.116244226694107,0.1806227415800094,5.036848545074463,64.50037384033203,25.31,2
-0.2015802413225174,-1.063798904418945,0.1137832775712013,-0.0453026257455349,5.03640604019165,64.50023651123047,25.31,2
-0.1965358853340149,-1.0409424304962158,0.1010084301233291,-0.2189491093158722,5.03612232208252,64.50015258789062,25.31,2
-0.1932987123727798,-1.0374701023101809,0.0872124955058097,-0.1870824098587036,5.035940170288086,64.5000991821289,25.31,2
-0.1856235116720199,-1.0240461826324463,0.0727612823247909,-0.1021458432078361,5.037659645080566,64.50006103515625,25.31,2
-0.1806980073451995,-0.976247012615204,0.0578895509243011,-0.0404732935130596,5.038763046264648,64.50003814697266,25.31,2
-0.1943304240703582,-0.9287789463996888,0.0315524078905582,0.1173295900225639,5.03947114944458,64.5000228881836,25.31,2
-0.2030789256095886,-0.8815233707427979,0.0146507443860173,0.3726491332054138,5.039925575256348,64.50001525878906,25.31,2
-0.2030954360961914,-0.8567952513694763,0.0038042303640395,0.5400810837745667,5.040217399597168,64.50000762939453,25.31,2
-0.1919104754924774,-0.8409261703491211,0.008039110340178,0.540052056312561,5.040404796600342,64.50000762939453,25.31,2
-0.1903303861618042,-0.8419378399848938,0.005159038119018,0.4504690170288086,5.040524959564209,64.50000762939453,25.31,2
-0.1949141472578048,-0.8705759048461914,-0.0022870011162012,0.2855025231838226,5.040602207183838,64.50000762939453,25.31,2
-0.1978557407855987,-0.9057475328445436,-0.0070654400624334,-0.0102399950847029,5.042946815490723,63.74766540527344,25.31,2
-0.1997434943914413,-0.9563075304031372,-0.010131967253983,-0.2895949184894562,5.044451713562012,63.26485443115234,25.31,2
-0.2009549438953399,-0.99994957447052,-0.0009043393074534,-0.268244594335556,5.045417308807373,62.95501327514648,25.31,2
-0.2073301523923874,-1.0447498559951782,0.0218107439577579,-0.0145106241106987,5.046036720275879,62.75617599487305,25.31,2
-0.2002258449792862,-1.1406733989715576,0.0139968795701861,0.0623394288122653,5.04643440246582,62.62857437133789,25.31,2
-0.1732756197452545,-1.2414159774780271,-0.0022131574805825,-0.1534532308578491,5.046689510345459,62.546688079833984,25.31,2
-0.16157828271389,-1.2388935089111328,0.0209708213806152,-0.3062668442726135,5.046853542327881,62.494136810302734,25.31,2
-0.1596693843603134,-1.186894774436951,0.0470445118844509,-0.1678838282823562,5.0469584465026855,62.460411071777344,25.31,2
-0.1528465896844864,-1.05836284160614,0.0693748816847801,0.0606428831815719,5.04564905166626,62.43877029418945,25.31,2
-0.1260770112276077,-0.9590850472450256,0.066911906003952,0.1428118050098419,5.044808387756348,62.42488098144531,25.31,2
-0.0753111913800239,-0.9121676087379456,0.0597335323691368,0.1095612719655036,5.04426908493042,62.41596603393555,25.31,2
-0.025939293205738,-0.8820586800575256,0.0663224160671234,0.0774752721190452,5.0439229011535645,62.410247802734375,25.31,2
-0.0166463460773229,-0.8627365231513977,0.0593552328646183,-0.0076020411215722,5.043700695037842,62.40657806396485,25.31,2
-0.0442693121731281,-0.8391411304473877,0.0324929989874362,-0.219833105802536,5.043558120727539,62.40422058105469,25.31,2
-0.1011805683374404,-0.8184012174606323,0.0152543615549802,-0.4850035011768341,5.043466567993164,62.4027099609375,25.31,2
-0.143300712108612,-0.8050915002822876,-0.0014061783440411,-0.6623397469520569,5.043407917022705,62.40174102783203,25.31,2
-0.1647332161664962,-0.8189411759376526,0.00469536986202,-0.6829969882965088,5.026844501495361,62.40111923217773,25.31,2
-0.156096264719963,-0.8166335821151733,0.0198065415024757,-0.5995240807533264,5.016215324401856,62.40071868896485,25.31,2
-0.1393580138683319,-0.809554934501648,0.0462973453104496,-0.4707218706607818,5.00939416885376,62.40046310424805,25.31,2
-0.128616377711296,-0.8330011367797852,0.0800909399986267,-0.2626738846302032,5.005016803741455,62.400299072265625,25.31,2
-0.1273207813501358,-0.8536453247070312,0.1073755025863647,0.0463855564594268,5.002207279205322,62.40019226074219,25.31,2
-0.1488804370164871,-0.9508602023124696,0.1360807120800018,0.2733827233314514,5.000404357910156,62.400123596191406,25.31,2
-0.157118409872055,-1.0468337535858154,0.1600998342037201,0.2327625006437301,4.999247550964356,62.40008163452149,25.31,2
-0.1400139778852462,-1.1308151483535769,0.1643183827400207,0.0920523703098297,4.998505115509033,62.40005111694336,25.31,2
-0.1290373355150222,-1.279871702194214,0.1614278256893158,0.1486383080482483,4.989306449890137,62.40003204345703,25.31,2
-0.1499820202589035,-1.4147120714187622,0.1595728248357772,0.3963238596916199,4.983403205871582,62.400020599365234,25.31,2
-0.1914119869470596,-1.3613004684448242,0.1527846306562423,0.6305082440376282,4.979614734649658,62.4000129699707,25.31,2
-0.2012060433626175,-1.2542529106140137,0.1260372549295425,0.7270556688308716,4.977183818817139,62.40000915527344,25.31,2
-0.1851001977920532,-1.118382692337036,0.0864812284708023,0.6564589738845825,4.975623607635498,62.40000534057617,25.31,2
-0.1915577203035354,-1.081568956375122,0.0443031266331672,0.4821813702583313,4.974622249603272,62.40000534057617,25.31,2
-0.20129956305027,-1.0523462295532229,0.0228334218263626,0.3703400492668152,4.973979949951172,62.40000534057617,25.31,2
-0.1963557600975036,-0.966419517993927,-0.0021401473786681,0.3773833811283111,4.973567485809326,62.40000534057617,25.31,2
-0.1819875687360763,-0.8776900172233582,-0.0237645208835601,0.3424950540065765,4.980188846588135,61.780216217041016,25.31,2
-0.1727668941020965,-0.8039552569389343,-0.0376418009400367,0.1624723970890045,4.984437942504883,61.38247299194336,25.31,2
-0.1836429089307785,-0.7622342705726624,-0.0521452128887176,-0.1321845799684524,4.987164974212647,61.12722396850586,25.31,2
-0.1906225085258484,-0.7410579323768616,-0.0614526681602001,-0.5004072189331055,4.988914966583252,60.96342086791992,25.31,2
-0.178308293223381,-0.7442615032196045,-0.0618278831243515,-0.847771167755127,4.99003791809082,60.85829925537109,25.31,2
-0.1648079752922058,-0.7575129270553589,-0.0620686747133731,-1.0133681297302246,4.990758419036865,60.79084014892578,25.31,2
-0.161742016673088,-0.8107991218566895,-0.0566254258155822,-1.0049962997436523,4.991220951080322,60.7475471496582,25.31,2
-0.1597744673490524,-0.900972843170166,-0.0587300360202789,-0.996041178703308,4.991517543792725,60.719764709472656,25.31,2
-0.1529140323400497,-0.9868300557136536,-0.0656784251332283,-1.0117897987365725,5.006856441497803,60.701934814453125,25.31,2
-0.1485113948583603,-1.064319372177124,-0.0533441826701164,-0.9466622471809388,5.016700267791748,60.69049453735352,25.31,2
-0.1568815857172012,-1.175623059272766,-0.062222097069025,-0.8009724020957947,5.023017406463623,60.68315124511719,25.31,2
-0.1678508669137954,-1.258246898651123,-0.0679194331169128,-0.5426785945892334,5.027071475982666,60.67844009399414,25.31,2
-0.2140747308731079,-1.216107964515686,-0.0100001357495784,-0.0043326113373041,5.029673099517822,60.6754150390625,25.31,2
-0.2269452363252639,-1.1498812437057495,0.0495602339506149,0.7818036079406738,5.031342506408691,60.6734733581543,25.31,2
-0.1456403881311416,-1.0905873775482178,0.0709893256425857,1.3615347146987915,5.032413959503174,60.6722297668457,25.31,2
-0.0430836528539657,-1.0637315511703491,0.0623501874506473,1.2248470783233645,5.033101558685303,60.67142868041992,25.31,2
0.0339269116520881,-1.0185081958770752,0.0680016353726387,0.3847878277301788,5.0702667236328125,60.67091751098633,25.29,2
0.0329678878188133,-0.8999220132827759,0.0940195024013519,-0.5555622577667236,5.094117164611816,60.67058944702149,25.29,2
-0.0012342048576101,-0.7958313226699829,0.1107162758708,-0.9297400116920472,5.10942268371582,60.67037582397461,25.29,2
-0.0847586616873741,-0.7234341502189636,0.0990402027964592,-0.6074013113975525,5.119245052337647,60.67024230957031,25.29,2
-0.1383598446846008,-0.6881693601608276,0.0859493985772132,0.0508616305887699,5.125548362731934,60.6701545715332,25.29,2
-0.1783557683229446,-0.693527340888977,0.07754847407341,0.7384074926376343,5.129593849182129,60.67009735107422,25.29,2
-0.1872295290231704,-0.7249546647071838,0.0889505669474601,1.3086074590682983,5.132189750671387,60.67006301879883,25.29,2
-0.181728646159172,-0.7675139904022217,0.1018655523657798,1.5276434421539309,5.133855819702148,60.670040130615234,25.29,2
-0.1781985014677047,-0.8228150010108948,0.1269469708204269,1.263377070426941,5.177616119384766,60.67002487182617,25.29,2
-0.1815308332443237,-0.880695104598999,0.1430427730083465,0.7856846451759338,5.2056989669799805,60.670013427734375,25.29,2
-0.1892671138048172,-1.0018057823181152,0.158969908952713,0.436138242483139,5.223721027374268,60.67000961303711,25.29,2
-0.1830362528562545,-1.079527735710144,0.1747888028621673,0.2440626621246338,5.235286712646484,60.67000579833984,25.29,2
-0.1622443199157714,-1.1741873025894165,0.1737449169158935,0.1136344596743583,5.242708683013916,60.67000198364258,25.29,2
-0.1656945794820785,-1.3524876832962036,0.1618794500827789,0.1159149631857872,5.247471809387207,60.67000198364258,25.29,2
-0.19589763879776,-1.461312770843506,0.1542648822069168,0.4183148145675659,5.250528335571289,60.67000198364258,25.29,2
-0.215280219912529,-1.3072395324707031,0.1381827443838119,1.1712594032287598,5.252490043640137,60.67000198364258,25.29,2
-0.1997299790382385,-1.1691797971725464,0.0998732820153236,2.2814066410064697,5.330409526824951,60.17560577392578,25.29,2
-0.1953485012054443,-1.1197654008865356,0.0640929266810417,3.226702690124512,5.380414009094238,59.85832977294922,25.29,2
-0.198134496808052,-1.0936518907546997,0.0411311499774456,3.3676044940948486,5.412503719329834,59.65472030639648,25.29,2
-0.1887268275022506,-1.0377092361450195,0.0319933779537677,2.641199827194214,5.433097362518311,59.52405548095703,25.29,2
-0.1547006666660308,-0.9234396815299988,0.0261292830109596,1.6269010305404663,5.44631290435791,59.44020462036133,25.29,2
-0.138462409377098,-0.8445102572441101,0.011170495301485,0.8326794505119324,5.454793930053711,59.38639450073242,25.29,2
-0.133639395236969,-0.8050534725189209,0.001570806489326,0.2011862099170684,5.460236549377441,59.35186004638672,25.29,2
-0.1529353708028793,-0.7685368061065674,-0.0045897210948169,-0.4942584335803985,5.463729381561279,59.32969665527344,25.29,2
-0.159720629453659,-0.7451025247573853,-0.0085431933403015,-1.1519267559051514,5.503936767578125,59.31547546386719,25.29,2
-0.1472817063331604,-0.7468571066856384,-0.0054825297556817,-1.6563795804977417,5.529739856719971,59.30635070800781,25.29,2
-0.1504946649074554,-0.7983630299568176,-0.0091161467134952,-2.1341590881347656,5.546298503875732,59.30049514770508,25.29,2
-0.1581543385982513,-0.865003228187561,-0.0170457661151886,-2.5410826206207275,5.556924819946289,59.29673385620117,25.29,2
-0.163069874048233,-0.9581490159034728,-0.0221345406025648,-2.5442774295806885,5.56374454498291,59.2943229675293,25.29,2
-0.1718221455812454,-1.0459134578704834,-0.0198024492710828,-2.116418600082397,5.568120956420898,59.29277420043945,25.29,2
-0.1942321807146072,-1.1414201259613037,-0.0239036213606596,-1.641219139099121,5.570929527282715,59.29178237915039,25.29,2
-0.1974180936813354,-1.2586885690689087,-0.02093774266541,-1.250281572341919,5.572731971740723,59.29114532470703,25.29,2
-0.2050604075193405,-1.272369146347046,0.0145522337406873,-0.6948814988136292,5.628514766693115,59.29073715209961,25.29,2
-0.1875737160444259,-1.2195730209350586,0.0485232062637805,0.1487726122140884,5.664312839508057,59.29047393798828,25.29,2
-0.1259717941284179,-1.1744959354400637,0.0535304993391037,1.073516845703125,5.687285900115967,59.290306091308594,25.29,2
-0.0528525747358799,-1.1119813919067385,0.0511461161077022,1.745781183242798,5.702028751373291,59.29019546508789,25.29,2
-0.0283199679106473,-0.9878966212272644,0.0720070526003837,1.8870130777359009,5.711490154266357,59.29012680053711,25.29,2
-0.0237718988209962,-0.8466905951499939,0.0909921750426292,1.4868346452713013,5.717561721801758,59.29008102416992,25.29,2
-0.0768309533596038,-0.7056927680969238,0.0975779592990875,0.871765673160553,5.721457958221436,59.2900505065918,25.29,2
-0.1276745200157165,-0.6264039874076843,0.1018043383955955,0.3659899234771728,5.723958492279053,59.29003143310547,25.29,2
-0.1714985519647598,-0.6035099029541016,0.0989188104867935,-0.0374044775962829,5.730154037475586,59.29001998901367,25.29,2
-0.1884267479181289,-0.6335999965667725,0.1026648208498954,-0.436000257730484,5.734129905700684,59.29001235961914,25.29,2
-0.1992902755737304,-0.6920945048332214,0.1106665655970573,-0.8100211024284363,5.7366814613342285,59.29000854492188,25.29,2
-0.2006640881299972,-0.80240398645401,0.1325949430465698,-1.2435051202774048,5.738318920135498,59.29000473022461,25.29,2
-0.2015457302331924,-0.8843898177146912,0.1466673165559768,-1.890695571899414,5.739369869232178,59.29000473022461,25.29,2
-0.2133070677518844,-0.9761880040168762,0.161295935511589,-2.5030667781829834,5.740044116973877,59.29000473022461,25.29,2
-0.2096592634916305,-1.0630877017974854,0.1874770671129226,-2.5736196041107178,5.740476608276367,59.29000473022461,25.29,2
-0.1849272102117538,-1.0964637994766235,0.2042786031961441,-2.1245009899139404,5.7407546043396,59.29000473022461,25.29,2
-0.1410667300224304,-1.2298381328582764,0.2038653194904327,-1.5747543573379517,5.77444314956665,58.91741561889648,25.29,2
-0.1353107094764709,-1.354614496231079,0.2091978639364242,-1.0249170064926147,5.796062469482422,58.67831039428711,25.29,2
-0.1763990223407745,-1.30594003200531,0.2182177603244781,-0.3353009521961212,5.8099365234375,58.524864196777344,25.29,2
-0.1747782528400421,-1.1515525579452517,0.1736262440681457,0.4583474099636078,5.818840026855469,58.4263916015625,25.29,2
-0.1625425964593887,-1.0972577333450315,0.1282166540622711,1.333087921142578,5.824553966522217,58.36319732666016,25.29,2
-0.1826793253421783,-1.107196569442749,0.0822820663452148,2.252703666687012,5.828220844268799,58.3226432800293,25.29,2
-0.1956019103527069,-1.0855859518051147,0.0528038926422596,2.792703866958618,5.830574035644531,58.2966194152832,25.29,2
-0.1982971131801605,-0.9653597474098206,0.0450820475816726,2.5517024993896484,5.8320841789245605,58.2799186706543,25.29,2
-0.1720378696918487,-0.8490210771560669,0.0289310626685619,1.8918986320495603,5.827544689178467,58.26919937133789,25.29,2
-0.160783976316452,-0.7855571508407593,0.0129685159772634,1.522213101387024,5.824631690979004,58.26232147216797,25.29,2
-0.1759529709815979,-0.7560251951217651,-0.0028731024358421,1.428273320198059,5.8227620124816895,58.25790786743164,25.29,2
-0.1856875568628311,-0.7258777618408203,-0.0074415663257241,0.9774873852729796,5.82156229019165,58.25507354736328,25.29,2
-0.1695435494184494,-0.695335328578949,0.0064199795015156,0.0612481534481048,5.820792198181152,58.25325775146485,25.29,2
-0.1647810339927673,-0.6981260180473328,0.0321088470518589,-0.7918519377708435,5.820298194885254,58.25209045410156,25.29,2
-0.1729202717542648,-0.7223080396652222,0.0541922561824321,-1.3249921798706057,5.819981098175049,58.2513427734375,25.29,2
-0.183741346001625,-0.793804407119751,0.0683641135692596,-1.6742961406707764,5.819777488708496,58.25086212158203,25.29,2
-0.1850879192352295,-0.8788710832595825,0.071861021220684,-1.8697986602783203,5.801285266876221,58.25055313110352,25.29,2
-0.2027453929185867,-1.017428636550903,0.0908984616398811,-1.902114033699036,5.789417743682861,58.2503547668457,25.29,2
-0.2196747064590454,-1.1511290073394775,0.1031155958771705,-1.7795491218566897,5.781802177429199,58.25022888183594,25.29,2
-0.2137456536293029,-1.3041034936904907,0.0941625237464904,-1.321141004562378,5.776914596557617,58.25014877319336,25.29,2
-0.2043429464101791,-1.4078716039657593,0.0996125116944313,-0.4322534501552582,5.773777961730957,58.25009536743164,25.29,2
-0.2151021510362625,-1.373703956604004,0.1310988664627075,0.4964409470558166,5.771765232086182,58.25006103515625,25.29,2
-0.2052134722471237,-1.2342239618301392,0.1401094496250152,1.0458500385284424,5.770473480224609,58.250038146972656,25.29,2
-0.1260964125394821,-1.1615070104599,0.0843164026737213,1.2587087154388428,5.769644737243652,58.2500228881836,25.29,2
-0.0585303232073783,-1.103645920753479,0.0485116392374038,1.4096394777297974,5.77462100982666,58.25001525878906,25.29,2
-0.01517029479146,-1.021731734275818,0.0479253008961677,1.6068103313446045,5.7778143882751465,58.2500114440918,25.29,2
-0.0209309700876474,-0.913186252117157,0.0531467981636524,1.7799166440963743,5.779863834381104,58.25000762939453,25.29,2
-0.0806055814027786,-0.7931480407714844,0.0508998781442642,1.7656161785125732,5.781178951263428,58.25000381469727,25.29,2
-0.1468901932239532,-0.6993210911750793,0.0438601598143577,1.2692086696624756,5.782022953033447,58.25000381469727,25.29,2
-0.2006233781576156,-0.6335105895996094,0.044940248131752,0.1947194784879684,5.782564640045166,58.25000381469727,25.29,2
-0.2015196084976196,-0.5856794118881226,0.0680244863033294,-0.9784735441207886,5.782912254333496,58.25000381469727,25.29,2
-0.1853014230728149,-0.5661796927452087,0.0884363949298858,-1.7098658084869385,5.783135414123535,58.25000381469727,25.29,2
-0.1636979877948761,-0.6208391785621643,0.1183289065957069,-2.107579708099365,5.746096134185791,58.042213439941406,25.29,2
-0.2002141177654266,-0.7678719758987427,0.176696628332138,-2.377140045166016,5.722326278686523,57.90886306762695,25.29,2
-0.2348436117172241,-0.8902180194854736,0.2309469878673553,-2.213366270065308,5.7070722579956055,57.82328796386719,25.29,2
-0.2570668160915375,-1.0191125869750977,0.2377728670835495,-1.484897494316101,5.6972832679748535,57.76837158203125,25.29,2
-0.265730619430542,-1.124220848083496,0.2533488869667053,-0.6734808683395386,5.691000938415527,57.73312759399414,25.29,2
-0.254497230052948,-1.1412932872772217,0.2689424455165863,-0.1061868816614151,5.68696928024292,57.71051025390625,25.29,2
-0.2416905164718628,-1.1858360767364502,0.2229717522859573,0.3975901901721954,5.684382438659668,57.69599533081055,25.29,2
-0.2502652406692505,-1.1472477912902832,0.1710793077945709,1.0648125410079956,5.682722091674805,57.68667984008789,25.29,2
-0.2501702308654785,-0.9601485729217528,0.0594088807702064,1.83692479133606,5.683492660522461,57.680702209472656,25.29,2
-0.2557070255279541,-0.7617102265357971,-0.006656992714852,2.3575000762939453,5.683987140655518,57.6768684387207,25.29,2
-0.2088802456855774,-0.7071349620819092,-0.1162275597453117,2.272413730621338,5.684304714202881,57.674407958984375,25.29,2
-0.1396450996398925,-0.7224916815757751,-0.2369236052036285,1.7592406272888184,5.684508323669434,57.672828674316406,25.29,2
-0.117605060338974,-0.6203912496566772,-0.2863905131816864,1.3582642078399658,5.684638977050781,57.67181396484375,25.29,2
-0.1314499080181121,-0.5044891238212585,-0.2845488786697387,1.1403489112854004,5.684722900390625,57.67116165161133,25.29,2
-0.1067480817437172,-0.4357075691223144,-0.3113558888435364,0.7067322134971619,5.684776782989502,57.670745849609375,25.29,2
-0.0517114549875259,-0.397165298461914,-0.3061679899692535,-0.0086122089996933,5.684811115264893,57.67047882080078,25.29,2
-0.0443809852004051,-0.4452021420001983,-0.2916431427001953,-0.7112942337989807,5.655913352966309,57.67030715942383,25.25,2
-0.0396767109632492,-0.5432027578353882,-0.2879197299480438,-1.3485291004180908,5.637368202209473,57.670196533203125,25.25,2
-0.1989932358264923,-0.6900604963302612,-0.291128009557724,-2.01541519165039,5.625467300415039,57.67012405395508,25.25,2
-0.2452556639909744,-0.8122942447662354,-0.3155780136585235,-2.482792615890503,5.6178297996521,57.67007827758789,25.25,2
-0.0790221318602562,-0.8067702054977417,-0.325670838356018,-2.485374689102173,5.61292839050293,57.670047760009766,25.25,2
-0.0787007287144661,-0.8983873128890991,-0.3825277984142303,-2.153852224349976,5.609783172607422,57.67002868652344,25.25,2
-0.1288744360208511,-0.8788130879402161,-0.3798308968544006,-1.7763017416000366,5.607764720916748,57.67001724243164,25.25,2
0.0348490625619888,-0.9390225410461426,-0.4396757185459137,-1.3405524492263794,5.60646915435791,57.67000961303711,25.25,2
0.1287218481302261,-1.1623880863189695,-0.5732428431510925,-0.6238394379615784,5.5588154792785645,57.67000579833984,25.25,2
0.2169528603553772,-1.43448007106781,-0.8268917798995972,0.4451435506343841,5.528234004974365,57.67000198364258,25.25,2
0.5366698503494263,-1.62588632106781,-1.023255705833435,1.6828720569610596,5.508608818054199,57.67000198364258,25.25,2
0.6354880928993225,-1.7599153518676758,-1.373181700706482,2.788858890533448,5.49601411819458,57.67000198364258,25.25,2
1.1187371015548706,-1.8459274768829343,-1.597744107246399,3.409053325653076,5.487931728363037,57.67000198364258,25.25,2
1.4288583993911743,-1.9011250734329224,-1.741855263710022,3.2625069618225098,5.482745170593262,57.67000198364258,25.25,2
1.6278764009475708,-1.9365477561950684,-1.834337592124939,2.563006639480591,5.479416370391846,57.67000198364258,25.25,2
1.649237036705017,-1.959280014038086,-1.89368736743927,1.8812401294708248,5.477280139923096,57.67000198364258,25.25,2
1.7357161045074463,-1.9738682508468628,-1.931774616241455,1.372070074081421,5.447448253631592,57.35831832885742,25.25,2
1.5561068058013916,-1.9832301139831543,-1.4132328033447266,0.7264648079872131,5.428304195404053,57.158294677734375,25.25,2
1.0545974969863892,-1.9892380237579343,-0.6550316214561462,-0.0819307416677475,5.416018486022949,57.02993392944336,25.25,2
0.2849358022212982,-1.993093609809876,-0.0397129096090793,-0.7762587070465088,5.4081339836120605,56.94755935668945,25.25,2
-0.5336596965789795,-1.9955679178237915,0.5510852932929993,-1.4009672403335571,5.403074264526367,56.89469528198242,25.25,2
-1.0589871406555176,-1.1966739892959597,0.9414211511611938,-2.231778144836426,5.399827480316162,56.86077117919922,25.25,2
-1.396112084388733,-0.8743141889572144,0.7217031717300415,-3.1518630981445312,5.397743701934815,56.8390007019043,25.25,2
-1.5900683403015137,-0.7010288834571838,0.4407564699649811,-3.6240954399108887,5.396406650543213,56.82502746582031,25.25,2
-1.3842697143554688,-0.729768693447113,0.2212766259908676,-3.2894487380981445,5.320724010467529,56.81605911254883,25.25,2
-0.949920117855072,-0.8153855800628662,0.013253784738481,-2.3259334564208984,5.272154808044434,56.810306549072266,25.25,2
-0.3800952732563019,-1.239782691001892,-0.036276675760746,-1.1845486164093018,5.240985870361328,56.80661392211914,25.25,2
0.3718318939208984,-1.4337674379348757,-0.1688224226236343,-0.269362211227417,5.220983505249023,56.80424499511719,25.25,2
0.9495376348495485,-1.6366245746612549,-0.6681179404258728,0.2606304883956909,5.2081475257873535,56.8027229309082,25.25,2
1.320275902748108,-1.6828399896621704,-1.1452747583389282,0.5756712555885315,5.199909687042236,56.8017463684082,25.25,2
1.5581943988800049,-1.3878273963928225,-1.3619221448898315,0.8172546029090881,5.1946234703063965,56.80112075805664,25.25,2
1.7108768224716189,-0.7898678183555603,-1.3834006786346436,0.545962393283844,5.191230773925781,56.80072021484375,25.25,2
1.4561998844146729,-0.6188471913337708,-1.4195754528045654,-0.7351531386375427,5.243680477142334,56.80046081542969,25.29,2
1.1976006031036377,-0.4475204646587372,-1.3196393251419067,-2.5102643966674805,5.277339935302734,56.80029678344727,25.29,2
0.9084954857826232,-0.1696396023035049,-0.9588240385055542,-3.7748188972473145,5.298940658569336,56.80018997192383,25.29,2
0.7061711549758911,-0.0248983204364776,-0.7272735834121704,-4.554093837738037,5.312802314758301,56.80012130737305,25.29,2
0.8058397769927979,-0.0047827600501477,-0.5506889224052429,-5.781450748443604,5.321698188781738,56.800079345703125,25.29,2
0.4555660784244537,-0.7195844054222107,-0.8292112946510315,-7.801503658294678,5.327406883239746,56.800048828125,25.29,2
0.5498536825180054,-1.1335207223892212,-0.9351798295974731,-9.88602352142334,5.331070423126221,56.80002975463867,25.29,2
0.4200377464294433,-0.811394989490509,-0.6001445651054382,-11.295400619506836,5.33342170715332,56.80001831054688,25.29,2
0.2527627348899841,-0.9013552665710448,-0.3907360136508941,-12.13178825378418,5.267450332641602,56.80001068115234,25.29,2
0.2573707401752472,-0.9870754480361938,-0.3067296147346496,-13.16292953491211,5.225113868713379,56.80000686645508,25.29,2
0.1875568181276321,-0.997303545475006,-0.2920035719871521,-14.70596981048584,5.197944641113281,56.80000305175781,25.29,2
0.0755809769034385,-0.9590851664543152,-0.2209777235984802,-15.685457229614258,5.180509090423584,56.80000305175781,25.29,2
0.0876879394054412,-0.7610278129577637,0.0429157726466655,-14.859509468078612,5.169320106506348,56.80000305175781,25.29,2
0.0786641687154769,-0.5275682806968689,0.2178652137517929,-13.677435874938965,5.162139415740967,56.80000305175781,25.29,2
-0.0894622281193733,-0.4169318079948425,0.318942129611969,-15.412321090698242,5.157531261444092,56.80000305175781,25.29,2
-0.035020612180233,-0.9840779304504396,0.0815276652574539,-19.91120338439941,5.154574394226074,56.80000305175781,25.29,2
0.1510567814111709,-1.3480397462844849,-0.3507200181484222,-22.65860748291016,5.216484069824219,56.61012649536133,25.29,2
0.1865039318799972,-1.4528605937957764,-0.6840894222259521,-21.6273250579834,5.256214141845703,56.48827362060547,25.29,2
0.2036541104316711,-1.436161994934082,-0.8532445430755615,-21.090896606445312,5.281710624694824,56.41007614135742,25.29,2
0.4833532869815826,-1.4422391653060913,-0.8554408550262451,-25.28577041625977,5.298072814941406,56.359893798828125,25.29,2
0.5229037404060364,-1.1830437183380127,-0.8400569558143616,-31.91863250732422,5.308573246002197,56.32769012451172,25.29,2
0.5650782585144043,-0.955131471157074,-0.7854022979736328,-35.51602935791016,5.315311431884766,56.30702209472656,25.29,2
0.4242102205753326,-0.7249038815498352,-0.5935903787612915,-34.94782257080078,5.31963586807251,56.293758392333984,25.29,2
0.3617980778217315,-0.6387326121330261,-0.4481054246425628,-35.213714599609375,5.322411060333252,56.285247802734375,25.29,2
0.3665277659893036,-0.6170194745063782,-0.360339343547821,-40.09185409545898,5.387081146240234,56.27978515625,25.29,2
0.2464119642972946,-1.0173205137252808,-0.3152116537094116,-40.90443420410156,5.428582668304443,56.27627944946289,25.29,2
0.0125908749178051,-1.369372844696045,-0.2862513065338135,-17.669843673706055,5.455215930938721,56.27402877807617,25.29,2
-0.2046353369951248,-1.416170954704285,-0.0605485737323761,38.81657028198242,5.4723076820373535,56.272586822509766,25.29,2
-0.2208875715732574,-1.2782701253890991,0.0786966755986213,108.09764099121094,5.4832763671875,56.27165985107422,25.29,2
-0.0633840858936309,-1.1281977891921997,0.0840896442532539,152.90576171875,5.490315437316895,56.27106475830078,25.29,2
-0.001491836970672,-1.115856647491455,0.0427683442831039,150.29916381835938,5.494832515716553,56.27068328857422,25.29,2
0.0158359482884407,-1.0295679569244385,0.0330440364778041,106.30902099609376,5.4977312088012695,56.27043914794922,25.29,2
-0.0458151400089263,-0.8398462533950806,0.0547924079000949,48.38270568847656,5.519789695739746,56.27028274536133,25.27,2
-0.1021725833415985,-0.718093752861023,0.0967381298542022,8.73337173461914,5.533945560455322,56.27017974853516,25.27,2
-0.1495351046323776,-0.6287644505500793,0.1740364581346511,6.675765514373779,5.54302978515625,56.27011489868164,25.27,2
-0.1799296438694,-0.6945890784263611,0.1844576448202133,38.93120956420898,5.548859596252441,56.27007293701172,25.27,2
-0.2162284255027771,-0.8207981586456299,0.1743520498275756,83.95658874511719,5.552600860595703,56.27004623413086,25.27,2
-0.2003384828567505,-0.8570097088813782,0.1902579516172409,113.88306427001952,5.555001735687256,56.2700309753418,25.27,2
-0.1789456754922866,-0.8914437294006348,0.200465440750122,108.83053588867188,5.55654239654541,56.27001953125,25.27,2
-0.1652169972658157,-0.8855526447296143,0.2182115763425827,70.65799713134766,5.557531356811523,56.27001190185547,25.27,2
-0.1787978261709213,-0.8593809604644775,0.2519911229610443,20.93256187438965,5.7445387840271,56.2700080871582,25.27,2
-0.1931109875440597,-0.8649765849113464,0.273668885231018,-20.493677139282227,5.86454963684082,56.27000427246094,25.27,2
-0.1799052655696869,-0.857371985912323,0.2875804305076599,-48.83769989013672,5.94156551361084,56.27000427246094,25.27,2
-0.1714305877685547,-0.8524917960166931,0.2909102737903595,-64.44064331054688,5.990989685058594,56.27000427246094,25.27,2
-0.1827853471040725,-0.8885443806648254,0.2818516194820404,-65.06736755371094,6.022707462310791,56.27000427246094,25.27,2
-0.1284966617822647,-0.9508652687072754,0.2200605720281601,-54.67884063720703,6.043062210083008,56.27000427246094,25.27,2
0.0462870448827743,-1.0020548105239868,0.2531777024269104,-44.9167366027832,6.056124687194824,56.27000427246094,25.27,2
-0.0822511315345764,-0.9621342420578004,0.2688325941562652,-41.07738494873047,6.064507484436035,56.27000427246094,25.27,2
-0.1647395342588424,-0.930917739868164,0.2788789868354797,-38.018802642822266,6.250490188598633,56.11236953735352,25.27,2
-0.1840891987085342,-0.87729811668396,0.2797284126281738,-32.315773010253906,6.369843482971191,56.011207580566406,25.27,2
-0.0845512077212333,-0.9828324913978576,0.2802735269069671,-27.52738380432129,6.446437358856201,55.9462890625,25.27,2
-0.0542600974440574,-1.0057761669158936,0.2918189167976379,-26.76165008544922,6.495591163635254,55.90462875366211,25.27,2
-0.0852009803056716,-0.9645223617553712,0.2992280721664428,-28.86403083801269,6.527134895324707,55.877891540527344,25.27,2
-0.1442414820194244,-0.9492436051368712,0.2983850538730621,-30.969141006469727,6.547378063201904,55.86073303222656,25.27,2
-0.1093592047691345,-0.9954163432121276,0.3090396225452423,-29.479097366333008,6.56036901473999,55.84972381591797,25.27,2
-0.2605047821998596,-0.9130918383598328,0.3158771097660064,-21.601337432861328,6.568705558776856,55.84265899658203,25.27,2
-0.3686968386173248,-0.7818918824195862,0.3090694546699524,-9.133495330810549,6.752931594848633,55.8381233215332,25.27,2
-0.3317705690860748,-0.8656285405158997,0.3047007024288177,2.4717187881469727,6.871157169342041,55.83521270751953,25.27,2
-0.3248667418956756,-0.863388180732727,0.3074948489665985,9.78672218322754,6.947027206420898,55.83334732055664,25.27,2
-0.1916874498128891,-0.8955370783805847,0.3260813057422638,12.804425239562988,6.995716571807861,55.832149505615234,25.27,2
-0.2349694669246673,-0.8937773108482361,0.3212156891822815,12.050498962402344,7.0269622802734375,55.83137893676758,25.27,2
-0.2011698484420776,-0.9206368327140808,0.3236910104751587,8.177556037902832,7.047014236450195,55.83088684082031,25.27,2
-0.2018702924251556,-0.9546670913696288,0.3308773040771484,2.937123537063598,7.059882164001465,55.83057022094727,25.27,2
-0.2023198008537292,-0.9877012968063354,0.3354890346527099,-1.6618728637695312,7.068140506744385,55.83036804199219,25.27,2
-0.2026082724332809,-0.9417274594306946,0.3552419245243072,-3.5742971897125244,7.232529640197754,55.83023834228516,25.27,2
-0.2083911746740341,-0.8898329734802246,0.3735159635543823,-1.283491849899292,7.338025093078613,55.83015441894531,25.27,2
-0.2065045237541198,-0.8397367596626282,0.3908409476280212,3.6366355419158936,7.405725955963135,55.8301010131836,25.27,2
-0.1885004639625549,-0.846772313117981,0.4131546914577484,6.951723575592041,7.449172496795654,55.8300666809082,25.27,2
-0.1881420463323593,-0.8288962244987488,0.4330721199512481,6.592848300933838,7.477054119110107,55.83004379272461,25.27,2
-0.1543253809213638,-0.8062288165092468,0.445853978395462,4.255988597869873,7.4949469566345215,55.83002853393555,25.27,2
-0.1158304661512374,-0.7916821837425232,0.4596544206142425,1.857100009918213,7.506429672241211,55.83001708984375,25.27,2
-0.1303110718727111,-0.7991403341293335,0.4573152065277099,-0.3093193173408508,7.513798236846924,55.83001327514648,25.27,2
-0.1340061128139495,-0.7983287572860718,0.4446184933185577,-2.158172130584717,7.632619380950928,55.83000946044922,25.27,2
-0.1307796090841293,-0.8705790042877197,0.436470478773117,-3.427058696746826,7.708872318267822,55.83000564575195,25.27,2
-0.1063179224729538,-0.8217828869819641,0.4312415421009063,-4.280765533447266,7.757806777954102,55.83000564575195,25.27,2
-0.0906198173761367,-0.8352505564689636,0.4614725410938263,-4.8107123374938965,7.789210319519043,55.83000564575195,25.27,2
-0.1253278702497482,-0.8382955193519592,0.4920686185359955,-4.663571357727051,7.80936336517334,55.83000564575195,25.27,2
-0.1811881512403488,-0.7842718958854675,0.5005078911781311,-3.8203866481781006,7.822296142578125,55.83000564575195,25.27,2
-0.2282316088676452,-0.7943848371505737,0.5003259181976318,-2.98909068107605,7.830595970153809,55.83000564575195,25.27,2
