acc_x,acc_y,acc_z,bvp,eda,hr,temp,label
0.0,0.0,0.0,0.0,0.0,0.0,25.01,2
-0.0494791641831398,-0.1484374850988388,0.0416666641831398,0.1533333212137222,0.1501853317022323,10.916666030883787,25.01,2
-0.1200457364320755,-0.3475609719753265,0.1059451252222061,0.2651219367980957,0.3516534864902496,25.560976028442383,25.01,2
-0.1913932710886001,-0.5207641124725342,0.1668397039175033,0.0944518223404884,0.526896059513092,38.29900360107422,25.01,2
-0.2434451580047607,-0.6471251845359802,0.2112655788660049,-0.4400349855422973,0.6547449827194214,47.59208297729492,25.01,2
-0.2731967568397522,-0.7326769232749939,0.2523232102394104,-1.2902705669403076,0.7413040995597839,53.883888244628906,25.01,2
-0.2871650159358978,-0.7999173402786255,0.2514975368976593,-2.299501657485962,0.7980993390083313,58.0122184753418,25.01,2
-0.2906322181224823,-0.8378863334655762,0.234224796295166,-3.04954195022583,0.8348828554153442,60.68593597412109,25.01,2
-0.3152264058589935,-0.8455743789672852,0.228688359260559,-3.074749708175659,0.850784420967102,62.40826797485352,25.01,2
-0.3254394829273224,-0.8672997355461121,0.2251298576593399,-2.539543867111206,0.8610050082206726,63.51528549194336,25.01,2
-0.3040154278278351,-0.8588647842407227,0.2116517871618271,-2.256748914718628,0.8675681948661804,64.22615814208984,25.01,2
-0.3294437825679779,-0.8310613632202148,0.1750138252973556,-2.816742181777954,0.8717812299728394,64.68247985839844,25.01,2
-0.3065811097621918,-0.8635947704315186,0.1794869154691696,-4.025190353393555,0.874485194683075,64.97534942626953,25.01,2
-0.3031038641929626,-0.9012668132781982,0.1767599284648895,-5.370357513427734,0.8762205243110657,65.1633071899414,25.01,2
-0.2952746152877807,-0.9254429936408995,0.1750098764896392,-6.692191123962402,0.8773341774940491,65.28392791748047,25.01,2
-0.2958479523658752,-0.9297624826431274,0.1738867908716201,-8.192501068115234,0.878048837184906,65.36133575439453,25.01,2
-0.3018136620521545,-0.9269367456436156,0.1731660515069961,-10.01513385772705,0.8775892853736877,65.4110107421875,25.01,2
-0.3112398982048034,-0.93072110414505,0.1671057492494583,-12.058944702148438,0.8772943615913391,65.4428939819336,25.01,2
-0.3284846544265747,-0.9331496953964232,0.1464232802391052,-14.40949249267578,0.8771050572395325,65.4633560180664,25.01,2
-0.3395513594150543,-0.912317156791687,0.1275526881217956,-17.856111526489258,0.8769835829734802,65.47648620605469,25.01,2
-0.3466533422470093,-0.8653613328933716,0.1042470708489418,-23.36392402648925,0.876905620098114,65.48490905761719,25.01,2
-0.3512109816074371,-0.8240322470664978,0.089290864765644,-30.860849380493164,0.8768556118011475,65.49031829833984,25.01,2
-0.3709291219711303,-0.80870521068573,0.068497285246849,-39.09330368041992,0.8768235445022583,65.49378967285156,25.01,2
-0.3835830986499786,-0.804466962814331,0.0495553910732269,-47.46818161010742,0.876802921295166,65.49601745605469,25.01,2
-0.3917036950588226,-0.8185403943061829,0.0318017974495887,-57.338829040527344,0.8845936059951782,65.49744415283203,25.01,2
-0.3969150185585022,-0.8723541498184204,0.0204085633158683,-70.03231048583984,0.889593243598938,65.49835968017578,25.01,2
-0.3946615755558014,-0.9180842638015748,0.0130970412865281,-84.25072479248047,0.8928017020225525,65.49894714355469,25.01,2
-0.3988132178783417,-0.97542005777359,0.0140027012676,-97.6385498046875,0.8948607444763184,65.49932098388672,25.01,2
-0.4014775156974792,-1.0010193586349487,0.0425727739930152,-110.42528533935548,0.896182119846344,65.49956512451172,25.01,2
-0.3975895345211029,-1.0062519311904907,0.0721029490232467,-125.57051849365234,0.8970300555229187,65.49971771240234,25.01,2
-0.372703343629837,-0.9928165674209596,0.1078470423817634,-145.52528381347656,0.897574245929718,65.49981689453125,25.01,2
-0.3455372750759125,-0.9729989767074584,0.1307855397462844,-167.52040100097656,0.897923469543457,65.49988555908203,25.01,2
-0.3169080913066864,-0.9434878826141356,0.1287128329277038,-180.6432342529297,0.8981475830078125,67.58856964111328,25.01,2
-0.2705466747283935,-0.9133538007736206,0.1329804509878158,-171.656982421875,0.8982914090156555,68.92896270751953,25.01,2
-0.2519901096820831,-0.8940154910087585,0.1357191652059555,-136.42343139648438,0.8983836770057678,69.78915405273438,25.01,2
-0.2456793636083603,-0.8872030377388,0.1262811720371246,-80.75972747802734,0.8984429240226746,70.34117126464844,25.01,2
-0.2528250515460968,-0.8884289860725403,0.1146266311407089,-9.541802406311035,0.8984809517860413,70.69542694091797,25.01,2
-0.2798018157482147,-0.9060090184211732,0.090354099869728,75.17959594726562,0.8985053300857544,70.92276763916016,25.01,2
-0.2971139550209045,-0.928486466407776,0.0579840615391731,163.46157836914062,0.8985210061073303,71.06866455078125,25.01,2
-0.3082239031791687,-0.9373133778572084,0.0428086072206497,237.85678100585932,0.8985310196876526,71.16229248046875,25.01,2
-0.2873647511005401,-0.942978024482727,0.0386676490306854,289.2284851074219,0.8967013955116272,71.22237396240234,25.01,2
-0.2627829909324646,-1.030579924583435,0.0248146709054708,323.0700378417969,0.8955272436141968,71.26093292236328,25.01,2
-0.2246167361736297,-1.1259821653366089,0.0047290781512856,348.56719970703125,0.8947737216949463,71.28567504882812,25.01,2
-0.2337104827165603,-1.2151947021484375,-0.0193562470376491,368.7130126953125,0.8942901492118835,71.30155181884766,25.01,2
-0.2451440989971161,-1.261250615119934,-0.0292150489985942,379.53131103515625,0.8939798474311829,71.3117446899414,25.01,2
-0.2412859946489334,-1.1564600467681885,-0.0019552123267203,372.9819030761719,0.8937807083129883,71.31828308105469,25.01,2
-0.2276145368814468,-1.027635931968689,0.0267341285943985,342.9879150390625,0.8936529159545898,71.32247924804688,25.01,2
-0.196449875831604,-0.9785507321357728,0.0619386211037635,291.14520263671875,0.8935708999633789,71.3251724243164,25.01,2
-0.1540590971708297,-1.0422128438949585,0.1125197112560272,224.17784118652344,0.8944361209869385,71.326904296875,25.01,2
-0.1212573572993278,-1.071871995925903,0.1505775153636932,146.6015167236328,0.894991397857666,71.32801055908203,25.01,2
-0.0834137648344039,-0.9901455640792848,0.1861963719129562,60.3289680480957,0.8953477144241333,71.32872772216797,25.01,2
-0.0479323789477348,-0.904111623764038,0.2314455956220626,-27.468843460083008,0.8955764174461365,71.32918548583984,25.01,2
-0.0531513392925262,-0.8544977307319641,0.2660817205905914,-101.68231201171876,0.8957231640815735,71.32947540283203,25.01,2
-0.0844894424080848,-0.8114628791809082,0.254722535610199,-149.70948791503906,0.8958173394203186,71.32966613769531,25.01,2
-0.1157959774136543,-0.7838455438613892,0.225041776895523,-171.5884552001953,0.8958777785301208,71.32978820800781,25.01,2
-0.2142555564641952,-0.7717201113700867,0.1500166356563568,-175.8164520263672,0.8959165811538696,71.32986450195312,25.01,2
-0.2942345738410949,-0.7919275760650635,0.0738809406757354,-170.23248291015625,0.8950235843658447,71.32991027832031,25.01,2
-0.3455604910850525,-0.8048955798149109,-0.002967434702441,-160.19322204589844,0.8944504857063293,71.32994079589844,25.01,2
-0.3673029541969299,-0.8188154697418213,-0.0075021032243967,-149.13265991210938,0.8940827250480652,71.32996368408203,25.01,2
-0.3644627034664154,-0.8557373285293579,0.000783356372267,-137.11216735839844,0.8938467502593994,71.3299789428711,25.01,2
-0.3178578019142151,-0.9578005075454712,0.011698261834681,-122.6736068725586,0.8936952948570251,71.32998657226562,25.01,2
-0.2711561322212219,-1.1016676425933838,0.018702819943428,-106.78717803955078,0.8935980796813965,71.32999420166016,25.01,2
-0.2635767757892608,-1.1212221384048462,0.0455890409648418,-92.35041046142578,0.8935357332229614,71.32999420166016,25.01,2
-0.3090927600860595,-1.0106201171875,0.0628430694341659,-80.2662353515625,0.8934956789016724,71.32999420166016,25.01,2
-0.3606933951377868,-0.9340443015098572,0.0739157125353813,-68.83558654785156,0.8934699892997742,69.42048645019531,25.01,2
-0.4106010496616363,-1.1424000263214111,0.0586303994059562,-56.96092987060547,0.8934534788131714,68.195068359375,25.01,2
-0.4202378094196319,-1.270512938499451,0.043223388493061,-45.77937698364258,0.8934429287910461,67.4086685180664,25.01,2
-0.3760421574115753,-1.1959906816482544,0.0613249279558658,-36.66552734375,0.8934361338615417,66.90399932861328,25.01,2
-0.3140932917594909,-1.0977866649627686,0.1233214288949966,-29.45182228088379,0.8934317827224731,66.58013153076172,25.01,2
-0.2687402963638305,-1.0291671752929688,0.1799005270004272,-23.228235244750977,0.8934289813041687,66.3722915649414,25.01,2
-0.2172442525625229,-0.9907289147377014,0.2274052947759628,-17.736778259277344,0.8934271931648254,66.2389144897461,25.01,2
-0.1618059575557708,-0.9660614728927612,0.2522933483123779,-13.363608360290527,0.8934260606765747,66.1533203125,25.01,2
-0.1542177200317382,-0.9110469222068788,0.2514717280864715,-10.263387680053713,0.8929660320281982,66.098388671875,25.01,2
-0.1549458056688308,-0.8701439499855042,0.2509444653987884,-7.9191694259643555,0.8926708102226257,66.06314086914062,25.01,2
-0.1610108166933059,-0.8438947796821594,0.2394105494022369,-5.594375133514404,0.8924813866615295,66.04051971435547,25.01,2
-0.1537074446678161,-0.838245153427124,0.2264109700918197,-3.160238742828369,0.8923597931861877,66.0260009765625,25.01,2
-0.1490205526351928,-0.8402172923088074,0.2180685997009277,-1.1503281593322754,0.8922817707061768,66.01668548583984,25.01,2
-0.1684038788080215,-0.8582762479782104,0.1959216147661209,0.0463696829974651,0.8922317028045654,66.01070404052734,25.01,2
-0.2088318616151809,-0.8754631876945496,0.1649156361818313,0.5743088722229004,0.8921995759010315,66.00686645507812,25.01,2
-0.2459717541933059,-0.9088838696479796,0.1338222324848175,0.6587470173835754,0.8921789526939392,66.00440979003906,25.01,2
-0.286599338054657,-0.9863091111183168,0.0914771780371666,0.4012504518032074,0.8917067646980286,66.0028305053711,25.01,2
-0.3238673210144043,-1.0471917390823364,0.0587047860026359,0.0353797413408756,0.8914037346839905,66.00181579589844,25.01,2
-0.386968195438385,-1.0246871709823608,0.0600644499063491,-0.127763494849205,0.8912093043327332,66.00116729736328,25.01,2
-0.4274626970291137,-1.0214406251907349,0.0777303278446197,-0.1178170144557952,0.8910844922065735,66.00074768066406,25.01,2
-0.4422541856765747,-1.0921281576156616,0.0890672728419303,-0.1723377257585525,0.8910044431686401,66.00048065185547,25.01,2
-0.4405509531497955,-1.1598825454711914,0.0795493498444557,-0.3040555417537689,0.8909530639648438,66.00030517578125,25.01,2
-0.422664612531662,-1.1585811376571655,0.0734412893652916,-0.3169329166412353,0.8909200429916382,66.00019836425781,25.01,2
-0.3664039969444275,-1.0457905530929563,0.0863148123025894,-0.1424855142831802,0.8908988833427429,66.00012969970703,25.01,2
-0.3414947092533111,-0.9062346816062928,0.1113696247339248,0.05186403170228,0.8904263973236084,66.00008392333984,25.01,2
-0.3367049098014831,-0.8110780119895935,0.1218505874276161,0.0404485017061233,0.890123188495636,66.00005340576172,25.01,2
-0.3560221791267395,-0.7500119209289551,0.1173811107873916,-0.142423540353775,0.8899285793304443,66.00003051757812,25.01,2
-0.374016672372818,-0.7108232378959656,0.1145128607749939,-0.1594681590795517,0.8898037075996399,66.0000228881836,25.01,2
-0.402357816696167,-0.7248585820198059,0.1126721799373626,0.2236768901348114,0.889723539352417,66.00001525878906,25.01,2
-0.4485344290733337,-0.7730501294136047,0.1170887127518653,0.9675353169441224,0.8896721005439758,66.00000762939453,25.01,2
-0.4893634617328644,-0.7759878039360046,0.1311185359954834,1.767332673072815,0.8896390795707703,66.00000762939453,25.01,2
-0.554749608039856,-0.7722752690315247,0.1625131666660308,1.9474170207977293,0.889617919921875,66.00000762939453,25.01,2
-0.602308452129364,-0.7866860628128052,0.1882582157850265,0.9488038420677184,0.8868500590324402,65.57009887695312,25.01,2
-0.6440244913101196,-0.8575096130371094,0.2103776782751083,-0.7560735940933228,0.8850737810134888,65.29420471191406,25.01,2
-0.6595999002456665,-0.9477422833442688,0.2301704436540603,-2.054372787475586,0.8839339017868042,65.11715698242188,25.01,2
-0.6639975309371948,-0.9664639830589294,0.2372745275497436,-2.5077931880950928,0.8832023739814758,65.00353240966797,25.01,2
-0.6724174618721008,-0.995271861553192,0.2530290782451629,-2.4226019382476807,0.8827329277992249,64.93061828613281,25.01,2
-0.6778209209442139,-0.9521835446357728,0.2687371969223022,-2.106403112411499,0.88243168592453,64.88382720947266,25.01,2
-0.6924840807914734,-0.9077386260032654,0.2452311366796493,-1.7064433097839355,0.8822383284568787,64.85379791259766,25.01,2
-0.7018940448760986,-0.9184008836746216,0.190961867570877,-1.26347815990448,0.8821142911911011,64.83452606201172,25.01,2
-0.7079328298568726,-0.9420366287231444,0.1337438821792602,-0.6388639211654663,0.8824935555458069,64.82215881347656,25.01,2
-0.655830442905426,-1.024377942085266,0.0858291238546371,0.2097995430231094,0.8827369809150696,64.81422424316406,25.01,2
-0.5944052338600159,-1.0660243034362793,0.0606779642403125,1.0481940507888794,0.8828932046890259,64.80912780761719,25.01,2
-0.5046061277389526,-1.0311750173568726,0.0501351729035377,1.5790622234344482,0.8829934597015381,64.80586242675781,25.01,2
-0.446978211402893,-0.986419677734375,0.0433694161474704,1.5865633487701416,0.8830577731132507,64.80376434326172,25.01,2
-0.415593683719635,-0.9521005153656006,0.0334297679364681,1.0145825147628784,0.8830990791320801,64.80241394042969,25.01,2
-0.3954529166221618,-0.9076853394508362,0.010257750749588,0.2176089435815811,0.8831255435943604,64.80155181884766,25.01,2
-0.3769299685955047,-0.8735844492912292,-0.010210488922894,-0.2150260955095291,0.8831425309181213,64.80099487304688,25.01,2
-0.342651903629303,-0.8740915656089783,-0.0233458280563354,-0.0985830426216125,0.8808581233024597,64.8006362915039,25.01,2
-0.3094586730003357,-0.9080036878585817,-0.0205797832459211,0.2340888530015945,0.8793920874595642,64.80040740966797,25.01,2
-0.2825593650341034,-0.9577553868293762,-0.01880469545722,0.3186058104038238,0.8784512877464294,64.80026245117188,25.01,2
-0.2373080849647522,-0.9784876108169556,-0.0120677715167403,-0.143046960234642,0.8778475522994995,64.8001708984375,25.01,2
-0.2082684189081192,-0.9582056999206544,-0.0133421756327152,-0.9874432682991028,0.8774600625038147,64.80010986328125,25.01,2
-0.2064257562160492,-0.9451899528503418,-0.025355564430356,-1.626057744026184,0.8772113919258118,64.8000717163086,25.01,2
-0.2612209916114807,-0.95363050699234,-0.0162717420607805,-1.785103440284729,0.877051830291748,64.800048828125,25.01,2
-0.3187765181064605,-0.914264976978302,0.0175466034561395,-1.858509182929993,0.8769494295120239,64.80003356933594,25.01,2
-0.3725056648254394,-0.7490580677986145,0.0952270105481147,-2.210135698318481,0.8782608509063721,64.8000259399414,25.01,2
-0.429377019405365,-0.6262444853782654,0.1562733799219131,-2.589840173721313,0.8791024684906006,64.80001831054688,25.01,2
-0.4938626587390899,-0.7713407874107361,0.201047196984291,-2.389273166656494,0.8796425461769104,64.80001068115234,25.01,2
-0.4568769931793213,-1.0043995380401611,0.2073893547058105,-1.2251964807510376,0.8799891471862793,64.80001068115234,25.01,2
-0.3883595168590545,-1.0811922550201416,0.2002638429403305,0.5607879161834717,0.880211591720581,64.80001068115234,25.01,2
-0.2716178894042969,-1.1024844646453855,0.2012888789176941,1.929049611091613,0.8803543448448181,64.80001068115234,25.01,2
-0.2134931534528732,-1.116148591041565,0.2299355566501617,2.033284902572632,0.8804459571838379,64.80001068115234,25.01,2
-0.2377675622701645,-1.102526307106018,0.2707104384899139,0.9895786046981812,0.8805047273635864,64.80001068115234,25.01,2
-0.2925298810005188,-1.0993821620941162,0.2688885331153869,-0.4182226955890655,0.8787063956260681,64.45249938964844,25.01,2
-0.3332709670066833,-1.1029621362686155,0.2453282475471496,-1.5187101364135742,0.877552330493927,64.22948455810547,25.01,2
-0.3706118166446686,-1.077270746231079,0.2022197395563125,-2.056558609008789,0.876811683177948,64.08636474609375,25.01,2
-0.4001727998256683,-1.038392424583435,0.1745551824569702,-2.165268659591675,0.876336395740509,63.99452209472656,25.01,2
-0.4023500084877014,-0.9574647545814514,0.1512038856744766,-2.2135372161865234,0.8760313987731934,63.93558120727539,25.01,2
-0.3813561201095581,-0.8663456439971924,0.1250228285789489,-2.398563861846924,0.875835657119751,63.89775848388672,25.01,2
-0.3678834438323974,-0.835859477519989,0.0970257744193077,-2.5352163314819336,0.8757100105285645,63.87348556518555,25.01,2
-0.3704330027103424,-0.8890662789344788,0.0566677823662757,-2.271819591522217,0.8756294250488281,63.857906341552734,25.01,2
-0.3776669502258301,-0.9623957872390748,0.0027794770430773,-1.4220973253250122,0.876495897769928,63.84790802001953,25.01,2
-0.3991025984287262,-1.0766277313232422,-0.0541940368711948,-0.0277239736169576,0.8770519495010376,63.84149169921875,25.01,2
-0.4296520948410034,-1.1611307859420776,-0.1019519045948982,1.8666431903839111,0.8774088025093079,63.83737564086914,25.01,2
-0.4436592161655426,-1.1929688453674316,-0.1214046105742454,4.31116247177124,0.8776378035545349,63.83473205566406,25.01,2
-0.4358548521995544,-1.0846518278121948,-0.1674748808145523,6.922443866729736,0.877784788608551,63.833038330078125,25.01,2
-0.4420420229434967,-1.0375313758850098,-0.2250290066003799,8.637621879577637,0.8778790831565857,63.83195114135742,25.01,2
-0.4572081267833709,-1.113649845123291,-0.3067461252212524,8.667134284973145,0.8779395818710327,63.83125305175781,25.01,2
-0.4725386500358581,-1.1904871463775637,-0.3703830242156982,7.417841911315918,0.8779784440994263,63.83080291748047,25.01,2
-0.4208013713359833,-1.195014715194702,-0.4168192744255066,5.910350799560547,0.877544105052948,63.83051681518555,25.01,2
-0.3204260766506195,-1.1587358713150024,-0.4186305403709411,4.659906387329102,0.8772653341293335,63.8303337097168,25.01,2
-0.2448154389858245,-1.141052007675171,-0.3974018096923828,3.635323286056519,0.8770864605903625,63.83021545410156,25.01,2
-0.2130862027406692,-1.0849212408065796,-0.3445940017700195,2.809423923492432,0.8769716620445251,63.83013916015625,25.01,2
-0.2039197534322738,-1.0209108591079712,-0.2995094358921051,2.111027956008911,0.8768979907035828,63.8300895690918,25.01,2
-0.2092328071594238,-0.9630393981933594,-0.2705767452716827,1.175607442855835,0.8768507242202759,63.83005905151367,25.01,2
-0.2294357419013977,-0.9706830382347108,-0.263204962015152,-0.1770324409008026,0.8768203854560852,63.830039978027344,25.01,2
-0.2424008101224899,-0.9979794025421144,-0.2528764009475708,-1.5108137130737305,0.8768008947372437,63.83002471923828,25.01,2
-0.2507210373878479,-1.0546810626983645,-0.2350525856018066,-2.370340347290039,0.8731162548065186,63.83001708984375,25.01,2
-0.2504627108573913,-1.0798733234405518,-0.2124187350273132,-2.8610312938690186,0.870751678943634,63.83001327514648,25.01,2
-0.2391013950109481,-1.0680514574050903,-0.1866980791091919,-3.24399733543396,0.8692342042922974,63.83000946044922,25.01,2
-0.2430059015750885,-1.1164425611495972,-0.1478009521961212,-3.547084331512451,0.868260383605957,63.83000564575195,25.01,2
-0.2735004723072052,-1.0971171855926514,-0.0892523676156997,-3.841900110244751,0.8676354289054871,63.83000564575195,25.01,2
-0.3658411800861358,-0.93917316198349,0.0098962550982832,-4.242467880249023,0.8672344088554382,63.83000564575195,25.01,2
-0.4530889987945556,-0.8042271733283997,0.0735241398215293,-4.596258640289307,0.8669770359992981,63.83000564575195,25.01,2
-0.5538618564605713,-0.9639286398887634,0.0751724317669868,-4.722989082336426,0.8668118715286255,63.83000564575195,25.01,2
-0.5681520700454712,-1.060818076133728,0.0930235385894775,-4.567867279052734,0.8680830001831055,63.58280563354492,25.01,2
-0.5269427299499512,-1.0726162195205688,0.1156748980283737,-3.7732994556427,0.8688987493515015,63.42416763305664,25.01,2
-0.4109325706958771,-1.0801875591278076,0.1637978851795196,-1.9772469997406008,0.8694222569465637,63.32236099243164,25.01,2
-0.3308861553668976,-1.0458619594573977,0.2170715481042862,0.328945517539978,0.8697581887245178,63.25702667236328,25.01,2
-0.3410924971103668,-0.9790515899658204,0.2232706397771835,2.3391482830047607,0.8699737787246704,63.2150993347168,25.01,2
-0.3700334429740906,-0.9361765384674072,0.1712711155414581,3.962360143661499,0.8701121807098389,63.18819427490234,25.01,2
-0.4109971821308136,-0.9086617827415466,0.1099119409918785,5.244076728820801,0.8702009916305542,63.170928955078125,25.01,2
-0.4652742147445678,-0.896602213382721,0.0593396052718162,5.643864631652832,0.8702579736709595,63.15984725952149,25.01,2
-0.505703866481781,-0.8832652568817139,0.0324829667806625,4.951043128967285,0.8689174056053162,63.15273666381836,25.01,2
-0.5148559808731079,-0.8187286257743835,0.0152479242533445,3.88306188583374,0.8680570721626282,63.14817428588867,25.01,2
-0.4983381628990173,-0.7381283044815063,0.0097852405160665,3.0830507278442383,0.8675049543380737,63.14524459838867,25.01,2
-0.4765424430370331,-0.7031970024108887,0.0062796040438115,2.494415283203125,0.8671506643295288,63.14336395263672,25.01,2
-0.4793485105037689,-0.7423556447029114,-0.0127634340897202,1.890960693359375,0.8669232726097107,63.14215850830078,25.01,2
-0.4867470562458038,-0.7898764610290527,-0.0361797101795673,1.2672483921051023,0.8667773604393005,63.14138412475586,25.01,2
-0.5026905536651611,-0.8819481134414673,-0.073598027229309,0.6591963171958923,0.8666837215423584,63.14088821411133,25.01,2
-0.5241177678108215,-1.025001049041748,-0.1032087206840515,0.1543410569429397,0.8666236400604248,63.14057159423828,25.01,2
-0.5322707295417786,-1.0776197910308838,-0.111015610396862,-0.0012649169657379,0.8656668663024902,63.14036560058594,25.01,2
-0.5095139741897583,-0.9658452868461608,-0.1272211670875549,0.2678814232349396,0.8650528788566589,63.140235900878906,25.01,2
-0.5117033123970032,-0.9053103923797609,-0.1656098365783691,0.5659942030906677,0.8646588325500488,63.14015197753906,25.01,2
-0.5522927045822144,-1.0008091926574707,-0.2126365751028061,0.3309793174266815,0.8644059896469116,63.140098571777344,25.01,2
-0.6007317304611206,-1.062094807624817,-0.248413398861885,-0.5578503012657166,0.8642436861991882,63.14006423950195,25.01,2
-0.5870349407196045,-1.0678377151489258,-0.2545795738697052,-1.6441408395767212,0.8641395568847656,63.14004135131836,25.01,2
-0.4998762607574463,-1.0323387384414673,-0.2193522602319717,-2.3770854473114014,0.8640727400779724,63.1400260925293,25.01,2
-0.410356193780899,-0.9927642941474916,-0.1855498552322387,-2.6289098262786865,0.8640298247337341,63.1400146484375,25.01,2
-0.3529073894023895,-0.9617698788642884,-0.1470640897750854,-2.6436307430267334,0.8617069125175476,63.14001083374024,25.01,2
-0.3440289199352264,-0.936281681060791,-0.1111705899238586,-2.6100869178771973,0.8602162003517151,63.14000701904297,25.01,2
-0.3439289927482605,-0.9311203956604004,-0.0881362110376358,-2.5061609745025635,0.8592595458030701,63.1400032043457,25.01,2
-0.3214737772941589,-0.9613947868347168,-0.0677562952041626,-2.2710864543914795,0.8586456179618835,63.1400032043457,25.01,2
-0.295867770910263,-0.9976164698600768,-0.0490798652172088,-1.9267699718475344,0.858251690864563,63.1400032043457,25.01,2
-0.2682397365570068,-1.0264592170715332,-0.0258988570421934,-1.519513487815857,0.8579988479614258,63.1400032043457,25.01,2
-0.2393141090869903,-1.0617622137069702,-0.0166203957051038,-1.1721779108047483,0.8578366041183472,63.1400032043457,25.01,2
-0.2319468557834625,-1.0788198709487915,-0.0162637885659933,-1.0782506465911863,0.8577324748039246,63.1400032043457,25.01,2
-0.2440123111009597,-1.1009620428085327,-0.0216327123343944,-1.2544236183166504,0.8595020771026611,62.95370864868164,24.99,2
-0.2685485482215881,-1.131964921951294,-0.0138826295733451,-1.517949461936951,0.8606377243995667,62.83415603637695,24.99,2
-0.3458700180053711,-1.1630563735961914,0.0358731262385845,-1.7264734506607056,0.8613665103912354,62.75743103027344,24.99,2
-0.4402726590633392,-1.1214334964752195,0.1517701297998428,-1.881787657737732,0.8618342280387878,62.708194732666016,24.99,2
-0.4952570796012878,-1.0499401092529297,0.2373416870832443,-1.9420509338378904,0.8621343374252319,62.67659759521485,24.99,2
-0.3682074546813965,-1.0264508724212646,0.2642677128314972,-1.7084487676620483,0.8623269200325012,62.65632247924805,24.99,2
-0.2195010334253311,-1.0337679386138916,0.2815473079681396,-0.996071994304657,0.8624505400657654,62.643310546875,24.99,2
-0.0792876183986663,-1.055256962776184,0.3542118668556213,0.0199722349643707,0.8625298738479614,62.63496017456055,24.99,2
-0.045284453779459,-1.0018740892410278,0.4064415693283081,1.0696768760681152,0.8634986281394958,62.62960052490234,24.99,2
-0.0626476034522056,-0.939627170562744,0.41197070479393,2.3201115131378174,0.864120364189148,62.62615966796875,24.99,2
-0.1465613394975662,-0.8716918230056763,0.3651390373706817,3.9608912467956543,0.8645193576812744,62.62395095825195,24.99,2
-0.2228034436702728,-0.8280947804450989,0.3294873833656311,5.336280822753906,0.8647754192352295,62.622535705566406,24.99,2
-0.2885245680809021,-0.8001167178153992,0.2954126596450805,5.502411842346191,0.8649396896362305,62.62162780761719,24.99,2
-0.3362983763217926,-0.7821620106697083,0.2623499035835266,4.459018230438232,0.8650451302528381,62.62104415893555,24.99,2
-0.3725546300411224,-0.7706397175788879,0.2411321401596069,3.112321615219116,0.8651127815246582,62.62067031860352,24.99,2
-0.3846262395381927,-0.7352564930915833,0.2051246911287307,2.1764376163482666,0.8651562333106995,62.62042999267578,24.99,2
-0.4035686552524566,-0.7293429374694824,0.1708216369152069,1.615249514579773,0.8633480072021484,62.62027740478516,24.99,2
-0.4269203543663025,-0.8039167523384094,0.1432101428508758,1.108225703239441,0.8621876239776611,62.62017822265625,24.99,2
-0.4531016945838928,-0.885360598564148,0.1086973473429679,0.5750575661659241,0.8614429235458374,62.620113372802734,24.99,2
-0.475501149892807,-0.9376266002655028,0.0697557032108306,0.1505016982555389,0.8609650135040283,62.62007141113281,24.99,2
-0.4898758232593536,-1.0607322454452517,0.0447651967406272,-0.1147886142134666,0.8606583476066589,62.62004470825195,24.99,2
-0.5046984553337097,-1.0949522256851196,0.0399232767522335,-0.2277154773473739,0.8604615330696106,62.62002944946289,24.99,2
-0.5030152201652527,-0.948979377746582,0.0815982073545456,-0.0314922630786895,0.8603352308273315,62.62001800537109,24.99,2
-0.4739461243152618,-0.9112801551818848,0.0803539082407951,0.5243415832519531,0.860254168510437,62.62001037597656,24.99,2
-0.4552912414073944,-1.0270313024520874,0.068359836935997,0.9491127133369446,0.8606610894203186,62.6200065612793,24.99,2
-0.4657107293605804,-1.0957159996032717,0.1222382485866546,0.6628245711326599,0.8609222173690796,62.62000274658203,24.99,2
-0.4556040167808532,-1.072620511054993,0.1736076325178146,-0.1765100061893463,0.861089825630188,62.62000274658203,24.99,2
-0.3931403756141662,-0.9738326072692872,0.2513557374477386,-1.0125004053115845,0.8611973524093628,62.62000274658203,24.99,2
-0.3754459023475647,-0.8488606810569763,0.3180433213710785,-1.806936502456665,0.8612663745880127,62.62000274658203,24.99,2
-0.3808839321136474,-0.7742586731910706,0.3440462648868561,-2.8004074096679688,0.8613106608390808,62.62000274658203,24.99,2
-0.3843737542629242,-0.8047522306442261,0.3495379090309143,-3.6994879245758057,0.8613390922546387,62.62000274658203,24.99,2
-0.3698199987411499,-0.8579078912734985,0.3586598932743072,-3.979112386703491,0.8613573312759399,62.62000274658203,24.99,2
-0.3045024871826172,-0.8752267956733704,0.3701116442680359,-3.7608933448791504,0.8586147427558899,62.43729019165039,25.01,2
-0.2401943653821945,-0.8639500141143799,0.383058488368988,-3.635183095932007,0.8568547368049622,62.32003784179688,25.01,2
-0.2101206630468368,-0.8623110055923462,0.3801714777946472,-3.8052899837493896,0.8557252287864685,62.24478912353516,25.01,2
-0.2020166367292404,-0.8836502432823181,0.3503298759460449,-3.996853828430176,0.855000376701355,62.19649887084961,25.01,2
-0.202413722872734,-0.9029422998428344,0.3143859505653381,-4.008728981018066,0.8545352220535278,62.16551208496094,25.01,2
-0.2138640880584716,-0.9377139806747437,0.2577325403690338,-3.962610960006714,0.8542367219924927,62.145626068115234,25.01,2
-0.243603378534317,-1.0216039419174194,0.1933867782354354,-4.130056381225586,0.8540451526641846,62.13286209106445,25.01,2
-0.2850794494152069,-1.1146241426467896,0.1464955955743789,-4.6423444747924805,0.8539222478866577,62.12467193603516,25.01,2
-0.345283031463623,-1.1799168586730957,0.1387946307659149,-5.186056137084961,0.85476154088974,62.119415283203125,25.01,2
-0.3895159959793091,-1.1658402681350708,0.1674392521381378,-5.259120464324951,0.8553001880645752,62.11604309082031,25.01,2
-0.3899132907390594,-0.944091260433197,0.2250061333179474,-4.722049236297607,0.8556458353996277,62.1138801574707,25.01,2
-0.3677771687507629,-0.8913499116897583,0.2675470113754272,-3.832836389541626,0.8558676838874817,62.112491607666016,25.01,2
-0.3535714745521545,-0.969459056854248,0.294847309589386,-2.635240077972412,0.8560100197792053,62.11159896850586,25.01,2
-0.3556506335735321,-1.0139871835708618,0.2899759709835052,-0.5877121090888977,0.856101393699646,62.111026763916016,25.01,2
-0.3513871431350708,-0.9697917699813844,0.2756542861461639,2.7755069732666016,0.8561599850654602,62.11066055297852,25.01,2
-0.3430533111095428,-0.8630608320236206,0.277658998966217,6.692871570587158,0.8561975955963135,62.11042404174805,25.01,2
-0.337705135345459,-0.7777737379074097,0.2845432758331299,9.389522552490234,0.8553035259246826,62.11027145385742,25.01,2
-0.345468521118164,-0.7342369556427002,0.2777656614780426,9.855428695678713,0.8547297716140747,62.11017608642578,25.01,2
-0.3728417158126831,-0.7342864274978638,0.256622850894928,8.6067476272583,0.8543615937232971,62.11011505126953,25.01,2
-0.4016038179397583,-0.7455137372016907,0.2374568432569503,6.598087787628174,0.8541253209114075,62.11007308959961,25.01,2
-0.4312572181224823,-0.7471209764480591,0.208363875746727,4.449227333068848,0.8539736866950989,62.11004638671875,25.01,2
-0.4558848440647125,-0.6753813624382019,0.167302593588829,2.636720895767212,0.8538763523101807,62.11003112792969,25.01,2
-0.4940805435180664,-0.6293429732322693,0.1297562718391418,1.4305676221847534,0.853813886642456,62.11001968383789,25.01,2
-0.5297878980636597,-0.6669715046882629,0.1056612059473991,0.7389271855354309,0.853773832321167,62.11001205444336,25.01,2
-0.552702784538269,-0.7191081643104553,0.0957961529493331,0.4276274442672729,0.853748083114624,62.110008239746094,25.01,2
-0.5953971147537231,-0.8477286696434021,0.072672002017498,0.525206983089447,0.8537315726280212,62.11000442504883,25.01,2
-0.6395891904830933,-0.8239122033119202,0.0970166772603988,0.9890764355659484,0.8537209630012512,62.11000442504883,25.01,2
-0.6511558294296265,-0.7302592992782593,0.1294330060482025,1.4479769468307495,0.8537141680717468,62.11000442504883,25.01,2
-0.6641764044761658,-0.7093426585197449,0.1502359509468078,1.230164647102356,0.8537098169326782,62.11000442504883,25.01,2
-0.6669344902038574,-0.8246684074401855,0.1691838502883911,-0.0345435589551925,0.8537070155143738,62.11000442504883,25.01,2
-0.6127267479896545,-1.0274266004562378,0.2261257171630859,-1.5698407888412476,0.8537052273750305,62.11000442504883,25.01,2
-0.5331571102142334,-1.0455896854400637,0.3186454772949219,-1.9317378997802728,0.8537040948867798,62.11000442504883,25.01,2
-0.465300589799881,-1.001267910003662,0.3892148733139038,-0.8491774201393127,0.8518672585487366,62.5721549987793,24.99,2
-0.4217541813850403,-0.9224448204040528,0.4289044737815857,0.3829338550567627,0.8506885170936584,62.86873626708984,24.99,2
-0.3826130330562591,-0.871860682964325,0.4487771987915039,0.7150623202323914,0.849932074546814,63.05906677246094,24.99,2
-0.3351034224033355,-0.867387592792511,0.444737046957016,0.4302252233028412,0.8494465947151184,63.18120956420898,24.99,2
-0.2822233736515045,-0.8925058841705322,0.419753223657608,0.2044422626495361,0.8491350412368774,63.25959396362305,24.99,2
-0.2314946800470352,-0.903027594089508,0.3981222808361053,0.145529568195343,0.8489351272583008,63.30989456176758,24.99,2
-0.1765488386154174,-0.898584246635437,0.3618496656417846,0.0969750806689262,0.8488068580627441,63.3421745300293,24.99,2
-0.1412877589464187,-0.8901349902153015,0.3273764550685882,0.1267193853855133,0.8487245440483093,63.362892150878906,24.99,2
-0.1242569983005523,-0.890310525894165,0.277264654636383,0.3894227147102356,0.8482127785682678,63.37618637084961,24.99,2
-0.1357187330722808,-0.929607629776001,0.2059213668107986,0.7299742102622986,0.8478843569755554,63.38471984863281,24.99,2
-0.1430742144584655,-0.9772173166275024,0.1433440297842025,0.812382698059082,0.8476735949516296,63.39019393920898,24.99,2
-0.1310012191534042,-1.0357593297958374,0.05280552059412,0.5285056233406067,0.8475382924079895,63.39370727539063,24.99,2
-0.1232534646987915,-1.1237082481384275,-0.0220901984721422,0.0525584332644939,0.8474515080451965,63.39596176147461,24.99,2
-0.1462702751159668,-1.230528712272644,-0.092545062303543,-0.435588389635086,0.8473957777023315,63.39740753173828,24.99,2
-0.2058233320713043,-1.2990800142288208,-0.1097700670361518,-0.7703484296798706,0.8473600149154663,63.39833831787109,24.99,2
-0.2496388256549835,-1.2087256908416748,-0.0760418847203254,-0.7702236175537109,0.8473370671272278,63.39893341064453,24.99,2
-0.238572672009468,-1.0499814748764038,0.0239717606455087,-0.5121980905532837,0.8482401967048645,63.39931488037109,24.99,2
-0.1922866255044937,-1.0040863752365112,0.1217414066195488,-0.2319697141647339,0.8488197922706604,63.399559020996094,24.99,2
-0.1122029423713684,-1.080991268157959,0.1564954668283462,0.284626841545105,0.8491917252540588,63.39971923828125,24.99,2
-0.0328209698200225,-1.0519754886627195,0.100429780781269,1.461636662483215,0.8494304418563843,63.39982223510742,24.99,2
0.0013284884626045,-0.9997682571411132,0.0476567335426807,2.822429180145264,0.849583625793457,63.39988708496094,24.99,2
-0.0439296476542949,-0.9438735246658324,0.0081922523677349,3.1690688133239746,0.8496819138526917,63.39992904663086,24.99,2
-0.1121581345796585,-0.9080035090446472,-0.0059382328763604,2.248680353164673,0.849744975566864,63.39995574951172,24.99,2
-0.178334355354309,-0.8793864250183105,-0.0038108159787952,1.0525728464126587,0.8497854471206665,63.39997100830078,24.99,2
-0.2096068859100341,-0.8498260974884033,-0.0136411115527153,0.284979909658432,0.8470571637153625,63.39998245239258,24.99,2
-0.2296757996082306,-0.8364537358283997,-0.0311451777815818,-0.1574609726667404,0.8453062772750854,63.39999008178711,24.99,2
-0.2481526434421539,-0.8054810166358948,-0.0535738281905651,-0.2658478617668152,0.8441826701164246,63.399993896484375,24.99,2
-0.2712055742740631,-0.7800067663192749,-0.056771695613861,0.116000197827816,0.8434616327285767,63.39999771118164,24.99,2
-0.2859996259212494,-0.791647732257843,-0.0532261282205581,0.6154111623764038,0.8429989218711853,63.39999771118164,24.99,2
-0.3066891431808471,-0.8494982123374939,-0.0397552400827407,0.6994543671607971,0.8427019715309143,63.39999771118164,24.99,2
-0.3199664652347564,-0.9426010251045228,-0.0311103984713554,0.4488695561885834,0.8425114154815674,63.39999771118164,24.99,2
-0.3452804088592529,-1.0751200914382937,-0.0031715398654341,0.1841639578342437,0.8423891067504883,63.39999771118164,24.99,2
-0.3783187866210937,-1.120978832244873,0.0371491089463233,-0.2078285813331604,0.8450648784637451,64.75421142578125,25.01,2
-0.4107164442539215,-0.9824751019477844,0.1022090017795562,-0.9896080493927002,0.8467820286750793,65.6232681274414,25.01,2
-0.4371051788330078,-0.9775579571723938,0.171949565410614,-2.11109471321106,0.8478839993476868,66.18097686767578,25.01,2
-0.4596377313137054,-1.075162410736084,0.2334983646869659,-3.253544330596924,0.8485912084579468,66.53888702392578,25.01,2
-0.4237178564071655,-1.14899480342865,0.3065834939479828,-3.9365463256835938,0.8490450382232666,66.76856994628906,25.01,2
-0.3838732242584228,-1.134800672531128,0.3702786564826965,-3.70491623878479,0.8493362665176392,66.91596984863281,25.01,2
-0.3415099084377289,-1.058518409729004,0.4447411894798279,-2.517322540283203,0.8495231866836548,67.01055908203125,25.01,2
-0.3143235743045807,-0.992771565914154,0.4813314080238342,-0.8344711065292358,0.8496431112289429,67.0712661743164,25.01,2
-0.2912791669368744,-0.9225901365280152,0.488019585609436,0.7148033380508423,0.847425103187561,67.11022186279297,25.01,2
-0.2708928287029266,-0.8887472748756409,0.4923116564750671,1.719786286354065,0.8460016846656799,67.13522338867188,25.01,2
-0.2410167157649994,-0.8782244324684143,0.4838705062866211,2.2178409099578857,0.8450882434844971,67.1512680053711,25.01,2
-0.2106484025716781,-0.8434826135635376,0.4504646062850952,2.5338809490203857,0.8445020318031311,67.16156005859375,25.01,2
-0.1911597698926925,-0.83238285779953,0.3954399824142456,2.704454183578491,0.8441258668899536,67.16816711425781,25.01,2
-0.1898486316204071,-0.8308574557304382,0.3433350026607513,2.416252374649048,0.8438844680786133,67.17240905761719,25.01,2
-0.2058005332946777,-0.8242807388305664,0.2875059247016907,1.636593461036682,0.8437294960021973,67.17512512207031,25.01,2
-0.2160375565290451,-0.8312557339668274,0.2460802644491195,0.7350048422813416,0.8436300754547119,67.17687225341797,25.01,2
-0.2338026314973831,-0.9141007661819458,0.2027023434638977,0.0417746864259243,0.8444841504096985,67.17799377441406,25.01,2
-0.2675943374633789,-1.0232436656951904,0.1692671179771423,-0.3959352970123291,0.8450322151184082,67.1787109375,25.01,2
-0.2836821377277374,-1.1212741136550903,0.1366147696971893,-0.637424111366272,0.8453839421272278,67.1791763305664,25.01,2
-0.3107996881008148,-1.212173342704773,0.1100625917315483,-0.6849204301834106,0.8456096649169922,67.17947387695312,25.01,2
-0.3449954986572265,-1.197736144065857,0.1098162531852722,-0.4252122044563293,0.8457545042037964,67.1796646118164,25.01,2
-0.4341136813163757,-0.9869512915611268,0.1992225646972656,0.2430141717195511,0.845847487449646,67.1797866821289,25.01,2
-0.5080979466438293,-0.7789106369018555,0.3013805747032165,1.1447434425354004,0.8459071516990662,67.17986297607422,25.01,2
-0.527587890625,-0.7125754356384277,0.3557441532611847,2.05660080909729,0.845945417881012,67.1799087524414,25.01,2
-0.4449332654476166,-0.7987541556358337,0.3570449352264404,3.021531343460083,0.8441339135169983,67.17993927001953,25.01,2
-0.3583036363124847,-0.8876453042030334,0.3466841578483581,3.877218246459961,0.8429713845252991,67.17996215820312,25.01,2
-0.2971119284629822,-0.8775172829627991,0.3176440894603729,4.053761005401611,0.8422253727912903,67.17997741699219,25.01,2
-0.2858315110206604,-0.8206377029418945,0.3102034032344818,3.41829776763916,0.8417466282844543,67.17998504638672,25.01,2
-0.2897879183292389,-0.7953312397003174,0.2998306155204773,2.4802727699279785,0.8414393663406372,67.17999267578125,25.01,2
-0.3147180080413818,-0.8182753920555115,0.2819784283638,1.408984899520874,0.8412421941757202,67.17999267578125,25.01,2
-0.3251189291477203,-0.8329996466636658,0.2649241387844085,-0.0344294533133506,0.8411156535148621,67.17999267578125,25.01,2
-0.3205980956554413,-0.8312532901763916,0.2483818978071212,-1.6951576471328735,0.841034471988678,67.17999267578125,25.01,2
-0.3232946693897247,-0.8077414631843567,0.2265705019235611,-3.151418209075928,0.8432776927947998,68.30850982666016,24.99,2
-0.3306229412555694,-0.7814573645591736,0.2125732004642486,-4.42272424697876,0.844717264175415,69.03272247314453,24.99,2
-0.352119117975235,-0.7589919567108154,0.2035905420780182,-5.765213966369629,0.8456411361694336,69.49748229980469,24.99,2
-0.3659141361713409,-0.7669660449028015,0.1922282129526138,-7.013664722442627,0.8462340235710144,69.79573822021484,24.99,2
-0.3747669756412506,-0.8168655633926392,0.1625454276800155,-7.714536666870117,0.8466144800186157,69.98714447021484,24.99,2
-0.3972415626049042,-0.8992682099342346,0.11550784856081,-7.73798942565918,0.8468586206436157,70.10997772216797,24.99,2
-0.4172622263431549,-0.9913339018821716,0.0685285180807113,-7.30880069732666,0.8470153212547302,70.18880462646484,24.99,2
-0.458099216222763,-1.139980673789978,0.0159887857735157,-6.739600658416748,0.8471158742904663,70.23938751220703,24.99,2
-0.5010993480682373,-1.2633625268936155,0.0046629081480205,-6.338495254516602,0.8458032608032227,70.2718505859375,24.99,2
-0.5342921614646912,-1.1186308860778809,-0.0138009376823902,-6.073923587799072,0.8449608683586121,70.29268646240234,24.99,2
-0.5220067501068115,-1.1656948328018188,-0.0928232669830322,-5.244943141937256,0.844420313835144,70.3060531616211,24.99,2
-0.4917315542697906,-1.2854621410369873,-0.143535241484642,-3.1545305252075195,0.8440734148025513,70.31463623046875,24.99,2
-0.3939338624477386,-1.3791152238845823,-0.1480904072523117,-0.0969703868031501,0.8438507914543152,70.32014465332031,24.99,2
-0.2919884920120239,-1.3888365030288696,-0.1342203170061111,2.896977663040161,0.8437079191207886,70.32367706298828,24.99,2
-0.1817836314439773,-1.3782817125320437,-0.0917326509952545,5.026110649108887,0.843616247177124,70.32594299316406,24.99,2
-0.1446471363306045,-1.3435193300247192,-0.0588687360286712,6.066451072692871,0.8435574173927307,70.32740020751953,24.99,2
-0.1320106238126754,-1.310015320777893,-0.0489741154015064,6.189529895782471,0.8426014184951782,70.32833099365234,24.99,2
-0.1294990181922912,-1.249329924583435,-0.0706131905317306,5.813528060913086,0.8419879078865051,70.32892608642578,24.99,2
-0.1166916638612747,-1.176798939704895,-0.0900976732373237,5.332199096679688,0.8415942192077637,70.32931518554688,24.99,2
-0.1140704154968261,-1.1022638082504272,-0.0914061442017555,4.743868827819824,0.8413415551185608,70.32955932617188,24.99,2
-0.1291815638542175,-1.0320403575897217,-0.0698547512292862,3.7716047763824463,0.8411794304847717,70.32971954345703,24.99,2
-0.1556723564863205,-0.9813772439956664,-0.0504265315830707,2.416816234588623,0.8410753607749939,70.32981872558594,24.99,2
-0.1950637251138687,-0.971255660057068,-0.0267630722373724,1.0924038887023926,0.8410086035728455,70.32988739013672,24.99,2
-0.2259406149387359,-0.9647601842880248,-0.0115772243589162,0.1063344404101371,0.840965747833252,70.32992553710938,24.99,2
-0.2457556277513504,-0.954994022846222,-0.0130273709073662,-0.5013902187347412,0.8400200009346008,70.3299560546875,24.99,2
-0.2920584082603454,-0.8255756497383118,0.0308242030441761,-0.7050989866256714,0.8394131064414978,70.32997131347656,24.99,2
-0.3441639542579651,-0.664153516292572,0.0925522670149803,-0.545638918876648,0.8390236496925354,70.3299789428711,24.99,2
-0.4335800409317016,-0.5885509252548218,0.1601546555757522,-0.2605952620506286,0.8387737274169922,70.32998657226562,24.99,2
-0.5189509987831116,-0.6631845831871033,0.2147335261106491,-0.0884183719754219,0.8386133313179016,70.32999420166016,24.99,2
-0.5569438338279724,-0.8230356574058533,0.2945412993431091,-0.0603243969380855,0.8385103940963745,70.32999420166016,24.99,2
-0.4917610883712768,-0.869641125202179,0.3121706843376159,0.0759296938776969,0.8384443521499634,70.32999420166016,24.99,2
-0.4107461273670196,-0.9163431525230408,0.3122886717319488,0.8153985738754272,0.8384019732475281,70.32999420166016,24.99,2
-0.3531576097011566,-0.9463138580322266,0.3235599398612976,2.217833995819092,0.8356204628944397,71.20414733886719,25.01,2
-0.3441894948482513,-0.9655473232269288,0.3363909423351288,3.379364490509033,0.8338354825973511,71.76512145996094,25.01,2
-0.3832164704799652,-0.966694712638855,0.3446251451969147,3.3509316444396973,0.8326899409294128,72.1251220703125,25.01,2
-0.425055056810379,-0.9394421577453612,0.3163227438926697,2.30806827545166,0.831954836845398,72.35615539550781,25.01,2
-0.4575024247169494,-0.9163552522659302,0.2701710164546966,1.0763542652130127,0.8314830660820007,72.5044174194336,25.01,2
-0.4671297371387481,-0.8959416747093201,0.1957713067531585,0.1031997725367546,0.8311803340911865,72.59956359863281,25.01,2
-0.4733079969882965,-0.8772436380386353,0.1480258554220199,-0.5893836617469788,0.8309860229492188,72.6606216430664,25.01,2
-0.4492839574813843,-0.8820376396179199,0.1117877960205078,-1.0410089492797852,0.8308613300323486,72.6998062133789,25.01,2
-0.4170733988285064,-0.901907444000244,0.082934521138668,-1.2842626571655271,0.8321584463119507,72.7249526977539,25.01,2
-0.3740114271640777,-0.9706364870071412,0.0420270524919033,-1.379465103149414,0.8329908847808838,72.7410888671875,25.01,2
-0.335181176662445,-1.042731761932373,-0.0346049778163433,-1.390404462814331,0.8335251212120056,72.7514419555664,25.01,2
-0.3158599138259887,-1.1001938581466677,-0.1061740964651107,-1.35443377494812,0.8338679075241089,72.75808715820312,25.01,2
-0.3258517384529114,-1.1650586128234863,-0.1856896877288818,-1.2489506006240845,0.8340879082679749,72.7623519897461,25.01,2
-0.3490572571754455,-1.201087236404419,-0.2311204373836517,-1.023624300956726,0.8342291116714478,72.76509094238281,25.01,2
-0.347155898809433,-1.1066551208496094,-0.2882641553878784,-0.6246599555015564,0.8343197107315063,72.766845703125,25.01,2
-0.3515334725379944,-1.1412161588668823,-0.358522355556488,-0.1142647489905357,0.8343778848648071,72.76797485351562,25.01,2
-0.3767338693141937,-1.1913843154907229,-0.3924144804477691,0.1523737162351608,0.8325791358947754,72.7686996459961,25.01,2
-0.3985037803649902,-1.2179815769195557,-0.3861756026744842,-0.1816562116146087,0.8314247727394104,72.7691650390625,25.01,2
-0.4012789130210876,-1.223854660987854,-0.3709762990474701,-0.8438393473625183,0.8306840062141418,72.76946258544922,25.01,2
-0.3526798784732818,-1.2164281606674194,-0.3388311862945556,-1.1720608472824097,0.8302085995674133,72.7696533203125,25.01,2
-0.2767096161842346,-1.189271092414856,-0.2846156358718872,-0.9312899708747864,0.8299035429954529,72.769775390625,25.01,2
-0.2167607247829437,-1.1550499200820925,-0.2386276721954345,-0.4901710152626037,0.8297077417373657,72.76985168457031,25.01,2
-0.1782889813184738,-1.088306546211243,-0.1755286008119583,-0.2285817265510559,0.8295820951461792,72.76990509033203,25.01,2
-0.1536000221967697,-1.0286811590194702,-0.1238396987318992,-0.311489075422287,0.8295014500617981,72.76993560791016,25.01,2
-0.1601471751928329,-1.012808084487915,-0.0738754123449325,-0.787438154220581,0.8280725479125977,72.76995849609375,25.01,2
-0.1867398619651794,-1.0362083911895752,-0.0362134389579296,-1.5980180501937866,0.827155590057373,72.76997375488281,25.01,2
-0.2094032913446426,-1.0512253046035769,-0.0120441503822803,-2.537362813949585,0.8265671133995056,72.76998138427734,25.01,2
-0.2183495908975601,-1.032873511314392,-0.0189247913658618,-3.4017083644866943,0.8261894583702087,72.76998901367188,25.01,2
-0.2128952592611313,-1.0266940593719482,-0.0345359407365322,-4.167767524719238,0.825947105884552,72.76998901367188,25.01,2
-0.1870038956403732,-1.1010973453521729,-0.0613476000726223,-4.885082244873047,0.825791597366333,72.76998901367188,25.01,2
-0.1871816217899322,-1.098465085029602,-0.0617604553699493,-5.438560485839844,0.825691819190979,72.76998901367188,25.01,2
-0.2208823263645172,-0.9792225956916808,-0.0284387562423944,-5.700604438781738,0.8256277441978455,72.76998901367188,25.01,2
-0.2928894758224487,-0.7683530449867249,0.043325163424015,-5.965498447418213,0.8260459303855896,73.4936752319336,24.99,2
-0.3614906072616577,-0.7281912565231323,0.0781835690140724,-6.708704471588135,0.8263142704963684,73.95809173583984,24.99,2
-0.4167104065418243,-0.8815465569496155,0.0837603583931922,-7.619143009185791,0.8264864683151245,74.2561264038086,24.99,2
-0.418560653924942,-0.8792011737823486,0.1097303181886673,-7.400913238525391,0.8265969753265381,74.4473876953125,24.99,2
-0.3581725358963012,-0.883293867111206,0.1375918984413147,-5.0468339920043945,0.8266679048538208,74.57012939453125,24.99,2
-0.2690389454364776,-0.9195069670677184,0.1722651720046997,-0.9423366189002992,0.8267134428024292,74.6489028930664,24.99,2
-0.2342292219400406,-0.94274640083313,0.2001142650842666,3.604789018630981,0.8267426490783691,74.69945526123047,24.99,2
-0.2790636420249939,-0.9912468194961548,0.2235839813947677,7.3826904296875,0.8267614245414734,74.73189544677734,24.99,2
-0.341422438621521,-1.039164900779724,0.2050588428974151,9.846538543701172,0.8249370455741882,74.7527084350586,24.99,2
-0.3926362693309784,-1.053122639656067,0.1819749325513839,11.166166305541992,0.8237662315368652,74.76606750488281,24.99,2
-0.4311001300811767,-1.0172977447509766,0.1727587878704071,11.61177921295166,0.8230148553848267,74.77464294433594,24.99,2
-0.4669795930385589,-0.9719162583351136,0.1724421679973602,11.016433715820312,0.8225327134132385,74.78014373779297,24.99,2
-0.5179938077926636,-0.9148041605949402,0.1442501097917556,9.269413948059082,0.8222232460975647,74.78367614746094,24.99,2
-0.5227429270744324,-0.8893484473228455,0.0981691926717758,6.8800458908081055,0.8220247030258179,74.78594207763672,24.99,2
-0.514595091342926,-0.8842080235481262,0.0574015639722347,4.483286380767822,0.8218972682952881,74.78739929199219,24.99,2
-0.4813774228096008,-0.9368869066238404,0.025641469284892,2.4221279621124268,0.8218154907226562,74.788330078125,24.99,2
-0.443266898393631,-1.0266709327697754,0.0052596693858504,1.016995906829834,0.8231401443481445,74.78892517089844,24.99,2
-0.3908208906650543,-1.151462435722351,0.0145709011703729,0.4161994159221649,0.8239902257919312,74.78931427001953,24.99,2
-0.3459685146808624,-1.0636131763458252,0.0373396389186382,0.2814231216907501,0.8245357871055603,74.78955841064453,24.99,2
-0.3171848356723785,-0.9680522084236144,0.0239624306559562,0.3131564557552337,0.824885904788971,74.78971862792969,24.99,2
-0.3378975689411163,-1.097051024436951,-0.0573933608829975,0.4553286433219909,0.8251105546951294,74.7898178100586,24.99,2
-0.3735809028148651,-1.2470083236694336,-0.1263961493968963,0.4283415973186493,0.8252547383308411,74.78988647460938,24.99,2
-0.4188714921474457,-1.2592756748199463,-0.1874714940786361,0.0670956149697303,0.8253472447395325,74.78992462158203,24.99,2
-0.3527742326259613,-1.1719859838485718,-0.1986772567033767,-0.1933919042348861,0.8254066109657288,74.78995513916016,24.99,2
-0.2823679447174072,-1.0879795551300049,-0.1890751421451568,-0.0202131066471338,0.8254446983337402,74.78997039794922,24.99,2
-0.2259896844625473,-1.0060802698135376,-0.1605219691991806,0.3918594419956207,0.8254691958427429,74.78997802734375,24.99,2
-0.2122004628181457,-0.9479241967201232,-0.1421981751918792,1.0432220697402954,0.8254848718643188,74.78998565673828,24.99,2
-0.2257424294948578,-0.8882119059562683,-0.1304390281438827,2.0631017684936523,0.8254949450492859,74.78999328613281,24.99,2
-0.2456284314393997,-0.8554897904396057,-0.122892677783966,2.8501572608947754,0.8255014419555664,74.78999328613281,24.99,2
-0.2583901286125183,-0.8568816781044006,-0.1124520897865295,2.563494920730591,0.8255056142807007,74.78999328613281,24.99,2
-0.2497865259647369,-0.8969593644142151,-0.0889585986733436,1.3441671133041382,0.8255082368850708,74.78999328613281,24.99,2
-0.2386674582958221,-0.9450700283050536,-0.0626862794160842,0.0708598122000694,0.8255099654197693,74.78999328613281,24.99,2
-0.2259341031312942,-1.037520170211792,-0.0178373474627733,-0.7641883492469788,0.8227567672729492,75.3918685913086,24.99,2
-0.2177625745534896,-1.0408716201782229,0.055726308375597,-1.3609780073165894,0.8209899067878723,75.77811431884766,24.99,2
-0.2293118685483932,-1.0878045558929443,0.108533002436161,-2.0377345085144043,0.8198560476303101,76.02598571777344,24.99,2
-0.2423213273286819,-1.1571078300476074,0.1424213051795959,-2.790886878967285,0.8191283941268921,76.18505859375,24.99,2
-0.2450722754001617,-1.2967448234558103,0.1417777687311172,-3.4640934467315674,0.8186614513397217,76.28713989257812,24.99,2
-0.3196087479591369,-1.1904337406158447,0.2645158171653747,-4.00359582901001,0.8183618187904358,76.35265350341797,24.99,2
-0.3506486415863037,-1.0438405275344849,0.3656731247901916,-4.313991546630859,0.8181695342063904,76.39469146728516,24.99,2
-0.2921994030475616,-1.000145435333252,0.4026011824607849,-4.219414710998535,0.8180460929870605,76.42166900634766,24.99,2
-0.1707234382629394,-1.0336799621582031,0.4095061719417572,-3.8649494647979736,0.8175079822540283,76.4389877319336,24.99,2
-0.0759738311171531,-1.049602746963501,0.4195351600646972,-3.615978479385376,0.8171626329421997,76.4500961303711,24.99,2
-0.0263645313680171,-1.0542232990264893,0.4483622908592224,-3.4382903575897217,0.8169410228729248,76.45722961425781,24.99,2
-0.0505058839917182,-0.9732218980789183,0.4444707930088043,-2.8621082305908203,0.8167988061904907,76.46180725097656,24.99,2
-0.1051828414201736,-0.8932509422302246,0.4083867967128753,-1.5322173833847046,0.8167074918746948,76.4647445678711,24.99,2
-0.1850535571575164,-0.8531257510185242,0.3292524218559265,0.4210807979106903,0.8166489005088806,76.46662902832031,24.99,2
-0.2531033158302307,-0.844169020652771,0.2560774385929107,2.337371587753296,0.8166112899780273,76.46783447265625,24.99,2
-0.3303603827953338,-0.838421106338501,0.1867268532514572,3.445328950881958,0.8165872097015381,76.46861267089844,24.99,2
-0.3743417263031006,-0.778754711151123,0.1366238743066787,3.644044160842896,0.8188667297363281,76.46910858154297,24.99,2
-0.385773092508316,-0.706877589225769,0.1044706627726554,3.5781090259552,0.8203296065330505,76.46942901611328,24.99,2
-0.3931091129779815,-0.7167287468910217,0.0670432597398758,3.78657579421997,0.8212683796882629,76.46963500976562,24.99,2
-0.409012496471405,-0.7622350454330444,0.0374267287552356,4.067243576049805,0.8218708634376526,76.46976470947266,24.99,2
-0.4416094720363617,-0.8474161624908447,0.0072249984368681,3.935675859451294,0.8222574591636658,76.4698486328125,24.99,2
-0.456930547952652,-0.9188737869262696,-0.0345478318631649,3.3317697048187256,0.8225055932998657,76.46990203857422,24.99,2
-0.4667627215385437,-0.9983178377151488,-0.072550781071186,2.689854621887207,0.8226647973060608,76.46994018554688,24.99,2
-0.5122568607330322,-0.9597360491752625,-0.0633522346615791,2.356727123260498,0.8227669596672058,76.46996307373047,24.99,2
-0.5638434886932373,-0.862205445766449,-0.0350580438971519,2.2432572841644287,0.8209964632987976,76.46997833251953,24.99,2
-0.5745577216148376,-0.9339624643325806,-0.0392915569245815,2.080874443054199,0.8198602795600891,76.46998596191406,24.99,2
-0.5590423941612244,-1.1479452848434448,-0.0364106073975563,1.672147512435913,0.8191311359405518,76.4699935913086,24.99,2
-0.5434877872467041,-1.1901049613952637,0.0158181861042976,0.9799410700798036,0.8186632394790649,76.4699935913086,24.99,2
-0.4215502440929413,-1.0996073484420776,0.1221066936850547,0.0664054006338119,0.8183629512786865,76.4699935913086,24.99,2
-0.3041133284568786,-1.002346754074097,0.2239031791687011,-1.136052131652832,0.8181702494621277,76.4699935913086,24.99,2
-0.223151296377182,-0.9567238092422484,0.3508058190345764,-2.717382431030273,0.8180465698242188,76.4699935913086,24.99,2
-0.2327700406312942,-0.9778255820274352,0.3874624371528625,-4.43437385559082,0.8179671764373779,76.4699935913086,24.99,2
-0.2669316828250885,-0.991367518901825,0.3829976618289947,-5.84792423248291,0.8183755278587341,77.06111907958984,24.97,2
-0.3112457394599914,-0.9440801739692688,0.3633391261100769,-6.891197681427002,0.8186376094818115,77.44047546386719,24.97,2
-0.3116950988769531,-0.8969405889511108,0.350723385810852,-7.757751941680908,0.8188057541847229,77.68392181396484,24.97,2
-0.2560057044029236,-0.872286856174469,0.3314318060874939,-8.460741996765137,0.8189136981964111,77.84014892578125,24.97,2
-0.1922785937786102,-0.8284766674041748,0.3134537935256958,-8.969202041625977,0.8189829587936401,77.9404067993164,24.97,2
-0.1569799780845642,-0.8059595823287964,0.2907209992408752,-9.524786949157717,0.8190274238586426,78.00474548339844,24.97,2
-0.1455229073762893,-0.825096070766449,0.2369479686021804,-10.275412559509276,0.8190559148788452,78.04603576660156,24.97,2
-0.1493659764528274,-0.876561164855957,0.1800484359264373,-10.875346183776855,0.8190742135047913,78.0725326538086,24.97,2
-0.1574300080537796,-0.9823595881462096,0.0875558480620384,-10.7946138381958,0.8172495365142822,78.08953857421875,24.97,2
-0.201789453625679,-1.111830472946167,-0.0109849916771054,-9.836413383483888,0.8160785436630249,78.10045623779297,24.97,2
-0.2526479065418243,-1.16692852973938,-0.0742228329181671,-8.17896556854248,0.8153271079063416,78.10746002197266,24.97,2
-0.3076770305633545,-1.2638628482818604,-0.1148052364587783,-5.983217239379883,0.8148448467254639,78.11195373535156,24.97,2
-0.359784871339798,-1.2644941806793213,-0.1128598153591156,-3.055100202560425,0.81453537940979,78.11483764648438,24.97,2
-0.3988224565982818,-1.1137593984603882,-0.0388402864336967,0.955629289150238,0.8143367767333984,78.11669158935547,24.97,2
-0.3567012250423431,-1.0730042457580566,0.0590411573648452,5.808002471923828,0.8142093420028687,78.11787414550781,24.97,2
-0.2792902886867523,-1.1028276681900024,0.1106602847576141,10.473231315612791,0.8141275644302368,78.11863708496094,24.97,2
-0.2072212994098663,-1.088379979133606,0.0766131728887558,14.065397262573242,0.8145340085029602,78.11912536621094,24.97,2
-0.1609715670347213,-1.0343260765075684,0.0267748273909091,16.359893798828125,0.8147948384284973,78.11943817138672,24.97,2
-0.1424867063760757,-0.9604529738426208,-0.0108063276857137,17.22691535949707,0.8149622082710266,78.11964416503906,24.97,2
-0.1810041517019271,-0.8794588446617126,-0.0349237509071826,16.328794479370117,0.8150696158409119,78.1197738647461,24.97,2
-0.2225157618522644,-0.8162859082221985,-0.0504009239375591,13.62079906463623,0.8151385188102722,78.11985778808594,24.97,2
-0.2603510618209839,-0.775745153427124,-0.0547355078160762,9.808652877807615,0.8151827454566956,78.11991119384766,24.97,2
-0.2790338099002838,-0.7497284412384033,-0.06311497092247,6.0331010818481445,0.8152111172676086,78.11994171142578,24.97,2
-0.2798277735710144,-0.6994457840919495,-0.079687975347042,3.040539503097534,0.8152293562889099,78.11996459960938,24.97,2
-0.2915328443050384,-0.7063616514205933,-0.0847258046269416,0.7904887199401855,0.8134049773216248,78.11997985839844,24.97,2
-0.3214355707168579,-0.7499842643737793,-0.076763242483139,-0.98664391040802,0.8122341632843018,78.11998748779297,24.97,2
-0.3910053968429565,-0.7891743183135986,-0.0492622293531894,-2.2059218883514404,0.811482846736908,78.1199951171875,24.97,2
-0.4412490725517273,-0.9374752640724182,-0.0484069846570491,-2.8020904064178467,0.8110007047653198,78.1199951171875,24.97,2
-0.4622970223426819,-1.0774284601211548,-0.0646514594554901,-3.231250524520874,0.810691237449646,78.1199951171875,24.97,2
-0.4758043885231018,-1.1560468673706057,-0.0526851341128349,-4.058377265930176,0.8104926943778992,78.1199951171875,24.97,2
-0.4788748621940613,-1.1393263339996338,-0.0002236373111372,-5.273451805114746,0.8103652596473694,78.1199951171875,24.97,2
-0.4472586810588836,-0.9718583822250366,0.123007521033287,-6.404309272766113,0.8102834820747375,78.1199951171875,24.97,2
-0.4381647706031799,-0.9259625673294068,0.2412745952606201,-7.036881446838379,0.8102309703826904,78.60364532470703,24.99,2
-0.4435243904590606,-1.1372135877609253,0.2891827225685119,-6.919773578643799,0.8101972937583923,78.91402435302734,24.99,2
-0.340606153011322,-1.2335978746414185,0.2975363135337829,-6.009880542755127,0.8101756572723389,79.11320495605469,24.99,2
-0.2353747487068176,-1.2618651390075684,0.3028971552848816,-4.472998142242432,0.8101617693901062,79.24102783203125,24.99,2
-0.1006699949502945,-1.2240277528762815,0.3343263268470764,-2.1468324661254883,0.8101528882980347,79.32305908203125,24.99,2
0.0305579509586095,-1.2109414339065552,0.3656913042068481,1.4310258626937866,0.8101471662521362,79.37570190429688,24.99,2
0.0643925294280052,-1.0737946033477783,0.3970150947570801,5.74049711227417,0.8101435303688049,79.40948486328125,24.99,2
0.0077367695048451,-1.0081727504730225,0.377932459115982,8.935976028442383,0.8101412057876587,79.43116760253906,24.99,2
-0.0454149581491947,-0.9660604000091552,0.3320996761322021,9.722002029418944,0.8110579252243042,79.44508361816406,24.99,2
-0.129904642701149,-0.9334373474121094,0.2355135530233383,8.70383358001709,0.8116462230682373,79.45401000976562,24.99,2
-0.1841252595186233,-0.8957083821296692,0.1623345911502838,7.323168754577637,0.8120237588882446,79.4597396850586,24.99,2
-0.207725390791893,-0.8714961409568787,0.1153725460171699,6.27592134475708,0.8122659921646118,79.46341705322266,24.99,2
-0.2004794925451278,-0.8727514147758484,0.0852350071072578,5.3781561851501465,0.812421441078186,79.46577453613281,24.99,2
-0.1734384000301361,-0.8903502821922302,0.0658944696187973,4.325539588928223,0.81252121925354,79.46728515625,24.99,2
-0.1392916589975357,-0.9296331405639648,0.0310917291790246,3.1663830280303955,0.8125852346420288,79.46826171875,24.99,2
-0.1117804646492004,-0.9996247887611388,-0.0080359894782304,2.09648871421814,0.8126263618469238,79.46888732910156,24.99,2
-0.1445053368806839,-1.1397035121917725,-0.0835258811712265,1.0301392078399658,0.8117344975471497,79.46928405761719,24.99,2
-0.2046906948089599,-1.089653730392456,-0.1151776239275932,-0.3097939491271972,0.8111621737480164,79.46954345703125,24.99,2
-0.2489119619131088,-1.035143494606018,-0.1186965629458427,-1.9148616790771484,0.8107948899269104,79.4697036743164,24.99,2
-0.2604973018169403,-1.0785307884216309,-0.0873681679368019,-3.399888753890991,0.8105592131614685,79.46981048583984,24.99,2
-0.267932116985321,-1.1343631744384766,-0.0560678616166114,-4.252581596374512,0.8104079365730286,79.46987915039062,24.99,2
-0.3230833113193512,-1.158997654914856,-0.063969999551773,-3.982963562011719,0.8103108406066895,79.46992492675781,24.99,2
-0.3248895406723022,-1.0796444416046145,-0.0914322361350059,-2.4843852519989014,0.8102485537528992,79.46995544433594,24.99,2
-0.2980597913265228,-0.9895356893539428,-0.1202514618635177,-0.5303104519844055,0.8102085590362549,79.469970703125,24.99,2
-0.26404869556427,-0.959697961807251,-0.1275504380464553,0.7057893872261047,0.8106421828269958,79.46997833251953,24.99,2
-0.2478200942277908,-0.9517453908920288,-0.1154411733150482,0.7252107262611389,0.8109204769134521,79.46998596191406,24.99,2
-0.2597966194152832,-0.9466418623924256,-0.1020723730325698,-0.1902128756046295,0.8110990524291992,79.4699935913086,24.99,2
-0.2954713404178619,-0.976953387260437,-0.0878952741622924,-1.705566167831421,0.8112136721611023,79.4699935913086,24.99,2
-0.3351586461067199,-0.968416690826416,-0.073199450969696,-3.5020251274108887,0.8112872242927551,79.4699935913086,24.99,2
-0.3662254214286804,-0.946144998073578,-0.0469751954078674,-5.095545768737793,0.8113344311714172,79.4699935913086,24.99,2
-0.3917600810527801,-0.9486456513404846,-0.0189504269510507,-6.2543134689331055,0.8113647103309631,79.4699935913086,24.99,2
-0.4361356198787689,-1.045412540435791,0.01582757756114,-7.298880100250244,0.8113841414451599,79.4699935913086,24.99,2
-0.4590155184268951,-1.1299030780792236,0.0493416488170623,-8.384801864624023,0.8086423277854919,79.89990234375,24.97,2
-0.4625029563903808,-1.1113531589508057,0.0876423716545105,-9.038692474365234,0.8068827986717224,80.17579650878906,24.97,2
-0.4479476809501648,-1.0154823064804075,0.1514059901237487,-8.777632713317871,0.8057536482810974,80.35284423828125,24.97,2
-0.4386069476604461,-0.9259690642356871,0.2035213559865951,-7.843428611755371,0.805029034614563,80.46646881103516,24.97,2
-0.4661992490291595,-0.9972733855247498,0.2257704585790634,-7.054033756256104,0.8045639991760254,80.53938293457031,24.97,2
-0.4503197371959686,-1.071021318435669,0.2512441873550415,-6.977354526519775,0.804265558719635,80.58617401123047,24.97,2
-0.4233358800411224,-1.1127506494522097,0.2787873148918152,-6.627209663391113,0.8040740489959717,80.61620330810547,24.97,2
-0.383628100156784,-1.0611612796783447,0.346842885017395,-3.622428178787232,0.8039511442184448,80.6354751586914,24.97,2
-0.3469503819942474,-1.0056631565093994,0.401712566614151,2.608541250228882,0.8043311834335327,80.64784240722656,24.97,2
-0.3010216355323791,-0.9532543420791626,0.4369247853755951,8.907232284545898,0.8045750856399536,80.65577697753906,24.97,2
-0.237960547208786,-0.8860347270965576,0.4427286386489868,11.792197227478027,0.8047316074371338,80.66087341308594,24.97,2
-0.1918938010931015,-0.8317014575004578,0.4408554434776306,11.271936416625977,0.8048320412635803,80.66413879394531,24.97,2
-0.1567330360412597,-0.7856379747390747,0.4284577667713165,9.716404914855955,0.8048965334892273,80.6662368774414,24.97,2
-0.139766663312912,-0.7504792809486389,0.4093061089515686,8.929526329040527,0.8049378991127014,80.66758728027344,24.97,2
-0.1400741636753082,-0.7335142493247986,0.3634290397167206,9.313031196594238,0.8049644231796265,80.66844940185547,24.97,2
-0.1514670550823211,-0.7394204139709473,0.3115966916084289,10.071451187133787,0.8049814701080322,80.66900634765625,24.97,2
-0.1643761247396469,-0.7656017541885376,0.2727358937263489,9.759246826171877,0.8036152720451355,80.66936492919922,24.97,2
-0.1894537508487701,-0.8271855711936951,0.236601710319519,7.6565446853637695,0.8027385473251343,80.66959381103516,24.97,2
-0.2111449092626571,-0.8946954011917114,0.2022173255681991,4.490785598754883,0.8021758794784546,80.66973876953125,24.97,2
-0.2474561333656311,-1.0219860076904297,0.1633580923080444,1.6459392309188845,0.8018147945404053,80.66983032226562,24.97,2
-0.2875519096851349,-1.1316626071929932,0.1272249221801757,-0.0543293952941894,0.8015831112861633,80.66989135742188,24.97,2
-0.3356741666793823,-1.17965567111969,0.1096345037221908,-0.8087018728256226,0.8014343976974487,80.66992950439453,24.97,2
-0.4449250996112823,-1.0537171363830566,0.1767148226499557,-1.2498236894607544,0.8013389706611633,80.66995239257812,24.97,2
-0.548622727394104,-0.8609415888786316,0.2645453214645386,-1.780108094215393,0.801277756690979,80.66996765136719,24.97,2
-0.6263654232025146,-0.7540226578712463,0.3433009684085846,-2.467923879623413,0.8007795214653015,80.66997528076172,24.97,2
-0.5643007159233093,-0.8197547793388367,0.3434618413448334,-3.127861499786377,0.8004597425460815,80.66998291015625,24.97,2
-0.4517001211643219,-0.9067201018333436,0.3267717659473419,-3.447476863861084,0.8002545833587646,80.66999053955078,24.97,2
-0.3346573412418365,-0.9513338804244996,0.3104632496833801,-3.2835822105407715,0.8001229166984558,80.66999053955078,24.97,2
-0.2763393223285675,-0.9463778138160706,0.3055951595306396,-2.898963212966919,0.8000383973121643,80.66999053955078,24.97,2
-0.2836963832378387,-0.9431972503662108,0.3080688714981079,-2.781109571456909,0.7999841570854187,80.66999053955078,24.97,2
-0.3220043778419494,-0.9915361404418944,0.2928630411624908,-3.203455924987793,0.7999493479728699,80.66999053955078,24.97,2
-0.3409904539585113,-1.0113617181777954,0.2719092667102813,-3.918732881546021,0.7999269962310791,80.66999053955078,24.97,2
-0.3419790863990783,-0.9681068658828736,0.2472667843103408,-4.488816261291504,0.7976173162460327,81.07124328613281,25.01,2
-0.3426135182380676,-0.9179573059082032,0.2202571034431457,-4.81525468826294,0.7961350679397583,81.32874298095703,25.01,2
-0.3542162179946899,-0.8577853441238403,0.1805327534675598,-5.060569763183594,0.7951838374137878,81.4939956665039,25.01,2
-0.3672599494457245,-0.8303659558296204,0.1382466256618499,-5.311145782470703,0.7945734262466431,81.60004425048828,25.01,2
-0.375630646944046,-0.8351609110832214,0.0999142751097679,-5.597341537475586,0.7941817045211792,81.66809844970703,25.01,2
-0.3642091751098633,-0.8662269115447998,0.0529236793518066,-5.845491886138916,0.7939302921295166,81.7117691040039,25.01,2
-0.3512817323207855,-0.9085543751716614,0.0059744990430772,-5.757542610168457,0.7937689423561096,81.73979949951172,25.01,2
-0.3541812002658844,-1.0196843147277832,-0.0241547841578722,-5.059820652008057,0.7936654090881348,81.75778198242188,25.01,2
-0.3616396784782409,-1.079805612564087,-0.0602833442389965,-3.963616847991944,0.7954350709915161,81.76932525634766,25.01,2
-0.3720238804817199,-1.1911590099334717,-0.1002618968486785,-2.966365098953247,0.7965707182884216,81.7767333984375,25.01,2
-0.3954811990261078,-1.2458258867263794,-0.1483089327812194,-2.186665773391724,0.7972995042800903,81.78148651123047,25.01,2
-0.4049369692802429,-1.303299069404602,-0.1959360688924789,-1.277886152267456,0.7977672219276428,81.78453826904297,25.01,2
-0.3886140584945678,-1.37376868724823,-0.248891532421112,-0.1143063679337501,0.7980673909187317,81.7864990234375,25.01,2
-0.3445523083209991,-1.4525786638259888,-0.2716797590255737,1.0766515731811523,0.798259973526001,81.78775024414062,25.01,2
-0.2994826734066009,-1.4751654863357544,-0.2751083672046661,2.321004867553711,0.7983835935592651,81.78855895996094,25.01,2
-0.253766268491745,-1.450476050376892,-0.2717108726501465,3.882647752761841,0.7984629273414612,81.78907775878906,25.01,2
-0.218830332159996,-1.417838454246521,-0.2695305645465851,5.540431976318359,0.7994320392608643,81.7894058227539,25.01,2
-0.1964104622602462,-1.3689045906066897,-0.273729145526886,6.618632316589356,0.8000539541244507,81.78961944580078,25.01,2
-0.1708271205425262,-1.3263061046600342,-0.2820213139057159,6.701521396636963,0.8004530668258667,81.78975677490234,25.01,2
-0.1488114297389984,-1.293371081352234,-0.2817449867725372,5.905644416809082,0.8007091879844666,81.78984069824219,25.01,2
-0.112291932106018,-1.2442463636398315,-0.2703720927238464,4.599564552307129,0.8008735775947571,81.78990173339844,25.01,2
-0.0832580476999282,-1.2071232795715332,-0.2518780827522278,3.181020498275757,0.8009790778160095,81.7899398803711,25.01,2
-0.0702235475182533,-1.1273220777511597,-0.2064230442047119,1.9733269214630127,0.8010467886924744,81.78996276855469,25.01,2
-0.0842498540878295,-1.0201324224472046,-0.1604592949151992,1.04424786567688,0.8010902404785156,81.78997802734375,25.01,2
-0.0988489016890525,-0.9681376218795776,-0.1365601867437362,0.2115685045719146,0.7997409701347351,81.78998565673828,25.01,2
-0.1585976928472519,-0.8843904137611389,-0.1100275665521621,-0.5807426571846008,0.798875093460083,81.78999328613281,25.01,2
-0.2193321287631988,-0.7858640551567078,-0.0594138093292713,-1.05337655544281,0.798319399356842,81.78999328613281,25.01,2
-0.3142857551574707,-0.6778533458709717,0.0178493801504373,-1.03067147731781,0.7979627847671509,81.78999328613281,25.01,2
-0.4144059419631958,-0.8884269595146179,0.0394435785710811,-0.9265362024307252,0.7977339625358582,81.78999328613281,25.01,2
-0.4674617648124695,-1.09633207321167,0.0644970387220382,-1.2860347032546997,0.7975870966911316,81.78999328613281,25.01,2
-0.4735210537910461,-1.123395919799805,0.080574907362461,-1.8355892896652224,0.7974928617477417,81.78999328613281,25.01,2
-0.4214318096637726,-1.157557249069214,0.085294984281063,-1.4645816087722778,0.7974323630332947,81.78999328613281,25.01,2
-0.3264284133911133,-1.1906756162643433,0.1219107061624527,0.6471967101097107,0.7983117699623108,82.15184020996094,24.99,2
-0.2934495806694031,-1.1951357126235962,0.184592992067337,3.98357892036438,0.7988761067390442,82.38404846191406,24.99,2
-0.2890789806842804,-1.1979979276657104,0.2192211002111435,6.805366516113281,0.7992382645606995,82.53306579589844,24.99,2
-0.2694808542728424,-1.1774436235427856,0.2862256169319153,7.659679412841797,0.7994706630706787,82.62870025634766,24.99,2
-0.2513061463832855,-1.1474597454071045,0.3516163527965545,6.799976348876953,0.7996197938919067,82.69007110595703,24.99,2
-0.4187714457511902,-1.055446743965149,0.3096137642860412,5.535335540771484,0.799715518951416,82.72945404052734,24.99,2
-0.5262410044670105,-0.9516159296035768,0.1595078706741333,4.451486110687256,0.7997769713401794,82.75473022460938,24.99,2
-0.5896110534667969,-0.8793854713439941,0.0127985794097185,3.1755566596984863,0.799816370010376,82.77095031738281,24.99,2
-0.5798982977867126,-0.8106410503387451,-0.1037420928478241,1.4790077209472656,0.7970873713493347,82.78135681152344,24.99,2
-0.512089729309082,-0.7665248513221741,-0.1505423188209533,-0.3513329625129699,0.7953360676765442,82.78804016113281,24.99,2
-0.4293896555900574,-0.8221802115440369,-0.1525871455669403,-1.977344632148743,0.7942122220993042,82.79232788085938,24.99,2
-0.353926420211792,-0.9642543196678162,-0.1147149726748466,-3.164128541946411,0.7934909462928772,82.79507446289062,24.99,2
-0.333487331867218,-1.1058093309402466,-0.09041079133749,-3.700035810470581,0.7930281162261963,82.79683685302734,24.99,2
-0.3931417465209961,-1.1518689393997192,-0.0804115384817123,-3.535224437713623,0.7927311062812805,82.7979736328125,24.99,2
-0.4426200687885284,-1.069471836090088,-0.0795923694968223,-2.902819395065308,0.7925404906272888,82.79869842529297,24.99,2
-0.5023612976074219,-1.0277897119522097,-0.1126533225178718,-2.0993123054504395,0.7924181818962097,82.79916381835938,24.99,2
-0.5742864012718201,-1.0906049013137815,-0.1562610268592834,-1.2540708780288696,0.7941757440567017,82.7994613647461,24.99,2
-0.6204438209533691,-1.1253182888031006,-0.2066370397806167,-0.5432624816894531,0.7953036427497864,82.79965209960938,24.99,2
-0.5772939324378967,-1.1363998651504517,-0.2445632517337799,-0.359382301568985,0.796027421951294,82.79977416992188,24.99,2
-0.5160161256790161,-1.1211202144622805,-0.2521087825298309,-0.8289210200309753,0.7964919209480286,82.79985809326172,24.99,2
-0.4151160717010498,-1.0721302032470703,-0.2177666425704956,-1.474171161651611,0.7967900037765503,82.79991149902344,24.99,2
-0.3391686677932739,-1.018300175666809,-0.1845322847366333,-1.834517002105713,0.7969813346862793,82.79994201660156,24.99,2
-0.3072233200073242,-0.9277774095535278,-0.157606616616249,-2.019192695617676,0.7971041202545166,82.79996490478516,24.99,2
-0.3147115111351013,-0.8584895133972168,-0.1683161407709121,-2.2666797637939453,0.7971829175949097,82.79998016357422,24.99,2
-0.3419080972671509,-0.8308178782463074,-0.1751888990402221,-2.4864063262939453,0.7953974008560181,82.79998779296875,24.99,2
-0.3537635207176208,-0.8578420281410217,-0.1684038937091827,-2.6381618976593018,0.794251561164856,82.79999542236328,24.99,2
-0.3389805555343628,-0.8863800764083862,-0.1696474403142929,-3.0042431354522705,0.793516218662262,82.79999542236328,24.99,2
-0.3015048205852508,-0.9382808208465576,-0.1704454869031906,-3.6260910034179688,0.7930443286895752,82.79999542236328,24.99,2
-0.2606617212295532,-0.9435988664627076,-0.1597620695829391,-4.071730613708496,0.7927414774894714,82.79999542236328,24.99,2
-0.2344509810209274,-0.947011649608612,-0.1529060751199722,-4.078275680541992,0.7925471067428589,82.79999542236328,24.99,2
-0.2288259863853454,-1.0499616861343384,-0.14290851354599,-3.992911577224731,0.7924224138259888,82.79999542236328,24.99,2
-0.2420095056295395,-1.065649151802063,-0.1141015589237213,-4.303552627563477,0.7923423647880554,82.79999542236328,24.99,2
-0.3400343060493469,-0.9581632018089294,-0.0452349409461021,-5.129854679107666,0.7909138798713684,83.12601470947266,24.97,2
-0.4533209800720215,-0.8835871815681458,0.0045574679970741,-6.176018714904785,0.7899971604347229,83.3352279663086,24.97,2
-0.5316196084022522,-0.953281819820404,0.0029247205238789,-6.901125431060791,0.7894088625907898,83.46949005126953,24.97,2
-0.5538783073425293,-1.0763766765594482,-0.0261119529604911,-6.642776966094971,0.7890313267707825,83.55565643310547,24.97,2
-0.5401737689971924,-1.071405291557312,-0.0223549231886863,-4.990214824676514,0.7887890338897705,83.61095428466797,24.97,2
-0.4418146014213562,-1.07381272315979,0.0360338687896728,-2.127660036087036,0.7886335253715515,83.64643859863281,24.97,2
-0.345106691122055,-1.024977684020996,0.1070910766720771,1.2964439392089844,0.7885337471961975,83.6692123413086,24.97,2
-0.2830451130867004,-0.976844847202301,0.152691513299942,4.647426128387451,0.7884697318077087,83.68382263183594,24.97,2
-0.2656086683273315,-0.929162621498108,0.1651619225740432,7.543068885803223,0.7856743335723877,83.69319915771484,24.97,2
-0.2600167393684387,-0.8985629081726074,0.1619691550731659,9.752418518066406,0.7838804125785828,83.69921875,24.97,2
-0.3068081438541412,-0.8789257407188416,0.1263335794210434,11.453275680541992,0.7827292084693909,83.70307922363281,24.97,2
-0.3928139209747314,-0.8551282286643982,0.0810736194252967,13.422518730163574,0.7819904088973999,83.70555877685547,24.97,2
-0.4536052346229553,-0.8342585563659668,0.0520283803343772,15.757455825805664,0.7815163135528564,83.7071533203125,24.97,2
-0.4814220666885376,-0.7984744906425476,0.0445843674242496,16.639680862426758,0.7812120318412781,83.70817565917969,24.97,2
-0.471284419298172,-0.7531192898750305,0.0566005520522594,13.985106468200684,0.7810167670249939,83.70883178710938,24.97,2
-0.4088009297847748,-0.6960240602493286,0.0867029428482055,8.147261619567871,0.780891478061676,83.7092514038086,24.97,2
-0.3351159691810608,-0.7433502078056335,0.094825379550457,1.6351202726364136,0.7831060886383057,83.70951843261719,24.97,2
-0.2934269905090332,-0.8408946990966797,0.0888423398137092,-3.253347396850586,0.7845272421836853,83.7096939086914,24.97,2
-0.2778689563274383,-0.9930575489997864,0.0738072246313095,-5.358702659606934,0.7854393124580383,83.70980072021484,24.97,2
-0.2902757823467254,-1.07391357421875,0.0585607774555683,-4.52800989151001,0.7860245704650879,83.70986938476562,24.97,2
-0.3374221920967102,-1.1369978189468384,0.0655698105692863,-1.9779291152954104,0.7864001989364624,83.70991516113281,24.97,2
-0.3788735866546631,-1.0711239576339722,0.0868611261248588,0.1063880398869514,0.7866412401199341,83.70994567871094,24.97,2
-0.4110724925994873,-0.9672744274139404,0.0893291160464286,0.4946002066135406,0.7867959141731262,83.70996856689453,24.97,2
-0.4709203243255615,-0.9398142099380492,0.0685218349099159,-0.2163978219032287,0.786895215511322,83.70997619628906,24.97,2
-0.537316083908081,-1.006158471107483,0.0495711453258991,-0.9879420399665833,0.7860410809516907,83.7099838256836,24.97,2
-0.6079139113426208,-1.0767232179641724,0.0598007813096046,-1.6622035503387451,0.7854929566383362,83.70999145507812,24.97,2
-0.5244707465171814,-1.1164097785949707,0.0551700219511985,-2.453163385391236,0.7851411700248718,83.70999145507812,24.97,2
-0.40934619307518,-1.0970962047576904,0.085784912109375,-3.1040587425231934,0.7849154472351074,83.70999145507812,24.97,2
-0.2459014952182769,-0.9727463722229004,0.1838006228208542,-3.25665545463562,0.7847705483436584,83.70999145507812,24.97,2
-0.1410121023654937,-0.8593591451644897,0.2522992491722107,-3.125298500061035,0.7846775650978088,83.70999145507812,24.97,2
-0.1464711874723434,-0.8033871054649353,0.2682688534259796,-3.1484782695770264,0.7846179008483887,83.70999145507812,24.97,2
-0.2283433675765991,-0.7450763583183289,0.2337350249290466,-3.3209872245788574,0.7845796346664429,83.70999145507812,24.97,2
-0.303275316953659,-0.7020580768585205,0.1947798728942871,-3.424528121948242,0.7854729294776917,84.01093292236328,24.97,2
-0.3345690071582794,-0.7192336320877075,0.147389605641365,-3.555461168289185,0.7860461473464966,84.20405578613281,24.97,2
-0.3378581702709198,-0.7638425827026367,0.1225750371813774,-3.815032720565796,0.7864140272140503,84.32799530029297,24.97,2
-0.3343711793422699,-0.8036655783653259,0.1290415674448013,-3.960115194320679,0.7866501212120056,84.40753173828125,24.97,2
-0.3153401017189026,-0.8740038871765137,0.1499847471714019,-3.849014043807984,0.7868016362190247,84.45857238769531,24.97,2
-0.2919315099716186,-0.9471318125724792,0.169022649526596,-3.648742914199829,0.7868988513946533,84.49132537841797,24.97,2
-0.2769092321395874,-1.0500388145446775,0.1812400817871093,-3.3948304653167725,0.7869612574577332,84.51234436035156,24.97,2
-0.2728665769100189,-1.1496652364730835,0.1890805214643478,-2.8592960834503174,0.7870013117790222,84.52583312988281,24.97,2
-0.3038588762283325,-1.286370873451233,0.1829165071249008,-1.942408919334412,0.7870270013809204,84.53449249267578,24.97,2
-0.379725694656372,-1.1725808382034302,0.2517318725585937,-0.8882686495780945,0.7870435118675232,84.54004669189453,24.97,2
-0.4228148758411407,-0.9764058589935304,0.2958936095237732,-0.0398184694349765,0.7870540618896484,84.54361724853516,24.97,2
-0.3497070968151092,-1.0464341640472412,0.2570607662200928,0.5870672464370728,0.7870608568191528,84.54590606689453,24.97,2
-0.2580085396766662,-1.1977319717407229,0.2209445536136627,1.268807291984558,0.7870652079582214,84.54737091064453,24.97,2
-0.2271505445241928,-1.1996641159057615,0.1977672427892685,2.086061954498291,0.7870680093765259,84.5483169555664,24.97,2
-0.2353365421295166,-1.156121850013733,0.1828933805227279,2.7000932693481445,0.7870697975158691,84.54891967773438,24.97,2
-0.24618761241436,-1.0777989625930786,0.1677504181861877,2.764546155929565,0.7870709300041199,84.54930877685547,24.97,2
-0.2587489783763885,-0.9379714131355286,0.14683698117733,2.293600082397461,0.7847766876220703,84.549560546875,24.97,2
-0.2780056893825531,-0.8370425701141357,0.1222203969955444,1.529221773147583,0.7833043336868286,84.54972076416016,24.97,2
-0.3127546310424804,-0.7666745185852051,0.0896295607089996,0.6338566541671753,0.7823594808578491,84.54981994628906,24.97,2
-0.3574455976486206,-0.7327118515968323,0.0575190931558609,-0.3348203599452972,0.7817531228065491,84.54988861083984,24.97,2
-0.3861256837844848,-0.7165143489837646,0.0369124412536621,-1.196494221687317,0.7813640236854553,84.5499267578125,24.97,2
-0.4101286828517914,-0.7005219459533691,0.023688280954957,-1.692145586013794,0.7811143398284912,84.54995727539062,24.97,2
-0.4311302006244659,-0.7014545202255249,0.0152017753571271,-1.7773586511611938,0.7809540629386902,84.54997253417969,24.97,2
-0.4558033347129822,-0.7524329423904419,-0.0014399250503629,-1.545437574386597,0.7808512449264526,84.54998016357422,24.97,2
-0.4996260106563568,-0.8131368160247803,-0.0289129335433244,-1.0061031579971311,0.7817031145095825,84.54998779296875,24.97,2
-0.5389444231987,-0.8856797218322754,-0.0577390789985656,-0.3160621523857116,0.7822497487068176,84.54999542236328,24.97,2
-0.580970048904419,-0.8874514102935791,-0.081835813820362,0.0945232734084129,0.7826005816459656,84.54999542236328,24.97,2
-0.6359285116195679,-0.7710351347923279,-0.0805063843727111,0.003338384674862,0.7828257083892822,84.54999542236328,24.97,2
-0.6711977124214172,-0.6907280683517456,-0.0628599151968956,-0.4170189201831817,0.7829701900482178,84.54999542236328,24.97,2
-0.7050269842147827,-0.8742981553077698,-0.0459376499056816,-0.9268126487731934,0.7830629348754883,84.54999542236328,24.97,2
-0.7099433541297913,-1.0816673040390017,-0.0350779145956039,-1.3829416036605835,0.7831224203109741,84.54999542236328,24.97,2
-0.6459251046180725,-1.1027894020080566,0.0278689824044704,-1.722232460975647,0.7831606268882751,84.54999542236328,24.97,2
-0.5264730453491211,-1.0659643411636353,0.1130468696355819,-2.133428812026977,0.7808901071548462,84.81869506835938,24.97,2
-0.3714467287063598,-0.935974419116974,0.2292846590280532,-2.608682870864868,0.779433012008667,84.99112701416016,24.97,2
-0.3391330540180206,-0.9029343128204346,0.309477150440216,-2.24373197555542,0.7784979343414307,85.1017837524414,24.97,2
-0.3519826531410217,-0.915317714214325,0.355342298746109,-0.1286752372980117,0.7778978943824768,85.17279815673828,24.97,2
-0.3938154280185699,-0.9456557631492616,0.3232004046440124,2.855135679244995,0.777512788772583,85.21836853027344,24.97,2
-0.3982702195644378,-0.9371361136436462,0.2801824808120727,4.508445739746094,0.7772656679153442,85.24761199951172,24.97,2
-0.3283579647541046,-0.8924843072891235,0.2469782829284668,3.7817397117614746,0.7771070599555969,85.2663803100586,24.97,2
-0.2666989862918854,-0.8638293147087097,0.231267511844635,1.5849976539611816,0.7770053148269653,85.27842712402344,24.97,2
-0.2271298021078109,-0.8454402089118958,0.2211852371692657,-0.7956230044364929,0.7769399881362915,85.2861557006836,24.97,2
-0.2185298949480056,-0.8504324555397034,0.1923239231109619,-2.774772882461548,0.7768980860710144,85.2911148071289,24.97,2
-0.2242065221071243,-0.8648317456245422,0.1570090651512146,-4.01263427734375,0.7768712043762207,85.29429626464844,24.97,2
-0.2166539132595062,-0.913256824016571,0.0895638316869735,-4.19798469543457,0.7768539190292358,85.29634094238281,24.97,2
-0.2118070721626281,-0.9891154170036316,0.0070969420485198,-3.535930156707764,0.7768428325653076,85.29765319824219,24.97,2
-0.2198922038078308,-1.076981544494629,-0.0570211112499237,-2.588005542755127,0.7768357396125793,85.29849243164062,24.97,2
-0.2474718689918518,-1.1893466711044312,-0.1093639358878135,-1.3670618534088137,0.7768311500549316,85.29903411865234,24.97,2
-0.2987575531005859,-1.2838472127914429,-0.1373567730188369,0.5987194180488586,0.7768282294273376,85.29937744140625,24.97,2
-0.3540608584880829,-1.1149835586547852,-0.0825498923659324,3.157137155532837,0.7768263220787048,85.29959869384766,24.97,2
-0.3167802691459656,-1.0234098434448242,-0.0137913459911942,5.479671955108643,0.7768251299858093,85.29974365234375,24.97,2
-0.2480735331773758,-1.0654031038284302,0.0415294803678989,7.1779303550720215,0.7768243551254272,85.29983520507812,24.97,2
-0.131210446357727,-1.1315363645553589,0.0770312026143074,8.357338905334473,0.776823878288269,85.29989624023438,24.97,2
-0.0338233411312103,-1.1235969066619873,0.0774230659008026,8.752375602722168,0.7768235802650452,85.29993438720703,24.97,2
0.0342718698084354,-1.040132999420166,0.0664789900183677,8.067253112792969,0.7768233418464661,85.29995727539062,24.97,2
0.0107981655746698,-0.9473862051963806,0.042662389576435,6.685362815856934,0.7768232226371765,85.29997253417969,24.97,2
-0.0378525555133819,-0.8934644460678101,0.016182716935873,5.078447818756104,0.7768231630325317,85.29998016357422,24.97,2
-0.0802693367004394,-0.8644583225250244,-0.0120059624314308,3.248307704925537,0.7754459977149963,85.29998779296875,24.97,2
-0.1074899807572364,-0.8514416217803955,-0.041291382163763,1.253419280052185,0.7745621800422668,85.29999542236328,24.97,2
-0.1305564045906067,-0.859881579875946,-0.0824761763215065,-0.6179101467132568,0.7739949822425842,85.29999542236328,24.97,2
-0.1509568840265274,-0.8485045433044434,-0.1201017573475837,-2.331130027770996,0.7736309766769409,85.29999542236328,24.97,2
-0.1752442866563797,-0.8635945320129395,-0.144247680902481,-3.95363187789917,0.7733973860740662,85.29999542236328,24.97,2
-0.2244171798229217,-0.8956695199012756,-0.1429498344659805,-5.127415657043457,0.773247480392456,85.29999542236328,24.97,2
-0.2671690583229065,-0.888264536857605,-0.1309213936328888,-5.432860374450684,0.7731512784957886,85.29999542236328,24.97,2
-0.2610181272029876,-1.00666344165802,-0.1288000047206878,-5.102238655090332,0.773089587688446,85.29999542236328,24.97,2
-0.2402774691581726,-1.0434606075286863,-0.1050475239753723,-4.764674663543701,0.7721317410469055,85.53644561767578,24.97,2
-0.2157717645168304,-0.9495216608047484,-0.0618156790733337,-4.795243263244629,0.7715170979499817,85.68818664550781,24.97,2
-0.1776543259620666,-0.8164659738540649,-0.0172786470502614,-5.3235859870910645,0.7711226344108582,85.78556823730469,24.97,2
-0.1755838394165039,-0.8990117311477661,-0.0222839899361133,-6.286014080047607,0.7708694934844971,85.84806060791016,24.97,2
-0.163059577345848,-1.2262758016586304,-0.0422894544899463,-7.129347324371338,0.7707070112228394,85.8881607055664,24.97,2
-0.1550222188234329,-1.2067862749099731,0.0624254569411277,-7.09733772277832,0.7706027626991272,85.91389465332031,24.97,2
-0.1610598564147949,-1.177485704421997,0.1688098758459091,-5.81931209564209,0.7705358862876892,85.93041229248047,24.97,2
-0.2097166627645492,-1.0803134441375732,0.2594723701477051,-3.1218791007995605,0.7704929709434509,85.94100952148438,24.97,2
-0.2297462522983551,-1.017953872680664,0.2952632308006286,0.9915906190872192,0.7709243297576904,85.94781494140625,24.97,2
-0.1642312407493591,-0.9947284460067748,0.273449569940567,5.644786357879639,0.7712011337280273,85.95217895507812,24.97,2
-0.1501763463020324,-1.0246058702468872,0.2538530230522156,9.21131706237793,0.771378755569458,85.9549789428711,24.97,2
-0.146754503250122,-1.0213884115219116,0.2412770986557006,10.493407249450684,0.7714927792549133,85.95677947998047,24.97,2
-0.1277652382850647,-0.9297592639923096,0.2164132744073867,9.374423027038574,0.7715659141540527,85.95793151855469,24.97,2
-0.1155790239572525,-0.8485658168792725,0.1948593258857727,6.714567184448242,0.7716128826141357,85.95867156982422,24.97,2
-0.1357474774122238,-0.8076561093330383,0.1586361527442932,3.961512804031372,0.7716430425643921,85.95914459228516,24.97,2
-0.1710815280675888,-0.7870003581047058,0.112999103963375,2.227004289627075,0.7716623544692993,85.9594497680664,24.97,2
-0.1937568932771682,-0.7793424725532532,0.0669185444712638,1.5402230024337769,0.7725929617881775,85.95964813232422,24.97,2
-0.1971130818128585,-0.8248080611228943,0.0149555951356887,1.2678673267364502,0.7731902003288269,85.95977020263672,24.97,2
-0.1992668956518173,-0.915560781955719,-0.0351845547556877,0.9605298638343812,0.7735734581947327,85.95985412597656,24.97,2
-0.206246867775917,-1.068962812423706,-0.0841549411416053,0.6056650876998901,0.7738193869590759,85.95990753173828,24.97,2
-0.2163239866495132,-1.234580636024475,-0.1323746442794799,0.5140711069107056,0.7739772200584412,85.9599380493164,24.97,2
-0.2339864522218704,-1.3016802072525024,-0.1465259492397308,1.0034254789352417,0.7740785479545593,85.9599609375,24.97,2
-0.2621145248413086,-1.2719697952270508,-0.0996296927332878,1.7366262674331665,0.7741435766220093,85.95997619628906,24.97,2
-0.2801654934883117,-1.174534559249878,-0.0359477289021015,1.949206829071045,0.774185299873352,85.9599838256836,24.97,2
-0.2525651454925537,-1.0336374044418335,0.0497018843889236,1.788275122642517,0.7719166874885559,85.95999145507812,24.97,2
-0.1452884525060653,-1.05517315864563,0.1046668738126754,2.3692703247070312,0.770460844039917,85.95999145507812,24.97,2
-0.0428577922284603,-1.0745913982391355,0.1287446916103363,3.859883308410645,0.7695266008377075,85.95999145507812,24.97,2
-0.0107103390619158,-1.0366729497909546,0.1218053549528122,4.959775924682617,0.7689270377159119,85.95999145507812,24.97,2
-0.0068732788786292,-0.9675568342208862,0.1229498609900474,4.777144908905029,0.7685422897338867,85.95999145507812,24.97,2
-0.0379975214600563,-0.8784198760986328,0.1236843392252922,3.775046586990357,0.7682953476905823,85.95999145507812,24.97,2
-0.0747645944356918,-0.8212169408798218,0.1185579076409339,2.5909886360168457,0.7681368589401245,85.95999145507812,24.97,2
-0.1039573550224304,-0.7845073938369751,0.1096702888607978,1.354645848274231,0.7680351734161377,85.95999145507812,24.97,2
-0.1338871419429779,-0.7889381647109985,0.0927711725234985,0.2280527502298355,0.7698063254356384,86.1749496459961,24.99,2
-0.1810832321643829,-0.7973793745040894,0.0819262936711311,-0.6131548881530762,0.7709429860115051,86.31289672851562,24.99,2
-0.244957610964775,-0.7804053425788879,0.0917600020766258,-1.4825904369354248,0.7716724276542664,86.40142059326172,24.99,2
-0.3027418255805969,-0.8254901170730591,0.1204618066549301,-2.767807006835937,0.7721405029296875,86.4582290649414,24.99,2
-0.3566177487373352,-0.9271939992904664,0.144478753209114,-4.147884368896484,0.7724409103393555,86.49468994140625,24.99,2
-0.419181078672409,-0.9868639707565308,0.1654892116785049,-4.954721927642822,0.7726336717605591,86.5180892944336,24.99,2
-0.4593306183815002,-1.0195589065551758,0.173374742269516,-5.110663414001465,0.7727574110031128,86.5331039428711,24.99,2
-0.4739007353782654,-1.118909478187561,0.1672396808862686,-5.156999111175537,0.7728368043899536,86.54273986816406,24.99,2
-0.4888487756252289,-1.1378847360610962,0.1800958663225174,-5.451845645904541,0.7715106010437012,86.54891967773438,24.99,2
-0.4928437769412994,-1.155659794807434,0.1939440071582794,-5.773616313934326,0.7706595063209534,86.55288696289062,24.99,2
-0.4730164408683777,-1.0607091188430786,0.2028309404850006,-5.743659973144531,0.7701133489608765,86.55543518066406,24.99,2
-0.4714879691600799,-1.033361792564392,0.1917407363653183,-5.212127685546875,0.7697628736495972,86.55706787109375,24.99,2
-0.4649092853069305,-1.088582992553711,0.1454392671585083,-4.07927131652832,0.7695379257202148,86.55812072753906,24.99,2
-0.4215030670166015,-1.2079874277114868,0.0597479045391082,-2.205845355987549,0.7693935632705688,86.55879211425781,24.99,2
-0.3712563514709472,-1.3014075756072998,0.0047561195679008,0.1070100590586662,0.7693009376525879,86.5592269897461,24.99,2
-0.3166197836399078,-1.294185996055603,-0.02493666857481,2.0032637119293213,0.7692415118217468,86.55950164794922,24.99,2
-0.2591660916805267,-1.2503671646118164,-0.0887739807367324,2.9980504512786865,0.7687440514564514,86.55967712402344,24.99,2
-0.1999045312404632,-1.1886601448059082,-0.1633277386426925,3.460901021957397,0.7684248089790344,86.5597915649414,24.99,2
-0.1618738621473312,-1.1098756790161133,-0.2055742740631103,3.761514663696289,0.7682199478149414,86.55986785888672,24.99,2
-0.1374679803848266,-1.0537185668945312,-0.221490129828453,3.614086389541626,0.7680885195732117,86.5599136352539,24.99,2
-0.1162079125642776,-1.01208233833313,-0.2149106860160827,2.734891414642334,0.7680041790008545,86.55994415283203,24.99,2
-0.1025644242763519,-1.0021560192108154,-0.210688367486,1.4720724821090698,0.7679499983787537,86.55996704101562,24.99,2
-0.0938088148832321,-0.9957858324050904,-0.196783185005188,0.2640020251274109,0.7679152488708496,86.55997467041016,24.99,2
-0.0881899669766426,-0.9525133967399596,-0.1710663139820099,-0.8838559985160828,0.7678929567337036,86.55998229980469,24.99,2
-0.0845841169357299,-0.9079503417015076,-0.1489649415016174,-1.9393342733383176,0.7669607996940613,86.55998992919922,24.99,2
-0.0990634113550186,-0.8681567311286926,-0.1123904511332511,-2.484124183654785,0.7663625478744507,86.55998992919922,24.99,2
-0.1251487135887146,-0.8426195383071899,-0.0777234956622123,-2.339343547821045,0.7659786343574524,86.55998992919922,24.99,2
-0.1866709589958191,-0.8822089433670044,-0.049878466874361,-1.8953393697738647,0.7657322883605957,86.55998992919922,24.99,2
-0.265336811542511,-0.8852240443229675,0.0015775162028148,-1.5423340797424316,0.7655741572380066,86.55998992919922,24.99,2
-0.3214178085327148,-0.8703656792640686,0.0625878795981407,-1.315795660018921,0.7654727101325989,86.55998992919922,24.99,2
-0.3909940123558044,-0.8664281964302063,0.16891410946846,-1.1489208936691284,0.7654076218605042,86.55998992919922,24.99,2
-0.4580351114273071,-0.953465700149536,0.2539414763450622,-0.8662840127944946,0.7653658390045166,86.55998992919922,24.99,2
-0.4170916080474853,-1.1100813150405884,0.2861160635948181,-0.2657425701618194,0.7657979726791382,86.7713623046875,24.97,2
-0.2620676159858703,-1.1434149742126465,0.3067638576030731,0.35610032081604,0.7660752534866333,86.90701293945312,24.97,2
-0.1233977153897285,-1.1312198638916016,0.3312099575996399,0.3252542316913605,0.7662532329559326,86.99406433105469,24.97,2
-0.0623962320387363,-1.1066004037857056,0.3580936193466186,-0.4468819499015808,0.7663674354553223,87.0499267578125,24.97,2
-0.0736289545893669,-1.0963988304138184,0.3753460049629211,-1.3185648918151855,0.766440749168396,87.08577728271484,24.97,2
-0.1871951818466186,-1.1234387159347534,0.3640264868736267,-1.820639610290528,0.7664877772331238,87.1087875366211,24.97,2
-0.3440420627593994,-1.1575846672058103,0.3455667197704315,-2.067608118057251,0.7665179371833801,87.12355041503906,24.97,2
-0.4446973800659179,-1.1515086889266968,0.3281225562095642,-2.322827816009521,0.7665373086929321,87.13302612304688,24.97,2
-0.4757055044174194,-1.0972295999526978,0.3001345694065094,-2.7266457080841064,0.7670086622238159,87.13910675048828,24.97,2
-0.473213642835617,-1.0400052070617676,0.2653801441192627,-3.261651039123535,0.767311155796051,87.14301300048828,24.97,2
-0.4436256289482116,-0.9920864105224608,0.1926967948675155,-3.608569383621216,0.7675052881240845,87.14551544189453,24.97,2
-0.4302355349063873,-1.0005192756652832,0.1180639341473579,-3.3188931941986084,0.767629861831665,87.14712524414062,24.97,2
-0.421642541885376,-1.0171265602111816,0.0477777682244777,-2.348411798477173,0.7677097916603088,87.14815521240234,24.97,2
-0.4273236095905304,-1.0725663900375366,-0.019718948751688,-1.0664186477661133,0.7677611112594604,87.14881896972656,24.97,2
-0.4253716170787811,-1.1417311429977417,-0.0686322301626205,0.3689111471176147,0.7677940130233765,87.14924621582031,24.97,2
-0.4241189360618591,-1.2197036743164062,-0.1280108243227005,2.2214927673339844,0.7678151726722717,87.1495132446289,24.97,2
-0.4065217077732086,-1.213764190673828,-0.1717143654823303,4.477980613708496,0.7655337452888489,87.14968872070312,24.97,2
-0.3952288031578064,-1.1427793502807615,-0.2165541052818298,6.434790134429932,0.7640696167945862,87.1498031616211,24.97,2
-0.4327638745307922,-1.1588008403778076,-0.3292962908744812,7.403952121734619,0.7631300687789917,87.14987182617188,24.97,2
-0.4792428314685821,-1.219462513923645,-0.4352343678474426,7.320137023925781,0.7625271081924438,87.14991760253906,24.97,2
-0.4754836857318878,-1.3199671506881714,-0.5591970682144165,6.349209785461426,0.762140154838562,87.14994812011719,24.97,2
-0.3723113536834717,-1.3900630474090576,-0.6331514120101929,4.633439064025879,0.7618918418884277,87.14997100830078,24.97,2
-0.2669168710708618,-1.4294488430023191,-0.6638177633285522,2.622382164001465,0.7617324590682983,87.14997863769531,24.97,2
-0.1656941026449203,-1.4435287714004517,-0.6163243651390076,0.8660667538642883,0.7616301774978638,87.14998626708984,24.97,2
-0.1063329353928566,-1.4189778566360474,-0.5522592067718506,-0.5798847675323486,0.7611052393913269,87.14999389648438,24.97,2
-0.0738361328840255,-1.3472447395324707,-0.4719614386558532,-2.041616916656494,0.7607683539390564,87.14999389648438,24.97,2
-0.0697748810052871,-1.2676239013671875,-0.398039847612381,-3.617370843887329,0.760552167892456,87.14999389648438,24.97,2
-0.078364148736,-1.2109299898147583,-0.3282101154327392,-4.979691505432129,0.7604134678840637,87.14999389648438,24.97,2
-0.1062673404812812,-1.1633516550064087,-0.2666040956974029,-5.807376861572266,0.7603244185447693,87.14999389648438,24.97,2
-0.1353695541620254,-1.1384162902832031,-0.2158733606338501,-6.309877395629883,0.7602673172950745,87.14999389648438,24.97,2
-0.1708389967679977,-1.1615986824035645,-0.1497306525707245,-7.008523464202881,0.7602306604385376,87.14999389648438,24.97,2
-0.2047968059778213,-1.1596825122833252,-0.0680996403098106,-7.997843265533447,0.7602071166038513,87.14999389648438,24.97,2
-0.2265889644622802,-1.1528550386428833,-0.0101157799363136,-8.833355903625488,0.758355975151062,87.32196044921875,24.97,2
-0.2181828171014785,-1.0980935096740725,0.0550837889313697,-9.244149208068848,0.7571679949760437,87.43231964111328,24.97,2
-0.2239837944507599,-1.0237663984298706,0.1249139979481697,-9.561511993408203,0.7564055919647217,87.50313568115234,24.97,2
-0.2892820537090301,-0.8697097897529602,0.2257047444581985,-10.266737937927246,0.7559163570404053,87.548583984375,24.97,2
-0.3927622139453888,-0.8772028088569641,0.2679953575134277,-11.360591888427734,0.7556024193763733,87.57775115966797,24.97,2
-0.4423765242099762,-0.982771337032318,0.2783417105674743,-11.89060115814209,0.7554008960723877,87.59646606445312,24.97,2
-0.4350317120552063,-1.0505191087722778,0.2793836295604706,-9.923551559448242,0.7552716135978699,87.60848236083984,24.97,2
-0.4079271256923675,-1.0772024393081665,0.2856500446796417,-4.10775899887085,0.7551886439323425,87.6161880493164,24.97,2
-0.3625440895557403,-1.0719351768493652,0.295269250869751,4.2316741943359375,0.7551354169845581,87.62113189697266,24.97,2
-0.4005931615829468,-1.0573594570159912,0.2958445250988006,11.84046459197998,0.755101203918457,87.62430572509766,24.97,2
-0.4529997408390045,-1.0536032915115356,0.3018114864826202,16.558549880981445,0.7550792694091797,87.6263427734375,24.97,2
-0.5090223550796509,-1.02320396900177,0.288847416639328,18.353939056396484,0.7550652027130127,87.62765502929688,24.97,2
-0.5505722165107727,-0.986902117729187,0.2693322598934173,17.972774505615234,0.7550561428070068,87.62849426269531,24.97,2
-0.5884320735931396,-0.9412145614624025,0.2456130087375641,16.20915412902832,0.7550503611564636,87.62903594970703,24.97,2
-0.6183261275291443,-0.8839060664176941,0.2303913533687591,14.074241638183594,0.7550466656684875,87.62937927246094,24.97,2
-0.6375104188919067,-0.8303354382514954,0.2094274312257766,12.388911247253418,0.7550442814826965,87.62960052490234,24.97,2
-0.6330284476280212,-0.8127502202987671,0.1679851114749908,11.192721366882324,0.7545838356018066,87.62974548339844,24.97,2
-0.6245543956756592,-0.8182583451271057,0.1357920467853546,9.912766456604004,0.7542883157730103,87.62983703613281,24.97,2
-0.613518476486206,-0.8721731305122375,0.103936843574047,8.138400077819824,0.7540987133979797,87.62989807128906,24.97,2
-0.5784474015235901,-0.962750256061554,0.0667006820440292,6.032418727874756,0.7539770007133484,87.62993621826172,24.97,2
-0.5503430366516113,-1.0320730209350586,0.0316091105341911,3.942910432815552,0.7538989186286926,87.62995910644531,24.97,2
-0.5211117267608643,-1.0541692972183228,0.0034915844444185,2.157745122909546,0.7538487911224365,87.62997436523438,24.97,2
-0.4855594336986542,-1.0291649103164673,-0.0313459485769271,1.083780288696289,0.7538166046142578,87.6299819946289,24.97,2
-0.490732878446579,-1.0579007863998413,-0.0984848663210868,0.6990903615951538,0.7537959814071655,87.62998962402344,24.97,2
-0.5668239593505859,-1.1826995611190796,-0.1863529533147812,-0.0565071962773799,0.7537827491760254,87.62998962402344,24.97,2
-0.6212525963783264,-1.2515926361083984,-0.2595349550247192,-2.246712207794189,0.7537742257118225,87.62998962402344,24.97,2
-0.5610195994377136,-1.26221764087677,-0.3064989447593689,-5.493703365325928,0.753768801689148,87.62998962402344,24.97,2
-0.4999744594097137,-1.2466449737548828,-0.3310399651527405,-8.362019538879395,0.7537652850151062,87.62998962402344,24.97,2
-0.4216147661209106,-1.180673599243164,-0.335593432188034,-9.794325828552246,0.7537630200386047,87.62998962402344,24.97,2
-0.3657302558422088,-1.0991525650024414,-0.3161244988441467,-9.703211784362791,0.7537615895271301,87.62998962402344,24.97,2
-0.324269026517868,-1.0300437211990356,-0.2924349009990692,-8.559219360351562,0.7537606954574585,87.62998962402344,24.97,2
-0.2976615726947784,-0.9856936931610109,-0.266036719083786,-7.001078605651856,0.7537600994110107,87.62998962402344,24.97,2
-0.2749886810779571,-0.9684279561042786,-0.2434981167316436,-5.653643608093262,0.7514643669128418,87.7625503540039,24.97,2
-0.2548407614231109,-0.9629455804824828,-0.2122408151626587,-4.849841117858887,0.7499910593032837,87.84761810302734,24.97,2
-0.2307154238224029,-0.98741614818573,-0.169790580868721,-4.402076244354248,0.7490456104278564,87.90220642089844,24.97,2
-0.21523317694664,-1.031108856201172,-0.1313529163599014,-4.010831832885742,0.748438835144043,87.93724060058594,24.97,2
-0.1941020041704177,-1.0479527711868286,-0.0730991885066032,-3.82423996925354,0.7480494976043701,87.95972442626953,24.97,2
-0.1749434620141983,-1.0195777416229248,-0.0301175285130739,-4.0484232902526855,0.7477996349334717,87.97415161132812,24.97,2
-0.196235254406929,-1.018161654472351,-0.0025343736633658,-4.457401752471924,0.7476392388343811,87.98341369628906,24.97,2
-0.2714746296405792,-1.028448462486267,0.0487535558640956,-4.90973711013794,0.7475363612174988,87.9893569946289,24.97,2
-0.347747802734375,-1.0014632940292358,0.0760694220662117,-5.690832614898682,0.748847484588623,87.99317169189453,24.97,2
-0.3854999840259552,-0.9729501605033876,0.1159902662038803,-6.790385246276856,0.7496888637542725,87.99562072753906,24.97,2
-0.4097271561622619,-0.9322609901428224,0.1584024876356125,-7.442276000976562,0.7502288222312927,87.9971923828125,24.97,2
-0.4084814488887787,-1.07968008518219,0.1800224334001541,-6.6747894287109375,0.7505753040313721,87.99819946289062,24.97,2
-0.3517042696475982,-1.1798828840255735,0.2050924301147461,-4.186766147613525,0.750797688961029,87.99884796142578,24.97,2
-0.2928768396377563,-1.2050029039382937,0.2379742264747619,-0.6340096592903137,0.7509403824806213,87.99925994873047,24.97,2
-0.2271359115839004,-1.1819390058517456,0.303858071565628,3.132713794708252,0.7510319948196411,87.99952697753906,24.97,2
-0.1793494075536728,-1.111160159111023,0.3685296177864074,6.796716213226318,0.7510907649993896,87.99969482421875,24.97,2
-0.1878671944141388,-0.9873695969581604,0.3764454424381256,10.129688262939451,0.7515873908996582,87.99980163574219,24.97,2
-0.2213222980499267,-0.9247212409973145,0.3479387164115906,12.458474159240724,0.7519060969352722,87.99987030029297,24.97,2
-0.2483896315097808,-0.8733215928077698,0.3240469694137573,13.318839073181152,0.7521106004714966,87.99991607666016,24.97,2
-0.2825531959533691,-0.817945122718811,0.2975190877914428,13.107882499694824,0.752241849899292,87.99994659423828,24.97,2
-0.3100751936435699,-0.7768099308013916,0.2804950177669525,12.53901195526123,0.7523260712623596,87.99996948242188,24.97,2
-0.3445305526256561,-0.7392162084579468,0.2695699334144592,11.830016136169434,0.7523801326751709,87.9999771118164,24.97,2
-0.3834353387355804,-0.7430796027183533,0.2345699816942215,10.748072624206545,0.7524148225784302,87.99998474121094,24.97,2
-0.4139999747276306,-0.8127321600914001,0.2009134888648986,9.251246452331545,0.7524371147155762,87.99999237060547,24.97,2
-0.4280168116092682,-0.9134089350700378,0.1849124580621719,7.767613410949707,0.7501564025878906,87.99999237060547,24.97,2
-0.431414246559143,-0.955626368522644,0.1746439188718795,6.822668552398682,0.7486927509307861,87.99999237060547,24.97,2
-0.394410103559494,-0.9939146637916564,0.1680541634559631,6.689157009124756,0.7477535009384155,87.99999237060547,24.97,2
-0.3594674170017242,-1.102452516555786,0.1638252288103103,7.284166812896728,0.747150719165802,87.99999237060547,24.97,2
-0.3594343066215515,-1.1609102487564087,0.1667091250419616,7.794982433319092,0.7467638850212097,87.99999237060547,24.97,2
-0.3762063682079315,-1.0192962884902954,0.1741576194763183,6.7829108238220215,0.7465156316757202,87.99999237060547,24.97,2
-0.3757741749286651,-0.872438907623291,0.1621443033218383,3.682940006256104,0.7463563084602356,87.99999237060547,24.97,2
-0.369899034500122,-1.018898606300354,0.1152504310011863,-0.2302855998277664,0.7462540864944458,87.99999237060547,24.97,2
-0.3605309426784515,-1.1744635105133057,0.1075477376580238,-3.447336196899414,0.7471063733100891,88.1361312866211,24.99,2
-0.3713123798370361,-1.17353618144989,0.1249956935644149,-5.888024806976318,0.7476533055305481,88.22349548339844,24.99,2
-0.3222535252571106,-1.0889744758605957,0.169779434800148,-7.963043689727783,0.7480043172836304,88.2795639038086,24.99,2
-0.27957484126091,-1.0067187547683716,0.2153123766183853,-9.33407974243164,0.7482295632362366,88.31554412841797,24.99,2
-0.2633816599845886,-0.9315406680107116,0.2613261342048645,-9.791187286376951,0.7483741044998169,88.33863830566406,24.99,2
-0.2641853392124176,-0.8832956552505493,0.2796595692634582,-9.941229820251465,0.7484668493270874,88.35345458984375,24.99,2
-0.275896668434143,-0.8691281080245972,0.2802293598651886,-10.202317237854004,0.748526394367218,88.36296081542969,24.99,2
-0.2554234564304352,-0.8376451134681702,0.286192774772644,-10.294633865356444,0.748564600944519,88.36906433105469,24.99,2
-0.2310893684625625,-0.8174411654472351,0.2900197505950928,-10.049358367919922,0.7472119927406311,88.37297821044922,24.99,2
-0.1930820494890213,-0.8436598181724548,0.2868779301643371,-9.709243774414062,0.7463439106941223,88.37549591064453,24.99,2
-0.1630933731794357,-0.8604854345321655,0.2792639136314392,-9.354840278625488,0.7457868456840515,88.37710571289062,24.99,2
-0.1662394553422927,-0.8376964926719666,0.2575843334197998,-8.783476829528809,0.7454293370246887,88.37814331054688,24.99,2
-0.185051754117012,-0.873451828956604,0.2212805449962616,-8.029890060424805,0.7451999187469482,88.3788070678711,24.99,2
-0.2027221769094467,-0.9243864417076112,0.1867873072624206,-7.367152690887451,0.745052695274353,88.37923431396484,24.99,2
-0.2420509159564972,-1.0690288543701172,0.1198693439364433,-6.820038795471191,0.744958221912384,88.37950897216797,24.99,2
-0.2784853875637054,-1.212231993675232,0.0545341446995735,-6.314881801605225,0.7448976039886475,88.37968444824219,24.99,2
-0.3690402209758758,-1.259349346160889,-0.0097853178158402,-6.01936149597168,0.7439408302307129,88.37979888916016,24.99,2
-0.4719353020191192,-1.21681547164917,-0.0118774278089404,-5.818965911865234,0.7433268427848816,88.37986755371094,24.99,2
-0.554760754108429,-1.1055530309677124,0.0147688472643494,-4.866371154785156,0.7429327964782715,88.37991333007812,24.99,2
-0.5631311535835266,-1.1013245582580566,0.0318688936531543,-2.352703094482422,0.7426799535751343,88.37994384765625,24.99,2
-0.5349161624908447,-1.137795329093933,0.0372449457645416,1.6428371667861938,0.7425177097320557,88.37996673583984,24.99,2
-0.4888205230236053,-1.144406795501709,0.0350972115993499,6.166613578796387,0.7424135804176331,88.37997436523438,24.99,2
-0.431250125169754,-1.0814764499664309,0.0281211454421281,9.771897315979004,0.7423467636108398,88.3799819946289,24.99,2
-0.3943047821521759,-1.00750470161438,0.029242081567645,11.27589988708496,0.7423038482666016,88.37998962402344,24.99,2
-0.3761931359767914,-0.9152516722679138,0.0467547550797462,10.61817455291748,0.7418169975280762,88.37998962402344,24.99,2
-0.3813634514808655,-0.8504512310028076,0.0579933822154998,8.601838111877441,0.7415046095848083,88.37998962402344,24.99,2
-0.4070725739002228,-0.808866024017334,0.0540101379156112,6.082629203796387,0.7413040995597839,88.37998962402344,24.99,2
-0.4403645396232605,-0.7877768278121948,0.0346605964004993,3.853325366973877,0.7411754131317139,88.37998962402344,24.99,2
-0.4673271775245666,-0.7518519163131714,0.0222431756556034,2.548076629638672,0.7410928606987,88.37998962402344,24.99,2
-0.4958257973194122,-0.6616240739822388,0.0198721643537282,1.99704909324646,0.7410398721694946,88.37998962402344,24.99,2
-0.5141145586967468,-0.6149165630340576,0.0127528114244341,1.5144585371017456,0.7410058975219727,88.37998962402344,24.99,2
-0.5426445603370667,-0.6353223323822021,-0.0254026260226964,0.9396491050720216,0.7409840822219849,88.37998962402344,24.99,2
-0.5777468085289001,-0.6428198218345642,-0.0666819140315055,0.617343008518219,0.7437243461608887,88.50538635253906,24.99,2
-0.6002733707427979,-0.6756201386451721,-0.1043681353330612,0.7329373359680176,0.7454829216003418,88.58585357666016,24.99,2
-0.6259251832962036,-0.7750383615493774,-0.139748528599739,1.2226978540420532,0.746611475944519,88.63749694824219,24.99,2
-0.6535825729370117,-0.8276436924934387,-0.134464755654335,1.791360855102539,0.7473357319831848,88.67063903808594,24.99,2
-0.6657337546348572,-0.771838366985321,-0.0471073202788829,1.769377827644348,0.7478004693984985,88.69190979003906,24.99,2
-0.6343472599983215,-0.7696123719215393,0.0257469788193702,0.7843924760818481,0.7480987310409546,88.70555877685547,24.99,2
-0.5918141007423401,-0.8633460402488708,0.050109576433897,-0.4352567791938782,0.7482901215553284,88.71431732177734,24.99,2
-0.5645187497138977,-1.074638843536377,0.1105262786149978,-0.9170212149620056,0.7484129667282104,88.71994018554688,24.99,2
-0.5581977367401123,-1.1878433227539062,0.1828848868608474,-0.7926982641220093,0.7443603873252869,88.72354888916016,24.99,2
-0.5317502021789551,-1.1597315073013306,0.2461138069629669,-0.6842543482780457,0.7417596578598022,88.72586059570312,24.99,2
-0.4643976986408233,-1.0689198970794678,0.3034838140010834,-0.4498627781867981,0.7400906682014465,88.72734832763672,24.99,2
-0.4043814241886139,-1.0218377113342283,0.329105019569397,0.2773509621620178,0.7390196323394775,88.72830200195312,24.99,2
-0.2763020396232605,-1.0979808568954468,0.3007650375366211,1.0843795537948608,0.7383322715759277,88.72891235351562,24.99,2
-0.1941080689430236,-1.0740740299224854,0.2881758511066437,1.4553983211517334,0.7378911375999451,88.72930145263672,24.99,2
-0.1413607150316238,-0.9859609007835388,0.2800968289375305,1.5967673063278198,0.7376080751419067,88.72955322265625,24.99,2
-0.1243038177490234,-0.9126216769218444,0.2413255423307418,1.7340632677078247,0.7374264001846313,88.7297134399414,24.99,2
-0.1077599078416824,-0.8823500871658325,0.1940532624721527,1.517652988433838,0.7386869788169861,88.72982025146484,24.99,2
-0.1307296305894851,-0.8685213327407837,0.1189344376325607,0.7374923229217529,0.7394959330558777,88.72988891601562,24.99,2
-0.1510680466890335,-0.8596467971801758,0.0483364053070545,-0.2181569933891296,0.7400150895118713,88.72992706298828,24.99,2
-0.1473267525434494,-0.8819405436515808,-0.0417515486478805,-0.8851763010025024,0.740348219871521,88.7299575805664,24.99,2
-0.128132477402687,-0.9634206295013428,-0.1107603535056114,-1.1269370317459106,0.7405620217323303,88.72997283935547,24.99,2
-0.1158146932721138,-1.049296498298645,-0.1494484543800354,-0.9739835858345032,0.7406992316246033,88.72998046875,24.99,2
-0.1247031763195991,-1.2499488592147827,-0.1798740327358245,-0.6107162833213806,0.7407872676849365,88.72998809814453,24.99,2
-0.124809518456459,-1.2891515493392944,-0.1826060861349105,-0.3775922358036041,0.7408437728881836,88.72999572753906,24.99,2
-0.1248777583241462,-1.224745273590088,-0.1451749503612518,-0.3354639112949371,0.7417982220649719,88.72999572753906,24.99,2
-0.1137260049581527,-1.0602619647979736,-0.0427849553525447,0.0211685821413993,0.7424107789993286,88.72999572753906,24.99,2
-0.0953738987445831,-0.9994882345199584,0.0397163741290569,1.3606332540512085,0.7428038716316223,88.72999572753906,24.99,2
-0.0612054765224456,-1.0612471103668213,0.0982587486505508,3.710576057434082,0.7430561184883118,88.72999572753906,24.99,2
-0.022484827786684,-1.0896848440170288,0.1022412329912185,6.028295993804932,0.7432180047035217,88.72999572753906,24.99,2
-0.0256250165402889,-1.0407612323760986,0.048819214105606,6.903055191040039,0.7433218955993652,88.72999572753906,24.99,2
-0.0724224001169204,-0.958984911441803,0.0201338119804859,5.977656364440918,0.7433885335922241,88.72999572753906,24.99,2
-0.1248453706502914,-0.900907814502716,0.0017251727404072,4.2696075439453125,0.7434313297271729,88.72999572753906,24.99,2
-0.1640851944684982,-0.874832808971405,-0.0100884325802326,2.808057308197021,0.7402455806732178,88.83747100830078,24.97,2
-0.1948648244142532,-0.8636971712112427,-0.0232674982398748,1.68740713596344,0.7382011413574219,88.90644836425781,24.97,2
-0.2146174162626266,-0.856550931930542,-0.0485183857381343,0.5956504940986633,0.736889123916626,88.95071411132812,24.97,2
-0.244086816906929,-0.840769350528717,-0.0591251775622367,-0.5205548405647278,0.7360471487045288,88.97911834716797,24.97,2
-0.268596351146698,-0.8138483166694641,-0.0659320056438446,-1.6166242361068726,0.7355068325996399,88.99734497070312,24.97,2
-0.2955207228660583,-0.8469519019126892,-0.0647024661302566,-2.7857532501220703,0.7351601123809814,89.00904083251953,24.97,2
-0.3183970153331756,-0.8737936615943909,-0.0527178682386875,-4.130740642547607,0.7349376082420349,89.01654815673828,24.97,2
-0.3386754691600799,-0.991779088973999,-0.0506246164441108,-5.524097442626953,0.7347947955131531,89.02136993408203,24.97,2
-0.374080091714859,-1.123473048210144,-0.0044990954920649,-6.704879283905029,0.7374574542045593,89.02445983886719,24.97,2
-0.3856052160263061,-1.1464111804962158,0.0586882568895816,-7.476967334747314,0.7391662001609802,89.02644348144531,24.97,2
-0.39300137758255,-1.0043939352035522,0.1552160084247589,-7.746747016906738,0.7402627468109131,89.02771759033203,24.97,2
-0.4313344359397888,-0.9132553935050964,0.2339552789926529,-7.572366237640381,0.7409664392471313,89.02853393554688,24.97,2
-0.4839232563972473,-1.0618855953216553,0.273290067911148,-7.120113849639893,0.7414180636405945,89.02906036376953,24.97,2
-0.4896828830242157,-1.134876728057861,0.3377172946929931,-6.159942626953125,0.7417078614234924,89.0293960571289,24.97,2
-0.4821835160255432,-1.1201428174972534,0.3958562910556793,-3.899358034133911,0.7418938279151917,89.02960968017578,24.97,2
-0.4773708581924438,-1.015525221824646,0.4387643337249756,0.0555754974484443,0.7420132160186768,89.02974700927734,24.97,2
-0.4910756945610046,-0.9203988313674928,0.4551047086715698,4.761082172393799,0.7397944331169128,89.02983856201172,24.97,2
-0.5278595685958862,-0.8201677203178406,0.4040154814720154,8.533146858215332,0.7383705377578735,89.02989959716797,24.97,2
-0.5514653325080872,-0.7670407295227051,0.3544360399246216,10.298229217529297,0.7374567985534668,89.02993774414062,24.97,2
-0.5554186105728149,-0.7161535620689392,0.3170210421085357,10.141230583190918,0.7368704080581665,89.02996063232422,24.97,2
-0.5355644822120667,-0.6443126797676086,0.281814694404602,8.915548324584961,0.7364940643310547,89.02997589111328,24.97,2
-0.517225444316864,-0.5870137810707092,0.2592212855815887,7.451869487762451,0.7362525463104248,89.02998352050781,24.97,2
-0.511054277420044,-0.5558404326438904,0.2391243726015091,6.000256538391113,0.7360975742340088,89.02999114990234,24.97,2
-0.5126917958259583,-0.5414329767227173,0.2262273281812667,4.402336120605469,0.7359981536865234,89.02999114990234,24.97,2
-0.5137426257133484,-0.5377848744392395,0.2067551910877227,2.4991517066955566,0.7354753613471985,89.02999114990234,24.97,2
-0.5424058437347412,-0.5970191955566406,0.1886613219976425,0.2746761441230774,0.7351399064064026,89.02999114990234,24.97,2
-0.566398024559021,-0.6910101175308228,0.1826474964618683,-2.0090997219085693,0.7349246144294739,89.02999114990234,24.97,2
-0.5705993175506592,-0.812903642654419,0.2123748213052749,-3.797127485275269,0.7347864508628845,89.02999114990234,24.97,2
-0.5676977038383484,-0.8575412034988403,0.2482454180717468,-4.747539043426514,0.7346978187561035,89.02999114990234,24.97,2
-0.5602378249168396,-0.8526003956794739,0.2880584299564361,-5.099513053894043,0.734640896320343,89.02999114990234,24.97,2
-0.577841579914093,-0.8046475052833557,0.3639881014823913,-5.210747241973877,0.7346043586730957,89.02999114990234,24.97,2
-0.5947364568710327,-0.7458851933479309,0.4127154052257538,-5.092254638671875,0.734580934047699,89.02999114990234,24.97,2
-0.605578601360321,-0.8089348673820496,0.4159969091415405,-4.57555627822876,0.7331887483596802,89.14105224609375,24.97,2
-0.5509609580039978,-0.90537428855896,0.3901139199733734,-3.552531719207764,0.7322953343391418,89.21232604980469,24.97,2
-0.4879216253757477,-0.950470209121704,0.362308144569397,-2.229654312133789,0.7317219972610474,89.25806427001953,24.97,2
-0.4082821905612945,-0.9066390991210938,0.3444640040397644,-1.1944137811660769,0.7313540577888489,89.28741455078125,24.97,2
-0.3683697283267975,-0.8449242115020752,0.327414870262146,-0.8811484575271606,0.7311179637908936,89.3062515258789,24.97,2
-0.381940633058548,-0.7941235899925232,0.2884848713874817,-1.1279346942901611,0.7309664487838745,89.31834411621094,24.97,2
-0.418638527393341,-0.789511501789093,0.2243174016475677,-1.5442533493041992,0.7308691740036011,89.32610321044922,24.97,2
-0.4589824378490448,-0.792149543762207,0.1719428747892379,-2.012046813964844,0.7308067679405212,89.3310775756836,24.97,2
-0.496068388223648,-0.7882447242736816,0.1271363645792007,-2.6060211658477783,0.7326027750968933,89.33427429199219,24.97,2
-0.5310635566711426,-0.774543285369873,0.1039799004793167,-3.313214063644409,0.733755350112915,89.3363265991211,24.97,2
-0.5703147649765015,-0.7545549273490906,0.1003149598836898,-4.075151443481445,0.7344950437545776,89.33763885498047,24.97,2
-0.5955039262771606,-0.7417275309562683,0.1091585606336593,-4.865055084228516,0.7349697351455688,89.33848571777344,24.97,2
-0.6172666549682617,-0.7334956526756287,0.1148338764905929,-5.662158489227295,0.7352743744850159,89.33902740478516,24.97,2
-0.6424282789230347,-0.7562018036842346,0.1072804182767868,-6.39939546585083,0.7354698181152344,89.33937072753906,24.97,2
-0.669771134853363,-0.8099576830863953,0.0912374928593635,-6.847434043884277,0.7355952858924866,89.33959197998047,24.97,2
-0.7041115164756775,-0.9452150464057922,0.0697465166449546,-6.701467514038086,0.7356758117675781,89.33973693847656,24.97,2
-0.7149536609649658,-1.1047865152359009,0.0615526214241981,-6.04891300201416,0.7348092794418335,89.33982849121094,24.97,2
-0.6883248686790466,-1.1344192028045654,0.0618920251727104,-5.322039604187012,0.7342531681060791,89.33988952636719,24.97,2
-0.6208560466766357,-0.9799047708511353,0.0341209657490253,-4.439995288848877,0.7338962554931641,89.33992767333984,24.97,2
-0.6111450791358948,-0.8807463049888611,-0.0060919988900423,-2.7346909046173096,0.733667254447937,89.33995056152344,24.97,2
