acc_x,acc_y,acc_z,bvp,eda,hr,temp,label
0.0,0.0,0.0,0.0,0.0,0.0,27.95,2
-0.0963541641831398,-0.1380208283662796,0.0677083283662796,13.691665649414062,0.2672299742698669,14.509998321533203,27.95,2
-0.1711128056049347,-0.3189786672592163,0.1459603756666183,35.32634353637695,0.6257092356681824,33.97463607788086,27.95,2
-0.261056900024414,-0.4564472734928131,0.2439264953136444,56.0488395690918,0.9375244975090028,50.905517578125,27.95,2
-0.3373523652553558,-0.551399827003479,0.2940452694892883,69.8551025390625,1.1650105714797974,63.25750732421875,27.95,2
-0.3835178911685943,-0.6211764216423035,0.3279778063297272,73.66888427734375,1.3190282583236694,71.62032318115234,27.95,2
-0.3915968239307403,-0.6725130081176758,0.3502424359321594,66.9238510131836,1.420085906982422,77.10753631591797,27.95,2
-0.4191464781761169,-0.7001818418502808,0.3423447906970978,52.88576889038086,1.4855360984802246,80.66133117675781,27.95,2
-0.4592538774013519,-0.7515463829040527,0.3260770142078399,37.94676208496094,1.5171537399291992,82.95059204101562,27.95,2
-0.4794379472732544,-0.7621819972991943,0.315621018409729,26.84456825256348,1.5374757051467896,84.4219970703125,27.95,2
-0.4868027567863464,-0.7690116763114929,0.3145031332969665,19.36423683166504,1.5505255460739136,85.36685943603516,27.95,2
-0.5083220601081848,-0.7845902442932129,0.3137855529785156,12.599457740783691,1.558902382850647,85.97338104248047,27.95,2
-0.510938286781311,-0.7889911532402039,0.3189225792884826,4.825765609741211,1.5642787218093872,86.36265563964844,27.95,2
-0.5070196390151978,-0.7918155789375305,0.3334147334098816,-4.910000801086426,1.567729115486145,86.61248016357422,27.95,2
-0.5101025700569153,-0.7880303859710693,0.3427151441574096,-16.556875228881836,1.5699434280395508,86.7728042602539,27.95,2
-0.5176787972450256,-0.8023945689201355,0.3486836552619934,-27.671113967895508,1.5713645219802856,86.87569427490234,27.95,2
-0.5113452672958374,-0.8004171252250671,0.3525139093399048,-34.63523483276367,1.5782439708709717,86.94171905517578,27.95,2
-0.5128785371780396,-0.7991481423377991,0.3549719452857971,-37.30954360961914,1.582658767700195,86.98409271240234,27.95,2
-0.5194602608680725,-0.7983337640762329,0.350951611995697,-39.10816192626953,1.5854918956756592,87.01128387451172,27.95,2
-0.5292817950248718,-0.7978111505508423,0.3427737951278686,-41.2117919921875,1.5873100757598877,87.02873229980469,27.95,2
-0.5355846881866455,-0.803073525428772,0.3375257551670074,-42.439971923828125,1.5884768962860107,87.03993225097656,27.95,2
-0.5340317487716675,-0.806450605392456,0.3397556245326996,-42.18561935424805,1.5892256498336792,87.047119140625,27.95,2
-0.533035159111023,-0.8086178302764893,0.3411866426467895,-44.58393096923828,1.5897061824798584,87.0517349243164,27.95,2
-0.5212000608444214,-0.8100086450576782,0.3477027714252472,-50.90576934814453,1.5900145769119265,87.05469512939453,27.95,2
-0.513604998588562,-0.8109011650085449,0.3518844246864319,-57.305763244628906,1.5668010711669922,87.05659484863281,27.95,2
-0.5031331181526184,-0.8058761954307556,0.3601657450199127,-60.54951095581055,1.5519039630889893,87.05781555175781,27.95,2
-0.5132061839103699,-0.785858154296875,0.3542846739292145,-65.19986724853516,1.5423438549041748,87.05859375,27.95,2
-0.4916816353797912,-0.8121961355209351,0.3617061078548431,-80.45093536376953,1.5362087488174438,87.05909729003906,27.95,2
-0.4834662079811096,-0.8067072033882141,0.3552731871604919,-106.89000701904295,1.5322716236114502,87.05941772460938,27.95,2
-0.5173784494400024,-0.8367713689804077,0.339949369430542,-139.502197265625,1.5297449827194214,87.05962371826172,27.95,2
-0.5167502760887146,-0.8168804049491882,0.3357132077217102,-173.74725341796875,1.5281234979629517,87.05976104736328,27.95,2
-0.5275427103042603,-0.8097133040428162,0.3273968994617462,-214.876205444336,1.527082920074463,87.05984497070312,27.95,2
-0.5400664210319519,-0.7995160818099976,0.3276577591896057,-264.86883544921875,1.5039219856262207,87.35725402832031,28.01,2
-0.5537012219429016,-0.7873743176460266,0.3110318183898926,-316.3652038574219,1.4890586137771606,87.54811096191406,28.01,2
-0.5792445540428162,-0.7795824408531189,0.2947644889354706,-352.425537109375,1.4795202016830444,87.67059326171875,28.01,2
-0.6124300956726074,-0.7465932369232178,0.2843250334262848,-319.9546813964844,1.4733989238739014,87.74919891357422,28.01,2
-0.6449222564697266,-0.736618161201477,0.2664300501346588,-222.39230346679688,1.4694706201553345,87.79964447021484,28.01,2
-0.6657738089561462,-0.7246189713478088,0.2549460828304291,-110.4252471923828,1.466949701309204,87.83201599121094,28.01,2
-0.6847529411315918,-0.7169185876846313,0.2419785559177398,-12.977310180664062,1.4653319120407104,87.85279083251953,28.01,2
-0.6969326734542847,-0.711976945400238,0.2336567491292953,63.25535202026367,1.4642937183380127,87.86611938476562,28.01,2
-0.7103466987609863,-0.720001220703125,0.2339140623807907,109.92723083496094,1.4590367078781128,87.87467193603516,28.01,2
-0.7077594995498657,-0.7307485342025757,0.2396769672632217,123.7318878173828,1.4556630849838257,87.88016510009766,28.01,2
-0.6949036121368408,-0.7376455068588257,0.2433752715587616,112.9476547241211,1.453498125076294,87.8836898803711,28.01,2
-0.6754578948020935,-0.7532671689987183,0.2625419497489929,87.70208740234375,1.4521087408065796,87.88594818115234,28.01,2
-0.6461853981018066,-0.7632922530174255,0.2692442536354065,60.0832633972168,1.4512171745300293,87.88739776611328,28.01,2
-0.6106066703796387,-0.7697257399559021,0.2735454142093658,50.26583862304688,1.4506449699401855,87.8883285522461,28.01,2
-0.5765787959098816,-0.7738543748855591,0.2651101052761078,67.48160552978516,1.4502778053283691,87.88892364501953,28.01,2
-0.5491438508033752,-0.7821016907691956,0.2596967816352844,97.78604125976562,1.4500421285629272,87.88931274414062,28.01,2
-0.503548800945282,-0.7985898852348328,0.2786139249801636,124.37733459472656,1.448513746261597,87.88955688476562,28.01,2
-0.4686907827854156,-0.8091710805892944,0.285156100988388,139.48959350585938,1.4475328922271729,87.88971710205078,28.01,2
-0.4239298105239868,-0.8215592503547668,0.3005500435829162,139.71185302734375,1.4469034671783447,87.88981628417969,28.01,2
-0.3896070122718811,-0.8910847902297974,0.2936356663703918,124.11981964111328,1.446499586105347,87.88988494873047,28.01,2
-0.3619828522205353,-0.9468978047370912,0.2836006283760071,100.58594512939452,1.4462403059005735,87.88992309570312,28.01,2
-0.333059698343277,-0.982715368270874,0.321942925453186,80.10223388671875,1.4460740089416504,87.88995361328125,28.01,2
-0.3368895649909973,-0.9945054650306702,0.3409510254859924,64.40975189208984,1.445967197418213,87.88996887207031,28.01,2
-0.3449451327323913,-0.9404962062835692,0.3139649033546448,50.065208435058594,1.4458986520767212,87.88997650146484,28.01,2
-0.3557125031948089,-0.9282272458076476,0.2686578929424286,36.55344772338867,1.4343786239624023,87.88998413085938,28.01,2
-0.3626223802566528,-0.9427448511123656,0.2395824640989303,26.177074432373047,1.426985740661621,87.8899917602539,28.01,2
-0.3670567572116852,-0.9184747338294984,0.2209235280752182,19.37122917175293,1.422241449356079,87.8899917602539,28.01,2
-0.369902491569519,-0.8861062526702881,0.1977537423372268,14.878238677978516,1.419196844100952,87.8899917602539,28.01,2
-0.3717287182807922,-0.8373451828956604,0.1772869378328323,12.596769332885742,1.4172430038452148,87.8899917602539,28.01,2
-0.3729006648063659,-0.8228464126586914,0.169750303030014,12.064123153686523,1.4159891605377195,87.8899917602539,28.01,2
-0.3736527562141418,-0.8191397190093994,0.1705114990472793,10.138802528381348,1.415184497833252,87.8899917602539,28.01,2
-0.3685376346111297,-0.8279565572738647,0.170999988913536,2.1572530269622803,1.414668083190918,87.8899917602539,28.01,2
-0.3596572875976562,-0.833614706993103,0.171313464641571,-12.422845840454102,1.4120416641235352,88.15510559082031,27.99,2
-0.3651539385318756,-0.837245762348175,0.1883079558610916,-27.171289443969727,1.4103561639785769,88.32524108886719,27.99,2
-0.3798769116401672,-0.8507714867591858,0.1992140412330627,-35.34626388549805,1.4092744588851929,88.4344253540039,27.99,2
-0.3949230313301086,-0.876244843006134,0.2062129527330398,-37.235618591308594,1.408580303192139,88.5044937133789,27.99,2
-0.3877854645252228,-0.9149832725524902,0.2051066756248474,-36.9075927734375,1.4081348180770874,88.54945373535156,27.99,2
-0.3776071965694427,-0.9510389566421508,0.2043967247009277,-34.60844039916992,1.4078489542007446,88.57830810546875,27.99,2
-0.3934664726257324,-1.058143973350525,0.192745566368103,-27.834348678588867,1.407665491104126,88.5968246459961,27.99,2
-0.4708173274993896,-1.177257776260376,0.2132574021816253,-16.99191665649414,1.4075478315353394,88.60871124267578,27.99,2
-0.5204566717147827,-1.1529382467269895,0.2040296196937561,-5.122157096862793,1.4042587280273438,88.61634063720703,27.99,2
-0.4907368123531341,-1.1093424558639526,0.2093033045530319,5.705159187316895,1.4021480083465576,88.62123107910156,27.99,2
-0.4772621095180511,-1.1765273809432983,0.2238831967115402,14.74931526184082,1.400793433189392,88.62437438964844,27.99,2
-0.4294303953647613,-1.2140450477600098,0.2052508741617202,21.42748069763184,1.3999241590499878,88.62638854980469,27.99,2
-0.3651480972766876,-1.1205685138702393,0.1765003949403762,25.422956466674805,1.39936625957489,88.62767791748047,27.99,2
-0.3126998841762543,-1.0213961601257324,0.1580499857664108,26.994647979736328,1.3990082740783691,88.62850952148438,27.99,2
-0.2902371883392334,-0.9465575218200684,0.1238184794783592,26.39827537536621,1.3987785577774048,88.62904357910156,27.99,2
-0.2758219242095947,-0.9097259640693665,0.0850573480129242,23.59015464782715,1.3986310958862305,88.62938690185547,27.99,2
-0.2385821491479873,-0.8581007122993469,0.0489871352910995,18.954246520996094,1.401750087738037,88.62960815429688,27.99,2
-0.1978904902935028,-0.8305683732032776,0.0202415753155946,13.750825881958008,1.4037516117095947,88.62974548339844,27.99,2
-0.1717769205570221,-0.807301938533783,0.0073921042494475,9.089598655700684,1.4050360918045044,88.62983703613281,27.99,2
-0.1886053830385208,-0.8315553069114685,0.0103416014462709,4.736912727355957,1.405860424041748,88.62989807128906,27.99,2
-0.2106004655361175,-0.8863041400909424,0.0066366447135806,-0.2775871753692627,1.4063893556594849,88.62993621826172,27.99,2
-0.2527045309543609,-0.915840983390808,0.0042590163648128,-6.035650253295898,1.4067288637161257,88.62995910644531,27.99,2
-0.2965178191661834,-0.9795782566070556,0.0083309663459658,-11.357333183288574,1.4069466590881348,88.62997436523438,27.99,2
-0.3134391009807586,-1.093252182006836,-0.0058492142707109,-15.205974578857422,1.4070864915847778,88.6299819946289,27.99,2
-0.3634826242923736,-1.1885926723480225,0.001844085403718,-17.740297317504883,1.4085530042648315,88.62998962402344,27.99,2
-0.4123910069465637,-1.1434190273284912,0.0347700752317905,-19.420419692993164,1.409494161605835,88.62998962402344,27.99,2
-0.4493753612041473,-1.1256247758865356,0.0726934075355529,-19.66388511657715,1.4100980758666992,88.62998962402344,27.99,2
-0.4843053519725799,-1.0806187391281128,0.0746393129229545,-17.305158615112305,1.4104857444763184,88.62998962402344,27.99,2
-0.4843302965164184,-0.9957587122917176,0.0926814079284668,-12.248296737670898,1.4107344150543213,88.62998962402344,27.99,2
-0.4619552195072174,-0.8629316091537476,0.1210531145334243,-6.015225410461426,1.4108940362930298,88.62998962402344,27.99,2
-0.4587917327880859,-0.7608975172042847,0.161651536822319,-0.5105170607566833,1.410996437072754,88.62998962402344,27.99,2
-0.490348219871521,-0.6786245703697205,0.1765097230672836,3.616795301437378,1.411062240600586,88.62998962402344,27.99,2
-0.5329904556274414,-0.6258265376091003,0.1524582058191299,7.089459419250488,1.4257941246032717,88.78046417236328,27.95,2
-0.5435624718666077,-0.603139340877533,0.1314255446195602,10.435778617858888,1.4352481365203855,88.87702941894531,27.95,2
-0.5615425109863281,-0.6053733229637146,0.1403190940618515,13.24244785308838,1.4413151741027832,88.93899536132812,27.95,2
-0.5954721570014954,-0.6236003041267395,0.1516242325305938,15.237065315246582,1.4452086687088013,88.97876739501953,27.95,2
-0.6284418106079102,-0.6800795197486877,0.164476990699768,16.932674407958984,1.4477072954177856,89.00428771972656,27.95,2
-0.6551976203918457,-0.7443134784698486,0.2063118070363998,18.769577026367188,1.4493107795715332,89.02066802978516,27.95,2
-0.7451390624046326,-0.791132926940918,0.2051701098680496,20.73656272888184,1.4503397941589355,89.03118133544922,27.95,2
-0.7748693823814392,-0.8547655940055847,0.2212307602167129,22.99481773376465,1.451000094413757,89.03792572021484,27.95,2
-0.754764199256897,-0.9123947024345398,0.2987108528614044,25.69435310363769,1.4468334913253784,89.04225158691406,27.95,2
-0.7474595904350281,-0.9381821751594543,0.2756620347499847,28.12894630432129,1.4441596269607544,89.04502868652344,27.95,2
-0.6700008511543274,-0.9603288769721984,0.2944572865962982,29.16468811035156,1.4424437284469604,89.04681396484375,27.95,2
-0.7378455996513367,-1.0417146682739258,0.2337479293346405,28.493066787719727,1.44134259223938,89.04795837402344,27.95,2
-0.6694289445877075,-1.0043790340423584,0.1947881579399109,26.76158332824707,1.4406359195709229,89.04869079589844,27.95,2
-0.5919364094734192,-0.9468324780464172,0.1697860211133957,24.615053176879883,1.4401824474334717,89.04916381835938,27.95,2
-0.4974239766597748,-0.8539246320724487,0.148143321275711,22.184255599975582,1.439891338348389,89.0494613647461,27.95,2
-0.43117356300354,-0.7831062078475952,0.1286565065383911,19.553119659423828,1.4397045373916626,89.04965209960938,27.95,2
-0.4054511785507202,-0.7376590371131897,0.1049554347991943,17.06211280822754,1.4464703798294067,89.04977416992188,27.95,2
-0.4001396000385284,-0.7084936499595642,0.0785499066114425,14.592961311340332,1.4508123397827148,89.04985809326172,27.95,2
-0.3855353593826294,-0.6953747272491455,0.0616043582558631,11.28518295288086,1.4535987377166748,89.04991149902344,27.95,2
-0.3817609846591949,-0.7093468904495239,0.0675230026245117,6.744202613830566,1.4553868770599363,89.04994201660156,27.95,2
-0.3961321413516998,-0.7351067066192627,0.0769190192222595,1.5909531116485596,1.4565343856811523,89.04996490478516,27.95,2
-0.4277458190917969,-0.7796267867088318,0.0997421666979789,-3.9337198734283447,1.457270860671997,89.04998016357422,27.95,2
-0.4256425499916076,-0.8585771322250366,0.1143887490034103,-10.8969144821167,1.4577434062957764,89.04998779296875,27.95,2
-0.4019016921520233,-0.9204384684562684,0.1181903108954429,-20.65337371826172,1.4580466747283936,89.04999542236328,27.95,2
-0.3810684084892273,-1.0720930099487305,0.1150321587920188,-33.141021728515625,1.4554870128631592,89.04999542236328,27.95,2
-0.4068832397460937,-1.091047286987305,0.1130054369568824,-46.29945755004883,1.453844428062439,89.04999542236328,27.95,2
-0.4290474653244018,-1.030440092086792,0.1229003518819809,-57.64566802978516,1.4527902603149414,89.04999542236328,27.95,2
-0.4544667601585388,-1.0363280773162842,0.1292503476142883,-65.87639617919922,1.4521137475967407,89.04999542236328,27.95,2
-0.4819749295711517,-1.056899905204773,0.1165320798754692,-71.09033203125,1.4516795873641968,89.04999542236328,27.95,2
-0.4996280968189239,-1.0085262060165403,0.0971746817231178,-75.08837127685547,1.4514009952545166,89.04999542236328,27.95,2
-0.4661746919155121,-0.9159072637557985,0.1127410903573036,-79.66390228271484,1.4512221813201904,89.04999542236328,27.95,2
-0.4335106611251831,-0.8732630610466003,0.1395240277051925,-81.9732666015625,1.4511075019836426,89.04999542236328,27.95,2
-0.4517332017421722,-0.8514942526817322,0.1623095571994781,-76.14324188232422,1.4570013284683228,89.23628997802734,27.93,2
-0.4746229350566864,-0.8319264650344849,0.1769319921731948,-61.915672302246094,1.4607837200164795,89.35584259033203,27.93,2
-0.4949100017547607,-0.8249667882919312,0.1919136047363281,-45.29765319824219,1.4632110595703125,89.43256378173828,27.93,2
-0.5023313164710999,-0.8316960334777832,0.2127234935760498,-29.77877616882324,1.4647687673568726,89.48180389404297,27.93,2
-0.4958983361721039,-0.8528077602386475,0.2204803079366684,-14.238001823425291,1.465768337249756,89.51339721679688,27.93,2
-0.4693789184093475,-0.8775516152381897,0.1974693089723587,1.2451742887496948,1.4664098024368286,89.53367614746094,27.93,2
-0.4635558426380157,-0.91582190990448,0.1771043986082077,14.42361545562744,1.466821551322937,89.54669189453125,27.93,2
-0.4878077805042267,-0.9739682078361512,0.1136554107069969,24.553844451904297,1.4670857191085815,89.55503845214844,27.93,2
-0.5033712983131409,-1.0616631507873535,0.0281553026288747,32.46637725830078,1.4690916538238523,89.5604019165039,27.93,2
-0.5189568400382996,-1.1515274047851562,-0.0211159661412239,38.08515548706055,1.4703789949417114,89.5638427734375,27.93,2
-0.5961320400238037,-1.147621512413025,-0.0583332069218158,40.505130767822266,1.4712051153182983,89.56604766845703,27.93,2
-0.6512563824653625,-1.133919358253479,-0.1046081855893135,40.05188751220703,1.4717352390289309,89.56746673583984,27.93,2
-0.6698387265205383,-1.1755061149597168,-0.1902825534343719,38.39964294433594,1.4720754623413086,89.56837463378906,27.93,2
-0.6089926958084106,-1.1742051839828491,-0.2340678721666336,36.72312545776367,1.4722938537597656,89.56895446777344,27.93,2
-0.5195652842521667,-1.122990369796753,-0.2397756725549698,35.20299530029297,1.4724339246749878,89.56932830810547,27.93,2
-0.4173937141895294,-1.0285481214523315,-0.2210475206375122,33.5646858215332,1.472523808479309,89.56957244873047,27.93,2
-0.3630214333534241,-0.9679405689239502,-0.2202244102954864,30.71127700805664,1.4771718978881836,89.5697250366211,27.93,2
-0.356117308139801,-0.901057243347168,-0.2364895194768905,25.36203384399414,1.4801547527313232,89.56982421875,27.93,2
-0.3572843968868255,-0.8581354022026062,-0.2469275295734405,18.18540573120117,1.4820690155029297,89.56988525390625,27.93,2
-0.3356422781944275,-0.8305906057357788,-0.2480282634496688,11.52346134185791,1.4832974672317505,89.5699234008789,27.93,2
-0.332949161529541,-0.8241094946861267,-0.2319413274526596,6.603344917297363,1.4840857982635498,89.56995391845703,27.93,2
-0.3424164056777954,-0.8367436528205872,-0.2160198837518692,3.0088231563568115,1.484591722488403,89.5699691772461,27.93,2
-0.3540897369384765,-0.8560470342636108,-0.1890091001987457,0.1252713203430175,1.48491632938385,89.56997680664062,27.93,2
-0.350385457277298,-0.8908259272575378,-0.1604795753955841,-3.072274923324585,1.4851247072219849,89.56998443603516,27.93,2
-0.3536060154438019,-0.9915139079093932,-0.1085843294858932,-8.434576034545898,1.4939801692962646,89.56999206542969,27.93,2
-0.3332816958427429,-0.9665652513504028,-0.0360965244472026,-16.52239227294922,1.4996631145477295,89.56999206542969,27.93,2
-0.3146409392356872,-0.9673479795455932,0.0216175243258476,-24.933422088623047,1.5033100843429563,89.56999206542969,27.93,2
-0.3306672573089599,-1.0014369487762451,0.0698506236076355,-30.47802352905273,1.505650520324707,89.56999206542969,27.93,2
-0.3521475791931152,-1.0009222030639648,0.1008038520812988,-32.39182662963867,1.5071525573730469,89.56999206542969,27.93,2
-0.3715301752090454,-0.9558095932006836,0.1318634003400802,-32.58821487426758,1.5081164836883545,89.56999206542969,27.93,2
-0.3559799492359161,-0.9156634211540222,0.1517956256866455,-33.1871452331543,1.5087350606918335,89.56999206542969,27.93,2
-0.3404029309749603,-0.8898999094963074,0.1757825314998626,-33.843780517578125,1.5091320276260376,89.56999206542969,27.93,2
-0.358395367860794,-0.8957574367523193,0.2135670483112335,-31.126832962036133,1.5080095529556274,89.72404479980469,27.91,2
-0.386735200881958,-0.9051142334938048,0.2378149777650833,-21.55890846252441,1.5072892904281616,89.82290649414062,27.91,2
-0.4049220681190491,-0.8943255543708801,0.2477781325578689,-5.541604042053223,1.5068269968032837,89.8863525390625,27.91,2
-0.399800032377243,-0.9097931385040284,0.2597696781158447,12.937895774841309,1.5065304040908811,89.92707061767578,27.91,2
-0.3909152448177337,-0.925317108631134,0.2618674039840698,30.36787986755371,1.5063400268554688,89.95320129394531,27.91,2
-0.3908112645149231,-0.9800617098808287,0.2464202642440796,45.92060089111328,1.5062178373336792,89.969970703125,27.91,2
-0.3963423073291778,-1.0207914113998413,0.2197138667106628,60.3151741027832,1.5061393976211548,89.98072814941406,27.91,2
-0.4166851341724396,-1.0525271892547607,0.1633908152580261,74.35343170166016,1.5060890913009644,89.98763275146484,27.91,2
-0.4353377521038055,-1.112077713012695,0.0936592742800712,88.2167739868164,1.5239596366882324,89.9920654296875,27.91,2
-0.4920901358127594,-1.22306489944458,0.0657029077410698,101.1402816772461,1.5354279279708862,89.99491119384766,27.91,2
-0.5732927322387695,-1.126356840133667,0.0477621182799339,111.78401184082033,1.5427876710891724,89.99673461914062,27.91,2
-0.6086105704307556,-1.0642951726913452,0.0194554291665554,118.95489501953124,1.5475107431411743,89.9979019165039,27.91,2
-0.6368733048439026,-1.1196297407150269,-0.0378945954144001,121.7296371459961,1.5505417585372925,89.9986572265625,27.91,2
-0.6102284789085388,-1.1047604084014893,-0.0579052157700061,119.07149505615234,1.552486777305603,89.99913787841797,27.91,2
-0.5483471751213074,-1.067229151725769,-0.0707468837499618,110.18617248535156,1.5537350177764893,89.99944305419922,27.91,2
-0.475048691034317,-1.0095571279525757,-0.0957812443375587,96.2119140625,1.5545361042022705,89.99964141845703,27.91,2
-0.4224121570587158,-0.9837421178817748,-0.1230424046516418,80.79182434082031,1.5545912981033323,89.99977111816406,27.91,2
-0.4054263830184936,-0.9503822326660156,-0.1629281491041183,67.07707214355469,1.554626703262329,89.9998550415039,27.91,2
-0.3945259153842926,-0.923375964164734,-0.1997200697660446,54.24891662597656,1.5546493530273438,89.99990844726562,27.91,2
-0.3819328248500824,-0.9116426706314088,-0.217733234167099,38.95170593261719,1.554663896560669,89.99993896484375,27.91,2
-0.3738512992858886,-0.9153084754943848,-0.2236952781677246,19.94194793701172,1.554673194885254,89.99996185302734,27.91,2
-0.3742628395557403,-0.9288565516471864,-0.2163258194923401,-0.9630786180496216,1.554679274559021,89.9999771118164,27.91,2
-0.3689291477203369,-0.9655397534370422,-0.1892054229974746,-22.439516067504883,1.5546830892562866,89.99998474121094,27.91,2
-0.3431152105331421,-1.0450587272644043,-0.1494100242853164,-45.66194534301758,1.5546855926513672,89.99999237060547,27.91,2
-0.3265492916107178,-1.0960893630981443,-0.1070782989263534,-72.09707641601562,1.5556050539016724,89.99999237060547,27.91,2
-0.3215160369873047,-1.0224802494049072,-0.0351300425827503,-101.05608367919922,1.5561951398849487,89.99999237060547,27.91,2
-0.3126882016658783,-0.9472532272338868,0.0222377553582191,-130.0548553466797,1.556573748588562,89.99999237060547,27.91,2
-0.3070229887962341,-0.9493568539619446,0.0590531080961227,-156.06619262695312,1.5568166971206665,89.99999237060547,27.91,2
-0.3257784843444824,-0.9339134693145752,0.0994724035263061,-176.21595764160156,1.556972622871399,89.99999237060547,27.91,2
-0.3378146886825561,-0.9016117453575134,0.1422045081853866,-188.8639068603516,1.5570727586746216,89.99999237060547,27.91,2
-0.3007566332817077,-0.8416979312896729,0.1864208281040191,-193.90318298339844,1.5571370124816897,89.99999237060547,27.91,2
-0.2713771462440491,-0.8144442439079285,0.2091985493898391,-190.79237365722656,1.557178258895874,89.99999237060547,27.91,2
-0.2581208348274231,-0.8529320955276489,0.2406093031167984,-177.69004821777344,1.555827498435974,90.13971710205078,27.91,2
-0.2943958938121795,-0.9000225067138672,0.2663646936416626,-154.20982360839844,1.5549607276916504,90.22938537597656,27.91,2
-0.3232729136943817,-0.9302424192428588,0.2828930020332336,-123.42123413085938,1.5544044971466064,90.28692626953124,27.91,2
-0.358597844839096,-0.9440380334854126,0.2879021465778351,-89.77323913574219,1.554047465324402,90.3238525390625,27.91,2
-0.3868651390075683,-0.9472935199737548,0.2743234038352966,-56.364559173583984,1.5538183450698853,90.34754943847656,27.91,2
-0.3714188039302826,-0.9437848925590516,0.2600115835666656,-24.25230026245117,1.5536713600158691,90.36275482177734,27.91,2
-0.3559084832668304,-0.9583265781402588,0.2452293038368225,7.404163360595703,1.5535770654678345,90.3725128173828,27.91,2
-0.3907370269298553,-0.9732564091682434,0.2189495712518692,40.02202224731445,1.553516507148743,90.37877655029295,27.91,2
-0.4802612960338592,-0.9940330386161804,0.1573025584220886,73.27118682861328,1.5562318563461304,90.38279724121094,27.91,2
-0.5489083528518677,-1.0353552103042605,0.0897521749138832,104.65412139892578,1.5579744577407837,90.3853759765625,27.91,2
-0.6713309288024902,-1.1458399295806885,0.0799888744950294,131.43597412109375,1.5590927600860596,90.38703155517578,27.91,2
-0.6771236062049866,-1.0264183282852173,0.0345389358699321,151.79360961914062,1.5598104000091553,90.38809204101562,27.91,2
-0.6528521776199341,-0.9665737748146056,-0.0114215472713112,164.3241729736328,1.56027090549469,90.38877868652344,27.91,2
-0.6652650237083435,-1.012135624885559,-0.029720788821578,167.84793090820312,1.560566544532776,90.38921356201172,27.91,2
-0.662035346031189,-1.0301790237426758,-0.0190730914473533,162.4676513671875,1.5607562065124512,90.38949584960938,27.91,2
-0.587191641330719,-0.99697607755661,-0.0178377870470285,150.68182373046875,1.5608779191970823,90.38967895507812,27.91,2
-0.4775857329368591,-0.9588750004768372,-0.0282405875623226,136.6912078857422,1.5733503103256226,90.3897933959961,27.91,2
-0.3960514366626739,-0.9344239234924316,-0.0461120568215847,123.4173355102539,1.5813543796539309,90.3898696899414,27.91,2
-0.3661184906959533,-0.9131348729133606,-0.074374258518219,110.41354370117188,1.5864909887313845,90.3899154663086,27.91,2
-0.3469092547893524,-0.9050705432891846,-0.0981090888381004,95.8419418334961,1.5897873640060425,90.38994598388672,27.91,2
-0.3289841115474701,-0.8942975401878357,-0.124536283314228,79.386474609375,1.591902732849121,90.38996887207033,27.91,2
-0.3230785429477691,-0.9265684485435486,-0.1358979642391204,61.421119689941406,1.5932602882385254,90.38997650146484,27.91,2
-0.3136909306049347,-0.975266933441162,-0.1487870067358017,41.22573852539063,1.5941314697265625,90.38998413085938,27.91,2
-0.3132642805576324,-1.0009210109710691,-0.1458629071712494,18.094575881958008,1.5946905612945557,90.3899917602539,27.91,2
-0.3129904568195343,-1.01738440990448,-0.1383886188268661,-7.217961311340332,1.5881636142730713,90.3899917602539,27.91,2
-0.2904236614704132,-1.0839273929595947,-0.1279942691326141,-33.48255157470703,1.583975076675415,90.3899917602539,27.91,2
-0.2815393507480621,-1.0482620000839231,-0.0877371281385421,-59.88163757324219,1.5812870264053345,90.3899917602539,27.91,2
-0.2814356982707977,-0.9693962335586548,-0.039511315524578,-85.19552612304688,1.579562067985535,90.3899917602539,27.91,2
-0.3205536007881164,-0.9579691886901855,0.0138283353298902,-107.65987396240234,1.578455090522766,90.3899917602539,27.91,2
-0.3456571996212005,-0.9674292802810668,0.0592541992664337,-126.0134506225586,1.5777446031570437,90.3899917602539,27.91,2
-0.3505716919898987,-0.9343158006668092,0.094003677368164,-138.97396850585938,1.5772887468338013,90.3899917602539,27.91,2
-0.3145411312580108,-0.8738810420036316,0.1107061207294464,-143.78753662109375,1.5769962072372437,90.3899917602539,27.91,2
-0.2802232205867767,-0.8406952619552612,0.1270225644111633,-137.97389221191406,1.5717591047286987,90.44373321533205,27.91,2
-0.2693955302238464,-0.8585829734802246,0.1710801571607589,-122.99732971191406,1.5683982372283936,90.47821807861328,27.91,2
-0.2848380208015442,-0.8868556022644043,0.2161471098661422,-103.44458770751952,1.5662415027618408,90.50035095214844,27.91,2
-0.3003458976745605,-0.9105970859527588,0.2450684905052185,-82.28783416748047,1.5648573637008667,90.51455688476562,27.91,2
-0.2935046553611755,-0.9426263570785522,0.2636285722255707,-59.89034652709961,1.5639691352844238,90.52367401123048,27.91,2
-0.2779187858104706,-0.9519853591918944,0.264343798160553,-37.18743896484375,1.563399076461792,90.52952575683594,27.91,2
-0.2175367027521133,-0.9691869616508484,0.2871938943862915,-16.07623863220215,1.5630333423614502,90.53327941894533,27.91,2
-0.1507980823516845,-0.9970192909240724,0.3186511099338531,3.1751744747161865,1.5627986192703247,90.5356903076172,27.91,2
-0.1919356882572174,-1.031673789024353,0.2660674452781677,21.741809844970703,1.5654021501541138,90.5372314453125,27.91,2
-0.263117641210556,-1.037119746208191,0.1875400990247726,39.91556930541992,1.5670729875564575,90.53822326660156,27.91,2
-0.3367869853973388,-1.068603515625,0.1259502172470092,57.081275939941406,1.5681452751159668,90.53885650634766,27.91,2
-0.4512370228767395,-1.144785761833191,0.1032186970114708,72.55038452148438,1.568833351135254,90.53926849365234,27.91,2
-0.5470755696296692,-1.1320996284484863,0.0830331444740295,84.80982208251953,1.56927490234375,90.5395278930664,27.91,2
-0.5414059162139893,-1.0903717279434204,0.0644814446568489,91.65260314941406,1.5695582628250122,90.5396957397461,27.91,2
-0.5209741592407227,-1.1643531322479248,0.074967123568058,92.2427978515625,1.5697401762008667,90.53980255126952,27.91,2
-0.4910688996315002,-1.1838412284851074,0.0816962346434593,88.15766143798828,1.569856882095337,90.53987121582033,27.91,2
-0.4214974641799927,-1.1291742324829102,0.0860145837068557,82.6413345336914,1.566259264945984,90.5399169921875,27.91,2
-0.3544594347476959,-1.0717010498046875,0.0943836271762847,78.76451110839844,1.563950538635254,90.53994750976562,27.91,2
-0.3058404922485351,-1.0012314319610596,0.0773633047938346,77.2367172241211,1.5624690055847168,90.53997039794922,27.91,2
-0.2746396660804748,-0.9560080766677856,0.0440495423972606,76.57511901855469,1.5615181922912598,90.53997802734376,27.91,2
-0.2490189969539642,-0.9157907962799072,0.0114751365035772,75.75645446777344,1.5609080791473389,90.53998565673828,27.91,2
-0.215783804655075,-0.8563950061798096,-0.0038314673583954,74.36410522460938,1.5605164766311646,90.5399932861328,27.91,2
-0.1888576000928878,-0.8126804232597351,-0.013654364272952,70.3680648803711,1.5602651834487915,90.5399932861328,27.91,2
-0.171577900648117,-0.7622358202934265,-0.0087625849992036,61.33708572387695,1.5601038932800293,90.5399932861328,27.91,2
-0.1884776651859283,-0.7970366477966309,0.0055722254328429,47.35533905029297,1.5590821504592896,90.5399932861328,27.91,2
-0.1993229538202285,-0.8193698525428772,-0.0020218410063534,29.58026885986328,1.5584264993667605,90.5399932861328,27.91,2
-0.2342717051506042,-0.8504953384399414,0.004300273489207,7.7801995277404785,1.558005690574646,90.5399932861328,27.91,2
-0.2622975707054138,-0.9096542596817015,0.0195529907941818,-18.11114501953125,1.5577356815338137,90.5399932861328,27.91,2
-0.2243052273988723,-1.0707701444625854,0.0181457586586475,-46.1479721069336,1.5575624704360962,90.5399932861328,27.91,2
-0.2559016644954681,-1.1909583806991575,0.034035999327898,-73.56973266601562,1.557451248168945,90.5399932861328,27.91,2
-0.2761784493923187,-1.1729260683059692,0.0610267668962478,-98.46514892578124,1.5573798418045044,90.5399932861328,27.91,2
-0.2947886884212494,-1.1949405670166016,0.0671523362398147,-119.98383331298828,1.557334065437317,90.5399932861328,27.91,2
-0.32912278175354,-1.1754815578460691,0.0430945046246051,-136.77040100097656,1.5550096035003662,90.61881256103516,27.89,2
-0.3623519539833069,-1.1070162057876587,0.0108622508123517,-145.02450561523438,1.5535179376602173,90.66939544677734,27.89,2
-0.3892742991447449,-0.9847102165222168,-0.0154203316196799,-140.6378173828125,1.5525606870651243,90.7018585205078,27.89,2
-0.4009537398815155,-0.8894279599189758,-0.021091429516673,-124.00469970703124,1.5519464015960691,90.72268676757812,27.89,2
-0.4308400452136993,-0.8282812833786011,-0.0191330406814813,-99.86003875732422,1.551552176475525,90.73605346679688,27.89,2
-0.4556171298027038,-0.7946386337280273,-0.0122784841805696,-72.80799865722656,1.551299214363098,90.74463653564452,27.89,2
-0.4547243118286133,-0.7898420691490173,-0.0078796241432428,-45.602638244628906,1.55113685131073,90.7501449584961,27.89,2
-0.4485535621643066,-0.8147527575492859,0.0229321829974651,-19.656681060791016,1.5510326623916626,90.75367736816406,27.89,2
-0.4445935487747192,-0.8587278723716736,0.0483032017946243,5.327011585235596,1.5532608032226562,90.75594329833984,27.89,2
-0.4476500153541565,-0.8925463557243347,0.0589870847761631,30.047855377197266,1.554690718650818,90.75740051269533,27.89,2
-0.4552092552185058,-0.9254446625709534,0.077038936316967,53.43925857543945,1.5556083917617798,90.75833129882812,27.89,2
-0.4600603282451629,-0.996936857700348,0.0942213535308837,74.00350952148438,1.5561972856521606,90.75892639160156,27.89,2
-0.4911623299121856,-1.042816400527954,0.1668235510587692,91.56403350830078,1.5565751791000366,90.75931549072266,27.89,2
-0.5111218094825745,-1.0498682260513306,0.2302087843418121,105.23369598388672,1.556817650794983,90.75955963134766,27.89,2
-0.4791484773159027,-1.121566891670227,0.2317013591527938,112.03926849365234,1.556973218917847,90.7597198486328,27.89,2
-0.4250431656837463,-1.2179590463638306,0.2158658951520919,109.71085357666016,1.5570731163024902,90.75981903076172,27.89,2
-0.339941531419754,-1.2518290281295776,0.2280946969985962,99.17777252197266,1.5575964450836182,90.7598876953125,27.89,2
-0.2797304391860962,-1.1784026622772217,0.2247468829154968,83.61585998535156,1.5579323768615725,90.75992584228516,27.89,2
-0.2466881871223449,-1.1200863122940063,0.2002073526382446,66.57144927978516,1.55814790725708,90.75995635986328,27.89,2
-0.2478746622800827,-1.0770645141601562,0.1620682030916214,50.81476211547852,1.558286190032959,90.75997161865234,27.89,2
-0.2542338669300079,-1.0438578128814695,0.1319949179887771,37.57185745239258,1.5583750009536743,90.75997924804688,27.89,2
-0.2471192777156829,-0.9665699005126952,0.1015000641345977,26.6407527923584,1.5584319829940796,90.7599868774414,27.89,2
-0.231357991695404,-0.8945798873901367,0.0819302201271057,17.687625885009766,1.5584685802459717,90.75999450683594,27.89,2
-0.2100477665662765,-0.8315874934196472,0.0749691948294639,11.014138221740724,1.5584920644760132,90.75999450683594,27.89,2
-0.2019698619842529,-0.7911626100540161,0.0705020129680633,6.56667947769165,1.559424877166748,90.75999450683594,27.89,2
-0.2023836970329284,-0.7876113653182983,0.0676352307200431,2.888563871383667,1.560023546218872,90.75999450683594,27.89,2
-0.213844820857048,-0.8133212327957153,0.0601977221667766,-1.822008728981018,1.5604077577590942,90.75999450683594,27.89,2
-0.2156021445989608,-0.8522114157676697,0.0498269833624362,-8.409645080566406,1.5606542825698853,90.75999450683594,27.89,2
-0.2111321091651916,-0.8995600342750549,0.0319760888814926,-17.312471389770508,1.5608124732971191,90.75999450683594,27.89,2
-0.1970679461956024,-1.01951003074646,-0.001870684325695,-28.607446670532227,1.5609140396118164,90.75999450683594,27.89,2
-0.2104334831237793,-1.152464747428894,-0.034787144511938,-41.13663101196289,1.560979247093201,90.75999450683594,27.89,2
-0.2693906724452972,-1.1146364212036133,-0.0447154827415943,-53.52280044555664,1.561021089553833,90.75999450683594,27.89,2
-0.2960304617881775,-1.1295448541641235,-0.0454891473054885,-65.56283569335938,1.5587528944015503,90.792236328125,27.87,2
-0.3131263554096222,-1.1782965660095217,-0.0403878651559352,-77.23027038574219,1.5572973489761353,90.81292724609376,27.87,2
-0.3464885950088501,-1.1144204139709473,-0.042711928486824,-87.80951690673828,1.556363224983215,90.82621002197266,27.87,2
-0.3678985834121704,-1.045439600944519,-0.0442033819854259,-95.93138885498048,1.5557637214660645,90.83473205566406,27.87,2
-0.3592471778392792,-0.945193886756897,-0.0283671859651803,-98.61424255371094,1.555379033088684,90.84020233154295,27.87,2
-0.3816840648651123,-0.8864597678184509,-0.0070088789798319,-92.65847778320312,1.5551321506500244,90.84371185302734,27.87,2
-0.4072783291339874,-0.854365348815918,0.0066976542584598,-78.88401794433594,1.5549737215042114,90.84596252441406,27.87,2
-0.4237032532691955,-0.8225734233856201,0.0154937179759144,-61.93341445922852,1.5548720359802246,90.847412109375,27.87,2
-0.4342438280582428,-0.8021712303161621,0.0267363004386425,-45.23738861083984,1.5538885593414309,90.84833526611328,27.87,2
-0.446605920791626,-0.8114693760871887,0.0563422366976738,-29.52873039245605,1.5532574653625488,90.84893035888672,27.87,2
-0.4601369798183441,-0.8342297077178955,0.0753416270017623,-15.313525199890137,1.5528525114059448,90.84931182861328,27.87,2
-0.4688204228878021,-0.8712270855903625,0.0875343382358551,-3.303468704223633,1.552592635154724,90.84955596923828,27.87,2
-0.4631974101066589,-0.9453498125076294,0.1009566932916641,6.782724380493164,1.5524258613586426,90.84971618652344,27.87,2
-0.4651866555213928,-1.0321019887924194,0.1263637095689773,15.817004203796388,1.552318811416626,90.84981536865234,27.87,2
-0.4944521188735962,-1.082176685333252,0.1874506622552871,24.032922744750977,1.5522501468658447,90.84988403320312,27.87,2
-0.4964396953582763,-1.075127363204956,0.2210549861192703,30.942663192749023,1.552206039428711,90.84992218017578,27.87,2
-0.4809218645095825,-1.1265813112258911,0.2482180744409561,36.13644409179688,1.552177667617798,90.8499526977539,27.87,2
-0.4149856865406036,-1.232372522354126,0.2544542253017425,40.12154006958008,1.552159547805786,90.84996795654295,27.87,2
-0.3502805531024933,-1.2834699153900146,0.2472606897354126,45.111515045166016,1.5521478652954102,90.8499755859375,27.87,2
-0.2863654196262359,-1.2210991382598877,0.2482420653104782,53.71990203857422,1.5521403551101685,90.84998321533205,27.87,2
-0.2509461343288421,-1.1250953674316406,0.2320785373449325,64.75068664550781,1.5521355867385864,90.84999084472656,27.87,2
-0.233813852071762,-1.0578879117965698,0.204912394285202,72.5497055053711,1.552132487297058,90.84999084472656,27.87,2
-0.2340148836374282,-0.9979646801948548,0.1650876253843307,73.72847747802734,1.5521305799484253,90.84999084472656,27.87,2
-0.2397416681051254,-0.9483138918876648,0.1339326053857803,71.2498779296875,1.5521292686462402,90.84999084472656,27.87,2
-0.2266234755516052,-0.8996575474739075,0.1083413362503051,68.78511047363281,1.5590142011642456,90.84999084472656,27.87,2
-0.1958138644695282,-0.8180527091026306,0.091918334364891,65.50880432128906,1.5634325742721558,90.84999084472656,27.87,2
-0.1760420352220535,-0.7656834125518799,0.0869767665863037,59.30779266357422,1.566267967224121,90.84999084472656,27.87,2
-0.1969402581453323,-0.7712602615356445,0.072610005736351,50.31273651123047,1.5680875778198242,90.84999084472656,27.87,2
-0.2103515416383743,-0.8028280138969421,0.0521946959197521,39.30966567993164,1.569255232810974,90.84999084472656,27.87,2
-0.2189581245183944,-0.8398797512054443,0.0278977751731872,26.30145263671875,1.5700045824050903,90.84999084472656,27.87,2
-0.2132857888936996,-0.9140373468399048,-0.01008568610996,11.93122100830078,1.5704854726791382,90.84999084472656,27.87,2
-0.209645614027977,-1.0288007259368896,-0.0456568337976932,-2.195312023162842,1.5707941055297852,90.84999084472656,27.87,2
-0.2800806164741516,-1.11364483833313,-0.0740821212530136,-15.291305541992188,1.5636475086212158,90.889404296875,27.89,2
-0.3420750796794891,-1.095321774482727,-0.0811282843351364,-28.130788803100582,1.5590612888336182,90.9146957397461,27.89,2
-0.353870689868927,-1.1283453702926636,-0.0688567832112312,-42.28167724609375,1.556118130683899,90.93092346191406,27.89,2
-0.3670381903648376,-1.12714684009552,-0.0553838685154914,-59.4129524230957,1.5542293787002563,90.94133758544922,27.89,2
-0.3922816812992096,-1.081595540046692,-0.0467377267777919,-79.44207763671875,1.553017258644104,90.9480209350586,27.89,2
-0.3972859382629394,-1.001983404159546,-0.0523846819996833,-97.9596710205078,1.5522394180297852,90.95230865478516,27.89,2
-0.4004973769187927,-0.934099555015564,-0.0448130220174789,-108.17371368408205,1.5517401695251465,90.95506286621094,27.89,2
-0.4305471777915954,-0.8737422823905945,-0.0175628699362278,-107.05461883544922,1.5514198541641235,90.9568328857422,27.89,2
-0.4554291665554046,-0.8294106721878052,0.0055224830284714,-97.60212707519533,1.551673173904419,90.95796966552734,27.89,2
-0.4713970124721527,-0.8009611964225769,0.0203373357653617,-84.53571319580078,1.5518357753753662,90.9586944580078,27.89,2
-0.4816442430019378,-0.7938995361328125,0.0410402044653892,-70.03856658935547,1.5519400835037231,90.95915985107422,27.89,2
-0.4938181042671203,-0.8005632758140564,0.0599238872528076,-54.07154083251953,1.552007079124451,90.95945739746094,27.89,2
-0.512826144695282,-0.844024121761322,0.0720423460006713,-36.867462158203125,1.552049994468689,90.95964813232422,27.89,2
-0.5194266438484192,-0.8831103444099426,0.0798192769289016,-19.84755516052246,1.5520775318145752,90.95977020263672,27.89,2
-0.5236624479293823,-0.9249869585037231,0.0960056111216545,-4.321548461914063,1.5520952939987185,90.95985412597656,27.89,2
-0.5431740880012512,-0.9798498153686525,0.1343819350004196,9.668964385986328,1.5521066188812256,90.95990753173828,27.89,2
-0.5612933039665222,-1.020655393600464,0.1702052056789398,22.43763542175293,1.55532705783844,90.9599380493164,27.89,2
-0.6009100079536438,-1.0860265493392944,0.1875967383384704,33.368919372558594,1.5573937892913818,90.9599609375,27.89,2
-0.570356011390686,-1.17835795879364,0.1875620782375335,41.50891876220703,1.5587201118469238,90.95997619628906,27.89,2
-0.5227593183517456,-1.2152198553085327,0.1987353861331939,47.46354675292969,1.5595712661743164,90.9599838256836,27.89,2
-0.4530301094055176,-1.1493113040924072,0.2282968759536743,53.82493209838867,1.560117483139038,90.95999145507812,27.89,2
-0.408281922340393,-1.0846238136291504,0.2416699528694152,62.88708114624024,1.560468077659607,90.95999145507812,27.89,2
-0.3907606601715088,-1.026317834854126,0.1998720616102218,73.91887664794922,1.5606930255889893,90.95999145507812,27.89,2
-0.3683209717273712,-0.9777048230171204,0.1562552601099014,83.21964263916016,1.5608373880386353,90.95999145507812,27.89,2
-0.3427249193191528,-0.9297145009040833,0.1282645016908645,87.46870422363281,1.5650614500045776,90.95999145507812,27.89,2
-0.2871144115924835,-0.8765259981155396,0.1214971914887428,87.01776123046875,1.5677722692489624,90.95999145507812,27.89,2
-0.2458290159702301,-0.8255993127822876,0.1059587746858596,84.74004364013672,1.569511890411377,90.95999145507812,27.89,2
-0.2137366533279419,-0.7705264091491699,0.0847915634512901,81.78082275390625,1.57062828540802,90.95999145507812,27.89,2
-0.2379238158464431,-0.7631726861000061,0.0712076649069786,76.41024780273438,1.5713447332382202,90.95999145507812,27.89,2
-0.2590435147285461,-0.775246798992157,0.0624903030693531,67.02739715576172,1.5718045234680176,90.95999145507812,27.89,2
-0.2781946957111358,-0.8389729857444763,0.051298227161169,53.64741134643555,1.5720995664596558,90.95999145507812,27.89,2
-0.2848870456218719,-0.93024879693985,0.0329202488064765,36.702754974365234,1.5722888708114624,90.95999145507812,27.89,2
-0.3003773689270019,-1.083986520767212,0.0099307717755436,17.259130477905273,1.5678200721740725,91.11404418945312,27.85,2
-0.3830892443656921,-1.137864351272583,0.0343618690967559,-2.451887845993042,1.5649522542953491,91.21290588378906,27.85,2
-0.4473645091056824,-1.0716800689697266,0.0556381158530712,-20.90505790710449,1.5631117820739746,91.27635192871094,27.85,2
-0.421439379453659,-1.0571956634521484,0.0636942088603973,-38.61549758911133,1.5619306564331057,91.31707000732422,27.85,2
-0.3880088031291961,-1.0926826000213623,0.0632663741707801,-57.02796936035156,1.5611727237701416,91.34320068359376,27.85,2
-0.3497616648674011,-1.0538805723190308,0.0741873607039451,-76.96572875976562,1.5606863498687744,91.35997009277344,27.85,2
-0.3364124000072479,-0.9450130462646484,0.0923913717269897,-96.56036376953124,1.560374140739441,91.3707275390625,27.85,2
-0.3334433734416961,-0.8527570366859436,0.1040736585855484,-110.24925994873048,1.5601738691329956,91.37763214111328,27.85,2
-0.3707224428653717,-0.8103457689285278,0.1115706786513328,-112.95795440673828,1.5618813037872314,91.38206481933594,27.85,2
-0.4114393293857574,-0.7887264490127563,0.1163818314671516,-105.22748565673828,1.5629770755767822,91.3849105834961,27.85,2
-0.4487646222114563,-0.8140368461608887,0.1306648999452591,-91.5035400390625,1.5636802911758425,91.38673400878906,27.85,2
-0.4503267705440521,-0.82468181848526,0.1566242724657058,-75.1406478881836,1.5641316175460815,91.38790130615234,27.85,2
-0.4457314908504486,-0.8203175663948059,0.1844790577888488,-57.7613410949707,1.5644211769104004,91.38865661621094,27.85,2
-0.4483802616596222,-0.8399079442024231,0.2247457504272461,-40.74362564086914,1.56460702419281,91.3891372680664,27.85,2
-0.4612756371498108,-0.8916643857955933,0.2449888288974762,-24.69597053527832,1.5647263526916504,91.38944244384766,27.85,2
-0.4863444864749908,-0.958465337753296,0.2411863505840301,-9.14545440673828,1.564802885055542,91.38964080810548,27.85,2
-0.4688455760478973,-1.0349209308624268,0.2163550406694412,5.992881774902344,1.565311312675476,91.3897705078125,27.85,2
-0.463213562965393,-1.1175724267959597,0.2060175091028213,19.4480037689209,1.5656375885009766,91.38985443115234,27.85,2
-0.509979248046875,-1.2209933996200562,0.2217745631933212,29.41186141967773,1.5658469200134275,91.38990783691406,27.85,2
-0.5399907827377319,-1.18660306930542,0.2038976699113845,35.24362564086914,1.5659812688827517,91.3899383544922,27.85,2
-0.514468252658844,-1.1477400064468384,0.1308497935533523,38.559791564941406,1.566067457199097,91.38996124267578,27.85,2
-0.4980893433094024,-1.1507887840270996,0.0895696431398391,42.34306716918945,1.5661227703094482,91.38997650146484,27.85,2
-0.4651871919631958,-1.1415497064590454,0.0630784183740615,48.18156814575195,1.5661582946777344,91.38998413085938,27.85,2
-0.4048880636692047,-1.0460562705993652,0.0404800996184349,54.09584045410156,1.5661810636520386,91.3899917602539,27.85,2
-0.3549960255622864,-0.9735785126686096,0.0203800238668918,56.18597412109375,1.567572832107544,91.3899917602539,27.85,2
-0.3285759687423706,-0.927066445350647,-0.0093123698607087,53.303443908691406,1.568466067314148,91.3899917602539,27.85,2
-0.3228166401386261,-0.9252065420150756,-0.0619538836181163,48.50156021118164,1.569039225578308,91.3899917602539,27.85,2
-0.3303161859512329,-0.907219648361206,-0.1125295013189315,44.54583740234375,1.5694071054458618,91.3899917602539,27.85,2
-0.3239333927631378,-0.878883421421051,-0.150583803653717,40.409454345703125,1.5696431398391724,91.3899917602539,27.85,2
-0.3198373019695282,-0.8830899596214294,-0.1694070845842361,34.004005432128906,1.5697946548461914,91.3899917602539,27.85,2
-0.3228064179420471,-0.9025827646255492,-0.1646934598684311,25.33273696899414,1.5698918104171753,91.3899917602539,27.85,2
-0.3359073996543884,-0.9206898808479308,-0.1448751986026764,14.906460762023926,1.5699541568756104,91.3899917602539,27.85,2
-0.3499126136302948,-0.943505585193634,-0.1153636574745178,2.067777872085572,1.5676988363265991,91.65869140625,27.85,2
-0.3477047979831695,-0.9749406576156616,-0.090827077627182,-12.924505233764648,1.566251516342163,91.83112335205078,27.85,2
-0.3350924253463745,-1.0454938411712646,-0.0750809162855148,-27.67235565185547,1.565322756767273,91.94178009033205,27.85,2
-0.3158029615879059,-1.0403908491134644,-0.0369870625436306,-40.2965087890625,1.564726710319519,92.0127944946289,27.85,2
-0.3146196603775024,-0.9643449783325196,0.015448254533112,-51.65093994140625,1.5643441677093506,92.05836486816406,27.85,2
-0.3474469184875488,-0.9491297602653505,0.0435004457831382,-63.80986404418945,1.5640987157821655,92.08760833740234,27.85,2
-0.3965024352073669,-0.9169744253158568,0.0559049546718597,-76.93289184570312,1.5639411211013794,92.10637664794922,27.85,2
-0.4279834330081939,-0.8739479184150696,0.0526699051260948,-87.55777740478516,1.5638400316238403,92.11842346191406,27.85,2
-0.397806167602539,-0.8463359475135803,0.067387156188488,-90.02338409423828,1.5596437454223633,92.12615203857422,27.85,2
-0.35045126080513,-0.8678005933761597,0.1048207134008407,-81.1123046875,1.5569508075714111,92.13111114501952,27.85,2
-0.3200616240501404,-0.8927709460258484,0.1568322926759719,-63.59268569946289,1.5552226305007937,92.13429260253906,27.85,2
-0.3397437036037445,-0.936784327030182,0.2237969785928726,-43.60453414916992,1.5541136264801023,92.13633728027344,27.85,2
-0.3579723238945007,-0.953834056854248,0.2667710483074188,-25.14906311035156,1.5534019470214844,92.1376495361328,27.85,2
-0.3416815102100372,-0.9815689325332642,0.2775560021400451,-8.809271812438965,1.5529451370239258,92.13848876953124,27.85,2
-0.2920425832271576,-0.9937697649002076,0.2732816338539123,5.785881042480469,1.5526520013809204,92.13903045654295,27.85,2
-0.2545894086360931,-1.007197380065918,0.2705385982990265,18.78494071960449,1.5524638891220093,92.13937377929688,27.85,2
-0.2697385549545288,-1.0270099639892578,0.2407893985509872,30.276073455810547,1.5560157299041748,92.13959503173828,27.85,2
-0.3074492514133453,-1.0341267585754397,0.1993069648742675,39.96476364135742,1.5582951307296753,92.13973999023438,27.85,2
-0.3764320015907287,-1.0219005346298218,0.1223059594631195,47.873382568359375,1.5597578287124634,92.13983154296876,27.85,2
-0.4207011759281158,-1.0420433282852173,0.0728911533951759,55.55679702758789,1.5606966018676758,92.139892578125,27.85,2
-0.4994905591011047,-1.0941542387008667,0.0467773452401161,64.41765594482422,1.561298966407776,92.13993072509766,27.85,2
-0.6452152132987976,-1.0156406164169312,-0.0147631848230957,73.12773895263672,1.561685562133789,92.13995361328124,27.85,2
-0.7219395637512207,-0.9988417029380798,-0.0710496753454208,78.78901672363281,1.5619336366653442,92.13996887207033,27.85,2
-0.7375901937484741,-1.055234432220459,-0.1015733331441879,80.39077758789062,1.562092900276184,92.13997650146484,27.85,2
-0.6580694913864136,-1.0298484563827517,-0.0987705662846565,79.59516906738281,1.5658671855926514,92.13998413085938,27.85,2
-0.573451042175293,-0.9911661744117736,-0.0857763588428497,78.09938049316406,1.568289279937744,92.1399917602539,27.85,2
-0.5135499835014343,-0.955146551132202,-0.0774374306201934,75.41983795166016,1.5698436498641968,92.1399917602539,27.85,2
-0.4751089513301849,-0.9264334440231324,-0.094477079808712,70.06394958496094,1.5708411931991575,92.1399917602539,27.85,2
-0.4672330319881439,-0.8912137150764465,-0.1222054734826088,61.87993240356445,1.5714813470840454,92.1399917602539,27.85,2
-0.4453853964805603,-0.8798072338104248,-0.1399999558925628,51.86665725708008,1.5718921422958374,92.1399917602539,27.85,2
-0.4201692938804626,-0.8780850172042847,-0.1570172011852264,40.582740783691406,1.5721558332443235,92.1399917602539,27.85,2
-0.3983892798423767,-0.8937731385231018,-0.1567423492670059,27.967510223388672,1.5723249912261963,92.1399917602539,27.85,2
-0.3900098800659179,-0.9318296909332277,-0.1397726386785507,13.652429580688477,1.5719746351242063,92.41226959228516,27.85,2
-0.3734369277954101,-0.9674477577209472,-0.1176869049668312,-3.1614670753479004,1.5717498064041138,92.58700561523438,27.85,2
-0.3460080325603485,-1.0350875854492188,-0.0699269101023674,-22.93317604064941,1.5716054439544678,92.69914245605467,27.85,2
-0.3228079676628113,-1.100885987281799,-0.0336795151233673,-44.67110824584961,1.5715128183364868,92.77110290527344,27.85,2
-0.3023217320442199,-1.0815361738204956,0.0063752979040145,-66.06227111816406,1.5714534521102903,92.8172836303711,27.85,2
-0.2835770845413208,-1.0019452571868896,0.0432757213711738,-84.22511291503906,1.5714153051376345,92.84691619873048,27.85,2
-0.293938934803009,-0.9732595086097716,0.0781518369913101,-96.51509857177734,1.5713908672332764,92.86593627929688,27.85,2
-0.3229796886444092,-0.9492528438568116,0.1117288693785667,-102.13075256347656,1.5713751316070557,92.87814331054688,27.85,2
-0.3472141325473785,-0.9170534014701844,0.1388744562864303,-102.9867172241211,1.5663154125213623,92.88597106933594,27.85,2
-0.3291797637939453,-0.862803041934967,0.1618926972150802,-101.08196258544922,1.563068389892578,92.89099884033205,27.85,2
-0.2952152490615845,-0.8223904967308044,0.1710667014122009,-95.41362762451172,1.5609846115112305,92.89422607421876,27.85,2
-0.2678209841251373,-0.8356404900550842,0.1937473714351654,-83.70088958740234,1.5596474409103394,92.89629364013672,27.85,2
-0.2894253432750702,-0.872132420539856,0.2250958532094955,-66.40031433105469,1.5587892532348633,92.89762115478516,27.85,2
-0.3200831115245819,-0.9011486172676086,0.2508112788200378,-46.81426239013672,1.558238506317139,92.89847564697266,27.85,2
-0.3509530425071716,-0.9309651255607604,0.2673139572143554,-28.430540084838867,1.5578850507736206,92.8990249633789,27.85,2
-0.3651658296585083,-0.9500995874404908,0.2723066508769989,-13.587735176086426,1.557658314704895,92.89937591552734,27.85,2
-0.363091230392456,-0.9455856680870056,0.2699128985404968,-2.5542142391204834,1.557053804397583,92.89959716796876,27.85,2
-0.3449665307998657,-0.9650800228118896,0.257181167602539,7.367447376251221,1.5566658973693848,92.89974212646484,27.85,2
-0.3557262420654297,-0.9887859225273132,0.2322173565626144,19.416563034057617,1.5564169883728027,92.89983367919922,27.85,2
-0.4186089634895324,-1.0039989948272705,0.1714148372411728,33.50448226928711,1.556257247924805,92.89989471435548,27.85,2
-0.464561253786087,-1.036152958869934,0.1100041791796684,46.76557159423828,1.556154727935791,92.89993286132812,27.85,2
-0.5780174136161804,-1.129558563232422,0.092985451221466,57.33575439453125,1.556088924407959,92.89995574951172,27.85,2
-0.6284359097480774,-1.021567702293396,0.0596727095544338,64.78186798095703,1.556046724319458,92.89997100830078,27.85,2
-0.627204954624176,-0.985852062702179,0.0215011853724718,67.82997131347656,1.55601966381073,92.89997863769533,27.85,2
-0.6600016355514526,-1.0357028245925903,-0.0085928738117218,65.03557586669922,1.5688554048538208,92.89998626708984,27.85,2
-0.669853150844574,-1.0676941871643066,-0.0167099609971046,57.4349365234375,1.5770926475524902,92.89999389648438,27.85,2
-0.6034042239189148,-1.032246708869934,-0.0163212660700082,48.48031234741211,1.58237886428833,92.89999389648438,27.85,2
-0.5103811621665955,-0.9983029961586,-0.0104740494862198,41.55866241455078,1.5857712030410769,92.89999389648438,27.85,2
-0.4450865089893341,-0.9709221124649048,-0.0179171916097402,38.17002487182617,1.5879483222961426,92.89999389648438,27.85,2
-0.4255752563476562,-0.947752833366394,-0.0506826415657997,37.32452774047852,1.5893454551696775,92.89999389648438,27.85,2
-0.42984738945961,-0.9216885566711426,-0.0885029435157775,36.30903625488281,1.5902420282363892,92.89999389648438,27.85,2
-0.4269912242889404,-0.9105597734451294,-0.1295671612024307,33.099395751953125,1.5908173322677612,92.89999389648438,27.85,2
-0.4139627516269684,-0.9202113151550292,-0.1503220349550247,27.89771270751953,1.586137294769287,93.15435791015624,27.85,2
-0.4000040590763092,-0.9320029020309448,-0.158043548464775,21.711423873901367,1.5831339359283447,93.31759643554688,27.85,2
-0.3854483962059021,-0.9507656097412108,-0.1350098997354507,14.631744384765623,1.5812065601348877,93.42235565185548,27.85,2
-0.3705096244812011,-0.9572086334228516,-0.1146304532885551,5.964868545532227,1.5799696445465088,93.48957824707033,27.85,2
-0.3441294729709625,-0.99493008852005,-0.0903565511107444,-5.189433574676514,1.57917582988739,93.53272247314452,27.85,2
-0.338395744562149,-1.0303330421447754,-0.0467900857329368,-19.44112205505371,1.5786664485931396,93.56040954589844,27.85,2
-0.329118400812149,-0.9690860509872437,-0.0076360860839486,-35.873992919921875,1.5783395767211914,93.57817840576172,27.85,2
-0.3231647312641144,-0.9353790283203124,0.0230884719640016,-51.68605041503906,1.578129768371582,93.5895767211914,27.85,2
-0.3305395543575287,-0.9361388683319092,0.0484034977853298,-64.43785095214844,1.5715683698654177,93.59689331054688,27.85,2
-0.3408700823783874,-0.9030398726463318,0.0814425498247146,-74.03276062011719,1.5673576593399048,93.6015853881836,27.85,2
-0.3363040685653686,-0.8594077229499817,0.1082428842782974,-81.03929138183594,1.5646554231643677,93.60459899902344,27.85,2
-0.3165805339813232,-0.8370048999786377,0.1310395747423172,-84.03816223144531,1.5629212856292725,93.60653686523438,27.85,2
-0.2871297895908355,-0.8506169319152832,0.151266947388649,-80.85032653808594,1.561808466911316,93.60778045654295,27.85,2
-0.2738277614116668,-0.8593523502349854,0.1698454916477203,-71.60716247558594,1.5610942840576172,93.60857391357422,27.85,2
-0.293280154466629,-0.8985449075698853,0.2153547704219818,-58.55327224731445,1.560636043548584,93.6090850830078,27.85,2
-0.3113613724708557,-0.9180986285209656,0.2445600032806396,-44.01042556762695,1.5603419542312622,93.60941314697266,27.85,2
-0.3229648470878601,-0.9362448453903198,0.2577044665813446,-30.21019172668457,1.5587760210037231,93.60962677001952,27.85,2
-0.3192157447338104,-0.9646834135055542,0.2717376053333282,-18.925010681152344,1.55777108669281,93.6097640991211,27.85,2
-0.3056142330169678,-0.9773358702659608,0.2751455008983612,-9.755404472351074,1.5571261644363403,93.60984802246094,27.85,2
-0.3024833500385284,-1.0078465938568115,0.260539174079895,-0.4781798720359802,1.55671226978302,93.60990142822266,27.85,2
-0.3172674477100372,-1.0218287706375122,0.2287745624780655,10.333381652832031,1.5564466714859009,93.60993957519533,27.85,2
-0.32675501704216,-1.0252039432525637,0.1971943080425262,22.44485855102539,1.5562763214111328,93.6099624633789,27.85,2
-0.327245831489563,-1.05535888671875,0.1545368283987045,35.20066833496094,1.5561670064926147,93.60997772216795,27.85,2
-0.3499518930912018,-1.1306883096694946,0.1327594816684723,47.70003509521485,1.5560967922210691,93.6099853515625,27.85,2
-0.4708810448646545,-1.128650426864624,0.1019907146692276,57.9246940612793,1.569823145866394,93.60999298095705,27.85,2
-0.5037042498588562,-1.0881582498550415,0.0766473188996315,63.47958755493164,1.57863187789917,93.60999298095705,27.85,2
-0.5247682929039001,-1.0957592725753784,0.0547856129705905,63.73410034179688,1.5842849016189575,93.60999298095705,27.85,2
-0.5214926600456238,-1.0894416570663452,0.0463538020849227,60.82716369628906,1.587912678718567,93.60999298095705,27.85,2
-0.4914016425609588,-1.0629962682724,0.0409427508711814,58.27738571166992,1.590240716934204,93.60999298095705,27.85,2
-0.4105154573917389,-0.9900473952293396,0.0486657992005348,58.203086853027344,1.591734766960144,93.60999298095705,27.85,2
-0.3306184709072113,-0.9320374727249146,0.0368286818265914,59.77473068237305,1.592693567276001,93.60999298095705,27.85,2
-0.2905407547950744,-0.8948100209236145,0.0180367529392242,60.8442268371582,1.5933088064193726,93.60999298095705,27.85,2
-0.2872122824192047,-0.8597240447998047,-0.0052183736115694,60.14052963256836,1.5863590240478516,93.85002899169922,27.85,2
-0.2850762605667114,-0.826012372970581,-0.0201421752572059,56.75838851928711,1.5818990468978882,94.00406646728516,27.85,2
-0.2781077027320862,-0.8211714625358582,-0.0297194123268127,49.421852111816406,1.5790369510650637,94.10292053222656,27.85,2
-0.2680379152297973,-0.812467098236084,-0.0358655303716659,37.93903350830078,1.577200174331665,94.1663589477539,27.85,2
-0.2671734690666199,-0.8348699808120728,-0.02301643230021,23.77745819091797,1.576021432876587,94.20706939697266,27.85,2
-0.2722164988517761,-0.8716379404067993,-0.0035750733222812,8.165504455566406,1.5752650499343872,94.2332000732422,27.85,2
-0.2586594820022583,-0.8784402012825012,0.014499045908451,-8.799962997436523,1.5747796297073364,94.24996948242188,27.85,2
-0.2387638390064239,-0.9555765390396118,0.0260979756712913,-26.76301002502441,1.5744681358337402,94.26072692871094,27.85,2
-0.2427892833948135,-1.1170337200164795,0.039139274507761,-44.24489974975586,1.569677472114563,94.26763153076172,27.85,2
-0.262165904045105,-1.19265878200531,0.0698995292186737,-59.641056060791016,1.5666030645370483,94.27206420898438,27.85,2
-0.2857962548732757,-1.1292351484298706,0.1064330115914344,-72.4591293334961,1.564630150794983,94.27490997314452,27.85,2
-0.2897652983665466,-1.099729061126709,0.1410736441612243,-82.74859619140625,1.563364028930664,94.2767333984375,27.85,2
-0.314703494310379,-1.097586989402771,0.1744995564222335,-89.39836120605469,1.562551498413086,94.27790069580078,27.85,2
-0.3307074010372162,-1.0234413146972656,0.1735592931509018,-90.51313018798828,1.5620300769805908,94.27865600585938,27.85,2
-0.3409777879714966,-0.9478700160980223,0.1841514259576797,-85.71135711669922,1.5616954565048218,94.27913665771484,27.85,2
-0.3755576014518738,-0.8601882457733154,0.1517644375562667,-76.37109375,1.5614806413650513,94.2794418334961,27.85,2
-0.4257377982139587,-0.8095169067382812,0.1029914543032646,-63.76361846923828,1.5613428354263306,94.2796401977539,27.85,2
-0.4635383486747741,-0.7937923073768616,0.0772895365953445,-48.99136352539063,1.561254382133484,94.27976989746094,27.85,2
-0.4654054641723633,-0.789298951625824,0.0663933008909225,-34.13751602172852,1.5611976385116575,94.27985382080078,27.85,2
-0.4554081261157989,-0.7864153385162354,0.0649985000491142,-20.92228507995605,1.5611611604690552,94.2799072265625,27.85,2
-0.4545901715755462,-0.7957603931427002,0.0864944905042648,-8.60098934173584,1.5611377954483032,94.27993774414062,27.85,2
-0.4708585739135742,-0.8129530549049377,0.1002893820405006,4.798197746276856,1.5611227750778198,94.27996063232422,27.85,2
-0.4868964850902557,-0.8463773727416992,0.1035443767905235,19.526811599731445,1.5611131191253662,94.27997589111328,27.85,2
-0.4747976064682007,-0.8846204876899719,0.1000354662537574,34.03022003173828,1.5611069202423096,94.2799835205078,27.85,2
-0.4670332372188568,-0.9707382917404176,0.1033814251422882,47.11012649536133,1.5588079690933228,94.27999114990234,27.85,2
-0.5012349486351013,-1.0819814205169678,0.1447130888700485,58.30921173095703,1.5573326349258425,94.27999114990234,27.85,2
-0.5231836438179016,-1.0750020742416382,0.1656395941972732,66.3953628540039,1.55638587474823,94.27999114990234,27.85,2
-0.5036823749542236,-1.1153053045272827,0.1678734719753265,69.54611206054688,1.5557782649993896,94.27999114990234,27.85,2
-0.4351898431777954,-1.185951828956604,0.158111497759819,67.2510757446289,1.555388331413269,94.27999114990234,27.85,2
-0.3688441812992096,-1.1865065097808838,0.1574445962905883,60.73756790161133,1.555138111114502,94.27999114990234,27.85,2
-0.3038762509822845,-1.1084935665130615,0.1626143902540207,52.03994369506836,1.554977536201477,94.27999114990234,27.85,2
-0.2621835768222809,-1.0416361093521118,0.1491387486457824,43.78570938110352,1.5548745393753052,94.27999114990234,27.85,2
-0.2634164988994598,-1.0043286085128784,0.1180997639894485,38.4098014831543,1.5575627088546753,94.50569915771484,27.85,2
-0.2810010313987732,-0.9635934233665466,0.0757896304130554,36.13135528564453,1.5592877864837646,94.65054321289062,27.85,2
-0.2866879999637604,-0.915060818195343,0.0486374236643314,34.95578384399414,1.5603948831558228,94.74349975585938,27.85,2
-0.2679464817047119,-0.8503287434577942,0.0368104726076126,33.04061508178711,1.5611053705215454,94.80315399169922,27.85,2
-0.250321477651596,-0.8031896352767944,0.0348183922469615,29.65844345092773,1.5615613460540771,94.8414306640625,27.85,2
-0.244608536362648,-0.7729384899139404,0.0391377620398998,24.53233528137207,1.5618538856506348,94.86599731445312,27.85,2
-0.2521378397941589,-0.7983072400093079,0.0363119132816791,17.789091110229492,1.5620416402816772,94.88175964355467,27.85,2
-0.2457741647958755,-0.8313807845115662,0.0289006698876619,9.74653434753418,1.562162160873413,94.89187622070312,27.85,2
-0.2696791887283325,-0.874996542930603,0.0129490122199058,0.1213949546217918,1.5599441528320312,94.89836883544922,27.85,2
-0.2738245129585266,-0.9309754967689514,-0.0028856182470917,-11.31110382080078,1.558520793914795,94.90253448486328,27.85,2
-0.2764847576618194,-1.123637318611145,-0.0410362444818019,-23.25143241882324,1.5576072931289673,94.90521240234376,27.85,2
-0.3341696858406067,-1.1912988424301147,-0.0543235726654529,-33.37886047363281,1.557021141052246,94.90692901611328,27.85,2
-0.3599930107593536,-1.1227645874023438,-0.046057291328907,-40.3903694152832,1.5566449165344238,94.90802764892578,27.85,2
-0.3205871880054474,-1.140358805656433,-0.0295569188892841,-45.5419807434082,1.5564035177230835,94.9087371826172,27.85,2
-0.3064943552017212,-1.157247543334961,-0.0301634781062603,-51.638816833496094,1.5562485456466677,94.90918731689452,27.85,2
-0.3254392445087433,-1.0729235410690308,-0.0473460555076599,-59.05875396728516,1.556149125099182,94.90947723388672,27.85,2
-0.3264014422893524,-0.957233726978302,-0.0639706179499626,-63.61265182495117,1.5551670789718628,94.90966796875,27.85,2
-0.3270189166069031,-0.8661973476409912,-0.0578459836542606,-60.534271240234375,1.5545369386672974,94.9097900390625,27.85,2
-0.3498062789440155,-0.8021776676177979,-0.0483177714049816,-49.734859466552734,1.5541324615478516,94.9098663330078,27.85,2
-0.3756254315376282,-0.7722890973091125,-0.0422031134366989,-35.4135627746582,1.5538729429244995,94.909912109375,27.85,2
-0.4089879989624023,-0.7866949439048767,-0.038279078900814,-22.063610076904297,1.553706407546997,94.90994262695312,27.85,2
-0.4192026257514953,-0.8015375733375549,-0.0133697604760527,-12.36428451538086,1.55359947681427,94.90996551513672,27.85,2
-0.4313555657863617,-0.8166605234146118,0.0138111552223563,-6.99246883392334,1.5535309314727783,94.90998077392578,27.85,2
-0.4391546249389648,-0.8543543815612793,0.0592431724071502,-4.863534450531006,1.553486943244934,94.90998840332033,27.85,2
-0.4441596269607544,-0.8953374624252319,0.0883988291025161,-4.310551643371582,1.5548357963562012,94.90999603271484,27.85,2
-0.441773772239685,-0.9328336119651794,0.1183047965168953,-4.306771278381348,1.555701494216919,94.90999603271484,27.85,2
-0.4402426481246948,-1.0240697860717771,0.1878767013549804,-3.9747486114501953,1.5562570095062256,94.90999603271484,27.85,2
-0.4504556357860565,-1.0826199054718018,0.2437194883823394,-2.0921952724456787,1.5566134452819824,94.90999603271484,27.85,2
-0.4570097327232361,-1.114596247673035,0.2515673041343689,1.473253846168518,1.5568422079086304,94.90999603271484,27.85,2
-0.4332269132137298,-1.174301266670227,0.2398102581501007,5.0116729736328125,1.556989073753357,94.90999603271484,27.85,2
-0.3619866967201233,-1.2294098138809204,0.215471938252449,7.071054458618164,1.557083249092102,94.90999603271484,27.85,2
-0.2994755208492279,-1.186406493186951,0.1998530030250549,8.607601165771484,1.5571436882019043,94.90999603271484,27.85,2
-0.2537616789340973,-1.1252226829528809,0.1842318922281265,12.004742622375488,1.56269109249115,95.12136840820312,27.85,2
-0.2412184774875641,-1.0635673999786377,0.1462182998657226,18.00385856628418,1.5662510395050049,95.25701904296876,27.85,2
-0.2499623000621795,-1.0184028148651123,0.1106278151273727,24.469024658203125,1.5685356855392456,95.34407043457033,27.85,2
-0.2723669111728668,-0.9726254343986512,0.0709945634007453,29.02640914916992,1.5700018405914309,95.39993286132812,27.85,2
-0.269951581954956,-0.9040637612342834,0.0455602258443832,31.836435317993164,1.5709426403045654,95.43578338623048,27.85,2
-0.257205992937088,-0.8544670343399048,0.0292379297316074,33.9406852722168,1.57154643535614,95.4587860107422,27.85,2
-0.2378310710191726,-0.8002476096153259,0.0243609938770532,34.61754608154297,1.5719338655471802,95.47354888916016,27.85,2
-0.2253973633050918,-0.7598549127578735,0.0212312582880258,32.7662353515625,1.572182536125183,95.48302459716795,27.85,2
-0.2398092150688171,-0.7787154316902161,0.0304183233529329,28.995132446289062,1.5709649324417114,95.48910522460938,27.85,2
-0.2434601336717605,-0.7964167594909668,0.0307162776589393,24.02067947387696,1.5701836347579956,95.49301147460938,27.85,2
-0.240205317735672,-0.8077764511108398,0.0253097135573625,17.063074111938477,1.569682240486145,95.49551391601562,27.85,2
-0.2213232368230819,-0.9046308398246764,-0.0061487797647714,7.729363441467285,1.5693604946136477,95.49712371826172,27.85,2
-0.2148035764694214,-1.0339597463607788,-0.031934805214405,-2.373271942138672,1.569153904914856,95.49815368652344,27.85,2
-0.2945862412452698,-1.1169555187225342,-0.0428850166499614,-11.504085540771484,1.5690213441848757,95.49881744384766,27.85,2
-0.3457861840724945,-1.0638598203659058,-0.0219233613461256,-19.728214263916016,1.5689363479614258,95.4992446899414,27.85,2
-0.3506544828414917,-1.05217707157135,-0.0028736018575727,-28.552738189697266,1.5688817501068115,95.49951171875,27.85,2
-0.3537786602973938,-1.0782663822174072,0.0093514369800686,-39.82612228393555,1.5647152662277222,95.49968719482422,27.85,2
-0.3613813519477844,-1.0614224672317505,0.0171967633068561,-53.16185760498047,1.5620415210723877,95.4998016357422,27.85,2
-0.3438692390918731,-0.9890374541282654,0.0222314409911632,-63.43960189819336,1.5603256225585938,95.49987030029295,27.85,2
-0.3438265323638916,-0.925791561603546,0.0310601815581321,-64.66498565673828,1.5592244863510132,95.49991607666016,27.85,2
-0.3605924248695373,-0.8908017873764038,0.0423237346112728,-57.290260314941406,1.5585178136825562,95.49994659423828,27.85,2
-0.382547378540039,-0.8683473467826843,0.0383564867079257,-47.60646438598633,1.558064341545105,95.49996948242188,27.85,2
-0.3910390138626098,-0.8539373874664307,0.0414083078503608,-40.19179916381836,1.5577733516693115,95.4999771118164,27.85,2
-0.3964884579181671,-0.8446899056434631,0.0601601153612136,-35.00358581542969,1.5575865507125854,95.49998474121094,27.85,2
-0.4111811518669128,-0.844353199005127,0.0777917206287384,-30.559907913208008,1.5579259395599363,95.49999237060548,27.85,2
-0.4262078404426574,-0.8553326725959778,0.0947044417262077,-26.070974349975582,1.5581437349319458,95.49999237060548,27.85,2
-0.4302533566951751,-0.8903675079345703,0.1167536005377769,-21.098011016845703,1.5582835674285889,95.49999237060548,27.85,2
-0.4272517561912536,-0.9184486269950868,0.1253057122230529,-15.334359169006348,1.5583733320236206,95.49999237060548,27.85,2
-0.4309232532978058,-0.9924471974372864,0.1531850546598434,-8.744441032409668,1.5584309101104736,95.49999237060548,27.85,2
-0.4668660759925842,-1.0455330610275269,0.1934675127267837,-1.4093174934387207,1.5584678649902344,95.49999237060548,27.85,2
-0.4843343198299408,-1.0516115427017212,0.2137207090854644,6.626154899597168,1.558491587638855,95.49999237060548,27.85,2
-0.4619577825069427,-1.15067458152771,0.2323158085346222,15.659205436706545,1.5585068464279177,95.49999237060548,27.85,2
-0.4140111804008484,-1.2366386651992798,0.2218579798936844,26.71531867980957,1.562188744544983,95.68987274169922,27.85,2
-0.332861840724945,-1.2358276844024658,0.2095489799976349,40.71770477294922,1.564551591873169,95.8117218017578,27.85,2
-0.2695893049240112,-1.1513406038284302,0.2016497701406479,56.367218017578125,1.5660679340362549,95.88992309570312,27.85,2
-0.2345824092626571,-1.080328345298767,0.1853849589824676,69.84944915771484,1.567041039466858,95.94010925292967,27.85,2
-0.2457036525011062,-1.0291590690612793,0.1581538170576095,77.91761016845703,1.567665457725525,95.9723129272461,27.85,2
-0.2584384083747864,-0.9851259589195251,0.1294828951358795,80.67346954345703,1.5680662393569946,95.99298095703124,27.85,2
-0.2610130608081817,-0.9176836013793944,0.0942902192473411,80.17424774169922,1.5683233737945557,96.00624084472656,27.85,2
-0.2402742207050323,-0.8688052296638489,0.0829011350870132,77.10245513916016,1.568488359451294,96.01475524902344,27.85,2
-0.2213674634695053,-0.8318401575088501,0.0755922719836235,70.41291046142578,1.571807861328125,96.0202178955078,27.85,2
-0.2260275185108184,-0.796922504901886,0.0764996409416198,59.69280242919922,1.5739381313323977,96.02371978759766,27.85,2
-0.2458113878965377,-0.7857099175453186,0.0826797112822532,45.9239616394043,1.5753052234649658,96.02597045898438,27.85,2
-0.2641053199768066,-0.7841120958328247,0.0754501745104789,29.980079650878903,1.57618248462677,96.02741241455078,27.85,2
-0.275845319032669,-0.8334667086601257,0.0820062234997749,12.357361793518066,1.5767455101013184,96.02833557128906,27.85,2
-0.2833793759346008,-0.893128514289856,0.075017973780632,-5.325285911560059,1.5771068334579468,96.0289306640625,27.85,2
-0.2994098365306854,-1.065762639045715,0.0369466692209243,-20.51351356506348,1.577338695526123,96.02931213378906,27.85,2
-0.3376861214637756,-1.2157336473464966,0.0125146964564919,-32.20219802856445,1.5774874687194824,96.02955627441406,27.85,2
-0.3734452128410339,-1.149641036987305,0.01922676153481,-41.96034622192383,1.5725332498550415,96.02971649169922,27.85,2
-0.3460133671760559,-1.140813231468201,0.0459252744913101,-52.5897216796875,1.5693539381027222,96.02981567382812,27.85,2
-0.3340069353580475,-1.1239525079727173,0.0462655201554298,-66.19286346435547,1.5673136711120603,96.0298843383789,27.85,2
-0.3486930131912231,-1.0571545362472534,0.0352883227169513,-81.36046600341797,1.5660043954849243,96.02992248535156,27.85,2
-0.3525199294090271,-0.9639074206352234,0.0282437894493341,-91.79276275634766,1.5651640892028809,96.02995300292967,27.85,2
-0.3549758195877075,-0.8536868095397949,0.0349185615777969,-90.9140396118164,1.564624905586243,96.02996826171876,27.85,2
-0.3789429664611816,-0.7941491007804871,0.0615931451320648,-78.64227294921875,1.5642788410186768,96.02997589111328,27.85,2
-0.3943237066268921,-0.767136812210083,0.0843091309070587,-61.10116958618164,1.5640567541122437,96.0299835205078,27.85,2
-0.404194176197052,-0.7777907252311707,0.0988869443535804,-44.25547790527344,1.5643731355667114,96.02999114990234,27.85,2
-0.4105284512042999,-0.8014211058616638,0.1250354647636413,-30.048603057861328,1.564576268196106,96.02999114990234,27.85,2
-0.4201911985874176,-0.8333790898323059,0.169804960489273,-17.832521438598633,1.564706563949585,96.02999114990234,27.85,2
-0.459978848695755,-0.887474536895752,0.2097309827804565,-7.159124851226807,1.56479012966156,96.02999114990234,27.85,2
-0.4967078268527984,-0.9445809721946716,0.2241576611995697,1.6895235776901243,1.564843773841858,96.02999114990234,27.85,2
-0.5034850239753723,-1.0316085815429688,0.227818101644516,8.869175910949707,1.564878225326538,96.02999114990234,27.85,2
-0.4966387152671814,-1.1042511463165283,0.2301671653985977,15.131813049316406,1.5649003982543943,96.02999114990234,27.85,2
-0.4978429079055786,-1.2012490034103394,0.2428701967000961,20.891944885253903,1.564914584159851,96.02999114990234,27.85,2
-0.5210068225860596,-1.1627366542816162,0.2510222792625427,26.146886825561523,1.5672190189361572,96.20912170410156,27.85,2
-0.5134809613227844,-1.0988372564315796,0.2450582683086395,30.83759498596192,1.5686979293823242,96.32408142089844,27.85,2
-0.4750646650791168,-1.0522325038909912,0.2188398092985153,34.93334197998047,1.569646954536438,96.3978500366211,27.85,2
-0.4560090601444244,-1.0391175746917725,0.1908187568187713,39.1058464050293,1.570255994796753,96.4451904296875,27.85,2
-0.4605735838413238,-1.0418967008590698,0.1448475867509842,44.63883209228516,1.57064688205719,96.47557067871094,27.85,2
-0.3851340115070343,-0.9988980293273926,0.1433348059654235,51.152374267578125,1.5708976984024048,96.4950714111328,27.85,2
-0.3423190116882324,-0.9489128589630128,0.1143751218914985,55.61183166503906,1.5710586309432983,96.50758361816406,27.85,2
-0.3148427903652191,-0.928030788898468,0.0733993723988533,55.71865081787109,1.5711619853973389,96.51561737060548,27.85,2
-0.3196012377738952,-0.9146298766136168,0.0303101688623428,52.83515930175781,1.57490074634552,96.52076721191406,27.85,2
-0.3338505029678345,-0.8892366290092468,-0.014135324396193,49.40836715698242,1.5773000717163086,96.5240707397461,27.85,2
-0.3317992985248565,-0.872940719127655,-0.0482556596398353,45.43229293823242,1.578839898109436,96.52619171142578,27.85,2
-0.3248851895332336,-0.8848740458488464,-0.0701521262526512,39.47006607055664,1.5798280239105225,96.52755737304688,27.85,2
-0.320448100566864,-0.9037277102470398,-0.0786062404513359,31.14771842956543,1.580462098121643,96.52843475341795,27.85,2
-0.3231984078884125,-0.921424686908722,-0.0728360563516616,20.75906562805176,1.5808690786361694,96.52899169921876,27.85,2
-0.3137678503990173,-0.9607704281806946,-0.0691330879926681,8.30994987487793,1.5811302661895752,96.52935028076172,27.85,2
-0.296520322561264,-1.0252046585083008,-0.0611589588224887,-5.411296844482422,1.5812978744506836,96.52957916259766,27.85,2
-0.2966473996639251,-1.0777504444122314,-0.0336505249142646,-18.17913055419922,1.5758968591690063,96.52973175048828,27.85,2
-0.3079244792461395,-0.9883202314376832,0.011991674080491,-28.042272567749023,1.5724307298660278,96.5298309326172,27.85,2
-0.3151614665985107,-0.9029402136802672,0.0412822142243385,-35.06330490112305,1.5702064037322998,96.52989196777344,27.85,2
-0.3310013115406036,-0.9265170693397522,0.0712747424840927,-41.09159469604492,1.5687789916992188,96.5299301147461,27.85,2
-0.3523619472980499,-0.902462899684906,0.096119999885559,-48.37081527709961,1.567862868309021,96.52995300292967,27.85,2
-0.3548744320869446,-0.8646352291107178,0.1232598051428794,-57.32337951660156,1.567275047302246,96.52996826171876,27.85,2
-0.334095686674118,-0.8347618579864502,0.1518721133470535,-64.6628646850586,1.566897749900818,96.52997589111328,27.85,2
-0.3151633143424988,-0.8267863988876343,0.1758316159248352,-65.59330749511719,1.5666556358337402,96.5299835205078,27.85,2
-0.3254047036170959,-0.8440592885017395,0.2080007791519165,-59.25454711914063,1.5642049312591553,96.52999114990234,27.85,2
-0.3543681502342224,-0.8607417941093445,0.2286450862884521,-49.859405517578125,1.5626322031021118,96.52999114990234,27.85,2
-0.3729552030563354,-0.8826432228088379,0.2474911957979202,-41.75941467285156,1.561622977256775,96.52999114990234,27.85,2
-0.384883314371109,-0.9022960662841796,0.2595855295658111,-35.62625503540039,1.5609753131866455,96.52999114990234,27.85,2
-0.4037336409091949,-0.9149081707000732,0.267346978187561,-29.623199462890625,1.560559630393982,96.52999114990234,27.85,2
-0.4046351313591003,-0.9285996556282043,0.2499367445707321,-22.3028507232666,1.5602928400039673,96.52999114990234,27.85,2
-0.4332025349140167,-0.9485815763473512,0.2219705283641815,-13.861281394958496,1.5601216554641724,96.52999114990234,27.85,2
-0.4627310037612915,-0.9726004004478456,0.1928278803825378,-5.158745765686035,1.560011863708496,96.52999114990234,27.85,2
-0.4872784614562988,-0.9824165105819702,0.1349413841962814,3.858148097991944,1.5682041645050049,96.69837188720705,27.85,2
-0.4974338114261627,-0.9887159466743468,0.0754020661115646,14.054821014404297,1.5734615325927734,96.80643463134766,27.85,2
-0.571124255657196,-1.1271051168441772,0.0763775780797004,25.628395080566406,1.5768353939056396,96.8757781982422,27.85,2
-0.6575989127159119,-1.0927642583847046,0.0266236383467912,37.52312088012695,1.5790005922317505,96.92028045654295,27.85,2
-0.6851045489311218,-1.093117356300354,-0.0388922244310379,48.05119323730469,1.5803900957107544,96.94883728027344,27.85,2
-0.6243872046470642,-1.1045395135879517,-0.0585454367101192,55.87152862548828,1.5812817811965942,96.9671630859375,27.85,2
-0.5574334263801575,-1.0838807821273804,-0.0487666390836238,61.14094924926758,1.581853985786438,96.97892761230467,27.85,2
-0.4864774942398071,-1.0146454572677612,-0.0424911715090274,65.60449981689453,1.5822211503982544,96.98648071289062,27.85,2
-0.4409420788288116,-0.9590186476707458,-0.0664528086781501,70.31755828857422,1.5792436599731443,96.99132537841795,27.85,2
-0.4117200672626495,-0.917722761631012,-0.0874277800321579,73.5284194946289,1.577332854270935,96.9944305419922,27.85,2
-0.3985648155212402,-0.8744281530380249,-0.1120838597416877,72.22134399414062,1.5761065483093262,96.99642944335938,27.85,2
-0.3957203030586242,-0.8522419333457947,-0.1335044950246811,65.49636840820312,1.5753196477890017,96.99771118164062,27.85,2
-0.3994926512241363,-0.849199652671814,-0.152848795056343,54.93265151977539,1.5748146772384644,96.99852752685548,27.85,2
-0.4019135236740112,-0.8696383833885193,-0.1596650779247284,42.30312347412109,1.5744905471801758,96.99905395507812,27.85,2
-0.4034670889377594,-0.9107436537742616,-0.1584416031837463,28.319211959838867,1.5742825269699097,96.9993896484375,27.85,2
-0.3932685256004333,-0.9259271025657654,-0.1352653503417968,13.183111190795898,1.5741490125656128,96.9996109008789,27.85,2
-0.3755281269550323,-0.9356709718704224,-0.1091966107487678,-2.850029945373535,1.5690137147903442,96.99974822998048,27.85,2
-0.3585456013679504,-1.0370861291885376,-0.075673870742321,-19.24030303955078,1.565718173980713,96.99983978271484,27.85,2
-0.3588427305221557,-0.995810866355896,-0.0149764856323599,-34.96411895751953,1.5636032819747925,96.9999008178711,27.85,2
-0.3534356355667114,-0.902149498462677,0.0407689251005649,-48.873783111572266,1.5622460842132568,96.99993896484376,27.85,2
-0.3275745809078216,-0.8700318932533264,0.0765431225299835,-60.655521392822266,1.5613751411437988,96.99996185302734,27.85,2
-0.3109784424304962,-0.905398428440094,0.0995009392499923,-70.81372833251953,1.5608161687850952,96.9999771118164,27.85,2
-0.3227190971374511,-0.9057034850120544,0.1254294961690902,-79.0344009399414,1.560457468032837,96.99998474121094,27.85,2
-0.3302535712718963,-0.8835082054138184,0.1644600480794906,-83.20294189453125,1.5602272748947144,96.99999237060548,27.85,2
-0.32949098944664,-0.869264543056488,0.1951053887605667,-81.19206237792969,1.5591614246368408,96.99999237060548,27.85,2
-0.31780606508255,-0.8769170641899109,0.2259673476219177,-73.3311538696289,1.5584774017333984,96.99999237060548,27.85,2
-0.3159051239490509,-0.9042191505432128,0.2513705492019653,-61.88082885742188,1.558038353919983,96.99999237060548,27.85,2
-0.325880765914917,-0.9273378252983092,0.2676728665828705,-48.71098327636719,1.5577566623687744,96.99999237060548,27.85,2
-0.332282543182373,-0.936576247215271,0.2781347632408142,-34.87114334106445,1.557575821876526,96.99999237060548,27.85,2
-0.3363908529281616,-0.9313094019889832,0.2904463708400726,-21.3715877532959,1.557459831237793,96.99999237060548,27.85,2
-0.3446250855922699,-0.922331690788269,0.2871516942977905,-8.488077163696289,1.5573854446411133,96.99999237060548,27.85,2
-0.3611049056053161,-0.9165703058242798,0.2794395983219147,4.684364795684815,1.5573376417160034,96.99999237060548,27.85,2
-0.3996695876121521,-0.9576551914215088,0.2632948756217956,18.62976837158203,1.5586841106414795,97.16120910644533,27.87,2
-0.452407032251358,-0.9952166080474854,0.2417385578155517,32.60906219482422,1.5595481395721436,97.2646713256836,27.87,2
-0.4806531071662903,-1.0249191522598269,0.1663294434547424,45.89358901977539,1.5601027011871338,97.33106231689452,27.87,2
-0.5211709141731262,-1.1615338325500488,0.1347295343875885,58.065895080566406,1.5604585409164429,97.37367248535156,27.87,2
-0.5863573551177979,-1.1820319890975952,0.1256460845470428,68.04842376708984,1.5606869459152222,97.40101623535156,27.87,2
-0.5890058279037476,-1.094426512718201,0.0638391003012657,74.30416870117188,1.56083345413208,97.41856384277344,27.87,2
-0.5795099139213562,-1.0885863304138184,0.0241749361157417,75.80735778808594,1.5609275102615356,97.42982482910156,27.87,2
-0.573415994644165,-1.1128273010253906,0.0099163083359599,72.6233901977539,1.5609878301620483,97.43704986572266,27.87,2
-0.5191252827644348,-1.0556128025054932,-0.0048318332992494,66.46014404296875,1.5692894458770752,97.44168853759766,27.87,2
-0.4674912989139557,-1.0021024942398071,-0.0198941156268119,59.964881896972656,1.5746169090270996,97.44466400146484,27.87,2
-0.4343555867671966,-0.9733603596687316,-0.0463535450398922,54.076961517333984,1.578035831451416,97.44657135009766,27.87,2
-0.4186887741088867,-0.9493175745010376,-0.074529230594635,47.25324249267578,1.580229878425598,97.4477996826172,27.87,2
-0.4142324924468994,-0.911497175693512,-0.1038063168525695,38.406700134277344,1.5816378593444824,97.4485855102539,27.87,2
-0.4057749211788177,-0.8984217643737793,-0.1337902098894119,28.523555755615234,1.5825414657592771,97.44908905029295,27.87,2
-0.400347352027893,-0.901226282119751,-0.1474343687295913,18.304777145385746,1.5831212997436523,97.4494171142578,27.87,2
-0.3912664651870727,-0.903026044368744,-0.144994854927063,6.7385125160217285,1.5834933519363403,97.44962310791016,27.87,2
-0.3910366594791412,-0.9097788333892822,-0.1210382208228111,-6.874742031097412,1.5791418552398682,97.44976043701172,27.87,2
-0.3908891677856445,-0.9365034699440002,-0.1000664606690406,-21.726402282714844,1.5763492584228516,97.44984436035156,27.87,2
-0.3740012049674988,-0.9928382039070128,-0.0698146671056747,-36.702857971191406,1.574557185173035,97.44989776611328,27.87,2
-0.3631634712219238,-1.0177950859069824,-0.0336074866354465,-51.132450103759766,1.5734070539474487,97.44993591308594,27.87,2
-0.3562084436416626,-0.93305104970932,0.0232148431241512,-64.38710021972656,1.5726690292358398,97.44995880126952,27.87,2
-0.334951788187027,-0.9178515672683716,0.048484593629837,-75.74490356445312,1.5721954107284546,97.4499740600586,27.87,2
-0.3325060307979584,-0.9360862970352172,0.0647012665867805,-84.77840423583984,1.5718914270401,97.44998168945312,27.87,2
-0.353327602148056,-0.930994987487793,0.0974992960691452,-91.51422119140624,1.571696400642395,97.44998931884766,27.87,2
-0.3610919117927551,-0.9165321588516236,0.1297427266836166,-95.29590606689452,1.5646854639053345,97.44998931884766,27.87,2
-0.3492812812328338,-0.8736640810966492,0.1560324877500534,-93.68879699707033,1.5601862668991089,97.44998931884766,27.87,2
-0.3249085545539856,-0.8741427063941956,0.1896970570087433,-85.03730773925781,1.557299017906189,97.44998931884766,27.87,2
-0.3148653209209442,-0.880047619342804,0.2113010436296463,-71.81856536865234,1.5554461479187012,97.44998931884766,27.87,2
-0.3084201514720917,-0.8950325846672058,0.2363607883453369,-58.09064865112305,1.554257035255432,97.44998931884766,27.87,2
-0.3098817765712738,-0.9158446192741394,0.2580404579639435,-44.741737365722656,1.5534939765930176,97.44998931884766,27.87,2
-0.3164175450801849,-0.9292005896568298,0.2831487655639648,-30.675922393798828,1.553004264831543,97.44998931884766,27.87,2
-0.320611834526062,-0.948967218399048,0.2936640679836273,-16.261098861694336,1.552690029144287,97.44998931884766,27.87,2
-0.3289012610912323,-0.9784456491470336,0.2892166376113891,-2.4104678630828857,1.555701494216919,97.59329223632812,27.89,2
-0.3566120266914367,-1.0141565799713137,0.2695692181587219,11.153331756591797,1.5576341152191162,97.6852569580078,27.89,2
-0.3799929916858673,-1.0314760208129885,0.2345695197582245,24.68710899353028,1.5588743686676023,97.74427795410156,27.89,2
-0.4005953073501587,-1.0313950777053833,0.1841198652982711,37.578250885009766,1.5596702098846436,97.78215026855467,27.89,2
-0.4250122308731079,-1.115309715270996,0.1461464017629623,49.30106735229492,1.5601810216903689,97.80645751953124,27.89,2
-0.496659368276596,-1.1803568601608276,0.1441683173179626,59.665077209472656,1.5605088472366333,97.82205963134766,27.89,2
-0.5594316720962524,-1.0653626918792725,0.0869211554527282,67.99633026123047,1.5607191324234009,97.83206939697266,27.89,2
-0.5773242712020874,-1.0307505130767822,0.0389876700937747,72.90219116210938,1.5608540773391724,97.83849334716795,27.89,2
-0.5832089185714722,-1.0533205270767212,0.0194222684949636,73.03038024902344,1.5719579458236694,97.84261322021484,27.89,2
-0.5422031283378601,-1.0230225324630735,0.0068663186393678,68.6200942993164,1.5790836811065674,97.8452606201172,27.89,2
-0.4934968948364258,-0.9811878800392152,-0.0067891404032707,62.260990142822266,1.5836565494537354,97.84695434570312,27.89,2
-0.439848929643631,-0.9431452751159668,-0.0323457531630992,57.10889053344727,1.5865912437438965,97.8480453491211,27.89,2
-0.4110185503959656,-0.9243294596672058,-0.0655398368835449,53.86705780029297,1.5884745121002195,97.84874725341795,27.89,2
-0.3925168514251709,-0.906656801700592,-0.1036352142691612,50.62229919433594,1.5896830558776855,97.84919738769533,27.89,2
-0.3918390870094299,-0.8897177577018738,-0.1392781883478164,45.77066802978516,1.590458631515503,97.8494873046875,27.89,2
-0.3858063519001007,-0.890042781829834,-0.1565540134906768,39.56898880004883,1.5909563302993774,97.84967041015624,27.89,2
-0.3707393407821655,-0.8678602576255798,-0.1620428711175918,32.48301696777344,1.5857672691345217,97.84978485107422,27.89,2
-0.3554724454879761,-0.8648203611373901,-0.1543697565793991,23.89092063903809,1.5824371576309204,97.84986114501952,27.89,2
-0.3344794809818268,-0.902053952217102,-0.1270544975996017,12.956570625305176,1.5803000926971436,97.84990692138672,27.89,2
-0.3154096305370331,-0.9259483218193054,-0.1095251366496086,-0.4876066148281097,1.5789287090301514,97.84993743896484,27.89,2
-0.2975739240646362,-1.0084556341171265,-0.0870802551507949,-16.047590255737305,1.578048586845398,97.84996032714844,27.89,2
-0.3085190653800964,-1.0446107387542725,-0.0446875467896461,-32.69309997558594,1.5774837732315063,97.8499755859375,27.89,2
-0.3211408257484436,-1.0174330472946167,-0.0006890231743454,-48.6702766418457,1.5771212577819824,97.84998321533205,27.89,2
-0.3180451989173889,-1.005589723587036,0.0275466963648796,-62.283966064453125,1.5768886804580688,97.84999084472656,27.89,2
-0.3160585761070251,-1.037173867225647,0.0512645319104194,-72.69709014892578,1.569853663444519,97.84999084472656,27.89,2
-0.3371747732162475,-1.0574426651000977,0.0832785964012146,-79.34022521972656,1.5653390884399414,97.84999084472656,27.89,2
-0.3339326381683349,-0.9920812249183656,0.1206167042255401,-80.98455047607422,1.5624418258666992,97.84999084472656,27.89,2
-0.3262542188167572,-0.9165493249893188,0.1557736992835998,-77.00626373291016,1.5605825185775757,97.84999084472656,27.89,2
-0.3213266730308532,-0.8680773377418518,0.178335428237915,-69.22982788085938,1.559389352798462,97.84999084472656,27.89,2
-0.3181644380092621,-0.8593618869781494,0.2040098011493683,-60.32719039916992,1.5586236715316772,97.84999084472656,27.89,2
-0.2769506871700287,-0.8593665957450867,0.4108104705810547,-50.68748474121094,1.558132290840149,97.84999084472656,27.89,2
-0.3680553436279297,-0.8593696355819702,0.3476011157035827,-39.2241439819336,1.557816982269287,97.84999084472656,27.89,2
-0.3593477606773376,-0.8425782322883606,0.3070369958877563,-26.285978317260746,1.5566967725753784,97.98255157470705,27.85,2
-0.3369664251804352,-0.831802487373352,0.2698097229003906,-13.307747840881348,1.5559778213500977,98.06761932373048,27.85,2
-0.3002122640609741,-0.8584738969802856,0.2459194213151931,-0.8376092910766602,1.555516481399536,98.12220764160156,27.85,2
-0.3046144247055053,-0.9203722476959229,0.2585768699645996,11.22048282623291,1.555220365524292,98.15724182128906,27.85,2
-0.3802105486392975,-0.982486128807068,0.1715375185012817,22.709630966186523,1.555030345916748,98.17972564697266,27.85,2
-0.400734931230545,-1.005553960800171,0.1380717754364013,33.582881927490234,1.5549083948135376,98.19415283203124,27.85,2
-0.4418951570987701,-1.076335310935974,0.127790942788124,43.83159637451172,1.5548301935195925,98.2034149169922,27.85,2
-0.4571138918399811,-1.0825742483139038,0.1211932897567749,52.64057540893555,1.5547800064086914,98.20935821533205,27.85,2
-0.4836737215518951,-1.092175841331482,0.1001659780740737,58.576698303222656,1.5547478199005127,98.21317291259766,27.85,2
-0.4839249551296234,-1.1487175226211548,0.1034651771187782,60.77758407592773,1.5547270774841309,98.2156219482422,27.85,2
-0.4672928750514984,-1.1626116037368774,0.1055824160575866,59.53529739379883,1.5547138452529907,98.21719360351562,27.85,2
-0.3838482797145843,-1.0819636583328247,0.1181366890668869,56.14070129394531,1.554705262184143,98.21820068359376,27.85,2
-0.3079072535037994,-0.9966217875480652,0.1261932998895645,52.42890167236328,1.5546997785568235,98.2188491821289,27.85,2
-0.270368218421936,-0.9362565279006958,0.1145702451467514,49.78893661499024,1.5546963214874268,98.2192611694336,27.85,2
-0.2630711495876312,-0.886322021484375,0.0847201347351074,48.23448181152344,1.5546940565109253,98.2195281982422,27.85,2
-0.2639860808849334,-0.8598747253417969,0.054368507117033,46.83925247192383,1.554692625999451,98.21969604492188,27.85,2
-0.2533776760101318,-0.8037179708480835,0.0236950274556875,44.76520919799805,1.5583637952804563,98.21980285644533,27.85,2
-0.2409720420837402,-0.7620819807052612,0.0096083292737603,41.1628532409668,1.5607197284698486,98.2198715209961,27.85,2
-0.2498041540384292,-0.7801446318626404,0.0117638474330306,34.838584899902344,1.5622316598892212,98.21991729736328,27.85,2
-0.2666676342487335,-0.8141272664070129,0.0075493599288165,25.12672996520996,1.563201904296875,98.2199478149414,27.85,2
-0.2830874323844909,-0.8527287244796753,0.0048447446897625,12.624712944030762,1.5638245344161987,98.219970703125,27.85,2
-0.2824291586875915,-0.8942942023277283,0.0143046276643872,-1.3311071395874023,1.564224123954773,98.21997833251952,27.85,2
-0.2764089405536651,-0.9321641325950624,0.0091798864305019,-15.44605827331543,1.564480543136597,98.21998596191406,27.85,2
-0.2725455164909363,-1.1299978494644165,-0.0053044259548187,-28.81764411926269,1.5646451711654663,98.2199935913086,27.85,2
-0.314848393201828,-1.1729894876480105,-0.0034040752798318,-41.12821960449219,1.5606193542480469,98.2199935913086,27.85,2
-0.325202614068985,-1.0998191833496094,0.0034132348373532,-52.471290588378906,1.5580358505249023,98.2199935913086,27.85,2
-0.2982607185840606,-1.1480247974395752,0.0021904176101088,-62.93553161621094,1.55637788772583,98.2199935913086,27.85,2
-0.3033620417118072,-1.1677649021148682,-0.0041920905932784,-72.01179504394531,1.5553139448165894,98.2199935913086,27.85,2
-0.3234291076660156,-1.0628796815872192,-0.0194835644215345,-77.92240142822266,1.5546311140060425,98.2199935913086,27.85,2
-0.325111448764801,-0.9395925998687744,-0.0348945260047912,-78.46967315673828,1.5541929006576538,98.2199935913086,27.85,2
-0.3261910676956177,-0.8548762798309326,-0.033588845282793,-73.447021484375,1.5539116859436035,98.2199935913086,27.85,2
-0.3548727929592132,-0.8173035383224487,-0.0215553883463144,-65.1436767578125,1.5537312030792236,98.2199935913086,27.85,2
-0.3788768351078033,-0.804387092590332,-0.0250285565853118,-55.54105758666992,1.5568289756774902,98.35254669189452,27.85,2
-0.3942812383174896,-0.8016958236694336,-0.0216596610844135,-44.74637985229492,1.5588170289993286,98.43761444091795,27.85,2
-0.409764677286148,-0.8167620301246643,0.0084911724552512,-32.74246597290039,1.560092806816101,98.49220275878906,27.85,2
-0.4252988398075104,-0.8376262187957764,0.0278402436524629,-19.643686294555664,1.5609115362167358,98.52723693847656,27.85,2
-0.44086554646492,-0.8790045380592346,0.0626484602689743,-4.219377040863037,1.561436891555786,98.54972076416016,27.85,2
-0.4508553743362427,-0.9223520755767822,0.0849863737821579,13.858076095581056,1.5617740154266355,98.56414794921876,27.85,2
-0.4460707008838653,-1.017343282699585,0.110517106950283,30.9978084564209,1.5619903802871704,98.57341003417967,27.85,2
-0.4653912782669067,-1.0950965881347656,0.1828790009021759,43.03246307373047,1.562129259109497,98.57935333251952,27.85,2
-0.4721923470497131,-1.0946141481399536,0.2125233858823776,49.809814453125,1.561759114265442,98.58316802978516,27.85,2
-0.4373724460601806,-1.1390867233276367,0.1979607939720153,52.819244384765625,1.5615215301513672,98.58561706542967,27.85,2
-0.4038314819335937,-1.2124089002609253,0.1830175817012787,51.5799446105957,1.5613690614700315,98.58718872070312,27.85,2
-0.3487201929092407,-1.2314739227294922,0.1678301244974136,46.0592155456543,1.5612711906433103,98.58819580078124,27.85,2
-0.3021574020385742,-1.1541444063186646,0.1636814624071121,39.00540542602539,1.5612083673477173,98.5888442993164,27.85,2
-0.2666783034801483,-1.0821276903152466,0.1554213166236877,32.98115921020508,1.5611680746078491,98.5892562866211,27.85,2
-0.2551054060459137,-1.0247159004211426,0.1221315488219261,27.97588539123535,1.5611422061920166,98.58952331542967,27.85,2
-0.2588741183280945,-0.9878723621368408,0.0951703190803527,23.5206356048584,1.561125636100769,98.58969116210938,27.85,2
-0.2556948959827423,-0.9362394213676452,0.06667260825634,20.51462745666504,1.570296049118042,98.5897979736328,27.85,2
-0.2368613332509994,-0.8639199733734131,0.0539821907877922,19.8107852935791,1.576181173324585,98.5898666381836,27.85,2
-0.2191772609949112,-0.8007161617279053,0.0458382107317447,20.73838996887207,1.5799578428268433,98.58991241455078,27.85,2
-0.213426411151886,-0.7489600777626038,0.0518074221909046,21.727758407592773,1.5823814868927002,98.5899429321289,27.85,2
-0.2153336256742477,-0.7381370663642883,0.0556381195783615,21.510025024414062,1.5839368104934692,98.5899658203125,27.85,2
-0.2277531176805496,-0.7815714478492737,0.035705342888832,19.36763572692871,1.584934949874878,98.58997344970705,27.85,2
-0.2413210123777389,-0.8318362832069397,0.0229136329144239,14.6788911819458,1.5855755805969238,98.58998107910156,27.85,2
-0.2500281035900116,-0.8808866739273071,0.0091068753972649,7.130801677703857,1.585986614227295,98.5899887084961,27.85,2
-0.2556158006191253,-0.996330976486206,-0.0221446026116609,-2.4707884788513184,1.5761514902114868,98.5899887084961,27.85,2
-0.2759949862957001,-1.1431875228881836,-0.0422000028192997,-12.376327514648438,1.5698399543762207,98.5899887084961,27.85,2
-0.3394531607627868,-1.1646605730056765,-0.038277082145214,-21.13345718383789,1.5657894611358645,98.5899887084961,27.85,2
-0.3465903103351593,-1.0944740772247314,-0.0245640277862548,-28.25796127319336,1.5631901025772097,98.5899887084961,27.85,2
-0.3231816589832306,-1.1333991289138794,-0.0045682303607463,-34.64284133911133,1.5615220069885254,98.5899887084961,27.85,2
-0.336148202419281,-1.0968034267425537,-0.0029316272120922,-42.33002853393555,1.5604515075683594,98.5899887084961,27.85,2
-0.3444693684577942,-1.0285362005233765,-0.0018813495989888,-51.44767379760742,1.5597645044326782,98.5899887084961,27.85,2
-0.3386138677597046,-0.9175529479980468,-0.0012073419056832,-57.65711212158203,1.5593236684799194,98.5899887084961,27.85,2
-0.3404539227485657,-0.8519280552864075,0.016018521040678,-56.29318618774414,1.559499740600586,98.7010498046875,27.89,2
-0.3528303205966949,-0.8210093379020691,0.0270730871707201,-48.224082946777344,1.55961275100708,98.77232360839844,27.89,2
-0.3607727885246277,-0.817960798740387,0.0341672711074352,-38.38486862182617,1.559685230255127,98.81806182861328,27.89,2
-0.365869790315628,-0.8104066252708435,0.0443176850676536,-30.21126937866211,1.5597317218780518,98.84741973876952,27.89,2
-0.3747385442256927,-0.8223521709442139,0.0676249638199806,-24.385547637939453,1.5597615242004397,98.8662567138672,27.89,2
-0.3860277533531189,-0.835615873336792,0.0881800055503845,-20.60752487182617,1.5597807168960571,98.87834930419922,27.89,2
-0.3988702893257141,-0.855323314666748,0.1125665977597236,-18.11493873596192,1.5597929954528809,98.8861083984375,27.89,2
-0.4071119129657745,-0.912752628326416,0.1450098305940628,-15.737921714782717,1.5598008632659912,98.89108276367188,27.89,2
-0.4068031311035156,-0.9664007425308228,0.1714278012514114,-12.442696571350098,1.560724139213562,98.89427947998048,27.89,2
-0.4122027456760406,-1.0512089729309082,0.2163702100515365,-7.633913993835449,1.5613166093826294,98.89633178710938,27.89,2
-0.4268634617328644,-1.0552541017532349,0.245211660861969,-1.0978939533233645,1.5616968870162964,98.89764404296876,27.89,2
-0.4194785356521606,-1.0914366245269775,0.2525248825550079,6.947816848754883,1.5619409084320068,98.89849090576172,27.89,2
-0.358761578798294,-1.209818720817566,0.2236314564943313,16.05908966064453,1.5620975494384766,98.89903259277344,27.89,2
-0.2974058091640472,-1.2913873195648191,0.1994915455579757,26.302000045776367,1.562198042869568,98.89937591552734,27.89,2
-0.2580312192440033,-1.2373756170272827,0.1839999407529831,38.02705383300781,1.5622625350952148,98.89959716796876,27.89,2
-0.2271651029586792,-1.169127345085144,0.1628627628087997,49.9115104675293,1.562303900718689,98.89974212646484,27.89,2
-0.2129547744989395,-1.1141339540481567,0.143700361251831,58.59513473510742,1.5710521936416626,98.89983367919922,27.89,2
-0.2206287384033203,-1.0564513206481934,0.1090119406580925,61.96808242797852,1.5766663551330566,98.89989471435548,27.89,2
-0.2199556678533554,-1.0082383155822754,0.0811531394720077,61.51020050048828,1.58026921749115,98.89993286132812,27.89,2
-0.2083281725645065,-0.9269180297851562,0.0520794130861759,59.76899719238281,1.5825812816619873,98.89995574951172,27.89,2
-0.1896707713603973,-0.8411446809768677,0.0446171201765537,56.84955596923828,1.584065079689026,98.89997100830078,27.89,2
-0.1776975244283676,-0.7805025577545166,0.0454260222613811,51.06743621826172,1.5850173234939575,98.89997863769533,27.89,2
-0.1868071109056472,-0.7527814507484436,0.0459451302886009,41.94711685180664,1.5856283903121948,98.89998626708984,27.89,2
-0.1982508897781372,-0.7517849802970886,0.0462782643735408,30.73110580444336,1.586020588874817,98.89999389648438,27.89,2
-0.2111926227807998,-0.7623410224914551,0.0408942736685276,18.489049911499023,1.5793864727020264,98.89999389648438,27.89,2
-0.2250956594944,-0.8138974905014038,0.0150480438023805,5.592117786407471,1.575129151344299,98.89999389648438,27.89,2
-0.2508111596107483,-0.9141567945480348,-0.0239296779036521,-7.298747539520264,1.572396993637085,98.89999389648438,27.89,2
-0.3120960593223572,-1.118441820144653,-0.0601388849318027,-19.422632217407227,1.570643663406372,98.89999389648438,27.89,2
-0.3682185113430023,-1.1991602182388306,-0.0553869977593421,-30.75337600708008,1.5695184469223022,98.89999389648438,27.89,2
-0.3426591455936432,-1.1613962650299072,-0.013153089210391,-41.628868103027344,1.5687963962554932,98.89999389648438,27.89,2
-0.303865522146225,-1.181943655014038,0.0083524286746978,-52.36266708374024,1.5683330297470093,98.89999389648438,27.89,2
-0.312556654214859,-1.1503475904464722,0.0109578827396035,-63.102272033691406,1.56803560256958,98.89999389648438,27.89,2
-0.3349274694919586,-1.0517022609710691,-0.0041634100489318,-72.13671112060547,1.5637134313583374,99.01821899414062,27.85,2
-0.349283754825592,-0.9604084491729736,-0.0194651596248149,-75.10784149169922,1.5609396696090698,99.0940933227539,27.85,2
-0.3640945553779602,-0.8850280046463013,-0.0068938448093831,-68.89643096923828,1.5591596364974976,99.14278411865234,27.85,2
-0.3903926014900207,-0.8534465432167053,0.0067714755423367,-55.7568244934082,1.5580172538757324,99.17403411865234,27.85,2
-0.4072691798210144,-0.8443748950958252,0.01554109249264,-41.12314224243164,1.557284235954285,99.19408416748048,27.85,2
-0.4348929226398468,-0.8553465604782104,0.0491577982902526,-28.400291442871094,1.5568137168884275,99.20695495605467,27.85,2
-0.4526202380657196,-0.8623875379562378,0.0819266140460968,-17.8889102935791,1.5565117597579956,99.2152099609375,27.85,2
-0.4807899594306946,-0.8613082766532898,0.1029557511210441,-9.348441123962402,1.5563180446624756,99.22051239013672,27.85,2
-0.4988676607608795,-0.8718112111091614,0.1388421356678009,-3.1045706272125244,1.5617022514343262,99.22391510009766,27.85,2
-0.5160666704177856,-0.8897469639778137,0.1618719547986984,1.2140703201293943,1.5651575326919556,99.2260971069336,27.85,2
-0.5271039605140686,-0.9740281701087952,0.1822489500045776,5.275252819061279,1.5673749446868896,99.2274932861328,27.85,2
-0.5509803891181946,-1.0672993659973145,0.2065212726593017,10.56125259399414,1.568797945976257,99.2283935546875,27.85,2
-0.5998895764350891,-1.0879710912704468,0.2388911843299865,17.066761016845703,1.569711208343506,99.22897338867188,27.85,2
-0.586494505405426,-1.0564547777175903,0.2596643269062042,23.89631080627441,1.5702972412109375,99.22933959960938,27.85,2
-0.561104953289032,-1.058620572090149,0.2785930931568146,30.54331016540528,1.5706733465194702,99.22957611083984,27.85,2
-0.5112247467041016,-1.104792594909668,0.2795449495315552,37.513816833496094,1.5709147453308103,99.22972869873048,27.85,2
-0.4624212086200714,-1.1176297664642334,0.2689602375030517,45.90642547607422,1.571069598197937,99.22982788085938,27.85,2
-0.4031130373477936,-1.0586947202682495,0.2453742623329162,55.54841613769531,1.5711690187454224,99.22988891601562,27.85,2
-0.3594546914100647,-1.004080295562744,0.2078470438718795,63.49155426025391,1.571232795715332,99.22992706298828,27.85,2
-0.3426328301429748,-0.963434100151062,0.1725686937570572,66.18151092529297,1.571273684501648,99.2299575805664,27.85,2
-0.3262397348880768,-0.9149585962295532,0.1331357508897781,63.368648529052734,1.5712999105453491,99.22997283935548,27.85,2
-0.3101218342781067,-0.8782520294189453,0.1078299582004547,57.73374176025391,1.571316838264465,99.22998046875,27.85,2
-0.282984972000122,-0.8379025459289551,0.0915901586413383,50.96491622924805,1.5713276863098145,99.22998809814452,27.85,2
-0.2599723041057586,-0.8120085597038269,0.0811683908104896,42.69098663330078,1.5713346004486084,99.22999572753906,27.85,2
-0.2563996613025665,-0.8121846318244934,0.0800780728459358,32.541194915771484,1.5745521783828735,99.22999572753906,27.85,2
-0.2597047090530395,-0.8122976422309875,0.0737805962562561,20.779170989990234,1.5766171216964722,99.22999572753906,27.85,2
-0.2674234807491302,-0.8291634321212769,0.0809347853064537,7.602755069732666,1.5779422521591189,99.22999572753906,27.85,2
-0.2667791545391083,-0.9015624523162842,0.0799281597137451,-6.3165388107299805,1.578792691230774,99.22999572753906,27.85,2
-0.2663656771183014,-1.031990647315979,0.0624888427555561,-19.34044075012207,1.5793384313583374,99.22999572753906,27.85,2
-0.288491427898407,-1.1548763513565063,0.0624928399920463,-30.091590881347656,1.5796886682510376,99.22999572753906,27.85,2
-0.330679327249527,-1.0937929153442385,0.0792887285351753,-38.66770553588867,1.5799133777618408,99.22999572753906,27.85,2
-0.340959757566452,-0.9930176138877868,0.084469586610794,-46.52153396606445,1.5800576210021973,99.22999572753906,27.85,2
-0.3475571572780609,-1.012312412261963,0.0765988156199455,-55.55624008178711,1.5773959159851074,99.34464263916016,27.87,2
-0.3797798752784729,-1.0023036003112793,0.0827433541417121,-66.12976837158203,1.5756877660751345,99.418212890625,27.87,2
-0.3948607742786407,-0.9622939229011536,0.0978821143507957,-74.88566589355469,1.5745916366577148,99.4654312133789,27.87,2
-0.3709521889686584,-0.9142268896102904,0.1243906244635582,-76.43489074707031,1.5738881826400757,99.4957275390625,27.87,2
-0.3668045699596405,-0.8833802342414856,0.1414022594690323,-68.5944595336914,1.5734367370605469,99.51517486572266,27.87,2
-0.3977295160293579,-0.8803779482841492,0.1635148972272873,-54.3449592590332,1.5731470584869385,99.52764892578124,27.87,2
-0.4343686997890472,-0.8728534579277039,0.1777055114507675,-38.27174758911133,1.5729610919952393,99.53565979003906,27.87,2
-0.4522838294506073,-0.8624269366264343,0.1924100071191787,-23.19564247131348,1.572841763496399,99.54080200195312,27.87,2
-0.4469874203205108,-0.8557357788085938,0.207444280385971,-10.12080192565918,1.573224425315857,99.54409790039062,27.87,2
-0.4379906952381134,-0.8626373410224915,0.2226901948451995,0.7203589677810669,1.5734699964523315,99.54621124267578,27.87,2
-0.4434126615524292,-0.8894574642181396,0.2156808227300644,9.250343322753906,1.5736275911331177,99.54756927490234,27.87,2
-0.4468921720981598,-0.929060161113739,0.2055848240852356,15.465989112854004,1.5737287998199463,99.5484390258789,27.87,2
-0.454722911119461,-0.9656704664230348,0.1879102438688278,19.8166732788086,1.5737937688827517,99.54899597167967,27.87,2
-0.4709437787532806,-1.0059581995010376,0.142981082201004,23.17473793029785,1.573835372924805,99.54935455322266,27.87,2
-0.4869511723518371,-1.070996880531311,0.0973547995090484,26.27913284301757,1.573862075805664,99.5495834350586,27.87,2
-0.5532015562057495,-1.1687127351760864,0.101661130785942,29.13833808898925,1.5738792419433594,99.54973602294922,27.87,2
-0.5509350299835205,-1.0802812576293943,0.0484469383955001,30.693771362304688,1.5766445398330688,99.54983520507812,27.87,2
-0.5214916467666626,-1.07391095161438,0.0031015842687338,29.98665237426757,1.578419208526611,99.54989624023438,27.87,2
-0.513792097568512,-1.1090073585510254,-0.0092051299288868,28.089086532592773,1.57955801486969,99.54993438720705,27.87,2
-0.5088509917259216,-1.109139084815979,-0.028298420831561,27.455297470092773,1.5802888870239258,99.54995727539062,27.87,2
-0.4664956331253052,-1.0532459020614624,-0.0573447160422802,28.904342651367188,1.5807578563690186,99.54997253417967,27.87,2
-0.4225210845470428,-1.000583529472351,-0.1095716059207916,30.54718971252441,1.5810588598251345,99.54998016357422,27.87,2
-0.3998985290527344,-0.9611900448799132,-0.1486855894327163,29.914081573486328,1.5812519788742063,99.54998779296876,27.87,2
-0.390978455543518,-0.9191162586212158,-0.1905800104141235,26.24764442443848,1.5813759565353394,99.54999542236328,27.87,2
-0.3796562850475311,-0.8809201717376709,-0.2174654453992843,20.5772705078125,1.5828325748443604,99.54999542236328,27.87,2
-0.3611948192119598,-0.8508103489875793,-0.2291211932897567,14.179767608642578,1.5837674140930176,99.54999542236328,27.87,2
-0.3493472933769226,-0.8370853662490845,-0.2366011887788772,7.573581218719482,1.584367275238037,99.54999542236328,27.87,2
-0.3529397845268249,-0.8394730091094971,-0.2246080935001373,0.736743688583374,1.584752321243286,99.54999542236328,27.87,2
-0.3496474623680115,-0.8745919466018677,-0.1665316373109817,-6.602787017822266,1.584999442100525,99.54999542236328,27.87,2
-0.3419368863105774,-0.9139225482940674,-0.1236637458205223,-14.612427711486816,1.5851579904556274,99.54999542236328,27.87,2
-0.3145975768566131,-1.0231293439865112,-0.0905558243393898,-22.632946014404297,1.5852596759796145,99.54999542236328,27.87,2
-0.2970527708530426,-1.0204408168792725,-0.0189290978014469,-29.474609375,1.585325002670288,99.54999542236328,27.87,2
-0.2857935428619385,-0.9851288795471193,0.0438301376998424,-34.83249282836914,1.5807762145996094,99.65389251708984,27.85,2
-0.3121546506881714,-1.0240432024002075,0.0897031798958778,-39.77555465698242,1.5778570175170898,99.72056579589844,27.85,2
-0.3458650112152099,-1.0490162372589111,0.1247396320104599,-45.65973663330078,1.575983643531799,99.76335144042967,27.85,2
-0.3674983978271484,-1.014662504196167,0.1472240090370178,-52.452396392822266,1.5747814178466797,99.79080963134766,27.85,2
-0.3198059201240539,-0.9590295553207396,0.1728487312793731,-57.6641845703125,1.574009895324707,99.80843353271484,27.85,2
-0.2724063098430633,-0.9121320247650146,0.2004887610673904,-57.71284103393555,1.5735148191452026,99.81974029541016,27.85,2
-0.26437908411026,-0.8876336216926575,0.2294220924377441,-51.170040130615234,1.5731971263885498,99.82699584960938,27.85,2
-0.2872165441513061,-0.8831075429916382,0.2423920631408691,-39.75593948364258,1.572993278503418,99.83164978027344,27.85,2
-0.3018723130226135,-0.8746051788330078,0.2563132047653198,-26.2439193725586,1.5728623867034912,99.83464050292967,27.85,2
-0.3168753087520599,-0.8971377015113831,0.2652469873428345,-13.058636665344238,1.5727784633636477,99.83655548095705,27.85,2
-0.3321011364459991,-0.9115977883338928,0.2653824090957641,-1.874324440956116,1.5727245807647705,99.8377914428711,27.85,2
-0.3418722152709961,-0.9208774566650392,0.2486760020256042,7.578059673309326,1.5726900100708008,99.83858489990234,27.85,2
-0.3537404835224151,-0.9492236971855164,0.2323570102453231,17.30544662475586,1.5726678371429443,99.8390884399414,27.85,2
-0.4117368459701538,-0.9954035878181458,0.193895548582077,28.31991577148437,1.5726535320281982,99.83941650390624,27.85,2
-0.4545533359050751,-1.013843655586243,0.1188332289457321,39.63730239868164,1.5726443529129028,99.8396224975586,27.85,2
-0.4876282811164856,-1.059264063835144,0.0482714548707008,50.06714630126953,1.5726385116577148,99.83975982666016,27.85,2
-0.6040160059928894,-1.1387921571731567,0.0421733893454074,59.0174446105957,1.5813568830490112,99.83984375,27.85,2
-0.6843047738075256,-1.0722755193710327,0.0326622277498245,65.73210906982422,1.5869518518447876,99.83989715576172,27.85,2
-0.6518628597259521,-1.035186767578125,-0.0070281345397233,69.28884887695312,1.5905423164367676,99.83993530273438,27.85,2
-0.6422390341758728,-1.0729608535766602,-0.0213035754859447,69.24626922607422,1.5928465127944946,99.83995819091795,27.85,2
-0.6304652690887451,-1.08600652217865,-0.030464731156826,66.09494018554688,1.5943251848220823,99.83997344970705,27.85,2
-0.5613340139389038,-1.0439984798431396,-0.0251482855528593,61.496726989746094,1.5952740907669067,99.83998107910156,27.85,2
-0.4889806807041168,-1.0114424228668213,-0.0329320468008518,57.15581893920898,1.5958831310272217,99.8399887084961,27.85,2
-0.4313529133796692,-0.9905497431755066,-0.054720539599657,52.99436569213867,1.5962738990783691,99.8399887084961,27.85,2
-0.4167618155479431,-0.9715442657470704,-0.0910942405462265,47.58311080932617,1.5960654020309448,99.8399887084961,27.85,2
-0.4073981046676636,-0.959347665309906,-0.1256323307752609,40.46699905395508,1.5959316492080688,99.8399887084961,27.85,2
-0.3901934623718261,-0.9403250217437744,-0.1589924395084381,32.28547286987305,1.5958458185195925,99.8399887084961,27.85,2
-0.3735547363758087,-0.9393129348754884,-0.1748032569885254,23.02613639831543,1.5957907438278198,99.8399887084961,27.85,2
-0.3684747517108917,-0.9498589634895324,-0.1681564152240753,12.190229415893556,1.5957553386688232,99.8399887084961,27.85,2
-0.3540191352367401,-0.9510290622711182,-0.1470975279808044,0.1061186492443084,1.5957326889038086,99.8399887084961,27.85,2
-0.3335468173027038,-0.968573272228241,-0.1167898252606391,-12.900822639465332,1.5957181453704834,99.8399887084961,27.85,2
-0.3148110806941986,-1.0582009553909302,-0.0749489888548851,-27.60700225830078,1.5957088470458984,99.8399887084961,27.85,2
-0.3083853423595428,-0.9757745265960692,-0.0145112974569201,-44.34944915771485,1.5897353887557983,99.9367218017578,27.85,2
-0.2930661141872406,-0.8780957460403442,0.0354696810245513,-61.076690673828125,1.5859018564224243,99.9988021850586,27.85,2
-0.3000284433364868,-0.921768844127655,0.073142372071743,-74.42655181884766,1.5834417343139648,100.03864288330078,27.85,2
-0.3044964671134949,-0.9497957229614258,0.102916307747364,-82.93998718261719,1.5818630456924438,100.064208984375,27.85,2
-0.3353526592254638,-0.9229995608329772,0.1220235079526901,-88.09532165527344,1.5808498859405518,100.0806121826172,27.85,2
-0.3439588546752929,-0.9002055525779724,0.1398831754922866,-90.94514465332033,1.5801997184753418,100.09114074707033,27.85,2
-0.3214929401874542,-0.8743821382522583,0.1569422632455825,-89.41354370117188,1.579782485961914,100.097900390625,27.85,2
-0.3182711601257324,-0.8969945907592773,0.1958786696195602,-81.29057312011719,1.579514741897583,100.10223388671876,27.85,2
-0.3218013644218445,-0.9227015376091005,0.2264636009931564,-67.93094635009766,1.5765886306762695,100.10501861572266,27.85,2
-0.3520557284355163,-0.9447965025901794,0.2460912466049194,-52.3499870300293,1.574710726737976,100.10680389404295,27.85,2
-0.3658734560012817,-0.970171332359314,0.2754804491996765,-36.30721664428711,1.5735056400299072,100.10794830322266,27.85,2
-0.3523497879505157,-0.9752599000930786,0.2999385297298431,-21.064353942871094,1.5727323293685913,100.10868072509766,27.85,2
-0.3212799727916717,-0.9673299193382264,0.2932432293891907,-7.681873798370361,1.5722360610961914,100.1091537475586,27.85,2
-0.3013411462306976,-0.9678386449813844,0.2777510285377502,4.535380840301514,1.5719175338745115,100.10945892333984,27.85,2
-0.3669144213199615,-0.9793606996536256,0.2398201376199722,17.0760498046875,1.571713089942932,100.10964965820312,27.85,2
-0.4369844198226928,-0.9867548942565918,0.198684960603714,29.67380142211914,1.5715819597244265,100.10977172851562,27.85,2
-0.5155379772186279,-1.013891100883484,0.1275045722723007,40.61004257202149,1.5903184413909912,100.10985565185548,27.85,2
-0.6275246143341064,-1.1152721643447876,0.0986184179782867,48.85711669921875,1.6023424863815308,100.1099090576172,27.85,2
-0.7161845564842224,-1.0851706266403198,0.0800809487700462,54.44696807861328,1.6100587844848633,100.10993957519533,27.85,2
-0.6891147494316101,-1.021070957183838,0.012206919491291,57.51115798950195,1.6150107383728027,100.1099624633789,27.85,2
-0.6829384565353394,-1.0247176885604858,-0.0313507243990898,57.74361038208008,1.6181886196136477,100.10997772216795,27.85,2
-0.7013660073280334,-1.0382535457611084,-0.03691241517663,54.75802993774414,1.620227932929993,100.1099853515625,27.85,2
-0.6348229050636292,-1.0077556371688845,-0.0516771338880062,49.49235153198242,1.6215366125106812,100.10999298095705,27.85,2
-0.55853271484375,-0.9825860261917114,-0.066750057041645,44.93805313110352,1.6223764419555664,100.10999298095705,27.85,2
-0.4927807450294494,-0.9664336442947388,-0.0988140851259231,43.60245132446289,1.616489052772522,100.10999298095705,27.85,2
-0.4505848884582519,-0.9504701495170592,-0.130586490035057,44.55453872680664,1.6127108335494995,100.10999298095705,27.85,2
-0.4235060214996338,-0.9178346395492554,-0.1565739661455154,45.00790023803711,1.6102862358093262,100.10999298095705,27.85,2
-0.4061283767223358,-0.9192821383476256,-0.184446781873703,43.56487274169922,1.6087301969528198,100.10999298095705,27.85,2
-0.3893786370754242,-0.9314066171646118,-0.1967361718416214,39.6867790222168,1.6077316999435425,100.10999298095705,27.85,2
-0.378629595041275,-0.9279918670654296,-0.1878294646739959,32.55502700805664,1.6070908308029177,100.10999298095705,27.85,2
-0.3717314898967743,-0.9537893533706664,-0.1597225666046142,22.52201461791992,1.6066795587539673,100.10999298095705,27.85,2
-0.3561091423034668,-0.9759424328804016,-0.1192940697073936,10.996148109436035,1.606415629386902,100.10999298095705,27.85,2
-0.3180947303771972,-1.0181478261947632,-0.0709582865238189,-1.7994321584701538,1.6002788543701172,100.20672607421876,27.87,2
-0.2936992645263672,-1.045232892036438,-0.0231458470225334,-16.488195419311523,1.596340537071228,100.268798828125,27.87,2
-0.2836414575576782,-0.9786478877067566,0.0355263017117977,-32.23784637451172,1.593813180923462,100.3086395263672,27.87,2
-0.2827847003936767,-0.924721896648407,0.0843742489814758,-46.8411979675293,1.592191219329834,100.3342056274414,27.87,2
-0.3046259880065918,-0.9404953122138976,0.1101242825388908,-58.93196105957031,1.591150403022766,100.3506088256836,27.87,2
-0.3186424672603607,-0.9338244199752808,0.1490402668714523,-68.86932373046875,1.590482473373413,100.36113739013672,27.87,2
-0.3220396637916565,-0.9183478951454164,0.1852098554372787,-76.74406433105469,1.5900537967681885,100.3678970336914,27.87,2
-0.3018286824226379,-0.8748292922973633,0.2196169644594192,-80.48281860351562,1.5897786617279053,100.37223052978516,27.87,2
-0.2832606732845306,-0.8524993658065796,0.2472952455282211,-78.06715393066406,1.5840935707092283,100.37501525878906,27.87,2
-0.2769425511360168,-0.860560417175293,0.2594597935676574,-70.77046966552734,1.5804451704025269,100.37680053710938,27.87,2
-0.2896812856197357,-0.8825268149375916,0.2784618437290191,-61.45202255249024,1.5781038999557495,100.37794494628906,27.87,2
-0.2978562712669372,-0.9078191518783568,0.2906562685966491,-51.18363571166992,1.5766013860702517,100.37867736816406,27.87,2
-0.3031024932861328,-0.9296481013298036,0.2984819412231445,-39.9688720703125,1.5756372213363647,100.379150390625,27.87,2
-0.3008714318275451,-0.9492544531822203,0.309101790189743,-28.551607131958008,1.5750184059143066,100.37945556640624,27.87,2
-0.2938418984413147,-0.956238865852356,0.2991236746311188,-17.4772891998291,1.574621319770813,100.37964630126952,27.87,2
-0.2949285209178924,-1.011101007461548,0.2647314369678497,-6.1931471824646,1.5743664503097534,100.37976837158205,27.87,2
-0.3012236356735229,-1.0519062280654907,0.2314649224281311,6.243100166320801,1.5787932872772217,100.37985229492188,27.87,2
-0.2884701490402221,-1.0389082431793213,0.1709319651126861,20.479145050048828,1.5816341638565063,100.3799057006836,27.87,2
-0.2802857160568237,-1.0529578924179075,0.1320853978395462,36.05290603637695,1.5834572315216064,100.37993621826172,27.87,2
-0.3310111463069916,-1.1347452402114868,0.1183514520525932,50.701019287109375,1.5846271514892578,100.37995910644533,27.87,2
-0.4139437675476074,-1.0584828853607178,0.0927444696426391,61.699161529541016,1.5853780508041382,100.37997436523438,27.87,2
-0.4391762912273407,-1.0431287288665771,0.0651158392429351,68.02987670898438,1.5858598947525024,100.3799819946289,27.87,2
-0.416184663772583,-1.1564263105392456,0.0529831461608409,70.22962188720703,1.5861691236495972,100.37998962402344,27.87,2
-0.3622455298900604,-1.195547580718994,0.0507948547601699,69.15498352050781,1.5863674879074097,100.37998962402344,27.87,2
