acc_x,acc_y,acc_z,bvp,eda,hr,temp,label
0.0,0.0,0.0,0.0,0.0,0.0,26.63,2
-0.0416666641831398,-0.1432291567325592,0.0807291641831398,43.223331451416016,1.3302139043807983,14.98166561126709,26.63,2
-0.0891768336296081,-0.3353658616542816,0.2016006112098693,94.9036636352539,3.114647388458252,35.07902526855469,26.63,2
-0.1205357164144516,-0.487541526556015,0.3017545640468597,127.0481414794922,4.666797161102295,52.56026840209961,26.63,2
-0.1861193180084228,-0.63592928647995,0.3427930772304535,134.4385528564453,5.799174308776856,65.31377410888672,26.63,2
-0.2634605169296264,-0.7309043407440186,0.3431292772293091,122.23343658447266,6.565841674804688,73.94844055175781,26.63,2
-0.4363751113414764,-0.6543947458267212,0.3433498740196228,99.95238494873048,7.068885326385498,79.61402130126953,26.63,2
-0.3586661219596863,-0.7889612317085266,0.3044374287128448,77.10572814941406,7.39468240737915,83.28334045410156,26.63,2
-0.3253786861896515,-0.775022029876709,0.3632237315177917,63.57277297973633,7.623757362365723,85.64701080322266,26.63,2
-0.3039834499359131,-0.8108198642730713,0.378629595041275,60.42803955078125,7.770993709564209,87.16624450683594,26.63,2
-0.3070338666439056,-0.8282111287117004,0.3829260468482971,58.7489013671875,7.865541934967041,88.1418228149414,26.63,2
-0.2922002375125885,-0.8281802535057068,0.3968784809112549,53.13235092163086,7.926233768463135,88.76805877685547,26.63,2
-0.2714847028255462,-0.8337579965591431,0.4058333337306976,44.540828704833984,7.965186595916748,89.16999053955078,26.63,2
-0.2637877762317657,-0.84293532371521,0.4115802943706512,32.7110595703125,7.990185260772705,89.42793273925781,26.63,2
-0.264445960521698,-0.8488249182701111,0.4096706807613373,16.839975357055664,8.00622844696045,89.59346771240234,26.63,2
-0.2536728382110595,-0.8526045680046082,0.4140429496765136,2.4631481170654297,8.016524314880371,89.69969940185547,26.63,2
-0.2467592507600784,-0.8550301194190979,0.422446608543396,-6.594720840454102,7.749539375305176,89.76787567138672,26.63,2
-0.2423225045204162,-0.8565866947174072,0.4222418367862701,-13.93730640411377,7.578203678131103,89.81163024902344,26.63,2
-0.2394752502441406,-0.8519878387451172,0.4221104085445404,-22.55078125,7.468250274658203,89.83970642089844,26.63,2
-0.2376480400562286,-0.8490365743637085,0.427623838186264,-30.25303840637207,7.397688388824463,89.85772705078125,26.63,2
-0.2364754527807235,-0.8527404069900513,0.4311620593070984,-35.42877197265625,7.352406024932861,89.8692855834961,26.63,2
-0.2413207292556762,-0.8551173210144043,0.4334326684474945,-38.77175521850586,7.3233466148376465,89.876708984375,26.63,2
-0.2500279247760772,-0.8510448932647705,0.4292920529842376,-38.760379791259766,7.304697513580322,89.8814697265625,26.63,2
-0.2556156814098358,-0.8540292382240295,0.4322326183319092,-33.762550354003906,7.29272985458374,89.88452911376953,26.63,2
-0.2536038160324096,-0.8503466248512268,0.434119701385498,-24.0421085357666,7.1065287590026855,89.88648986816406,26.57,2
-0.2579104900360107,-0.8479833602905273,0.4297329485416412,-12.014646530151367,6.987035751342773,89.88774871826172,26.57,2
-0.2550764977931976,-0.8464667201042175,0.4269177913665771,-1.473044514656067,6.910351753234863,89.88855743408203,26.57,2
-0.2532578110694885,-0.8454934358596802,0.4195134043693542,5.471077919006348,6.861140251159668,89.88907623291016,26.57,2
-0.2576884627342224,-0.8448688387870789,0.4035661518573761,13.714198112487791,6.829559326171875,89.889404296875,26.57,2
-0.2605317831039428,-0.8444679975509644,0.3821365535259247,31.85844039916992,6.809292316436768,89.88961791992188,26.57,2
-0.2623564600944519,-0.8330152034759521,0.357188731431961,58.71039962768555,6.796286106109619,89.88975524902344,26.57,2
-0.2635274529457092,-0.8200677037239075,0.3243853449821472,85.00994110107422,6.787939548492432,89.88983917236328,26.57,2
-0.2586811482906341,-0.817356526851654,0.2921384572982788,106.0289306640625,6.775448799133301,89.91139221191406,26.57,2
-0.2499732822179794,-0.826812207698822,0.2602487206459045,127.2668228149414,6.767432689666748,89.92522430419922,26.57,2
-0.2611784040927887,-0.8440758585929871,0.211794838309288,152.43197631835938,6.762288570404053,89.93409729003906,26.57,2
-0.318749189376831,-0.8551546931266785,0.1751021593809127,178.0968475341797,6.7589874267578125,89.9397964477539,26.57,2
-0.3389014601707458,-0.8678622245788574,0.1739460080862045,195.7242431640625,6.756868839263916,89.94345092773438,26.57,2
-0.318247377872467,-0.8872126936912537,0.2179862558841705,178.0032958984375,6.755509376525879,89.94579315185547,26.57,2
-0.2490150481462478,-0.8940329551696777,0.2462487518787384,119.69927978515624,6.754636764526367,89.94729614257812,26.57,2
-0.2381723672151565,-0.8704209327697754,0.2867770791053772,45.85906982421875,6.754076957702637,89.9482650756836,26.57,2
-0.2480074763298034,-0.855268120765686,0.335176944732666,-22.567790985107425,6.796867847442627,89.94888305664062,26.57,2
-0.2431235313415527,-0.923912763595581,0.3438460826873779,-74.82044219970703,6.824328899383545,89.94927978515625,26.57,2
-0.2567826211452484,-1.007149338722229,0.3326161205768585,-96.824462890625,6.841951370239258,89.94953918457031,26.57,2
-0.327123761177063,-1.0773590803146362,0.2918227314949035,-78.6162109375,6.853260517120361,89.94969940185547,26.57,2
-0.3610691130161285,-1.0720356702804563,0.288034975528717,-39.65705871582031,6.860518455505371,89.9498062133789,26.57,2
-0.3436688482761383,-1.0518261194229126,0.2912019789218902,-19.065467834472656,6.865176200866699,89.94987487792969,26.57,2
-0.2933179438114166,-0.9996723532676696,0.2820388376712799,-36.99788284301758,6.868165016174316,89.94992065429688,26.57,2
-0.2722011804580688,-0.9494097828865052,0.2761584520339966,-83.66168975830078,6.870083332061768,89.949951171875,26.57,2
-0.2754429876804352,-0.9059585928916932,0.2499936670064926,-137.40689086914062,6.925481796264648,89.94996643066406,26.57,2
-0.2887189388275146,-0.8948674201965332,0.210811510682106,-178.48939514160156,6.961033344268799,89.9499740600586,26.57,2
-0.297238677740097,-0.8933475613594055,0.1800688952207565,-194.9945373535156,6.9838480949401855,89.94998168945312,26.57,2
-0.3083039224147796,-0.9091655015945436,0.1435467302799224,-187.60922241210932,6.9984893798828125,89.94998931884766,26.57,2
-0.3098072111606598,-0.9193165302276612,0.1201089024543762,-167.49691772460938,7.007885456085205,89.94998931884766,26.57,2
-0.3107719123363495,-0.9202331304550172,0.0938723012804985,-144.2399444580078,7.013915061950684,89.94998931884766,26.57,2
-0.3113910257816314,-0.937614679336548,0.0714373886585235,-119.08670043945312,7.017784595489502,89.94998931884766,26.57,2
-0.3173860907554626,-0.9655624628067015,0.0570399537682533,-90.42369842529295,7.020267963409424,89.94998931884766,26.57,2
-0.3100378513336181,-1.0114866495132446,0.0422027334570884,-59.0031852722168,7.063175678253174,89.94998931884766,26.63,2
-0.2941266000270843,-1.052153706550598,0.0326810590922832,-28.81884384155273,7.09071159362793,89.94998931884766,26.63,2
-0.2839156985282898,-1.128631353378296,0.0265705976635217,-3.662412881851196,7.108382701873779,89.94998931884766,26.63,2
-0.2941562533378601,-1.166514873504639,0.0226492546498775,16.311311721801758,7.119722843170166,89.94998931884766,26.63,2
-0.2951302528381347,-1.062077522277832,0.0705127269029617,33.77589797973633,7.127000331878662,89.94998931884766,26.63,2
-0.2453753501176834,-0.9894577860832214,0.0900332033634185,50.60114288330078,7.131670475006104,89.94998931884766,26.63,2
-0.1966521888971328,-0.9820390939712524,0.0969625487923622,65.84101104736328,7.13466739654541,89.94998931884766,26.63,2
-0.1709822565317154,-1.0276581048965454,0.0846160799264907,78.26860046386719,7.136590957641602,89.94998931884766,26.63,2
-0.1601065397262573,-1.0401405096054075,0.0878883749246597,88.83769989013672,7.177302837371826,89.96790313720703,26.63,2
-0.1643226742744445,-0.9697821140289308,0.0955861210823059,99.79045867919922,7.203429698944092,89.97940063476562,26.63,2
-0.1614305824041366,-0.8966412544250488,0.1005260944366455,110.75655364990234,7.22019624710083,89.98677825927734,26.63,2
-0.1595745980739593,-0.8497036695480347,0.109294056892395,117.93010711669922,7.230956077575684,89.99151611328125,26.63,2
-0.1527857631444931,-0.8251796364784241,0.1205186024308204,119.58879852294922,7.237861156463623,89.99455261230469,26.63,2
-0.1540268510580063,-0.8038437366485596,0.1165263205766677,119.55340576171876,7.242292404174805,89.99650573730469,26.63,2
-0.1716166287660598,-0.7845538258552551,0.1139643043279647,119.8674545288086,7.245136260986328,89.99775695800781,26.63,2
-0.1996980607509613,-0.7721746563911438,0.1179179251194,111.76099395751952,7.2469611167907715,89.9985580444336,26.63,2
-0.223316878080368,-0.7642304301261902,0.126052901148796,82.38710021972656,7.278888702392578,89.99907684326172,26.63,2
-0.260865181684494,-0.7647300362586975,0.1480667889118194,26.679088592529297,7.299377918243408,89.99940490722656,26.63,2
-0.2961570620536804,-0.7874417901039124,0.173389583826065,-51.778995513916016,7.312526702880859,89.99961853027344,26.63,2
-0.3076098263263702,-0.8523968458175659,0.1840425282716751,-139.74949645996094,7.320964813232422,89.999755859375,26.63,2
-0.2869706749916076,-0.9780478477478028,0.1628900915384292,-211.261459350586,7.326379776000977,89.99983978271484,26.63,2
-0.2849211990833282,-1.1594433784484863,0.1325223594903946,-243.35723876953125,7.329854965209961,89.9999008178711,26.63,2
-0.378768116235733,-1.3262325525283811,0.1130340918898582,-232.1985015869141,7.332085132598877,89.99993896484375,26.63,2
-0.4781781136989593,-1.315714955329895,0.0893320962786674,-180.77474975585932,7.333516120910644,89.99996185302734,26.63,2
-0.4748004078865051,-1.118641018867493,0.0741215199232101,-96.3460693359375,7.322958469390869,89.9999771118164,26.63,2
-0.3998617231845855,-1.1265169382095337,0.0923491194844245,-8.45256519317627,7.316183090209961,89.99998474121094,26.63,2
-0.3517704010009765,-1.1595600843429563,0.1040465459227562,46.28294372558594,7.311834812164307,89.99999237060547,26.63,2
-0.3265059292316437,-1.135983109474182,0.0443799830973148,71.63578033447266,7.309044361114502,89.99999237060547,26.63,2
-0.2990970909595489,-1.0536794662475586,0.0004916478646919,98.49586486816406,7.307253837585449,89.99999237060547,26.63,2
-0.2815077006816864,-0.9056995511054992,0.0059132855385541,134.84616088867188,7.30610466003418,89.99999237060547,26.63,2
-0.3038064837455749,-0.8275279402732849,0.00939258094877,166.8184356689453,7.305366992950439,89.99999237060547,26.63,2
-0.3293120861053467,-0.7773618698120117,0.0004298430576454,184.9898223876953,7.304893970489502,89.99999237060547,26.63,2
-0.3232890367507934,-0.7619615197181702,-0.0109197003766894,184.2948608398437,7.328919887542725,89.99999237060547,26.63,2
-0.2914349138736725,-0.7688717842102051,-0.0126054091379046,153.81256103515625,7.344338417053223,89.99999237060547,26.63,2
-0.2486016750335693,-0.8012952208518982,-0.0080894259735941,94.37671661376952,7.3542327880859375,89.99999237060547,26.63,2
-0.2323093116283416,-0.8556894063949585,-0.0051913280040025,16.739892959594727,7.36058235168457,89.99999237060547,26.63,2
-0.2386471331119537,-0.9241830706596376,-0.0033314954489469,-68.48954772949219,7.364657402038574,89.99999237060547,26.63,2
-0.2651054859161377,-1.0409094095230105,-0.0189312845468521,-155.2489471435547,7.36727237701416,89.99999237060547,26.63,2
-0.2708893716335296,-1.1214154958724976,-0.0121490089222788,-233.29214477539065,7.368950843811035,89.99999237060547,26.63,2
-0.2746011316776275,-1.161884069442749,-0.0021987599320709,-248.8325958251953,7.370027542114258,89.99999237060547,26.63,2
-0.3049720227718353,-1.0814968347549438,0.0657622516155242,-190.7330322265625,7.361537933349609,90.03223419189453,26.63,2
-0.3188645243644714,-0.9459422826766968,0.1373645961284637,-101.9306411743164,7.3560895919799805,90.05292510986328,26.63,2
-0.282997727394104,-0.9597110748291016,0.1441304385662078,-21.79894256591797,7.352593421936035,90.06620788574219,26.63,2
-0.226393848657608,-1.0189270973205566,0.1204834878444671,34.318145751953125,7.350349426269531,90.0747299194336,26.63,2
-0.201264277100563,-1.0121463537216189,0.1165037900209426,68.61122131347656,7.348909378051758,90.0802001953125,26.63,2
-0.2187242209911346,-0.9350237846374512,0.1083520725369453,83.85822296142578,7.34798526763916,90.08370971679688,26.63,2
-0.2411245554685592,-0.8575420379638672,0.1031207665801048,79.94310760498047,7.3473920822143555,90.0859603881836,26.63,2
-0.2890864312648773,-0.8022209405899048,0.0997636169195175,55.05384063720703,7.347011566162109,90.08740997314452,26.63,2
-0.3366589546203613,-0.7779146432876587,0.0976091921329498,19.31269073486328,7.351357460021973,90.0883331298828,26.63,2
-0.3503949344158172,-0.7567184567451477,0.1018243804574012,-20.082275390625,7.354146480560303,90.08892822265624,26.63,2
-0.3592098951339721,-0.720724880695343,0.110127218067646,-63.15118408203125,7.355936527252197,90.0893096923828,26.63,2
-0.381660133600235,-0.6976262927055359,0.1210532784461975,-120.86963653564452,7.357085227966309,90.0895538330078,26.63,2
-0.4408496022224426,-0.7275851368904114,0.1168694496154785,-200.023193359375,7.357822418212891,90.08971405029295,26.63,2
-0.4956273138523102,-0.7859954237937927,0.1029889583587646,-288.1068420410156,7.358295440673828,90.08981323242188,26.63,2
-0.5363782644271851,-0.8906530737876892,0.082885704934597,-363.6824035644531,7.3585991859436035,90.08988189697266,26.63,2
-0.5289432406425476,-1.1873250007629397,0.0475935004651546,-365.601806640625,7.35879373550415,90.08992004394533,26.63,2
-0.5297696590423584,-1.276952028274536,0.0305427685379982,-276.42010498046875,7.340557098388672,90.08995056152344,26.63,2
-0.4463333785533905,-1.1273518800735474,0.0196005906909704,-158.54615783691406,7.328853607177734,90.0899658203125,26.63,2
-0.4039843380451202,-1.165693759918213,-0.0098125673830509,-29.28104019165039,7.321343421936035,90.08997344970705,26.63,2
-0.3936004936695099,-1.2518748044967651,-0.0566771104931831,105.71436309814452,7.316523551940918,90.08998107910156,26.63,2
-0.3701434135437011,-1.1728342771530151,-0.1091431751847267,211.72837829589844,7.313430309295654,90.0899887084961,26.63,2
-0.3271011412143707,-1.0605350732803345,-0.1260195523500442,246.3151397705078,7.311445236206055,90.0899887084961,26.63,2
-0.310674637556076,-0.9492835402488708,-0.1256542950868606,220.9665679931641,7.310171604156494,90.0899887084961,26.63,2
-0.3113285899162292,-0.8778886795043945,-0.1254198849201202,191.65875244140625,7.309354305267334,90.0899887084961,26.63,2
-0.3285415768623352,-0.8544626832008362,-0.1420627832412719,206.50181579589844,7.313420295715332,90.0899887084961,26.59,2
-0.3115990161895752,-0.8394292593002319,-0.1527432352304458,252.3437957763672,7.3160295486450195,90.0899887084961,26.59,2
-0.2839329242706299,-0.8241838812828064,-0.1595973372459411,291.0915832519531,7.317704200744629,90.0899887084961,26.59,2
-0.2437873184680938,-0.8423891663551331,-0.1528003513813018,295.7555236816406,7.318778991699219,90.0899887084961,26.59,2
-0.2068286389112472,-0.8876588940620422,-0.1484384387731552,260.3756103515625,7.3194684982299805,90.0899887084961,26.59,2
-0.2166973352432251,-0.9335037469863892,-0.1400414407253265,187.54342651367188,7.319911003112793,90.0899887084961,26.59,2
-0.2566171288490295,-1.0356954336166382,-0.1290549635887146,87.64923858642578,7.320195198059082,90.0899887084961,26.59,2
-0.30462646484375,-1.0732872486114502,-0.1220044642686843,-12.390326499938965,7.320377349853516,90.0899887084961,26.59,2
-0.3802182972431183,-0.940673828125,-0.0503065697848796,-95.7065887451172,7.323248863220215,90.18313598632812,26.59,2
-0.4007399082183838,-0.8443745970726013,0.0069005615077912,-147.15000915527344,7.325091361999512,90.24291229248048,26.59,2
-0.3747250735759735,-0.9337152242660522,0.038015030324459,-156.36798095703125,7.326273918151855,90.28128051757812,26.59,2
-0.3076502680778503,-1.0190377235412598,0.0243958588689565,-135.57901000976562,7.327032566070557,90.30590057373048,26.59,2
-0.2366166561841964,-1.0514017343521118,0.0212536323815584,-97.79393768310548,7.327519416809082,90.32170104980467,26.59,2
-0.2134224623441696,-1.0105955600738523,0.0416282303631305,-56.39228439331055,7.327832221984863,90.33184051513672,26.59,2
-0.2321244180202484,-0.973212957382202,0.0547034740447998,-31.84007453918457,7.328032970428467,90.33834838867188,26.59,2
-0.2665173411369324,-0.9716140627861024,0.0407033152878284,-33.068870544433594,7.328161716461182,90.34252166748048,26.59,2
-0.2661976516246795,-0.9593924283981324,0.0261210445314645,-48.19490814208984,7.3254899978637695,90.34519958496094,26.59,2
-0.254796952009201,-0.945951521396637,0.0167629830539226,-67.51398468017578,7.323775291442871,90.34691619873048,26.59,2
-0.2530784010887146,-0.909337043762207,0.0107575180009007,-85.92341613769531,7.322674751281738,90.3480224609375,26.59,2
-0.2687688767910003,-0.869046688079834,0.0069035557098686,-105.75533294677734,7.321968555450439,90.3487319946289,26.59,2
-0.312424749135971,-0.8207995295524597,-0.0011674695415422,-127.1915512084961,7.321515560150146,90.34918212890624,26.59,2
-0.3572339117527008,-0.8346194624900818,-0.0119447642937302,-134.44212341308594,7.321224689483643,90.34947204589844,26.59,2
-0.3971853852272033,-0.8602816462516785,-0.0300565604120492,-108.41753387451172,7.321038246154785,90.34966278076172,26.59,2
-0.4340195059776306,-0.9103367924690248,-0.0640707686543464,-55.57184219360352,7.320918560028076,90.34978485107422,26.59,2
-0.4408642053604126,-0.9760459661483764,-0.1026924476027488,-4.537392139434815,7.307070255279541,90.34986114501952,26.59,2
-0.4508545100688934,-1.113376498222351,-0.1498687118291854,29.327760696411133,7.298183441162109,90.34990692138672,26.59,2
-0.4236790537834167,-1.0951496362686155,-0.1857414990663528,52.04209518432617,7.29248046875,90.34993743896484,26.59,2
-0.4118371903896332,-1.178614854812622,-0.242349237203598,69.0908203125,7.288820266723633,90.34996032714844,26.59,2
-0.4210310876369476,-1.226580262184143,-0.2954701483249664,77.23014068603516,7.286471366882324,90.3499755859375,26.59,2
-0.4101378619670868,-1.251763939857483,-0.3351578712463379,79.8095474243164,7.284964084625244,90.34998321533205,26.59,2
-0.3695605993270874,-1.1279809474945068,-0.3102471828460693,86.73841094970703,7.283997058868408,90.34999084472656,26.59,2
-0.3491182029247284,-1.0093597173690796,-0.2718698382377624,102.64561462402344,7.283376216888428,90.34999084472656,26.59,2
-0.335999459028244,-0.9332354664802552,-0.2416437119245529,123.08936309814452,7.277927875518799,90.34999084472656,26.63,2
-0.3107872903347015,-0.8787855505943298,-0.2110507637262344,136.044189453125,7.274431705474853,90.34999084472656,26.63,2
-0.2834120094776153,-0.8438426852226257,-0.1858202069997787,126.8748779296875,7.272188186645508,90.34999084472656,26.63,2
-0.2490508109331131,-0.8158206343650818,-0.1528353542089462,93.96359252929688,7.270748138427734,90.34999084472656,26.63,2
-0.2214019894599914,-0.8202287554740906,-0.1316675841808319,55.97625732421875,7.269824028015137,90.34999084472656,26.63,2
-0.2036585658788681,-0.834253191947937,-0.1292788684368133,28.71419715881348,7.269230842590332,90.34999084472656,26.63,2
-0.2034674137830734,-0.9384154081344604,-0.1277459263801574,13.508241653442385,7.268850326538086,90.34999084472656,26.63,2
-0.2201380580663681,-1.0668362379074097,-0.1155666261911392,7.626282691955566,7.268606185913086,90.34999084472656,26.63,2
-0.2868140637874603,-1.222020387649536,-0.1413373053073883,8.971080780029297,7.27808952331543,90.44672393798828,26.63,2
-0.3799828588962555,-1.0809043645858765,-0.0683110505342483,11.242046356201172,7.284175395965576,90.50880432128906,26.63,2
-0.4341754615306854,-0.9679531455039978,-0.010251454077661,8.697684288024902,7.28808069229126,90.54864501953124,26.63,2
-0.3849865198135376,-1.0857919454574585,-0.0569587647914886,2.450502395629883,7.290586948394775,90.57421112060548,26.63,2
-0.3198332488536834,-1.1558163166046145,-0.07013950496912,-3.1850688457489014,7.292195320129394,90.59061431884766,26.63,2
-0.2052505761384964,-1.0887984037399292,-0.0338159464299678,-9.02285099029541,7.293227672576904,90.60114288330078,26.63,2
-0.1429135501384735,-0.967421293258667,-0.0161033533513546,-18.45833396911621,7.293889999389648,90.60790252685548,26.63,2
-0.130898118019104,-0.8839306831359863,-0.0215297546237707,-30.20261573791504,7.294315338134766,90.61223602294922,26.63,2
-0.1847628206014633,-0.8639378547668457,-0.0362076535820961,-39.11512756347656,7.294588088989258,90.61502075195312,26.63,2
-0.2305256277322769,-0.8567054271697998,-0.0400293096899986,-42.015174865722656,7.294763088226318,90.61680603027344,26.63,2
-0.2431002408266067,-0.8464662432670593,-0.0480796061456203,-41.60132598876953,7.294875621795654,90.61795043945312,26.63,2
-0.2287788093090057,-0.8566886782646179,-0.0532458201050758,-41.80863952636719,7.294947624206543,90.61868286132812,26.63,2
-0.2307836860418319,-0.8576510548591614,-0.0509634241461753,-42.4324951171875,7.294993877410889,90.61915588378906,26.63,2
-0.2376680821180343,-0.8078886866569519,-0.0103142941370606,-40.540000915527344,7.295023441314697,90.61946105957033,26.63,2
-0.2420860826969146,-0.770356297492981,0.0325652994215488,-36.28748321533203,7.295042514801025,90.6196517944336,26.63,2
-0.2673124074935913,-0.7910524010658264,0.0600829571485519,-32.85269546508789,7.295054912567139,90.6197738647461,26.63,2
-0.3002945184707641,-0.8603116869926453,0.066546656191349,-32.099388122558594,7.294144630432129,90.61985778808594,26.63,2
-0.315862774848938,-0.938344955444336,0.0483035892248153,-33.439491271972656,7.29356050491333,90.61991119384766,26.63,2
-0.2922669351100921,-1.0723888874053955,0.0198029149323701,-33.80509567260742,7.293185710906982,90.61994171142578,26.63,2
-0.3331022262573242,-1.225583791732788,0.0071105971001088,-27.99591445922852,7.29294490814209,90.61996459960938,26.63,2
-0.3816990554332733,-1.1951466798782349,0.0101609462872147,-16.311016082763672,7.292790412902832,90.61997985839844,26.63,2
-0.3681035339832306,-1.108440637588501,-0.0382614880800247,-8.497055053710938,7.292691230773926,90.61998748779295,26.63,2
-0.3537809252738952,-1.1311664581298828,-0.0637384429574012,-10.654820442199709,7.292627811431885,90.6199951171875,26.63,2
-0.3613828122615814,-1.1569461822509766,-0.0520992130041122,-16.306398391723633,7.292586803436279,90.6199951171875,26.63,2
-0.3494679629802704,-1.1455012559890747,-0.0670209228992462,-17.966421127319336,7.278330326080322,90.6199951171875,26.61,2
-0.2914417088031769,-1.0317988395690918,-0.0654012709856033,-14.983417510986328,7.269181251525879,90.6199951171875,26.61,2
-0.2933882176876068,-0.914048969745636,-0.0251774471253156,-8.358010292053223,7.263309955596924,90.6199951171875,26.61,2
-0.3058329224586487,-0.8384838700294495,0.0062336619012057,1.8265389204025269,7.259541988372803,90.6199951171875,26.61,2
-0.2858303487300873,-0.8067838549613953,0.0151959536597132,11.91989517211914,7.257123947143555,90.6199951171875,26.61,2
-0.2394072115421295,-0.8032339215278625,0.0097518879920244,16.57011604309082,7.255572319030762,90.6199951171875,26.61,2
-0.1704310923814773,-0.8177491426467896,-0.0049373479560017,14.617570877075195,7.254576683044434,90.6199951171875,26.61,2
-0.1541550606489181,-0.8270641565322876,-0.0199618283659219,9.814207077026367,7.253937721252441,90.6199951171875,26.61,2
-0.1549055874347686,-0.8554331064224243,-0.0296036750078201,6.090404033660889,7.250314235687256,90.71314239501952,26.61,2
-0.172180563211441,-0.929616391658783,-0.0581823550164699,5.513464450836182,7.247989177703857,90.77291870117188,26.61,2
-0.1776688694953918,-0.9996140599250792,-0.0821202769875526,9.768322944641112,7.24649715423584,90.811279296875,26.61,2
-0.1811909526586532,-1.0837188959121704,-0.0862867161631584,20.77817916870117,7.245539665222168,90.83589935302734,26.61,2
-0.2002445459365844,-1.1768770217895508,-0.1057538166642189,38.12924575805664,7.244925022125244,90.85169982910156,26.61,2
-0.2292653620243072,-1.1638894081115725,-0.0958555862307548,55.87401580810547,7.24453067779541,90.8618392944336,26.61,2
-0.2310959249734878,-1.0324037075042725,6.092351395636797e-05,66.50566101074219,7.244277477264404,90.86834716796876,26.61,2
-0.2042818069458007,-1.0319904088974,0.0336257442831993,66.42123413085938,7.244114875793457,90.87252044677734,26.61,2
-0.1310963034629821,-1.07090961933136,0.0271768420934677,57.29955291748047,7.239879131317139,90.8751983642578,26.61,2
-0.1065211594104766,-1.023114562034607,0.0342338569462299,41.600868225097656,7.237161159515381,90.87691497802734,26.61,2
-0.1299346685409546,-0.9420625567436218,0.0443604178726673,20.0334529876709,7.235416889190674,90.87802124023438,26.61,2
-0.1785467565059662,-0.845265805721283,0.056456834077835,-5.511547565460205,7.234297275543213,90.87873077392578,26.61,2
-0.2097432017326355,-0.7943428158760071,0.0586218424141407,-29.464094161987305,7.233579158782959,90.87918090820312,26.61,2
-0.212969958782196,-0.7728589177131653,0.0544134490191936,-45.73826599121094,7.233118057250977,90.87947082519533,26.61,2
-0.2094429284334182,-0.7814628481864929,0.0461149699985981,-54.906700134277344,7.232821941375732,90.8796615600586,26.61,2
-0.2127772569656372,-0.7813866138458252,0.0407894812524318,-62.90419387817383,7.232632160186768,90.8797836303711,26.61,2
-0.2317103594541549,-0.7813376784324646,0.0485674403607845,-71.45429992675781,7.240772724151611,90.8798599243164,26.61,2
-0.2494583129882812,-0.7980995774269104,0.059156659990549,-75.63004302978516,7.245996952056885,90.8799057006836,26.61,2
-0.2552501559257507,-0.8984208106994629,0.0155722433701157,-73.55213165283203,7.249349594116211,90.87993621826172,26.61,2
-0.21978260576725,-1.0019856691360474,-0.0291910506784915,-71.15821075439453,7.251501083374023,90.87995910644533,26.61,2
-0.1914237886667251,-1.1020342111587524,-0.0691131055355072,-74.476318359375,7.252881526947021,90.87997436523438,26.61,2
-0.2292024791240692,-1.1830329895019531,-0.089135006070137,-82.60649871826172,7.253767490386963,90.8799819946289,26.61,2
-0.2534466683864593,-1.1734378337860107,-0.1075816825032234,-86.9820785522461,7.254336357116699,90.87998962402344,26.61,2
-0.1794408112764358,-1.195268988609314,-0.1586041301488876,-71.18933868408203,7.254701137542725,90.87998962402344,26.61,2
-0.1095570102334022,-1.2428656816482544,-0.1745540648698806,-25.00300979614257,7.241623401641846,90.87998962402344,26.63,2
-0.0591118372976779,-1.267812728881836,-0.2015831470489502,31.0402946472168,7.233230590820312,90.87998962402344,26.63,2
-0.032336801290512,-1.121486783027649,-0.2133310735225677,61.63180541992188,7.227844715118408,90.87998962402344,26.63,2
-0.0319474451243877,-0.982801079750061,-0.1984791159629821,64.94862365722656,7.224388122558594,90.87998962402344,26.63,2
-0.0484909042716026,-0.90499609708786,-0.2001435458660125,68.7287368774414,7.222169876098633,90.87998962402344,26.63,2
-0.0367164462804794,-0.8382720351219177,-0.1900161206722259,78.76398468017578,7.220746517181396,90.87998962402344,26.63,2
-0.0347580499947071,-0.8066478967666626,-0.1891147047281265,76.25833892822266,7.219832897186279,90.87998962402344,26.63,2
-0.0726856887340545,-0.7975488901138306,-0.2109273225069046,57.14589309692383,7.219246864318848,90.87998962402344,26.63,2
-0.1082210093736648,-0.7917096614837646,-0.2193276286125183,31.295499801635746,7.23264217376709,90.97672271728516,26.63,2
-0.1310255378484726,-0.8439401388168335,-0.2415117919445037,0.4439702332019806,7.241238594055176,91.03880310058594,26.63,2
-0.1512579470872879,-0.8886542320251465,-0.2501505315303802,-25.215858459472656,7.246755123138428,91.07864379882812,26.63,2
-0.1698397099971771,-0.9061536192893982,-0.2444988340139389,-19.52821159362793,7.250295639038086,91.10420989990234,26.63,2
-0.1817644238471985,-0.9173836708068848,-0.2464696615934372,19.098478317260746,7.252567291259766,91.12061309814452,26.63,2
-0.1614281386137008,-0.9693726897239684,-0.270125538110733,53.93598556518555,7.254025459289551,91.13114166259766,26.63,2
-0.198757454752922,-1.1762672662734983,-0.318893164396286,59.78060531616211,7.254961013793945,91.13790130615234,26.63,2
-0.1947243809700012,-1.0123581886291504,-0.2382339239120483,53.47505569458008,7.255561351776123,91.1422348022461,26.63,2
-0.0913762524724006,-0.9351596832275392,-0.1752759218215942,57.428409576416016,7.265586853027344,91.14501953125,26.63,2
0.0141310459002852,-1.003171443939209,-0.1684597432613372,67.55692291259766,7.27202033996582,91.14680480957033,26.63,2
0.0706440135836601,-0.9908397197723388,-0.1752810627222061,71.30181884765625,7.276149272918701,91.14794921875,26.63,2
0.0453352630138397,-0.9661325812339784,-0.2020496875047683,65.14988708496094,7.278799057006836,91.148681640625,26.63,2
-0.0268841814249753,-0.8831036686897278,-0.1632505059242248,48.0287971496582,7.280499458312988,91.14915466308594,26.63,2
-0.090023785829544,-0.8186249732971191,-0.1215580999851226,18.945877075195312,7.281590461730957,91.1494598388672,26.63,2
-0.1193476021289825,-0.7828440070152283,-0.0948023125529289,-18.81657600402832,7.282290458679199,91.14965057373048,26.63,2
-0.1381659358739853,-0.7710773944854736,-0.0776319876313209,-57.9753532409668,7.282740116119385,91.14977264404295,26.63,2
-0.172633558511734,-0.7635262608528137,-0.0554175153374671,-93.64513397216795,7.281651496887207,91.1498565673828,26.63,2
-0.2171439975500106,-0.7810714840888977,-0.0355637706816196,-128.3297882080078,7.280952930450439,91.14990997314452,26.63,2
-0.2513059973716736,-0.8091242909431458,-0.0172250065952539,-159.222412109375,7.280504703521728,91.14994049072266,26.63,2
-0.2788269817829132,-0.905495822429657,0.0001415304141119,-170.25946044921875,7.280216693878174,91.14996337890624,26.63,2
-0.2740972638130188,-1.0009281635284424,-0.0055069485679268,-149.98944091796875,7.280032157897949,91.14997863769533,26.63,2
-0.2486709207296371,-1.123746633529663,-0.0427184626460075,-111.3085708618164,7.279913425445557,91.14998626708984,26.63,2
-0.2267559766769409,-1.0514246225357056,-0.0274142511188983,-76.75872802734375,7.279837608337402,91.14999389648438,26.63,2
-0.2014966756105423,-1.021805763244629,-0.0231906622648239,-52.7201042175293,7.279788970947266,91.14999389648438,26.63,2
-0.1628956198692321,-1.1595357656478882,-0.0484690777957439,-30.67647933959961,7.256346225738525,91.14999389648438,26.63,2
-0.0877437070012092,-1.2871074676513672,-0.0982779562473297,-2.5831820964813232,7.241302013397217,91.14999389648438,26.63,2
-0.0339177660644054,-1.2402267456054688,-0.1414379775524139,36.09544372558594,7.231647491455078,91.14999389648438,26.63,2
-0.0329620204865932,-1.0813926458358765,-0.1075600758194923,85.81964111328125,7.225451469421387,91.14999389648438,26.63,2
-0.0435442253947258,-0.9906575679779052,-0.08022141456604,131.6623992919922,7.221475601196289,91.14999389648438,26.63,2
-0.0391397252678871,-0.988406777381897,-0.0906659066677093,150.287353515625,7.218924045562744,91.14999389648438,26.63,2
-0.0307153966277837,-0.9645712375640868,-0.0917708054184913,137.19398498535156,7.217286586761475,91.14999389648438,26.63,2
-0.0532980188727378,-0.9268838763237,-0.0756865441799163,112.90628051757812,7.216235637664795,91.14999389648438,26.63,2
-0.0845835730433464,-0.9194916486740112,-0.0877556875348091,95.23118591308594,7.211429595947266,91.25389099121094,26.63,2
-0.1214541643857956,-0.9091499447822572,-0.101098746061325,84.02088165283203,7.208345413208008,91.32056427001952,26.63,2
-0.1898977756500244,-0.885719895362854,-0.1096615493297576,74.6270523071289,7.206366062164307,91.36335754394533,26.63,2
-0.2338209450244903,-0.8762816190719604,-0.1095588877797126,66.33444213867188,7.2050957679748535,91.39081573486328,26.63,2
-0.3235838413238525,-0.8758224844932556,-0.0982974618673324,57.2689323425293,7.204280853271484,91.40843963623048,26.63,2
-0.3308085203170776,-0.9091144800186156,-0.0910705253481864,45.33933639526367,7.203757762908936,91.41974639892578,26.63,2
-0.3074560165405273,-0.9080882668495178,-0.0640415921807289,32.96177673339844,7.2034220695495605,91.427001953125,26.63,2
-0.2476875483989715,-0.9186252355575562,-0.0355004332959651,23.39566421508789,7.203206539154053,91.43165588378906,26.63,2
-0.2093315869569778,-1.0093538761138916,-0.0451732315123081,14.824113845825195,7.198478221893311,91.43464660644533,26.63,2
-0.3134657442569732,-1.1179583072662354,-0.0849673226475715,3.813385248184204,7.195443630218506,91.43656158447266,26.63,2
-0.2907286584377289,-1.0141233205795288,-0.0825160071253776,-8.103474617004395,7.193496227264404,91.43779754638672,26.63,2
-0.2257573455572128,-1.020259141921997,-0.0473562479019165,-16.471126556396484,7.192246437072754,91.43859100341795,26.63,2
-0.1616713851690292,-1.0857722759246826,-0.0583793856203556,-22.005802154541016,7.191444396972656,91.43909454345705,26.63,2
-0.1149469390511512,-1.1110213994979858,-0.0822467282414436,-29.64893913269043,7.190929889678955,91.43942260742188,26.63,2
-0.1409396231174469,-1.0320627689361572,-0.0695745423436164,-40.40420913696289,7.19059944152832,91.43962860107422,26.63,2
-0.1688157767057418,-0.8862294554710388,-0.011062292382121,-49.60275650024414,7.190387725830078,91.43976593017578,26.63,2
-0.186705082654953,-0.7982398271560669,0.0376830548048019,-54.62453842163086,7.183365821838379,91.43984985351562,26.63,2
-0.1981854140758514,-0.7697619795799255,0.0521716885268688,-60.25471878051758,7.178859710693359,91.43990325927734,26.63,2
-0.2055528312921524,-0.7458887696266174,0.0670674294233322,-74.24656677246094,7.175967693328857,91.43994140625,26.63,2
-0.2046830356121063,-0.7529594302177429,0.087822213768959,-98.20806121826172,7.174111843109131,91.4399642944336,26.63,2
-0.2321137338876724,-0.7966814041137695,0.1011414378881454,-118.7512435913086,7.172921180725098,91.43997955322266,26.63,2
-0.2609127163887024,-0.8471307158470154,0.1096889451146125,-115.8704071044922,7.172156810760498,91.4399871826172,26.63,2
-0.2737964689731598,-0.9018973112106324,0.1263697892427444,-90.55936431884766,7.171666145324707,91.43999481201172,26.63,2
-0.2764667570590973,-0.9426411390304564,0.1314768195152282,-63.33201599121094,7.171351432800293,91.43999481201172,26.63,2
-0.2557892799377441,-0.9855814576148988,0.0899720266461372,-45.59396362304688,7.162886619567871,91.43999481201172,26.59,2
-0.2593129873275757,-1.085909128189087,0.0465433187782764,-30.81800079345703,7.157454490661621,91.43999481201172,26.59,2
-0.2895631790161133,-1.1223047971725464,0.0410643704235553,-14.59681510925293,7.153968334197998,91.43999481201172,26.59,2
-0.2921826839447021,-1.1008793115615845,0.020754974335432,-0.7656315565109253,7.151731491088867,91.43999481201172,26.59,2
-0.243483766913414,-1.0927274227142334,0.0021237989421933,13.255003929138184,7.150295734405518,91.43999481201172,26.59,2
-0.1786449700593948,-1.1546692848205566,-0.0098326168954372,36.45397186279297,7.149374485015869,91.43999481201172,26.59,2
-0.1874151229858398,-1.166431188583374,-0.0622877515852451,71.69076538085938,7.148783206939697,91.43999481201172,26.59,2
-0.1986410766839981,-1.101208209991455,-0.0959504395723342,111.70427703857422,7.148403644561768,91.43999481201172,26.59,2
-0.2058452516794204,-0.9809829592704772,-0.0335865952074527,141.46319580078125,7.148159980773926,91.53672790527344,26.59,2
-0.2216640263795852,-0.898231565952301,0.0288260243833065,146.4024200439453,7.148004055023193,91.59880065917967,26.59,2
-0.2486089318990707,-0.8451265096664429,0.0240966584533453,124.4475326538086,7.147903919219971,91.63864135742188,26.59,2
-0.2379117459058761,-0.8054489493370056,-0.0125250238925218,87.38667297363281,7.147839546203613,91.6642074584961,26.59,2
-0.2142535895109176,-0.7855839729309082,-0.0304289385676383,44.40053939819336,7.14779806137085,91.68061065673828,26.59,2
-0.1878755837678909,-0.7672379612922668,-0.0251253154128789,-6.4149088859558105,7.14777135848999,91.6911392211914,26.59,2
-0.1709477007389068,-0.777855634689331,-0.0329173058271408,-63.92424011230469,7.147754669189453,91.6978988647461,26.59,2
-0.1880732327699661,-0.8238539099693298,-0.0379177555441856,-113.6309585571289,7.147743701934815,91.70223236083984,26.59,2
-0.2046611905097961,-0.9373395442962646,-0.0355289801955223,-136.26174926757812,7.161967277526856,91.70501708984376,26.59,2
-0.2041108459234237,-1.0437546968460083,-0.0395937785506248,-134.77793884277344,7.17109489440918,91.70680236816406,26.59,2
-0.1925621032714843,-1.1680235862731934,-0.070191204547882,-129.32598876953125,7.176952362060547,91.70794677734376,26.59,2
-0.2131396681070327,-1.191794514656067,-0.0562402233481407,-128.89393615722656,7.180711269378662,91.70867919921876,26.59,2
-0.2487362623214721,-1.0335183143615725,0.081461526453495,-130.68739318847656,7.183123588562012,91.70915222167967,26.59,2
-0.1484290659427642,-1.071890115737915,0.0746684148907661,-134.11685180664062,7.184671878814697,91.70945739746094,26.59,2
-0.0504710339009761,-1.1301015615463257,0.0087334727868437,-137.20974731445312,7.185665607452393,91.70964813232422,26.59,2
0.0067950179800391,-1.1002850532531738,-0.0335797816514968,-132.10824584960938,7.18630313873291,91.70977020263672,26.59,2
0.0155561994761228,-1.0587594509124756,-0.0439406670629978,-114.765625,7.1784491539001465,91.70985412597656,26.59,2
-0.0851790904998779,-0.9481440186500548,-0.0058074947446584,-89.29866027832031,7.17340898513794,91.70990753173828,26.59,2
-0.2002051770687103,-0.8659618496894836,0.035457506775856,-60.31968688964844,7.170174598693848,91.7099380493164,26.59,2
-0.2740222811698913,-0.8244176506996155,0.0507434606552124,-25.67271041870117,7.1680989265441895,91.7099609375,26.59,2
-0.3101983070373535,-0.8089525103569031,0.0717486515641212,18.49066925048828,7.166767120361328,91.70997619628906,26.59,2
-0.3390117883682251,-0.7990278601646423,0.0964241251349449,68.70381164550781,7.16591215133667,91.7099838256836,26.59,2
-0.3575026094913482,-0.7814632654190063,0.1346505135297775,111.72201538085938,7.165363788604736,91.70999145507812,26.59,2
-0.3749667406082153,-0.7925823926925659,0.1759753376245498,140.4427947998047,7.165011882781982,91.70999145507812,26.59,2
-0.386174201965332,-0.838902473449707,0.1912996768951416,155.68206787109375,7.169376373291016,91.70999145507812,26.61,2
-0.3765731751918793,-0.9581924080848694,0.1619495451450348,159.96250915527344,7.172177314758301,91.70999145507812,26.61,2
-0.3536184728145599,-1.107516884803772,0.1095276698470115,154.34413146972656,7.173974990844727,91.70999145507812,26.61,2
-0.4116585254669189,-1.36568021774292,0.0478974543511867,141.06204223632812,7.17512845993042,91.70999145507812,26.61,2
-0.4489052891731262,-1.20668363571167,0.0307378284633159,124.0333251953125,7.175868988037109,91.70999145507812,26.61,2
-0.4168303906917572,-1.0598665475845337,0.0085302200168371,106.69605255126952,7.17634391784668,91.70999145507812,26.61,2
-0.3570621311664581,-1.1223855018615725,-0.0561013109982013,90.0169906616211,7.176648616790772,91.70999145507812,26.61,2
-0.3187063038349151,-1.2016910314559937,-0.0919803380966186,73.89289855957031,7.176844596862793,91.70999145507812,26.61,2
-0.3332761824131012,-1.1854114532470703,-0.1317987591028213,58.9417724609375,7.139328002929688,91.81388854980467,26.61,2
-0.286648541688919,-1.0294220447540283,-0.151754155755043,46.1226806640625,7.1152520179748535,91.88056182861328,26.61,2
-0.2455300539731979,-0.9069258570671082,-0.158962607383728,35.49580001831055,7.099801540374756,91.92335510253906,26.61,2
-0.2359358966350555,-0.8171193599700928,-0.146795243024826,26.078712463378903,7.08988618850708,91.95081329345705,26.61,2
-0.2465722411870956,-0.7762800455093384,-0.1445847004652023,17.69952964782715,7.083523273468018,91.96843719482422,26.61,2
-0.2533980309963226,-0.8116472363471985,-0.1823505312204361,11.326295852661133,7.079439640045166,91.97974395751952,26.61,2
-0.2185940146446228,-0.8063549995422363,-0.2065864652395248,7.562335968017578,7.076818943023682,91.98699951171876,26.61,2
-0.1906610280275344,-0.8085564970970154,-0.2053463757038116,5.035783290863037,7.075137138366699,91.9916534423828,26.61,2
-0.1839307844638824,-0.8491536974906921,-0.1933550089597702,1.9992698431015008,7.086452484130859,91.99464416503906,26.61,2
-0.1852094829082489,-0.9199888706207277,-0.1856596320867538,-0.7196435928344727,7.093713760375977,91.9965591430664,26.61,2
-0.2196167260408401,-1.1277822256088257,-0.2087100595235824,-0.5513902306556702,7.098373889923096,91.99779510498048,26.61,2
-0.3144683837890625,-1.065209984779358,-0.1563291996717453,2.4011502265930176,7.101364135742188,91.99858856201172,26.61,2
-0.3865342736244201,-0.8963058590888977,-0.0387475565075874,4.5395355224609375,7.103283405303955,91.99909210205078,26.61,2
-0.3768042623996734,-0.8606839776039124,0.0758939832448959,4.238765716552734,7.104515075683594,91.99942016601562,26.61,2
-0.3369734585285187,-0.9441816210746764,0.0990843623876571,5.099026203155518,7.105305194854736,91.99962615966795,26.61,2
-0.2162501662969589,-1.076134443283081,0.0355977676808834,10.18663215637207,7.1058125495910645,91.99976348876952,26.61,2
-0.0604080632328987,-1.0656520128250122,0.0508334711194038,15.8805513381958,7.073086738586426,91.99984741210938,26.61,2
-0.0163753200322389,-1.0309361219406128,0.0662086457014083,16.851232528686523,7.052084922790527,91.9999008178711,26.61,2
-0.0944753512740135,-0.980668604373932,0.0928688645362854,13.99906063079834,7.038607120513916,91.99993896484376,26.61,2
-0.2005732059478759,-0.981996476650238,0.0931845381855964,13.311542510986328,7.0299577713012695,91.99996185302734,26.61,2
-0.2854540348052978,-0.982848584651947,0.0765937939286232,18.541549682617188,7.024407386779785,91.9999771118164,26.61,2
-0.3175345659255981,-0.9442110061645508,0.0491534881293773,26.44415664672852,7.020845413208008,91.99998474121094,26.61,2
-0.326926440000534,-0.8970245718955994,0.031543880701065,23.32582664489746,7.018559455871582,91.99999237060548,26.61,2
-0.3049647212028503,-0.8219608068466187,0.0538296923041343,-3.893089056015015,7.017092704772949,91.99999237060548,26.61,2
-0.3020665049552917,-0.7793869972229004,0.0737292170524597,-43.72305679321289,6.996871471405029,91.99999237060548,26.61,2
-0.3673799037933349,-0.785652220249176,0.0585107170045375,-66.2778549194336,6.983894348144531,91.99999237060548,26.61,2
-0.4652720391750335,-0.8624439239501953,0.0095599368214607,-62.35928726196289,6.975566387176514,91.99999237060548,26.61,2
-0.5168980360031128,-0.9900932908058168,-0.0498427227139472,-51.532997131347656,6.970221996307373,91.99999237060548,26.61,2
-0.5388330817222595,-1.1559778451919556,-0.1047572568058967,-47.85261917114258,6.966792583465576,91.99999237060548,26.61,2
-0.4969319701194763,-1.0889019966125488,-0.1176071465015411,-46.86647033691406,6.964591503143311,91.99999237060548,26.61,2
-0.4028689563274383,-1.2081921100616455,-0.1762334406375885,-45.456199645996094,6.963179111480713,91.99999237060548,26.61,2
-0.4096780121326446,-1.273550033569336,-0.2418452948331833,-46.08809661865234,6.962272644042969,91.99999237060548,26.61,2
-0.4196454584598541,-1.332286357879639,-0.2895489633083343,-44.97101593017578,6.978216648101807,92.13255310058594,26.61,2
-0.3532709181308746,-1.1908512115478516,-0.2753802537918091,-35.21887969970703,6.988448619842529,92.21762084960938,26.61,2
-0.2994800209999084,-1.0553040504455566,-0.249494269490242,-18.5817985534668,6.995014667510986,92.27220916748048,26.61,2
-0.2873511910438537,-0.9795132279396056,-0.2440776824951172,-3.656144857406616,6.999228477478027,92.30724334716795,26.61,2
-0.2963609397411346,-0.953266143798828,-0.2517971694469452,6.205305099487305,7.001932621002197,92.32972717285156,26.61,2
-0.2965451180934906,-0.942020058631897,-0.2567510902881622,16.076982498168945,7.003668308258057,92.34415435791016,26.61,2
-0.2574788928031921,-0.9068140387535096,-0.2487346827983856,30.662729263305664,7.004781723022461,92.3534164428711,26.61,2
-0.2100173234939575,-0.8842208981513977,-0.23239466547966,49.99333190917969,7.005496501922607,92.35935974121094,26.61,2
-0.1627659052610397,-0.9145041108131408,-0.2163108140230178,71.11500549316406,7.01284122467041,92.36317443847656,26.61,2
-0.1660293042659759,-0.9843180775642396,-0.1947935670614242,85.0279312133789,7.01755428314209,92.3656234741211,26.61,2
-0.1905146688222885,-1.0571095943450928,-0.2033761441707611,79.75154113769531,7.020578861236572,92.36719512939452,26.61,2
-0.2734012603759765,-1.0030629634857178,-0.1473084241151809,55.61875915527344,7.022520065307617,92.36820220947266,26.61,2
-0.3601797521114349,-0.917999029159546,-0.066545195877552,28.269821166992188,7.023765563964844,92.3688507080078,26.61,2
-0.3654892146587372,-0.9137898683547974,-0.0315093286335468,10.081149101257324,7.02456521987915,92.3692626953125,26.61,2
-0.3297120928764343,-1.0230441093444824,-0.0538075193762779,1.4503129720687866,7.025078296661377,92.3695297241211,26.61,2
-0.2899590730667114,-1.0707660913467407,-0.0569216646254062,-0.4019907116889953,7.025407314300537,92.36969757080078,26.61,2
-0.2196656912565231,-1.0566091537475586,-0.0533223710954189,1.6479558944702148,6.989813327789307,92.36980438232422,26.61,2
-0.1745554357767105,-1.0251328945159912,-0.0510125532746315,1.6343579292297363,6.966970920562744,92.369873046875,26.61,2
-0.1903884708881378,-0.999335527420044,-0.0159435980021953,-4.14589786529541,6.952311992645264,92.3699188232422,26.61,2
-0.2453313916921615,-0.9547913670539856,0.0177571903914213,-12.767044067382812,6.942904949188232,92.36994934082033,26.61,2
-0.2805905938148498,-0.9206077456474304,0.0225910916924476,-20.94712257385254,6.936868190765381,92.3699722290039,26.61,2
-0.2864246070384979,-0.8818773031234741,0.0200954359024763,-30.839645385742188,6.9329938888549805,92.36997985839844,26.61,2
-0.2957663238048553,-0.8458268046379089,0.0296894181519746,-45.19873428344727,6.930507659912109,92.36998748779295,26.61,2
-0.3073590695858001,-0.8058983683586121,0.0582373812794685,-60.81205368041992,6.928912162780762,92.3699951171875,26.61,2
-0.3371897041797638,-0.7858723402023315,0.0765578225255012,-72.09284973144531,6.926511287689209,92.3699951171875,26.59,2
-0.3787243962287903,-0.7898141145706177,0.0771192759275436,-78.5333023071289,6.924970626831055,92.3699951171875,26.59,2
-0.4557589590549469,-0.8427237272262573,0.049490712583065,-83.79134368896484,6.923981666564941,92.3699951171875,26.59,2
-0.5051953196525574,-0.9158624410629272,0.020564742386341,-91.5722198486328,6.923346996307373,92.3699951171875,26.59,2
-0.5425184965133667,-1.1699163913726809,0.013197268359363,-102.01821899414062,6.922939777374268,92.3699951171875,26.59,2
-0.5048948526382446,-1.1146403551101685,0.0028714723885059,-106.34302520751952,6.922678470611572,92.3699951171875,26.59,2
-0.4247723817825317,-1.0623739957809448,-0.0093528032302856,-91.53515625,6.922510623931885,92.3699951171875,26.59,2
-0.4181365966796875,-1.1799724102020264,-0.0451865121722221,-57.362701416015625,6.922402858734131,92.3699951171875,26.59,2
-0.4250736832618713,-1.2442446947097778,-0.0905736163258552,-19.805593490600582,6.922333717346191,92.49180603027344,26.59,2
-0.412732183933258,-1.1791332960128784,-0.1532870978116989,7.95778751373291,6.922289371490479,92.56997680664062,26.59,2
-0.348834365606308,-1.019795298576355,-0.1543485820293426,26.64887809753418,6.9222612380981445,92.6201400756836,26.59,2
-0.307828426361084,-0.906345784664154,-0.1438342332839965,41.69251251220703,6.922243118286133,92.65233612060548,26.59,2
-0.3374909162521362,-0.8223448395729065,-0.137086734175682,57.196998596191406,6.922231197357178,92.6729965209961,26.59,2
-0.3565266132354736,-0.7796334028244019,-0.1439521163702011,77.7047348022461,6.922223567962647,92.6862564086914,26.59,2
-0.3575470745563507,-0.7802125811576843,-0.1763467937707901,100.44164276123048,6.9222187995910645,92.69476318359376,26.59,2
-0.3246152997016907,-0.8197686672210693,-0.1691469699144363,109.24344635009766,6.922215938568115,92.7002182006836,26.59,2
-0.2810904681682586,-0.8507512807846069,-0.1589287519454956,92.98090362548828,6.924509048461914,92.70372009277344,26.59,2
-0.2251698821783065,-0.9042207598686218,-0.1579690724611282,64.47760772705078,6.925980567932129,92.70597076416016,26.59,2
-0.1892832666635513,-0.966523289680481,-0.1405598819255828,44.33005905151367,6.926924705505371,92.70741271972656,26.59,2
-0.1438622027635574,-1.0792765617370603,-0.1349854320287704,36.62033462524414,6.927530765533447,92.70833587646484,26.59,2
-0.1650935411453247,-1.056472897529602,-0.0642347857356071,33.843719482421875,6.927919387817383,92.70893096923828,26.59,2
-0.201109692454338,-1.0138499736785889,-0.0020377645269036,32.82493591308594,6.928168773651123,92.70931243896484,26.59,2
-0.1738428175449371,-0.9976925849914552,0.0546700246632099,33.801212310791016,6.928328990936279,92.70955657958984,26.59,2
-0.1675400584936142,-1.020910382270813,0.0910618230700492,34.563865661621094,6.928431987762451,92.709716796875,26.59,2
-0.1467019915580749,-1.0637990236282349,0.0976226553320884,32.509666442871094,6.91931676864624,92.7098159790039,26.59,2
-0.1445248574018478,-1.0577359199523926,0.1242241188883781,27.203990936279297,6.9134674072265625,92.70988464355467,26.59,2
-0.1599210202693939,-1.0090627670288086,0.152490958571434,18.919647216796875,6.909713268280029,92.70992279052734,26.59,2
-0.2089858204126358,-0.9274471402168274,0.15943543612957,7.337306499481201,6.907304286956787,92.70995330810548,26.59,2
-0.2404727786779403,-0.8694731593132019,0.1526964604854583,-7.798110485076904,6.905758380889893,92.70996856689452,26.59,2
-0.2550815343856811,-0.8098776936531067,0.1763606369495391,-25.07038307189941,6.904766082763672,92.70997619628906,26.59,2
-0.2532610297203064,-0.7660349607467651,0.1803513914346695,-41.90476989746094,6.904129505157471,92.7099838256836,26.59,2
-0.2520927488803863,-0.754692554473877,0.1661191135644912,-55.47385787963867,6.903720855712891,92.70999145507812,26.59,2
-0.2625385522842407,-0.7810002565383911,0.1457901000976562,-64.68328094482422,6.913098812103272,92.70999145507812,26.63,2
-0.2972309291362762,-0.8258719444274902,0.1271463334560394,-70.72232818603516,6.919116973876953,92.70999145507812,26.63,2
-0.3250922858715057,-0.9162434935569764,0.098388522863388,-74.82353973388672,6.92297887802124,92.70999145507812,26.63,2
-0.270201027393341,-1.0358142852783203,0.0407489910721778,-79.10344696044922,6.92545747756958,92.70999145507812,26.63,2
-0.201388344168663,-1.1629278659820557,-0.0186318363994359,-85.24991607666016,6.927047729492188,92.70999145507812,26.63,2
-0.2803793549537658,-1.3228709697723389,-0.0511412620544433,-86.63640594482422,6.9280686378479,92.70999145507812,26.63,2
-0.3534623384475708,-1.2855688333511353,-0.027221743017435,-70.26890563964844,6.928723812103272,92.70999145507812,26.63,2
-0.226831778883934,-1.2000550031661987,-0.0454582199454307,-35.20304870605469,6.929143905639648,92.70999145507812,26.63,2
-0.0895898267626762,-1.257132649421692,-0.040368016809225,2.006675243377685,6.9009528160095215,92.80313873291016,26.63,2
0.0040819272398948,-1.276968479156494,-0.0482969656586647,26.6165771484375,6.882861614227295,92.8629150390625,26.63,2
0.0194128695875406,-1.1553512811660769,-0.1093630567193031,38.25042724609375,6.871251583099365,92.90128326416016,26.63,2
-0.0099330348894,-1.004533290863037,-0.1093673333525657,42.7929801940918,6.863801002502441,92.9259033203125,26.63,2
-0.0455588735640049,-0.8741604089736938,-0.0365990102291107,45.955326080322266,6.859019756317139,92.94170379638672,26.63,2
-0.0572259351611137,-0.8016901612281799,-0.0290849115699529,53.93181610107422,6.855951309204102,92.95184326171876,26.63,2
-0.064713180065155,-0.7831717729568481,-0.0634472146630287,64.56424713134766,6.853981971740723,92.9583511352539,26.63,2
-0.0415291935205459,-0.7824832797050476,-0.0910967364907264,61.91878509521485,6.852718353271484,92.9625244140625,26.63,2
-0.0322488211095333,-0.7988348007202148,-0.0976450592279434,35.38308334350586,6.8817458152771,92.96520233154295,26.63,2
-0.0766731798648834,-0.8317193388938904,-0.1018474027514457,-2.1240060329437256,6.900373935699463,92.9669189453125,26.63,2
-0.1163777261972427,-0.9143982529640198,-0.1157397702336311,-29.84095764160156,6.912328243255615,92.96802520751952,26.63,2
-0.1306622624397277,-0.9954456686973572,-0.1414484083652496,-43.0495719909668,6.920000076293945,92.96873474121094,26.63,2
-0.1398292630910873,-1.0250661373138428,-0.146751195192337,-47.23775863647461,6.924923419952393,92.96918487548828,26.63,2
-0.1401143372058868,-1.0608681440353394,-0.1557519882917404,-42.23012161254883,6.928082942962647,92.96947479248048,26.63,2
-0.1682861596345901,-1.151017189025879,-0.1951148211956024,-26.16939163208008,6.930110454559326,92.96966552734376,26.63,2
-0.2367451786994934,-1.0913163423538208,-0.1699956506490707,-4.4556193351745605,6.931411266326904,92.96978759765624,26.63,2
-0.2694827020168304,-0.9858304858207704,-0.1090934202075004,14.18295192718506,6.931328296661377,92.96986389160156,26.63,2
-0.2177206873893737,-0.9965046048164368,-0.0644121021032333,26.5704402923584,6.931274890899658,92.96990966796876,26.63,2
-0.1845027953386306,-1.0257457494735718,-0.0469337552785873,32.81471252441406,6.931240558624268,92.96994018554688,26.63,2
-0.1519899219274521,-0.9941310286521912,-0.046912707388401,30.28014373779297,6.93121862411499,92.96996307373048,26.63,2
-0.1367228031158447,-0.90666925907135,-0.024508100003004,14.767539978027344,6.931204319000244,92.96997833251952,26.63,2
-0.1493163406848907,-0.8393457531929016,0.0010654367506504,-14.1358003616333,6.931195259094238,92.96998596191406,26.63,2
-0.202180340886116,-0.8017392158508301,0.0118792848661541,-50.80496597290039,6.93118953704834,92.9699935913086,26.63,2
-0.2584965229034424,-0.799996554851532,0.0076234410516917,-82.7167739868164,6.931185722351074,92.9699935913086,26.63,2
-0.2890392243862152,-0.8100737929344177,0.0160878337919712,-94.33621978759766,6.926592826843262,92.9699935913086,26.61,2
-0.297444224357605,-0.7997474670410156,0.0439108945429325,-82.47208404541016,6.92364501953125,92.9699935913086,26.61,2
-0.3028380572795868,-0.8099139332771301,0.0673639103770256,-61.47386169433594,6.921753406524658,92.9699935913086,26.61,2
-0.2951039671897888,-0.8892092704772949,0.071219153702259,-45.84528350830078,6.920539379119873,92.9699935913086,26.61,2
-0.2677495777606964,-0.9512919783592224,0.0457043536007404,-37.31686019897461,6.919760227203369,92.9699935913086,26.61,2
-0.2054129093885421,-1.0079264640808103,-0.0042562219314277,-33.21951675415039,6.919260501861572,92.9699935913086,26.61,2
-0.1654088348150253,-1.1954110860824585,-0.0587091445922851,-32.39569854736328,6.918939590454102,92.9699935913086,26.61,2
-0.1789209395647049,-1.3045324087142944,-0.1160449907183647,-29.477439880371094,6.918733596801758,92.9699935913086,26.61,2
-0.1260167062282562,-1.1730402708053589,-0.1192531883716583,-16.513015747070312,6.919979095458984,93.06672668457033,26.61,2
-0.0248925238847732,-1.0606672763824463,-0.098920926451683,7.219044208526611,6.920778274536133,93.12879943847656,26.61,2
0.0511987023055553,-1.145290493965149,-0.1474483758211136,34.97718048095703,6.921291351318359,93.16864013671876,26.61,2
0.0608452521264553,-1.160412311553955,-0.2737526595592499,62.15202713012695,6.92162036895752,93.19420623779295,26.61,2
0.0558403022587299,-1.086150050163269,-0.2988297343254089,88.72685241699219,6.921831607818604,93.21060943603516,26.61,2
0.0638239607214927,-0.9601239562034608,-0.2141628265380859,115.29277801513672,6.921967029571533,93.22113800048828,26.61,2
0.018567444756627,-0.8904432058334351,-0.1934151202440261,139.97930908203125,6.922054290771484,93.22789764404295,26.61,2
-0.0552577748894691,-0.8681172132492065,-0.2360781729221344,155.94351196289062,6.922110080718994,93.23223114013672,26.61,2
-0.046656809747219,-0.8425941467285156,-0.2242724448442459,150.94456481933594,6.926277160644531,93.23501586914062,26.61,2
-0.0467349775135517,-0.8150193691253662,-0.2166962176561355,119.7530288696289,6.928951740264893,93.23680114746094,26.61,2
-0.0635784640908241,-0.8197145462036133,-0.2566164135932922,75.30292510986328,6.930667877197266,93.23794555664062,26.61,2
-0.0799854174256324,-0.8451187610626221,-0.2878326773643493,36.55273818969727,6.931769371032715,93.23867797851562,26.61,2
-0.0961122289299964,-0.8782150149345398,-0.2854743897914886,10.488519668579102,6.932476043701172,93.23915100097656,26.61,2
-0.1064614877104759,-0.8938565254211426,-0.2839609682559967,-4.9375200271606445,6.932929515838623,93.2394561767578,26.61,2
-0.1075052767992019,-0.8815032839775085,-0.2829897403717041,-10.606042861938477,6.933220386505127,93.2396469116211,26.61,2
-0.0913817957043647,-1.002324461936951,-0.3271486461162567,-7.762895584106445,6.933407306671143,93.2397689819336,26.61,2
-0.1202190965414047,-1.1470338106155396,-0.3666828572750091,-0.628950297832489,6.941789627075195,93.23985290527344,26.61,2
-0.2003007382154464,-1.139140009880066,-0.2968914806842804,7.302495956420898,6.947169303894043,93.23990631103516,26.61,2
-0.2237036526203155,-1.0613031387329102,-0.1233545690774917,14.16223430633545,6.950621604919434,93.23993682861328,26.61,2
-0.210733413696289,-1.0001564025878906,0.0104025229811668,17.89089584350586,6.952836990356445,93.23995971679688,26.61,2
-0.1520299017429351,-1.0056982040405271,-0.0157153569161891,16.5793514251709,6.954258441925049,93.23997497558594,26.61,2
-0.0695751681923866,-0.9868634343147278,-0.0548674054443836,9.518327713012695,6.955170631408691,93.23998260498048,26.61,2
-0.0222582425922155,-0.9243963956832886,-0.0352107435464859,-3.836915254592896,6.955756187438965,93.239990234375,26.61,2
-0.0702618062496185,-0.8787108659744263,-0.0058029051870107,-23.538604736328125,6.956131935119629,93.239990234375,26.61,2
-0.1402521431446075,-0.8605880737304688,-0.0037239706143736,-46.438926696777344,6.931125640869141,93.239990234375,26.63,2
-0.2355478852987289,-0.8657512664794922,-0.0191831532865762,-67.11077117919922,6.915078163146973,93.239990234375,26.63,2
-0.2967032194137573,-0.874662458896637,-0.0179084185510873,-83.2105941772461,6.904779434204102,93.239990234375,26.63,2
-0.2911669909954071,-0.9027722477912904,-0.0058948183432221,-97.1143569946289,6.898170471191406,93.239990234375,26.63,2
-0.2652230560779571,-0.9208114743232728,0.0074125933460891,-112.53578186035156,6.893929481506348,93.239990234375,26.63,2
-0.2485737353563308,-0.9491813778877258,0.0103547498583793,-128.47616577148438,6.891207695007324,93.239990234375,26.63,2
-0.2378891557455063,-1.000974178314209,-0.0101482411846518,-134.36370849609375,6.889461040496826,93.239990234375,26.63,2
-0.2478257268667221,-1.11258065700531,-0.0456969775259494,-118.6957778930664,6.888339996337891,93.239990234375,26.63,2
-0.2430068999528885,-1.167409896850586,-0.0853034332394599,-85.75909423828125,6.870177268981934,93.3653793334961,26.63,2
-0.1671433895826339,-1.073847413063049,-0.0435472838580608,-52.26591873168945,6.858521461486816,93.4458465576172,26.63,2
-0.0960674583911895,-1.0417932271957395,4.2733245209092274e-05,-26.05367660522461,6.851041316986084,93.49748992919922,26.63,2
-0.0280639193952083,-1.155569314956665,-0.072743646800518,-0.1145138666033744,6.846240997314453,93.53063201904295,26.63,2
0.0323701612651348,-1.1893998384475708,-0.1698337197303772,30.865636825561523,6.843160629272461,93.5519027709961,26.63,2
0.071153275668621,-1.104752540588379,-0.1817605793476104,58.30973052978516,6.841183662414551,93.5655517578125,26.63,2
0.0512598492205143,-1.0112464427947998,-0.150230124592781,69.6200180053711,6.839914798736572,93.57431030273438,26.63,2
0.004906749818474,-0.9400440454483032,-0.1355934739112854,65.45706176757812,6.83910083770752,93.5799331665039,26.63,2
-0.0192422289401292,-0.9279370903968812,-0.1709827035665512,58.321624755859375,6.846840858459473,93.5835418701172,26.63,2
-0.0067507810890674,-0.9089719653129578,-0.1880957037210464,54.50559997558594,6.851808071136475,93.58585357666016,26.63,2
-0.0267233606427907,-0.8688123822212219,-0.1710889637470245,51.31510162353516,6.854995727539063,93.58734130859376,26.63,2
-0.0787250325083732,-0.8318447470664978,-0.1433816999197006,47.82742691040039,6.857041358947754,93.58829498291016,26.63,2
-0.1120967119932174,-0.8305121064186096,-0.1256007701158523,44.71867370605469,6.858354091644287,93.58890533447266,26.63,2
-0.122317187488079,-0.8520479798316956,-0.1365810930728912,38.63235092163086,6.859196662902832,93.58929443359376,26.63,2
-0.1288761049509048,-0.8882595896720886,-0.1604209542274475,28.51073265075684,6.859737396240234,93.58954620361328,26.63,2
-0.2002585232257843,-0.9674758315086364,-0.1869155466556549,20.865253448486328,6.860084533691406,93.58970642089844,26.63,2
-0.184492141008377,-1.0127145051956177,-0.2039182484149933,21.84857940673828,6.8690290451049805,93.58981323242188,26.63,2
-0.1911675035953521,-1.0529416799545288,-0.2260251641273498,28.849441528320312,6.874768733978272,93.58988189697266,26.63,2
-0.1506691724061966,-1.1795170307159424,-0.2570054233074188,35.541893005371094,6.878452301025391,93.58992004394533,26.63,2
-0.1862551867961883,-1.2383546829223633,-0.2600934505462646,40.94015502929688,6.880816459655762,93.58995056152344,26.63,2
-0.2426788955926895,-1.1081801652908323,-0.1501196771860122,47.944034576416016,6.882333278656006,93.5899658203125,26.63,2
-0.1277484744787216,-0.93507719039917,-0.0123715568333864,55.0181770324707,6.883306980133057,93.58997344970705,26.63,2
0.0131805529817938,-0.9527385234832764,0.0088539691641926,55.47023391723633,6.883931636810303,93.58998107910156,26.63,2
0.0812295898795127,-0.9920613765716552,-0.0614913254976272,45.20606994628906,6.884332656860352,93.5899887084961,26.63,2
0.0745195746421814,-0.989307701587677,-0.1122326627373695,26.714221954345703,6.880917549133301,93.5899887084961,26.59,2
0.0086379526183009,-0.942758321762085,-0.0832200124859809,4.1747260093688965,6.878726005554199,93.5899887084961,26.59,2
-0.0616299510002136,-0.8513100743293762,-0.0254169441759586,-20.786771774291992,6.8773193359375,93.5899887084961,26.59,2
-0.0955282971262931,-0.8038194179534912,0.0004821901675313,-48.28419494628906,6.8764166831970215,93.5899887084961,26.59,2
-0.08929343521595,-0.8405159711837769,-0.0276794284582138,-78.34408569335938,6.875837802886963,93.5899887084961,26.59,2
-0.0629011616110801,-0.8640657067298889,-0.0401541627943515,-104.5742416381836,6.8754658699035645,93.5899887084961,26.59,2
-0.0683552175760269,-0.8847762942314148,-0.0257686302065849,-111.95641326904295,6.875227451324463,93.5899887084961,26.59,2
-0.105441965162754,-0.8924694061279297,-0.0109390495344996,-92.14247131347656,6.87507438659668,93.5899887084961,26.59,2
-0.1516332030296325,-0.8918086290359497,0.0209688190370798,-58.23967361450195,6.869467735290527,93.7046356201172,26.59,2
-0.1980693936347961,-0.9249712228775024,0.0582387782633304,-31.510194778442383,6.865869522094727,93.77821350097656,26.59,2
-0.2222716957330703,-0.9742419719696044,0.0709609389305114,-18.28325462341309,6.863560199737549,93.82543182373048,26.59,2
-0.2154122442007064,-1.0618388652801514,0.0903208404779434,-11.589837074279783,6.8620781898498535,93.85572814941406,26.59,2
-0.2837813198566437,-1.2076178789138794,0.1195382326841354,-6.656688690185547,6.8611273765563965,93.87517547607422,26.59,2
-0.3668410778045654,-1.2899749279022217,0.1382882744073867,-3.90287446975708,6.8605170249938965,93.8876495361328,26.59,2
-0.3305796384811401,-1.1636980772018433,0.1223321035504341,-3.751376390457153,6.860125541687012,93.89566040039062,26.59,2
-0.2569291889667511,-1.1050519943237305,0.0952990278601646,-4.191540241241455,6.859874248504639,93.90080261230467,26.59,2
-0.1704801321029663,-1.173774003982544,0.0443641059100627,0.0830240249633789,6.8702712059021,93.9040985107422,26.59,2
-0.1541865319013595,-1.2010825872421265,-0.0387029647827148,15.22548770904541,6.876943111419678,93.90621185302734,26.59,2
-0.1549257785081863,-1.179423213005066,-0.1144017279148101,37.28144073486328,6.881225109100342,93.9075698852539,26.59,2
-0.1721935123205185,-1.0591657161712646,-0.1126008629798889,47.77070617675781,6.883973121643066,93.90843963623048,26.59,2
-0.2000682801008224,-0.954002559185028,-0.0890540778636932,34.64748001098633,6.885736465454102,93.90899658203124,26.59,2
-0.2347500175237655,-0.8809170722961426,-0.0739431008696556,10.311948776245115,6.886868000030518,93.90935516357422,26.59,2
-0.2402134388685226,-0.8508083820343018,-0.0866368487477302,-6.770468711853027,6.887594223022461,93.90958404541016,26.59,2
-0.2325239926576614,-0.8482796549797058,-0.1115762889385223,-16.880329132080078,6.888060092926025,93.90973663330078,26.59,2
-0.199600487947464,-0.846656858921051,-0.1219832077622413,-30.79135131835937,6.856225967407227,93.90983581542967,26.59,2
-0.1784720718860626,-0.8400176763534546,-0.1174662187695503,-50.74223327636719,6.83579683303833,93.90989685058594,26.59,2
-0.1817063987255096,-0.8581481575965881,-0.0865786075592041,-66.42953491210938,6.822686672210693,93.9099349975586,26.59,2
-0.1949775516986847,-0.9201632142066956,-0.0555611662566661,-62.83638000488281,6.814272880554199,93.9099578857422,26.59,2
-0.2034942060708999,-1.0047430992126465,-0.0468515083193779,-39.12819290161133,6.808873653411865,93.90997314453124,26.59,2
-0.2369485795497894,-1.1261948347091677,-0.0580554716289043,-15.684465408325195,6.805408477783203,93.90998077392578,26.59,2
-0.2920043170452118,-1.1537556648254397,-0.0372566580772399,-7.754626274108887,6.803184986114502,93.90998840332033,26.59,2
-0.3329336941242218,-0.9699227213859558,0.0880463123321533,-6.735517501831055,6.8017578125,93.90999603271484,26.59,2
-0.2472443282604217,-0.9751003384590148,0.1180785745382309,-2.380711317062378,6.7971696853637695,93.90999603271484,26.63,2
-0.1642649471759796,-1.0344008207321167,0.0869715809822082,-2.60615873336792,6.794225215911865,93.90999603271484,26.63,2
-0.105415791273117,-1.0612609386444092,0.0390200316905975,-16.977245330810547,6.792335510253906,93.90999603271484,26.63,2
-0.090040884912014,-1.0617048740386963,0.0082474872469902,-41.02447891235352,6.791122913360596,93.90999603271484,26.63,2
-0.130554124712944,-0.9892186522483826,0.0052927625365555,-61.31816482543945,6.790344715118408,93.90999603271484,26.63,2
-0.2237264811992645,-0.8867234587669373,0.0649721100926399,-68.26543426513672,6.7898454666137695,93.90999603271484,26.63,2
-0.3115079998970032,-0.8265457153320312,0.1032708808779716,-64.02172088623047,6.789525032043457,93.90999603271484,26.63,2
-0.3958300054073334,-0.8215137124061584,0.0942621752619743,-55.89940643310547,6.789319515228272,93.90999603271484,26.63,2
-0.4443452358245849,-0.8182845115661621,0.0940786823630333,-47.03632736206055,6.773580074310303,94.03180694580078,26.63,2
-0.4530884325504303,-0.7938210964202881,0.1051564812660217,-37.2966194152832,6.763479232788086,94.10997772216795,26.63,2
-0.4475037455558777,-0.7837196588516235,0.1346566677093505,-26.553686141967773,6.756997108459473,94.16014099121094,26.63,2
-0.4607131481170654,-0.8052259683609009,0.1591859608888626,-10.523921966552734,6.752837181091309,94.1923370361328,26.63,2
-0.5083746314048767,-0.8750052452087402,0.1749274581670761,16.382627487182617,6.750167846679688,94.21299743652344,26.63,2
-0.5221676826477051,-0.9477744102478028,0.1570405662059784,48.81474304199219,6.748454570770264,94.22625732421876,26.63,2
-0.4918348491191864,-1.2463732957839966,0.111975148320198,75.59996032714844,6.7473554611206055,94.2347640991211,26.63,2
-0.4835645258426666,-1.3876169919967651,0.0942502990365028,91.45645141601562,6.746649742126465,94.24021911621094,26.63,2
-0.3551060855388641,-1.28793466091156,0.0380933210253715,99.83736419677734,6.730588912963867,94.24372100830078,26.63,2
-0.2726688385009765,-1.3191264867782593,-0.037129420787096,103.2202606201172,6.720282077789307,94.2459716796875,26.63,2
-0.253352016210556,-1.3783279657363892,-0.0854030475020408,99.06437683105467,6.713667869567871,94.2474136352539,26.63,2
-0.3025310933589935,-1.3267557621002195,-0.1443711519241333,86.77457427978516,6.709423065185547,94.2483367919922,26.63,2
-0.2893092036247253,-1.1537152528762815,-0.148626834154129,70.27517700195312,6.706699371337891,94.24893188476562,26.63,2
-0.2920196950435638,-1.0202767848968506,-0.151357889175415,55.699405670166016,6.704951286315918,94.2493133544922,26.63,2
-0.3217480182647705,-0.957034707069397,-0.1922949403524398,44.85157775878906,6.703829288482666,94.2495574951172,26.63,2
-0.3464237153530121,-0.9164496064186096,-0.22976154088974,36.51077651977539,6.703109264373779,94.24971771240234,26.63,2
-0.3342702984809875,-0.9071977734565736,-0.2594032287597656,32.046607971191406,6.654447555541992,94.24981689453124,26.63,2
-0.2872864902019501,-0.8956626653671265,-0.2672300040721893,36.54753875732422,6.6232194900512695,94.24988555908205,26.63,2
-0.2179505825042724,-0.8826623558998108,-0.2554594576358795,46.11748123168945,6.603178977966309,94.24992370605467,26.63,2
-0.1790525615215301,-0.9079061150550842,-0.2423080205917358,54.20783996582031,6.590318202972412,94.2499542236328,26.63,2
-0.170883372426033,-0.935301661491394,-0.2170748561620712,59.76877212524414,6.582065105438232,94.24996948242188,26.63,2
-0.2048252820968628,-1.0032625198364258,-0.2120772153139114,62.78932189941406,6.576768398284912,94.2499771118164,26.63,2
-0.2489983439445495,-0.9964959025382996,-0.1864789128303527,67.18538665771484,6.57336950302124,94.24998474121094,26.63,2
-0.3053349256515503,-0.8634046912193298,-0.0748892351984977,75.09736633300781,6.571187973022461,94.24999237060548,26.63,2
-0.3358907401561737,-0.8843521475791931,-0.0088751772418618,81.6974105834961,6.598248958587647,94.24999237060548,26.61,2
-0.3722930252552032,-0.959370493888855,0.0278910677880048,73.61605072021484,6.615614891052246,94.24999237060548,26.61,2
-0.3564694821834564,-1.0746862888336182,0.0402899794280529,43.004356384277344,6.6267595291137695,94.24999237060548,26.61,2
-0.217566043138504,-1.0535271167755127,0.076235756278038,-0.4323503673076629,6.633911609649658,94.24999237060548,26.61,2
-0.1060347184538841,-1.0119595527648926,0.1160970106720924,-41.12956619262695,6.638501167297363,94.24999237060548,26.61,2
-0.1128291711211204,-1.0020772218704224,0.1472754478454589,-77.32806396484375,6.641446590423584,94.24999237060548,26.61,2
-0.1451783329248428,-1.0013329982757568,0.1616861969232559,-109.39639282226562,6.643336772918701,94.24999237060548,26.61,2
-0.216318130493164,-0.9784643650054932,0.170934185385704,-124.03250885009766,6.64454984664917,94.24999237060548,26.61,2
-0.2619715631008148,-0.9469952583312988,0.160075694322586,-110.82623291015624,6.651755332946777,94.3718032836914,26.61,2
-0.2856715321540832,-0.9156046509742736,0.1475095599889755,-81.18177032470703,6.656379222869873,94.4499740600586,26.61,2
-0.2784897089004516,-0.8730688691139221,0.1450431197881698,-54.61992263793945,6.659346580505371,94.50013732910156,26.61,2
-0.285076379776001,-0.8345763087272644,0.1378625184297561,-37.07607650756836,6.661250591278076,94.53233337402344,26.61,2
-0.3452810645103454,-0.8210695385932922,0.1052655503153801,-26.89221954345703,6.662472724914551,94.55299377441406,26.61,2
-0.4342969357967376,-0.8459883332252502,0.078748919069767,-27.332080841064453,6.663257122039795,94.56625366210938,26.61,2
-0.4802266657352447,-0.9235552549362184,0.0561342984437942,-38.34059143066406,6.663760185241699,94.57476043701172,26.61,2
-0.4985061585903168,-1.1916464567184448,0.0136326635256409,-52.17987060546875,6.664083003997803,94.58021545410156,26.61,2
-0.5102368593215942,-1.2517365217208862,-0.0024468896444886,-62.34010314941406,6.623435020446777,94.5837173461914,26.61,2
-0.4114072620868683,-1.1167677640914917,-0.0239613708108663,-68.44119262695312,6.597349643707275,94.58596801757812,26.61,2
-0.3647774457931518,-1.1812925338745115,-0.1049414202570915,-68.8563461303711,6.580609321594238,94.58740997314452,26.61,2
-0.3628419935703277,-1.222700834274292,-0.184898629784584,-58.16008377075195,6.56986665725708,94.5883331298828,26.61,2
-0.395186573266983,-1.1765031814575195,-0.2362105548381805,-34.22486877441406,6.562972545623779,94.58892822265624,26.61,2
-0.3823567926883697,-1.0964763164520264,-0.2523462772369385,-2.366863250732422,6.5585479736328125,94.5893096923828,26.61,2
-0.3349389731884002,-1.01153302192688,-0.2682990431785583,28.98313331604004,6.555708885192871,94.5895538330078,26.61,2
-0.3269000351428985,-0.9514234662055968,-0.2729388177394867,57.184043884277344,6.553886890411377,94.58971405029295,26.61,2
-0.3329366743564605,-0.9128486514091492,-0.2703185975551605,81.5799331665039,6.573375225067139,94.58981323242188,26.61,2
-0.3256150782108307,-0.8880935311317444,-0.2406482100486755,98.49687957763672,6.58588171005249,94.58988189697266,26.61,2
-0.3097209632396698,-0.8722071051597595,-0.1992163658142089,105.34071350097656,6.593907356262207,94.58992004394533,26.61,2
-0.2827276885509491,-0.8844032287597656,-0.1558344662189483,106.02831268310548,6.599057674407959,94.58995056152344,26.61,2
-0.2654049694538116,-0.9482077360153198,-0.1167989149689674,107.25415802001952,6.602363109588623,94.5899658203125,26.61,2
-0.2542882561683655,-1.0059471130371094,-0.0917481407523155,112.3041000366211,6.604484081268311,94.58997344970705,26.61,2
-0.2303608655929565,-1.0989786386489868,-0.1092586442828178,115.52694702148438,6.6058454513549805,94.58998107910156,26.61,2
-0.2206034064292907,-1.2034631967544556,-0.1093003302812576,103.5550765991211,6.606719017028809,94.5899887084961,26.61,2
-0.2871127128601074,-1.1529620885849,-0.0141649218276143,71.03063201904297,6.621050834655762,94.5899887084961,26.61,2
-0.3465878665447235,-1.047782301902771,0.0692786127328872,30.64402961730957,6.630248069763184,94.5899887084961,26.61,2
-0.3343756198883056,-0.9522950649261476,0.0892412215471267,-1.4250487089157104,6.636150360107422,94.5899887084961,26.61,2
-0.2929518818855285,-1.0029723644256592,0.0684654265642166,-22.03738021850586,6.639937877655029,94.5899887084961,26.61,2
-0.2495751678943634,-1.0131030082702637,0.0719260424375534,-34.695556640625,6.642368793487549,94.5899887084961,26.61,2
-0.2273362725973129,-0.9636265635490416,0.0685490891337394,-41.50404357910156,6.643928527832031,94.5899887084961,26.61,2
-0.2186623960733413,-0.9038865566253662,0.0495886355638504,-47.62521743774414,6.6449294090271,94.5899887084961,26.61,2
-0.207498237490654,-0.8599510788917542,0.0374209061264991,-61.39834976196289,6.645571708679199,94.5899887084961,26.61,2
-0.2395181357860565,-0.8317558169364929,0.0464056804776191,-85.77836608886719,6.651952266693115,94.70821380615234,26.61,2
-0.2712622284889221,-0.8136617541313171,0.0465738177299499,-110.74234008789062,6.6560468673706055,94.78408813476562,26.61,2
-0.3028292953968048,-0.802049994468689,0.0298883952200412,-118.56584930419922,6.658674240112305,94.83277893066406,26.61,2
-0.3118916749954223,-0.7890004515647888,0.0247784256935119,-101.78655242919922,6.660360336303711,94.86402893066406,26.61,2
-0.3233051598072052,-0.7694304585456848,0.05508578941226,-73.65740203857422,6.661442756652832,94.8840789794922,26.61,2
-0.3362274467945099,-0.7568715810775757,0.0969264060258865,-51.41053771972656,6.662137031555176,94.8969497680664,26.61,2
-0.34452024102211,-0.7712031006813049,0.1237773075699806,-37.80730438232422,6.662582874298096,94.90520477294922,26.61,2
-0.3722331821918487,-0.841975748538971,0.1298131197690963,-28.1603946685791,6.662868976593018,94.91050720214844,26.61,2
-0.3956155180931091,-0.9265779852867126,0.1168932318687439,-22.492618560791016,6.6561665534973145,94.91390991210938,26.61,2
-0.3714365363121032,-1.0144574642181396,0.0806131213903427,-21.34525680541992,6.651865482330322,94.91609191894533,26.61,2
-0.3615176379680633,-1.2219934463500977,0.0461350865662097,-20.300844192504883,6.649105548858643,94.91748809814452,26.61,2
-0.3831411302089691,-1.2432225942611694,0.0575957149267196,-15.116555213928224,6.647334098815918,94.91838836669922,26.61,2
-0.3578334152698517,-1.128097414970398,0.0257660653442144,-5.960726261138916,6.646197319030762,94.9189682006836,26.61,2
-0.3359946012496948,-1.1493788957595823,-0.0282470155507326,5.42137622833252,6.645467758178711,94.9193344116211,26.61,2
-0.3555663526058197,-1.185427188873291,-0.0629095062613487,19.61146545410156,6.644999504089356,94.91957092285156,26.61,2
-0.3457352817058563,-1.1078009605407717,-0.1019472181797027,38.53410339355469,6.644699096679688,94.9197235107422,26.61,2
-0.3058396279811859,-1.0020071268081665,-0.110206052660942,61.643829345703125,6.625685214996338,94.9198226928711,26.61,2
-0.2802368700504303,-0.9061259031295776,-0.0651261284947395,86.66316223144531,6.613483428955078,94.91988372802734,26.61,2
-0.2917953729629516,-0.8445948362350464,-0.0417941994965076,110.57572174072266,6.605652809143066,94.919921875,26.61,2
-0.3104085028171539,-0.8107055425643921,-0.0436144359409809,123.77904510498048,6.600627422332764,94.91995239257812,26.61,2
-0.2775711417198181,-0.8113484382629395,-0.0559781081974506,114.21749114990234,6.597402572631836,94.9199676513672,26.61,2
-0.2229113727807998,-0.8229565620422363,-0.0639123991131782,84.57974243164062,6.595333099365234,94.91997528076172,26.61,2
-0.1654427796602249,-0.8583948612213135,-0.0634063929319381,52.69849395751953,6.594005107879639,94.91998291015624,26.61,2
-0.1397583037614822,-0.8923326730728149,-0.0630816742777824,30.261362075805664,6.59315299987793,94.91999053955078,26.61,2
-0.1344710290431976,-0.9588941931724548,-0.0796666070818901,15.332281112670898,6.600868701934815,94.91999053955078,26.61,2
-0.1478712856769561,-1.0463917255401611,-0.0903098657727241,3.820649385452272,6.605820178985596,94.91999053955078,26.61,2
-0.1508730202913284,-1.1249337196350098,-0.1083356440067291,-6.461575031280518,6.608997821807861,94.91999053955078,26.61,2
-0.1639949083328247,-1.1697396039962769,-0.1199035495519638,-19.695045471191406,6.611037254333496,94.91999053955078,26.61,2
-0.1948068886995315,-1.1649068593978882,-0.0993382930755615,-38.05035400390625,6.6123456954956055,94.91999053955078,26.61,2
-0.2425691038370132,-1.0498499870300293,-0.0133696291595697,-57.34955978393555,6.613185405731201,94.91999053955078,26.61,2
-0.1948513090610504,-1.037588596343994,0.0194090120494365,-72.66880798339844,6.613724231719971,94.91999053955078,26.61,2
-0.1362399011850357,-1.046513319015503,0.0292489100247621,-84.52397918701172,6.614069938659668,94.91999053955078,26.61,2
-0.0818331539630889,-1.035447359085083,0.0355635918676853,-96.08352661132812,6.622554779052734,95.14927673339844,26.61,2
-0.0637113600969314,-1.0059547424316406,0.0452137626707553,-108.99386596679688,6.627999782562256,95.29641723632812,26.61,2
-0.1136573478579521,-0.9198548197746276,0.0570044629275798,-120.95111846923828,6.631494522094727,95.3908462524414,26.61,2
-0.1625031381845474,-0.8478075265884399,0.0701688304543495,-125.0563507080078,6.633737087249756,95.45144653320312,26.61,2
-0.1938495486974716,-0.8127672672271729,0.073019191622734,-115.76803588867188,6.635176181793213,95.4903335571289,26.61,2
-0.202770322561264,-0.8070737719535828,0.069250613451004,-95.42687225341795,6.636099815368652,95.51528930664062,26.61,2
-0.2028973847627639,-0.8034200072288513,0.0612343810498714,-70.42877960205078,6.636692523956299,95.53130340576172,26.61,2
-0.2141744792461395,-0.7898796796798706,0.056090023368597,-45.64854049682617,6.637072563171387,95.54158020019533,26.61,2
-0.2326070219278335,-0.7811902761459351,0.0527886711061,-25.110157012939453,6.61574125289917,95.54817962646484,26.61,2
-0.2556315064430237,-0.792407214641571,0.0450722798705101,-10.826372146606444,6.602052211761475,95.55241394042967,26.61,2
-0.2760050594806671,-0.9059633016586304,-0.0158574022352695,0.6616480946540833,6.593267440795898,95.5551300048828,26.61,2
-0.2946774363517761,-0.9900326132774352,-0.0381652414798736,13.687302589416504,6.587629795074463,95.55687713623048,26.61,2
-0.2674758434295654,-1.0999611616134644,-0.041285578161478,27.24831771850586,6.584011554718018,95.55799865722656,26.61,2
-0.2780083119869232,-1.226484775543213,-0.065679132938385,39.03559494018555,6.581689834594727,95.5587158203125,26.61,2
-0.3015607595443725,-1.2405070066452026,-0.0813335105776786,50.63397216796875,6.580199718475342,95.55917358398438,26.61,2
-0.2103176563978195,-1.154343605041504,-0.0633907169103622,64.34306335449219,6.5792436599731445,95.5594711303711,26.61,2
-0.1629586368799209,-1.1494288444519043,-0.0574738346040248,77.25357055664062,6.569449424743652,95.55966186523438,26.61,2
-0.1437618881464004,-1.2022525072097778,-0.0872633680701255,83.97320556640625,6.563164234161377,95.55978393554688,26.61,2
-0.137040302157402,-1.146587371826172,-0.1455649882555008,84.50227355957031,6.559130668640137,95.5598602294922,26.61,2
-0.0991401299834251,-1.0436913967132568,-0.1549907475709915,83.95332336425781,6.556541919708252,95.55990600585938,26.61,2
-0.086013525724411,-0.9384742379188538,-0.1330507844686508,84.99465942382812,6.554880619049072,95.5599365234375,26.61,2
-0.0775896236300468,-0.8653541207313538,-0.1245687529444694,86.1716537475586,6.55381441116333,95.5599594116211,26.61,2
-0.0497925542294979,-0.8016365170478821,-0.1303210258483886,84.97090148925781,6.553130626678467,95.55997467041016,26.61,2
-0.0151606705039739,-0.783137321472168,-0.1508058309555053,78.83004760742188,6.552691459655762,95.55998229980467,26.61,2
-0.0041314712725579,-0.7768633961677551,-0.1695495694875717,70.94120025634766,6.562508583068848,95.55998992919922,26.65,2
-0.0362379848957061,-0.8400104641914368,-0.2095670998096466,69.99855041503906,6.568808555603027,95.55998992919922,26.65,2
-0.0792331993579864,-0.8973278999328613,-0.2464435845613479,72.4853744506836,6.572851657867432,95.55998992919922,26.65,2
-0.1180206015706062,-0.934110939502716,-0.2701087892055511,59.944435119628906,6.575446128845215,95.55998992919922,26.65,2
-0.1373143494129181,-1.0024983882904053,-0.2908935248851776,27.67100524902344,6.57711124420166,95.55998992919922,26.65,2
-0.1496959626674652,-1.1471455097198486,-0.3322208523750305,-3.587327718734741,6.578179836273193,95.55998992919922,26.65,2
-0.2248150706291198,-1.267960548400879,-0.3419490456581116,-18.34849739074707,6.5788655281066895,95.55998992919922,26.65,2
-0.2618266344070434,-1.1775593757629397,-0.253029853105545,-22.060583114624023,6.579305648803711,95.55998992919922,26.65,2
-0.0784608721733093,-0.9851985573768616,-0.0952067002654075,-20.906784057617188,6.580047607421875,95.7713623046875,26.65,2
0.0392127186059951,-0.9905012845993042,-0.094684824347496,-14.530951499938965,6.580523490905762,95.90701293945312,26.65,2
0.0699466615915298,-0.9659153819084167,-0.1391321122646331,-8.318424224853516,6.58082914352417,95.99406433105467,26.65,2
0.0001055459069903,-0.9781264662742616,-0.1956446915864944,-11.525394439697266,6.581025123596191,96.0499267578125,26.65,2
-0.0615077838301658,-0.9523761868476868,-0.1871290206909179,-24.9402084350586,6.581151008605957,96.08577728271484,26.65,2
-0.1234387680888176,-0.8798733949661255,-0.1032953113317489,-41.3626594543457,6.581231594085693,96.1087875366211,26.65,2
-0.1575847417116165,-0.8389430642127991,-0.0606912113726139,-55.53437423706055,6.5812835693359375,96.12355041503906,26.65,2
-0.1794976592063903,-0.8238718509674072,-0.0389481261372566,-69.15734100341797,6.581316947937012,96.13302612304688,26.65,2
-0.1767667829990387,-0.7918089032173157,-0.0193968918174505,-84.64218139648438,6.584092617034912,96.13910675048828,26.65,2
-0.1750142574310302,-0.7880260944366455,-0.012447808869183,-101.79835510253906,6.585873603820801,96.14301300048828,26.65,2
-0.1794873625040054,-0.8191851377487183,0.0088050356134772,-114.44544219970705,6.587016582489014,96.14551544189452,26.65,2
-0.1935534924268722,-0.9007567763328552,5.279028482618742e-05,-108.97647857666016,6.58774995803833,96.14712524414062,26.65,2
-0.1969825625419616,-0.9698980450630188,-0.0223572179675102,-78.15684509277344,6.588220596313477,96.14815521240234,26.65,2
-0.187987595796585,-1.1150288581848145,-0.0647275447845459,-35.371273040771484,6.588522911071777,96.14881896972656,26.65,2
-0.210204005241394,-1.1745787858963013,-0.0807228311896324,-0.9028568863868712,6.588716983795166,96.14924621582033,26.65,2
-0.1572879254817962,-1.0448613166809082,-0.062998816370964,20.28193664550781,6.588841438293457,96.1495132446289,26.65,2
-0.1065361127257347,-1.0735715627670288,-0.0348312407732009,35.331642150878906,6.585707664489746,96.14968872070312,26.65,2
-0.0795642957091331,-1.1871583461761477,-0.0671348795294761,50.94392013549805,6.583696365356445,96.1498031616211,26.65,2
-0.0118753612041473,-1.2544540166854858,-0.1942232102155685,70.3027572631836,6.5824055671691895,96.14987182617188,26.65,2
-0.0132186980918049,-1.146500587463379,-0.1918145716190338,87.70591735839844,6.581577301025391,96.14991760253906,26.65,2
-0.0252763237804174,-1.0268423557281494,-0.1342910975217819,88.6567611694336,6.581045627593994,96.1499481201172,26.65,2
-0.0833941847085952,-0.96684592962265,-0.1141691654920578,68.83194732666016,6.580704689025879,96.14997100830078,26.65,2
-0.1094953343272209,-0.9507347345352172,-0.1348427236080169,43.12268829345703,6.580485820770264,96.14997863769533,26.65,2
-0.070267803966999,-0.906808853149414,-0.1425120383501052,26.45200157165528,6.580345630645752,96.14998626708984,26.65,2
-0.0394960567355155,-0.8730220198631287,-0.1362382173538208,19.898754119873047,6.577042102813721,96.14999389648438,26.61,2
-0.0701284930109977,-0.8625351190567017,-0.1490053683519363,18.64529800415039,6.57492208480835,96.14999389648438,26.61,2
-0.1289710402488708,-0.8725985288619995,-0.1627963632345199,20.087177276611328,6.573561668395996,96.14999389648438,26.61,2
-0.1723305732011795,-0.8958499431610107,-0.1772443950176239,21.90455436706543,6.572688579559326,96.14999389648438,26.61,2
-0.2057540118694305,-0.9219669103622437,-0.1641252189874649,23.307292938232425,6.5721282958984375,96.14999389648438,26.61,2
-0.2272032499313354,-0.9499228596687316,-0.1445105373859405,26.80485725402832,6.571768760681152,96.14999389648438,26.61,2
-0.218577042222023,-0.967863380908966,-0.1207274198532104,33.764060974121094,6.571537971496582,96.14999389648438,26.61,2
-0.2074434608221054,-1.130516529083252,-0.1558447480201721,40.68772506713867,6.571390151977539,96.14999389648438,26.61,2
-0.2338852137327194,-1.251691222190857,-0.2063699066638946,41.80630493164063,6.563491344451904,96.3577880859375,26.61,2
-0.3012339770793915,-1.0775543451309204,-0.1380341053009033,36.2044792175293,6.558422088623047,96.49113464355467,26.61,2
-0.3108678758144378,-0.909825563430786,0.0065798214636743,26.92758750915528,6.555169105529785,96.57671356201172,26.61,2
-0.2106926590204239,-0.970120131969452,0.0378091968595981,16.0625,6.553081512451172,96.63162994384766,26.61,2
-0.1016237810254097,-1.008813738822937,-0.0485072992742061,2.36183500289917,6.551742076873779,96.6668701171875,26.61,2
-0.0652162954211235,-1.005656123161316,-0.1206935793161392,-14.580822944641112,6.550882339477539,96.68949127197266,26.61,2
-0.1034275814890861,-0.9532498121261596,-0.099845290184021,-33.066619873046875,6.550330638885498,96.7040023803711,26.61,2
-0.1559382528066635,-0.8804340362548828,-0.0360860861837863,-54.88213348388672,6.549976348876953,96.71331787109376,26.61,2
-0.2120276838541031,-0.8225095272064209,-0.0007668766193091,-76.7458267211914,6.529551029205322,96.71929931640624,26.61,2
-0.2256315499544143,-0.8021302223205566,-0.0004921372747048,-94.45957946777344,6.516443252563477,96.72313690185548,26.61,2
-0.2343617379665374,-0.7778564095497131,0.0052819489501416,-105.75917053222656,6.508031368255615,96.72559356689452,26.61,2
-0.2343664914369583,-0.7622788548469543,0.0201829746365547,-108.36399841308594,6.502633094787598,96.7271728515625,26.61,2
-0.2567606270313263,-0.7578798532485962,0.0353433676064014,-102.69851684570312,6.499168872833252,96.72818756103516,26.61,2
-0.2767296731472015,-0.7830457091331482,0.0506702102720737,-95.97813415527344,6.496945858001709,96.72883605957033,26.61,2
-0.2503602504730224,-0.8831623196601868,0.0213216766715049,-95.25870513916016,6.495519161224365,96.72925567626952,26.61,2
-0.2278400957584381,-1.0313780307769775,-0.0366969481110572,-92.78002166748048,6.494603633880615,96.72952270507812,26.61,2
-0.3029523491859436,-1.1041032075881958,-0.0683321878314018,-68.6227035522461,6.488048553466797,96.72969818115234,26.61,2
-0.3679483830928802,-1.0836007595062256,-0.0718405395746231,-14.456774711608888,6.483841896057129,96.72980499267578,26.61,2
-0.353681355714798,-1.0648456811904907,-0.0405053496360778,52.05258560180664,6.481142044067383,96.72987365722656,26.61,2
-0.3109389543533325,-1.1535696983337402,0.0299837421625852,102.42625427246094,6.479409694671631,96.72991943359376,26.61,2
-0.2667160034179687,-1.2384965419769287,0.0024485159665346,118.6136703491211,6.478297710418701,96.72994995117188,26.61,2
-0.1991518437862396,-1.1978355646133425,-0.0879930779337883,103.95245361328124,6.477584362030029,96.72997283935548,26.61,2
-0.1334019601345062,-1.1157639026641846,-0.0900555402040481,79.8802490234375,6.477126598358154,96.72998046875,26.61,2
-0.0968052446842193,-1.0295084714889526,-0.040999136865139,68.136474609375,6.476832389831543,96.72998809814452,26.61,2
-0.1348951011896133,-0.9405679702758788,-0.0319086611270904,74.76191711425781,6.479398250579834,96.72999572753906,26.63,2
-0.1593389809131622,-0.9002844095230103,-0.0484660156071186,92.8460693359375,6.481044769287109,96.72999572753906,26.63,2
-0.1190479099750518,-0.8688349723815918,-0.0646893456578254,113.877197265625,6.482101440429688,96.72999572753906,26.63,2
-0.093191422522068,-0.8486525416374207,-0.0751005411148071,132.42161560058594,6.482779502868652,96.72999572753906,26.63,2
-0.1101848632097244,-0.824505090713501,-0.0929773971438407,146.8408966064453,6.483214378356934,96.72999572753906,26.63,2
-0.1546769142150879,-0.8369975090026855,-0.1044497340917587,157.2909393310547,6.483493804931641,96.72999572753906,26.63,2
-0.1832293570041656,-0.8618077635765076,-0.1230075731873512,163.1409454345703,6.483673095703125,96.72999572753906,26.63,2
-0.2127482146024704,-0.8889250755310059,-0.1237213760614395,163.47378540039062,6.483788013458252,96.72999572753906,26.63,2
-0.2540828287601471,-0.9623051285743712,-0.1185816749930381,155.88812255859375,6.484321117401123,96.9306182861328,26.63,2
-0.2246312499046325,-1.0429829359054563,-0.1656632870435714,133.7735595703125,6.484663486480713,97.0593719482422,26.63,2
-0.2001331448554992,-1.1955171823501587,-0.2910397052764892,91.77375030517578,6.484882831573486,97.14199829101562,26.63,2
-0.2683782875537872,-1.2374271154403689,-0.3435102105140686,29.69353485107422,6.4850239753723145,97.1950225830078,26.63,2
-0.3065763115882873,-1.0124226808547974,-0.1364784687757492,-45.16923141479492,6.485114574432373,97.2290496826172,26.63,2
-0.2415252178907394,-0.9296033382415771,0.0131759196519851,-123.3807144165039,6.485172271728516,97.25088500976562,26.63,2
-0.1270081102848053,-1.0331922769546509,-0.0027400020044296,-198.38168334960932,6.485209465026856,97.26490020751952,26.63,2
-0.0199309755116701,-0.9933120012283324,-0.0353450216352939,-267.8615417480469,6.485233306884766,97.27389526367188,26.63,2
0.0096005443483591,-0.9509258270263672,-0.0506712719798088,-334.8479919433594,6.482035160064697,97.2796630859375,26.63,2
-0.0498166680335998,-0.8733448386192322,-0.0157245825976133,-402.0076599121094,6.479982852935791,97.28336334228516,26.63,2
-0.1271316409111023,-0.8179600834846497,0.0290932897478342,-458.7779846191406,6.478665351867676,97.2857437133789,26.63,2
-0.1767479330301284,-0.8104062080383301,0.0746481418609619,-492.6519775390625,6.477819919586182,97.28726959228516,26.63,2
-0.1861977130174636,-0.8055585622787476,0.1150781735777854,-507.7947998046875,6.477277755737305,97.28824615478516,26.63,2
-0.2034575939178466,-0.819240927696228,0.1410238444805145,-513.8297119140625,6.476929664611816,97.28887176513672,26.63,2
-0.2201317697763443,-0.8392170667648315,0.1520764976739883,-505.2925415039063,6.476706027984619,97.28927612304688,26.63,2
-0.2308322936296463,-0.8576343655586243,0.159169465303421,-476.3659057617188,6.4765625,97.28953552246094,26.63,2
-0.2544925808906555,-0.891844630241394,0.1805146485567093,-435.730224609375,6.478306770324707,97.28970336914062,26.63,2
-0.2696764171123504,-0.9977654218673706,0.171821653842926,-389.6116333007813,6.47942590713501,97.28981018066406,26.63,2
-0.2794205248355865,-1.132912516593933,0.1438518911600113,-336.8647766113281,6.480144023895264,97.28987884521484,26.63,2
-0.3248581290245056,-1.298011064529419,0.0979136377573013,-278.5888977050781,6.480605125427246,97.28992462158205,26.63,2
-0.3820062577724457,-1.3591796159744265,0.0684331133961677,-217.3630828857422,6.48090124130249,97.28995513916016,26.63,2
-0.3515073359012604,-1.2696852684020996,0.0271231103688478,-140.7020263671875,6.481091022491455,97.28997039794922,26.63,2
-0.2983482480049133,-1.273828387260437,-0.0273761432617902,-35.02606201171875,6.481212615966797,97.28997802734376,26.63,2
-0.2530382573604584,-1.315671682357788,-0.073546178638935,96.30616760253906,6.481290817260742,97.28998565673828,26.63,2
-0.2295586764812469,-1.2361665964126587,-0.1199687719345092,238.13096618652344,6.472619533538818,97.2899932861328,26.63,2
-0.2200886160135269,-1.0955803394317627,-0.1385645717382431,383.8232116699219,6.467054843902588,97.2899932861328,26.63,2
-0.2028157263994217,-0.9157958030700684,-0.1113138645887374,541.0756225585938,6.463483810424805,97.2899932861328,26.63,2
-0.2197198420763015,-0.7780293822288513,-0.0882281512022018,709.2003173828125,6.4611921310424805,97.2899932861328,26.63,2
-0.2473612576723098,-0.6784232258796692,-0.0790108442306518,877.380615234375,6.459721565246582,97.2899932861328,26.63,2
-0.2762954831123352,-0.6200995445251465,-0.0954868048429489,982.16357421875,6.458777904510498,97.2899932861328,26.63,2
-0.2724727094173431,-0.6218551993370056,-0.111657902598381,942.5497436523438,6.45817232131958,97.2899932861328,26.63,2
-0.2476283609867096,-0.6845573782920837,-0.1276333630084991,783.8524780273438,6.4577836990356445,97.2899932861328,26.63,2
-0.2260869145393371,-0.7807737588882446,-0.115494392812252,586.45166015625,6.453402042388916,97.47628784179688,26.63,2
-0.2234584093093872,-0.8928998708724976,-0.1021065264940261,402.8870544433594,6.450590133666992,97.59584045410156,26.63,2
-0.2273693531751632,-1.043224811553955,-0.110308289527893,256.2747802734375,6.448785781860352,97.6725616455078,26.63,2
-0.2298791855573654,-1.162085771560669,-0.1379628032445907,148.60951232910156,6.447628021240234,97.7218017578125,26.63,2
-0.2818698287010193,-1.176788330078125,-0.1053299084305763,56.59122848510742,6.446885108947754,97.7533950805664,26.63,2
-0.3544188439846039,-0.990301549434662,0.0443608127534389,-36.18717193603516,6.446408271789551,97.77367401123048,26.63,2
-0.3729877471923828,-0.8538317084312439,0.1740103513002395,-119.94879913330078,6.446102142333984,97.78668975830078,26.63,2
-0.2897420227527618,-0.9117953777313232,0.1788431257009506,-174.4724578857422,6.445905685424805,97.79503631591795,26.63,2
-0.1915375292301178,-0.9881775379180908,0.1147712245583534,-197.3391571044922,6.443025588989258,97.80039978027344,26.63,2
-0.1061244383454322,-1.042793035507202,0.0400669202208519,-199.8365173339844,6.441177368164063,97.80384063720705,26.63,2
-0.1352778524160385,-1.005071043968201,0.0257126428186893,-192.52931213378903,6.439990997314453,97.80604553222656,26.63,2
-0.2043668031692505,-0.9584721326828004,0.0388919934630394,-183.55162048339844,6.439229965209961,97.80746459960938,26.63,2
-0.2766929864883423,-0.9229698181152344,0.0753386095166206,-177.15614318847656,6.438741207122803,97.8083724975586,26.63,2
-0.3343033194541931,-0.9057842493057252,0.0987279489636421,-176.6631317138672,6.438427925109863,97.80895233154295,26.63,2
-0.371274322271347,-0.889157772064209,0.0969445630908012,-178.9584503173828,6.438226699829102,97.809326171875,26.63,2
-0.4005979597568512,-0.8560967445373535,0.0902023091912269,-172.23451232910156,6.4380974769592285,97.8095703125,26.63,2
-0.4138183891773224,-0.8292823433876038,0.097071073949337,-146.828857421875,6.404045104980469,97.80972290039062,26.63,2
-0.4167047441005707,-0.8232699632644653,0.1070768237113952,-111.70211029052734,6.382192611694336,97.80982208251952,26.63,2
-0.4129592478275299,-0.8418026566505432,0.0967046171426773,-86.20774841308594,6.368168830871582,97.80988311767578,26.63,2
-0.4385444819927215,-0.8816847205162048,0.0732550024986267,-76.76847076416016,6.359169006347656,97.80992126464844,26.63,2
-0.4325725138187408,-0.996843159198761,0.03021752089262,-78.87557220458984,6.3533935546875,97.80995178222656,26.63,2
-0.4455333650112152,-1.2274829149246216,-0.0085970060899853,-88.55010986328125,6.349687099456787,97.80996704101562,26.63,2
-0.4874375462532043,-1.1683765649795532,-0.0223103873431682,-100.05730438232422,6.34730863571167,97.80997467041016,26.63,2
-0.4415581822395324,-1.0800654888153076,-0.0479041673243045,-104.02417755126952,6.345782279968262,97.80998229980467,26.63,2
-0.3841265738010406,-1.1633368730545044,-0.1147087514400482,-95.3206024169922,6.361527919769287,97.80998992919922,26.65,2
-0.3584658205509186,-1.21677565574646,-0.1855689585208892,-77.15314483642578,6.3716325759887695,97.80998992919922,26.65,2
-0.3419982194900512,-1.2230807542800903,-0.2478362917900085,-52.31402206420898,6.378117084503174,97.80998992919922,26.65,2
-0.2866480648517608,-1.0927804708480835,-0.2486114501953125,-18.81908226013184,6.3822784423828125,97.80998992919922,26.65,2
-0.2511275112628937,-0.9867700934410096,-0.2379133552312851,23.171958923339844,6.384949207305908,97.80998992919922,26.65,2
-0.2619191110134125,-0.9131409525871276,-0.2422434836626052,65.43848419189453,6.38666296005249,97.80998992919922,26.65,2
-0.2800400853157043,-0.8826833367347717,-0.2618156373500824,96.9764404296875,6.387762546539307,97.80998992919922,26.65,2
-0.2804735600948334,-0.8687351942062378,-0.2743759155273437,114.78311157226562,6.388468265533447,97.80998992919922,26.65,2
-0.23596952855587,-0.8653818368911743,-0.2656430602073669,123.68470001220705,6.38892126083374,98.01778411865234,26.65,2
-0.1962138563394546,-0.8688276410102844,-0.2544410526752472,128.88491821289062,6.389212131500244,98.15113067626952,26.65,2
-0.1707009524106979,-0.8990278244018555,-0.2416544705629348,131.25840759277344,6.389398574829102,98.23670959472656,26.65,2
-0.1935126632452011,-0.991179585456848,-0.2110576778650283,122.43151092529295,6.3895182609558105,98.2916259765625,26.65,2
-0.2417385578155517,-1.0895017385482788,-0.2138135135173797,90.74667358398438,6.389595031738281,98.32686614990234,26.65,2
-0.3342626690864563,-0.9734704494476318,-0.1372132003307342,40.24788284301758,6.389644622802734,98.3494873046875,26.65,2
-0.3880415558815002,-0.8654215931892395,-0.0432733371853828,-3.1865060329437256,6.389676094055176,98.36399841308594,26.65,2
-0.3497826755046844,-0.9528197646141052,-0.0109770139679312,-22.29721641540528,6.3896965980529785,98.3733139038086,26.65,2
-0.3252303302288055,-1.126460075378418,-0.0238377377390861,-23.07205009460449,6.3575758934021,98.3792953491211,26.65,2
-0.2870829403400421,-1.1931102275848389,-0.0208954624831676,-17.461002349853516,6.336962699890137,98.38313293457033,26.65,2
-0.1954288482666015,-1.1183292865753174,0.0145793687552213,-10.31340503692627,6.323734283447266,98.38558959960938,26.65,2
-0.1478060781955719,-1.0423502922058103,0.054138395935297,-6.711696624755859,6.315245151519775,98.38716888427734,26.65,2
-0.1844178289175033,-0.9879935383796692,0.0851228758692741,-13.629042625427246,6.309797286987305,98.38818359375,26.65,2
-0.2359020113945007,-0.9531105160713196,0.0826158374547958,-33.58433151245117,6.306301116943359,98.38883209228516,26.65,2
-0.2633438110351562,-0.9195290803909302,0.0698114112019538,-63.662086486816406,6.304057598114014,98.38925170898438,26.65,2
-0.2697588503360748,-0.8811851143836975,0.0503987185657024,-98.80998992919922,6.302618026733398,98.38951873779295,26.65,2
-0.2850711941719055,-0.8453826308250427,0.0323429964482784,-126.80782318115234,6.294349670410156,98.3896942138672,26.65,2
-0.3228866457939148,-0.8000155091285706,0.0095603233203291,-130.15472412109375,6.289043426513672,98.38980102539062,26.65,2
-0.3975344002246856,-0.7876948714256287,-0.0162558332085609,-106.00289154052734,6.285637855529785,98.3898696899414,26.65,2
-0.4734278917312622,-0.8021792769432068,-0.0552142523229122,-73.03499603271484,6.28345251083374,98.3899154663086,26.65,2
-0.510936439037323,-0.8674522638320923,-0.1193999424576759,-50.56329345703125,6.282050132751465,98.38994598388672,26.65,2
-0.5126161575317383,-0.9541229009628296,-0.1717861741781234,-42.71627426147461,6.281150341033936,98.38996887207033,26.65,2
-0.5640740394592285,-1.138491988182068,-0.2054046392440796,-44.6557846069336,6.280572891235352,98.38997650146484,26.65,2
-0.5075323581695557,-1.060887336730957,-0.2381745874881744,-49.69439697265625,6.280202388763428,98.38998413085938,26.65,2
-0.4152694344520569,-1.0222806930541992,-0.2759977877140045,-50.3950080871582,6.271701335906982,98.3899917602539,26.59,2
-0.4064403772354126,-1.0870695114135742,-0.300270527601242,-42.31450653076172,6.2662458419799805,98.3899917602539,26.59,2
-0.4399588108062744,-1.139842867851257,-0.3158473670482635,-26.030086517333984,6.262744903564453,98.3899917602539,26.59,2
-0.4222846031188965,-1.1065363883972168,-0.2922570407390594,-2.3456461429595947,6.260498523712158,98.3899917602539,26.59,2
-0.3605623543262481,-1.0067933797836304,-0.2491292655467987,28.294565200805664,6.259056568145752,98.3899917602539,26.59,2
-0.3321481049060821,-0.9483818411827089,-0.2046590149402618,61.10932159423828,6.258131504058838,98.3899917602539,26.59,2
-0.3307068049907684,-0.8997011184692383,-0.1649250239133834,87.15847778320312,6.257537841796875,98.3899917602539,26.59,2
-0.3297818601131439,-0.8628628849983215,-0.128230482339859,101.72936248779295,6.257156848907471,98.3899917602539,26.59,2
-0.3123949468135834,-0.8336244225502014,-0.0990842655301094,108.79442596435548,6.266093254089356,98.59420013427734,26.59,2
-0.2844437062740326,-0.8092631101608276,-0.0803799033164978,115.01935577392578,6.2718281745910645,98.72525024414062,26.59,2
-0.2665062248706817,-0.804824948310852,-0.0683765187859535,124.30562591552734,6.275508403778076,98.8093490600586,26.59,2
-0.2661905288696289,-0.8411612510681152,-0.0718689858913421,127.3774642944336,6.277870178222656,98.86331939697266,26.59,2
-0.277183473110199,-0.9148597717285156,-0.074110247194767,109.45832824707033,6.279386043548584,98.89795684814452,26.59,2
-0.3010314404964447,-1.023730754852295,-0.0923418849706649,72.12132263183594,6.280358791351318,98.92018127441406,26.59,2
-0.3219334483146667,-1.1103911399841309,-0.0984441265463829,34.66501998901367,6.280982971191406,98.9344482421875,26.59,2
-0.3633360266685486,-1.0876359939575195,-0.0575780011713504,10.305288314819336,6.281383514404297,98.943603515625,26.59,2
-0.4290902614593506,-0.9162953495979308,0.0190274957567453,-1.7842166423797607,6.28623104095459,98.94947814941406,26.59,2
-0.4544942080974579,-0.8679143190383911,0.0346018485724926,-4.265430927276611,6.289341926574707,98.9532470703125,26.59,2
-0.4036237001419067,-0.9768105149269104,-0.0113811735063791,0.7557030320167542,6.291337966918945,98.9556655883789,26.59,2
-0.3317935168743133,-0.9795205593109132,0.0038917660713195,5.683283805847168,6.292619228363037,98.95721435546876,26.59,2
-0.2689037322998047,-0.942075252532959,0.0248886086046695,3.0990705490112305,6.293441295623779,98.95821380615234,26.59,2
-0.2397402226924896,-0.878860592842102,0.0271676257252693,-6.580715656280518,6.293968677520752,98.95885467529295,26.59,2
-0.2434158623218536,-0.8606841564178467,0.0174346175044775,-20.162004470825195,6.294307231903076,98.95926666259766,26.59,2
-0.296154648065567,-0.8714106678962708,0.0279818568378686,-38.04908752441406,6.294524669647217,98.95952606201172,26.59,2
-0.3132060468196869,-0.8559032678604126,0.0459460169076919,-62.71544647216797,6.296041488647461,98.9596939086914,26.59,2
-0.3017575442790985,-0.8515492677688599,0.0518766082823276,-93.16180419921876,6.2970147132873535,98.95980072021484,26.59,2
-0.3112038969993591,-0.8375595808029175,0.0780736207962036,-119.25305938720705,6.2976393699646,98.95986938476562,26.59,2
-0.334059327840805,-0.8117884993553162,0.1116786748170852,-123.64419555664062,6.29803991317749,98.9599151611328,26.59,2
-0.3487266302108764,-0.8008478283882141,0.1276466846466064,-99.49254608154295,6.29829740524292,98.95994567871094,26.59,2
-0.3693348169326782,-0.8274133801460266,0.1266984939575195,-62.89562225341797,6.298462390899658,98.95996856689452,26.59,2
-0.3825599551200866,-0.878048300743103,0.1204922199249267,-35.508399963378906,6.298568248748779,98.95997619628906,26.59,2
-0.3518626689910888,-0.9497272968292236,0.0717271938920021,-22.128053665161133,6.298636436462402,98.9599838256836,26.59,2
-0.3153696060180664,-1.0405089855194092,0.0236392896622419,-15.364848136901855,6.291335105895996,98.95999145507812,26.61,2
-0.3423304259777069,-1.1939295530319214,-0.0184163115918636,-11.235983848571776,6.286649703979492,98.95999145507812,26.61,2
-0.3652300834655761,-1.1188549995422363,-0.0454051755368709,-9.155945777893066,6.283642768859863,98.95999145507812,26.61,2
-0.3463391363620758,-1.1378498077392578,-0.1019094958901405,-5.6106486320495605,6.281713008880615,98.95999145507812,26.61,2
-0.3342159986495971,-1.2116150856018066,-0.1493662744760513,4.359891414642334,6.280474662780762,98.95999145507812,26.61,2
-0.3320338428020477,-1.2309645414352417,-0.1630279719829559,24.092756271362305,6.279680252075195,98.95999145507812,26.61,2
-0.3082423806190491,-1.114633083343506,-0.1382086127996444,53.920291900634766,6.279170513153076,98.95999145507812,26.61,2
-0.2817788422107696,-0.961609423160553,-0.1054876521229744,85.04918670654297,6.278843402862549,98.95999145507812,26.61,2
-0.2759916186332702,-0.8578099012374878,-0.0732936784625053,99.3797836303711,6.255681037902832,99.15345001220705,26.61,2
-0.2722777128219604,-0.7855995297431946,-0.047035664319992,88.39210510253906,6.240816593170166,99.27760314941406,26.61,2
-0.2586987912654876,-0.7504546046257019,-0.030184781178832,66.12206268310547,6.2312774658203125,99.3572769165039,26.61,2
-0.2387890666723251,-0.7334983944892883,-0.036164179444313,48.78165817260742,6.225155830383301,99.40840911865234,26.61,2
-0.203621044754982,-0.7506057620048523,-0.0344036370515823,34.30746078491211,6.221227169036865,99.44122314453124,26.61,2
-0.1866500079631805,-0.78397536277771,-0.0332738235592842,12.042662620544434,6.218706130981445,99.4622802734375,26.61,2
-0.1981500685214996,-0.8837589025497437,-0.0381465479731559,-16.765783309936523,6.217088222503662,99.47579193115234,26.61,2
-0.2111279219388961,-0.9645875692367554,-0.0412735827267169,-39.14406204223633,6.216050148010254,99.48446655273438,26.61,2
-0.2138585895299911,-1.0332521200180054,-0.0264870095998048,-45.38703536987305,6.209416389465332,99.49002838134766,26.61,2
-0.2100131958723068,-1.0885125398635864,-0.0225956123322248,-39.36936950683594,6.205159187316895,99.49359893798828,26.61,2
-0.2243387699127197,-1.1519644260406494,-0.0312938876450061,-35.9374885559082,6.202426910400391,99.4958953857422,26.61,2
-0.2951076328754425,-1.119913101196289,0.0246995780616998,-46.18455505371094,6.200673580169678,99.49736785888672,26.61,2
-0.3405230045318603,-1.0377689599990845,0.0886218324303627,-66.65734100341797,6.199548721313477,99.4983139038086,26.61,2
-0.2745057940483093,-1.0410312414169312,0.0792634859681129,-86.26214599609375,6.198826789855957,99.49891662597656,26.61,2
-0.2041508853435516,-1.0711137056350708,0.0676600635051727,-100.47345733642578,6.198363304138184,99.49930572509766,26.61,2
-0.1590011566877365,-1.0456366539001465,0.0826047584414482,-108.3108901977539,6.198065757751465,99.4995574951172,26.61,2
-0.1860044002532959,-0.956515908241272,0.0809998512268066,-102.66443634033205,6.208433151245117,99.49971771240234,26.61,2
-0.2201268523931503,-0.8713344931602478,0.0743721425533294,-79.92424011230469,6.215086460113525,99.49981689453124,26.61,2
-0.2756113409996032,-0.7942788600921631,0.0645210817456245,-50.96834564208984,6.219356060028076,99.49988555908205,26.61,2
-0.300022542476654,-0.7560245394706726,0.0637970119714737,-26.75789260864257,6.222095966339111,99.49992370605467,26.61,2
-0.3044926822185516,-0.7370728850364685,0.0689301192760467,-4.611164569854736,6.2238545417785645,99.4999542236328,26.61,2
-0.2849702537059784,-0.7193130254745483,0.0722242519259452,18.96259880065918,6.224982738494873,99.49996948242188,26.61,2
-0.2724418938159942,-0.7079157829284668,0.0743382424116134,37.69495391845703,6.225707054138184,99.4999771118164,26.61,2
-0.303586333990097,-0.7453838586807251,0.0868904292583465,48.05757141113281,6.226171493530273,99.49998474121094,26.61,2
-0.3347685933113098,-0.8421998023986816,0.0781523734331131,56.01176071166992,6.223715305328369,99.49999237060548,26.63,2
-0.3379862606525421,-0.943515121936798,0.0389581471681594,63.90712738037109,6.222139358520508,99.49999237060548,26.63,2
-0.3232578337192535,-1.1484777927398682,-0.0253788735717535,64.477783203125,6.221127986907959,99.49999237060548,26.63,2
-0.3697837293148041,-1.2744132280349731,-0.0386777967214584,54.22524642944336,6.2204790115356445,99.49999237060548,26.63,2
-0.4332280158996582,-1.2096892595291138,-0.0192234087735414,43.49355316162109,6.220062255859375,99.49999237060548,26.63,2
-0.3228029906749725,-1.20173978805542,-0.017934251576662,45.31222915649414,6.219794750213623,99.49999237060548,26.63,2
-0.2463407963514328,-1.2302249670028689,-0.0059113958850502,60.34033584594727,6.21962308883667,99.49999237060548,26.63,2
-0.1804784387350082,-1.2205162048339844,-0.0261846911162138,77.12100219726562,6.219512939453125,99.49999237060548,26.63,2
-0.1494073122739792,-1.1695034503936768,-0.0727815702557563,90.80249786376952,6.224491596221924,99.68628692626952,26.63,2
-0.1294676661491394,-1.0360064506530762,-0.0690981224179267,108.42787170410156,6.227686405181885,99.80583953857422,26.63,2
-0.1110737696290016,-0.9223469495773317,-0.0331476479768753,134.92893981933594,6.229736804962158,99.88256072998048,26.63,2
-0.1104651689529419,-0.8662001490592957,-0.0324678011238575,160.5769805908203,6.231052875518799,99.93180084228516,26.63,2
-0.0988790616393089,-0.8805482983589172,-0.0880092605948448,165.23899841308594,6.231897354125977,99.96339416503906,26.63,2
-0.0858459845185279,-0.8673650026321411,-0.1236525699496269,134.30381774902344,6.232439041137695,99.98367309570312,26.63,2
-0.0942754298448562,-0.8309158682823181,-0.1241353005170822,79.76490020751953,6.232786655426025,99.99668884277344,26.63,2
-0.1276738345623016,-0.8467093706130981,-0.1412384063005447,34.117549896240234,6.2330098152160645,100.00503540039062,26.63,2
-0.1603025645017624,-0.8624424934387207,-0.1466164290904998,12.705373764038086,6.226267337799072,100.0103988647461,26.63,2
-0.1924373507499694,-0.9005279541015625,-0.1444699615240097,-3.1745269298553467,6.221940517425537,100.01383972167967,26.63,2
-0.2130596041679382,-0.9305667877197266,-0.143092468380928,-34.91452407836914,6.21916389465332,100.01604461669922,26.63,2
-0.2150982320308685,-0.9666373133659364,-0.1310129314661026,-79.00008392333984,6.217381954193115,100.01746368408205,26.63,2
-0.2387976050376892,-1.180109620094299,-0.1904342770576477,-107.474365234375,6.216238498687744,100.01837158203124,26.63,2
-0.3155820071697235,-1.261126160621643,-0.2285674661397934,-104.037109375,6.2155046463012695,100.01895141601562,26.63,2
-0.3312711715698242,-1.0948046445846558,-0.129888117313385,-81.33177947998047,6.215033531188965,100.01932525634766,26.63,2
-0.2741662859916687,-1.02725350856781,-0.0497680716216564,-54.62662506103516,6.214731216430664,100.01956939697266,26.63,2
-0.2095307856798172,-1.039880871772766,-0.0319382846355438,-40.9423942565918,6.206274509429932,100.01972198486328,26.63,2
-0.1512581259012222,-1.0199954509735107,-0.0988649949431419,-55.52978515625,6.200847625732422,100.0198211669922,26.63,2
-0.1474487334489822,-0.9792453050613404,-0.1530102491378784,-93.65563201904295,6.197364807128906,100.01988220214844,26.63,2
-0.2009818255901336,-0.874725341796875,-0.0925953984260559,-134.55946350097656,6.195129871368408,100.0199203491211,26.63,2
-0.2409340590238571,-0.7908571362495422,-0.0258357506245374,-166.79208374023438,6.193695545196533,100.01995086669922,26.63,2
-0.2553775608539581,-0.7594264149665833,0.0002134262904291,-192.62887573242188,6.192774772644043,100.01996612548828,26.63,2
-0.2702443301677704,-0.7560493350028992,0.0113325137645006,-213.5550994873047,6.192183971405029,100.0199737548828,26.63,2
-0.2853827476501465,-0.7594798803329468,0.0240658782422542,-215.4448699951172,6.191804885864258,100.01998138427734,26.63,2
-0.2950977087020874,-0.7952680587768555,0.0378351919353008,-186.696533203125,6.187889575958252,100.01998901367188,26.63,2
-0.3069299757480621,-0.8294304013252258,0.0466715469956398,-139.93798828125,6.1853766441345215,100.01998901367188,26.63,2
-0.3257187902927398,-0.9017338156700134,0.0355488881468772,-99.98941040039062,6.183763980865479,100.01998901367188,26.63,2
-0.3377763926982879,-1.0656871795654297,0.0228132307529449,-75.21253204345703,6.182729244232178,100.01998901367188,26.63,2
-0.3623075783252716,-1.2044897079467771,-0.0021531048696488,-57.48503875732422,6.182065010070801,100.01998901367188,26.63,2
-0.3220725357532501,-1.09764301776886,-0.0181750617921352,-38.19464492797852,6.181639194488525,100.01998901367188,26.63,2
-0.2178831696510315,-0.9954883456230164,-0.0060659339651465,-10.352785110473633,6.181365489959717,100.01998901367188,26.63,2
-0.1510204225778579,-1.0474846363067627,0.0184983313083648,30.460912704467773,6.181190013885498,100.01998901367188,26.63,2
-0.1249050870537757,-1.181612849235535,-0.0888887718319892,82.01026916503906,6.180159091949463,100.21344757080078,26.63,2
-0.1249390915036201,-1.1949175596237185,-0.202585831284523,136.89523315429688,6.179497718811035,100.3376007080078,26.63,2
-0.1137653663754463,-1.0803046226501465,-0.1859856694936752,193.98887634277344,6.179073333740234,100.41727447509766,26.63,2
-0.0953991636633873,-0.9955571293830872,-0.1193548962473869,263.70977783203125,6.1788010597229,100.4684066772461,26.63,2
-0.0836127921938896,-0.9635621905326844,-0.0989862009882927,348.85693359375,6.17862606048584,100.501220703125,26.63,2
-0.0816467478871345,-0.9318341016769408,-0.1418924927711486,436.5021667480469,6.178514003753662,100.52227783203124,26.63,2
-0.0803850516676902,-0.8946795463562012,-0.1750250458717346,497.2117309570313,6.178442001342773,100.5357894897461,26.63,2
-0.0851731449365615,-0.8596403002738953,-0.1682987511157989,509.61041259765625,6.178395748138428,100.54446411132812,26.63,2
-0.1050391942262649,-0.8371541500091553,-0.1639821976423263,481.8990478515625,6.176529884338379,100.5500259399414,26.63,2
-0.1401791721582412,-0.8563104867935181,-0.1724076271057129,438.0665588378906,6.175332546234131,100.55359649658205,26.63,2
-0.185121089220047,-0.8909950256347656,-0.1890101283788681,391.8095703125,6.174564361572266,100.55589294433594,26.63,2
-0.2195599973201751,-0.9132535457611084,-0.1940668821334839,343.7351379394531,6.174071311950684,100.55736541748048,26.63,2
-0.2416609078645706,-0.9555266499519348,-0.180518701672554,296.96636962890625,6.173755168914795,100.55831146240234,26.63,2
-0.2446484565734863,-1.0834150314331057,-0.1998131275177002,255.68565368652344,6.1735520362854,100.55891418457033,26.63,2
-0.3193367421627044,-1.1822798252105713,-0.2625751495361328,217.7011566162109,6.173421859741211,100.5593032836914,26.63,2
-0.378462940454483,-0.9714345932006836,-0.1237234249711036,172.15545654296875,6.173337936401367,100.55955505371094,26.63,2
-0.3548312187194824,-0.8249306678771973,0.0437524616718292,107.4450225830078,6.17374324798584,100.5597152709961,26.63,2
-0.2836880087852478,-0.9436283111572266,8.893939957488328e-05,22.69381523132324,6.1740031242370605,100.559814453125,26.63,2
-0.2156412750482559,-1.0421926975250244,-0.1007028594613075,-76.60221862792969,6.174170017242432,100.55988311767578,26.63,2
-0.1439839303493499,-1.0046857595443726,-0.1262008100748062,-181.30935668945312,6.174277305603027,100.55992126464844,26.63,2
-0.1875627636909485,-0.9246382117271424,-0.0529995448887348,-290.4169311523437,6.174345970153809,100.55995178222656,26.63,2
-0.2547135651111603,-0.8340838551521301,0.0275634601712226,-396.1362609863281,6.174389839172363,100.55996704101562,26.63,2
-0.3090026378631592,-0.8151557445526123,0.0176886413246393,-487.2604064941406,6.174417972564697,100.55997467041016,26.63,2
-0.3214511573314667,-0.8198021054267883,0.016949325799942,-561.4661254882812,6.174436092376709,100.55998229980467,26.63,2
-0.3294398784637451,-0.8115882873535156,0.0444637462496757,-634.9210815429688,6.167103290557861,100.55998992919922,26.61,2
-0.3009799420833587,-0.806317150592804,0.1013053357601165,-728.694580078125,6.162397384643555,100.55998992919922,26.61,2
-0.2939115464687347,-0.8141299486160278,0.1377830058336258,-836.3636474609375,6.159377574920654,100.55998992919922,26.61,2
-0.334157645702362,-0.8303393125534058,0.1443989425897598,-939.4330444335938,6.157439708709717,100.55998992919922,26.61,2
-0.365583062171936,-0.863132655620575,0.1374491304159164,-957.1334838867188,6.156196117401123,100.55998992919922,26.61,2
-0.3689567446708679,-0.9345574975013732,0.1105980351567268,-823.7243041992188,6.155397891998291,100.55998992919922,26.61,2
-0.39351287484169,-1.0587626695632937,0.0765732303261756,-598.1100463867188,6.154885768890381,100.55998992919922,26.61,2
-0.4316626787185669,-1.0712971687316897,0.0659336149692535,-351.3422241210937,6.154556751251221,100.55998992919922,26.61,2
-0.4225583970546722,-1.0457544326782229,0.0591057203710079,-128.58045959472656,6.150673389434815,100.73912048339844,26.61,2
-0.4055202305316925,-1.068547010421753,0.0491261966526508,45.016998291015625,6.148180961608887,100.85408020019533,26.61,2
-0.3609994947910309,-1.189531683921814,-0.0020602799486368,157.71873474121094,6.146581649780273,100.92784881591795,26.61,2
-0.3156353235244751,-1.1608150005340576,-0.0684954598546028,224.17237854003903,6.14555549621582,100.97518920898438,26.61,2
-0.269729882478714,-1.069615125656128,-0.0495542176067829,267.0907897949219,6.144896984100342,101.0055694580078,26.61,2
-0.2570637166500091,-0.9495128393173218,0.0353722460567951,315.47320556640625,6.144474029541016,101.02507019042967,26.61,2
-0.265728622674942,-0.8836336135864258,0.0618842951953411,385.7120361328125,6.144202709197998,101.03758239746094,26.61,2
-0.2656914889812469,-0.83575838804245,0.0341160036623477,466.942626953125,6.144028663635254,101.04561614990234,26.61,2
-0.2320810258388519,-0.7994370460510254,0.0274914614856243,526.1544799804688,6.156770706176758,101.05076599121094,26.61,2
-0.2049139887094497,-0.7761280536651611,0.0288379862904548,546.423095703125,6.164947509765625,101.05406951904295,26.61,2
-0.209870845079422,-0.7891585826873779,0.0129087856039404,537.6554565429688,6.17019510269165,101.05619049072266,26.61,2
-0.2242474108934402,-0.8143141269683838,-0.0029114335775375,507.74615478515625,6.173562526702881,101.05755615234376,26.61,2
-0.2446690201759338,-0.8360552787780762,-0.0130639392882585,462.8829345703125,6.175723552703857,101.05843353271484,26.61,2
-0.2745677530765533,-0.9003874659538269,-0.0139814587309956,417.9957885742188,6.17711067199707,101.05899047851562,26.61,2
-0.2993528246879577,-0.9808565974235536,-0.0257658194750547,388.6273498535156,6.178000926971436,101.0593490600586,26.61,2
-0.2872695624828338,-1.105268120765686,-0.0613172128796577,370.2711791992188,6.178572177886963,101.05957794189452,26.61,2
-0.2795152366161346,-1.2298904657363892,-0.1009253785014152,341.8000183105469,6.161494731903076,101.05973052978516,26.61,2
-0.3193211555480957,-1.175519347190857,-0.0759636461734771,289.4084167480469,6.150535583496094,101.05982971191406,26.61,2
-0.3336707353591919,-1.0230737924575806,0.0240219719707965,213.5407867431641,6.143502712249756,101.05989074707033,26.61,2
-0.2813039720058441,-1.0092096328735352,0.0601981170475482,119.96004486083984,6.138988971710205,101.05992889404295,26.61,2
-0.1469380557537078,-1.050692439079285,-0.0061505073681473,11.038976669311523,6.136092662811279,101.05995178222656,26.61,2
-0.0551119670271873,-1.032531499862671,-0.0487292371690273,-108.01680755615234,6.134233951568604,101.05996704101562,26.61,2
-0.0689543336629867,-0.976094663143158,-0.0480649434030056,-218.0531768798828,6.133040904998779,101.05997467041016,26.61,2
-0.1618041843175888,-0.8671056628227234,-0.0028564406093209,-301.8986511230469,6.132275581359863,101.05998229980467,26.61,2
-0.2493787407875061,-0.7915650010108948,0.0373513214290142,-361.6744079589844,6.139588356018066,101.05998992919922,26.61,2
-0.2943834960460663,-0.7654784917831421,0.0519587993621826,-424.8479614257813,6.144280910491943,101.05998992919922,26.61,2
-0.3120694160461426,-0.7599332332611084,0.0725285857915878,-509.54437255859375,6.147292613983154,101.05998992919922,26.61,2
