acc_x,acc_y,acc_z,bvp,eda,hr,temp,label
0.0,0.0,0.0,0.0,0.0,0.0,30.07,0
-0.0260416641831398,-0.0937499925494194,0.1328124850988388,101.74665832519533,0.6957727670669556,11.888333320617676,30.07,0
-0.0693597570061683,-0.2278963327407837,0.3025914430618286,259.43927001953125,1.6291266679763794,27.83609962463379,30.07,0
-0.092088870704174,-0.3595307171344757,0.4203695952892303,391.5272216796875,2.440983772277832,41.70790863037109,30.07,0
-0.1140091866254806,-0.4555651247501373,0.5383242964744568,392.15338134765625,3.0332772731781006,51.82814407348633,30.07,0
-0.1233604401350021,-0.5041152834892273,0.6236743330955505,253.31231689453125,3.4342849254608154,58.679969787597656,30.07,0
-0.1683677434921264,-0.5637365579605103,0.6463577747344971,65.34564208984375,3.6974036693573,63.17575073242188,30.07,0
-0.1807787716388702,-0.5911916494369507,0.6722074151039124,-101.80426025390624,3.867812871932984,66.08744812011719,30.07,0
-0.1775932610034942,-0.5976971387863159,0.7000393271446228,-227.65231323242188,3.872148275375366,67.96308135986328,30.05,0
-0.1811404377222061,-0.6130677461624146,0.7067388296127319,-294.5186462402344,3.874934911727905,69.16863250732422,30.05,0
-0.1890147626399994,-0.6229380369186401,0.7054444551467896,-303.7027282714844,3.8767244815826416,69.94277954101562,30.05,0
-0.1940693855285644,-0.6236766576766968,0.7158080339431763,-278.3753356933594,3.877873182296753,70.43971252441406,30.05,0
-0.2029110640287399,-0.6241507530212402,0.7224595546722412,-239.9517974853516,3.878610372543335,70.75865173339844,30.05,0
-0.2253784388303756,-0.6300526857376099,0.7211306095123291,-186.57879638671875,3.879083395004273,70.96334075927734,30.05,0
-0.2341992408037185,-0.628242552280426,0.720277726650238,-105.39501953125,3.879387140274048,71.09469604492188,30.05,0
-0.2398599684238433,-0.6326786279678345,0.7253281474113464,-2.2726433277130127,3.879581928253174,71.17899322509766,30.05,0
-0.2434927076101303,-0.6411232352256775,0.722971498966217,95.75820922851562,3.922398328781128,71.23309326171875,30.05,0
-0.2402262240648269,-0.6353469491004944,0.7270568609237671,162.46279907226562,3.9498753547668457,71.26781463623047,30.05,0
-0.2493255287408828,-0.6316400766372681,0.7184830904006958,192.3942108154297,3.967508554458618,71.29009246826172,30.05,0
-0.2551649510860443,-0.6292611956596375,0.7073831558227539,194.41326904296875,3.978824615478516,71.30438995361328,30.05,0
-0.2645101249217987,-0.6445279121398926,0.7002598643302917,179.13241577148438,3.98608660697937,71.31356811523438,30.05,0
-0.2369206696748733,-0.6431296467781067,0.7012863159179688,155.8627166748047,3.990746974945069,71.3194580078125,30.05,0
-0.2360086590051651,-0.642232358455658,0.6963472366333008,134.2194061279297,3.9937376976013184,71.32323455810547,30.05,0
-0.2410211563110351,-0.6528520584106445,0.6931776404380798,120.0075454711914,3.995656967163086,71.3256607055664,30.05,0
-0.2498356699943542,-0.6596671938896179,0.6911435723304749,110.7367172241211,3.934458494186402,71.32721710205078,30.05,0
-0.2498945444822311,-0.6584429740905762,0.684240460395813,100.4809799194336,3.895184755325317,71.32821655273438,30.05,0
-0.2555300891399383,-0.6576573252677917,0.6742126941680908,87.3361587524414,3.869981050491333,71.328857421875,30.05,0
-0.2535488903522491,-0.6571531295776367,0.667777419090271,73.5517807006836,3.853806734085083,71.32926940917969,30.05,0
-0.2522774636745453,-0.6512318253517151,0.6468542814254761,60.44966506958008,3.843427181243897,71.32952880859375,30.05,0
-0.2458637654781341,-0.6418340802192688,0.6278292536735535,46.83241653442383,3.836766004562378,71.32969665527344,30.05,0
-0.2417478263378143,-0.641400933265686,0.6044245362281799,31.61993408203125,3.832491397857666,71.32980346679688,30.05,0
-0.2447042316198349,-0.629927396774292,0.5558180809020996,15.45179271697998,3.829748153686523,71.32987213134766,30.05,0
-0.2521992623806,-0.6169665455818176,0.4910386502742767,-0.0828977078199386,3.7953951358795166,79.80987548828125,30.05,0
-0.2738024592399597,-0.5918557047843933,0.3990869522094726,-13.376797676086426,3.773349285125733,85.2518539428711,30.05,0
-0.326850563287735,-0.5981321334838867,0.3344798684120178,-23.882057189941406,3.7592015266418457,88.74420166015625,30.05,0
-0.3496982455253601,-0.6469421982765198,0.3098120987415313,-32.465171813964844,3.750122308731079,90.98538970947266,30.05,0
-0.3643605709075928,-0.7062545418739319,0.3219706118106842,-39.95806884765625,3.744295835494995,92.42365264892578,30.05,0
-0.3793677687644958,-0.7667088508605957,0.3297732472419739,-45.28605270385742,3.740556716918945,93.34664916992188,30.05,0
-0.3666074275970459,-0.8055049777030945,0.3123894333839416,-46.64884567260742,3.738157272338867,93.93897247314452,30.05,0
-0.3528208136558532,-0.8527932167053223,0.3236245810985565,-45.11949920654297,3.73661732673645,94.319091796875,30.05,0
-0.3327777981758117,-0.9503133296966552,0.3420302271842956,-45.01219940185547,3.7259891033172607,94.5630340576172,30.05,0
-0.2863287031650543,-1.0017006397247314,0.325853019952774,-49.48963165283203,3.7191684246063232,94.7195816040039,30.05,0
-0.2397270202636718,-1.0290802717208862,0.3154714107513428,-58.374549865722656,3.7147912979125977,94.8200454711914,30.05,0
-0.2602007091045379,-1.0690419673919678,0.2976135611534118,-72.10851287841797,3.711982488632202,94.88451385498048,30.05,0
-0.2733395397663116,-1.1058826446533203,0.2861534059047699,-95.32413482666016,3.7101798057556152,94.92588806152344,30.05,0
-0.2425868809223175,-1.123927116394043,0.2899945080280304,-134.65933227539062,3.7090229988098153,94.9524383544922,30.05,0
-0.2116560339927673,-1.107518196105957,0.2868617177009582,-192.92300415039065,3.708280563354492,94.96947479248048,30.05,0
-0.2197952717542648,-1.0857923030853271,0.2568624019622803,-261.524658203125,3.7078042030334473,94.98040771484376,30.05,0
-0.2586052119731903,-1.0494587421417236,0.1984261572360992,-319.4496459960937,3.746517419815064,94.9874267578125,30.05,0
-0.2891089618206024,-1.0261420011520386,0.1497295796871185,-347.8130187988281,3.771361351013184,94.99192810058594,30.05,0
-0.3030867576599121,-1.0055809020996094,0.1016855984926223,-344.3905944824219,3.7873048782348633,94.99481964111328,30.05,0
-0.2952635884284973,-0.9923859238624572,0.0708537399768829,-316.897705078125,3.797536373138428,94.99667358398438,30.05,0
-0.2846453487873077,-0.9895159602165222,0.056665401905775,-269.8736267089844,3.8041024208068848,94.99786376953124,30.05,0
-0.2610378563404083,-0.9820764064788818,0.0419623665511608,-208.15171813964844,3.808316230773926,94.99862670898438,30.05,0
-0.2402901351451873,-0.9661065936088562,0.0325268059968948,-143.4497833251953,3.811020374298096,94.99911499023438,30.05,0
-0.2157799005508422,-0.9446625113487244,0.0208738315850496,-86.81291961669922,3.812755584716797,94.99943542480467,30.05,0
-0.2112461924552917,-0.9253031611442566,0.0189933981746435,-40.6826286315918,3.764751434326172,94.99964141845705,30.05,0
-0.2139344811439514,-0.9072816967964172,0.0177866443991661,-3.2616844177246094,3.73394513130188,94.99977111816406,30.05,0
-0.2268552333116531,-0.9013143181800842,0.0114144450053572,22.89888572692871,3.714175224304199,94.9998550415039,30.05,0
-0.240744799375534,-0.8974847793579102,0.0129229081794619,29.22969627380371,3.701488256454468,94.99990844726562,30.05,0
-0.2440605461597442,-0.895027220249176,0.0250865016132593,10.159754753112791,3.693346500396729,94.99993896484376,30.05,0
-0.2405906319618225,-0.8934500813484192,0.0328923948109149,-26.53289604187012,3.6881215572357178,94.99996185302734,30.05,0
-0.2383638322353363,-0.8924379944801331,0.043499544262886,-63.99843215942383,3.6847684383392334,94.9999771118164,30.05,0
-0.2369347959756851,-0.908581793308258,0.0559043772518634,-90.42765808105467,3.682616472244263,94.99998474121094,30.05,0
-0.2416155040264129,-0.9301375150680542,0.0638650804758071,-102.86720275878906,3.682153463363648,95.93145751953124,30.05,0
-0.2278259843587875,-0.9607640504837036,0.0745715796947479,-101.49607849121094,3.681856393814087,96.52922821044922,30.05,0
-0.2357699871063232,-1.0140050649642944,0.0646490678191185,-88.8187484741211,3.6816656589508057,96.912841796875,30.05,0
-0.2688568830490112,-1.048172116279602,0.0470858253538608,-70.96363830566406,3.681543350219727,97.15901947021484,30.05,0
-0.2956879138946533,-1.0645006895065308,0.0302169732749462,-53.09244918823242,3.681464672088623,97.31700134277344,30.05,0
-0.2905154228210449,-1.0693817138671875,0.013793739490211,-36.05642318725586,3.6814143657684326,97.41838836669922,30.05,0
-0.2648049294948578,-1.0781118869781494,-0.0023435212206095,-19.864463806152344,3.681381940841675,97.48345184326172,30.05,0
-0.2706964910030365,-1.0557254552841189,-0.0126994857564568,-7.230702400207519,3.681361198425293,97.52520751953124,30.05,0
-0.2744773626327514,-1.0301636457443235,-0.019345348700881,-1.8100136518478396,3.678593873977661,97.552001953125,30.05,0
-0.2936970293521881,-1.0025639533996582,-0.0348058268427848,-4.955510139465332,3.6768178939819336,97.56919860839844,30.05,0
-0.3060311079025268,-0.9848520755767822,-0.044727474451065,-14.959670066833496,3.675678253173828,97.58023071289062,30.05,0
-0.3307397365570068,-0.990278959274292,-0.0566923916339874,-28.208152770996094,3.674947023391724,97.58731079101562,30.05,0
-0.3465963006019592,-0.9937615990638732,-0.0587730109691619,-40.44689178466797,3.6744775772094727,97.59185791015624,30.05,0
-0.3511743545532226,-0.9848009943962096,-0.0545104593038558,-47.17250061035156,3.6741764545440674,97.5947723388672,30.05,0
-0.3485145270824432,-0.956659495830536,-0.0461772233247756,-45.04713821411133,3.673983097076416,97.59664154052734,30.05,0
-0.346807599067688,-0.9274043440818788,-0.0352316573262214,-36.97661972045898,3.673859119415283,97.59784698486328,30.05,0
-0.3625055253505707,-0.9142278432846068,-0.0226096492260694,-34.65632247924805,3.676992654800415,97.59861755371094,30.05,0
-0.3669817745685577,-0.9001742005348206,-0.0145095717161893,-49.09542083740234,3.6790037155151367,97.59911346435548,30.05,0
-0.3642565906047821,-0.8911553621292114,-0.0093114078044891,-78.15174865722656,3.6802942752838135,97.59943389892578,30.05,0
-0.3681055009365082,-0.8853675723075867,-0.000377751130145,-108.54927825927734,3.681122541427612,97.59963989257812,30.05,0
-0.3649777472019195,-0.8816533088684082,0.0053553557954728,-128.46148681640625,3.6816539764404297,97.59976959228516,30.05,0
-0.3517749607563019,-0.8736719489097595,0.0146323079243302,-134.52267456054688,3.681995153427124,97.599853515625,30.05,0
-0.3377044200897217,-0.8685499429702759,0.0205857213586568,-130.70626831054688,3.6822140216827393,97.59990692138672,30.05,0
-0.3342725336551666,-0.8708606958389282,0.0244062803685665,-124.1371612548828,3.68235445022583,97.59993743896484,30.05,0
-0.3320701420307159,-0.8779414296150208,0.0268580950796604,-119.44500732421876,3.684739828109741,97.59996032714844,30.05,0
-0.3250589966773987,-0.893680989742279,0.0228337533771991,-115.64568328857422,3.686270713806152,97.5999755859375,30.05,0
-0.2981685400009155,-0.9037817120552064,0.0202511623501777,-109.4959487915039,3.68725323677063,97.59998321533205,30.05,0
-0.2697162330150604,-0.9158615469932556,0.0073982561007142,-100.48005676269533,3.6878836154937744,97.59999084472656,30.05,0
-0.2458594143390655,-0.9348092079162598,-0.0064477734267711,-91.35521697998048,3.6882882118225098,97.59999084472656,30.05,0
-0.236147254705429,-0.9469687342643738,-0.0209311321377754,-84.95486450195312,3.688547849655152,97.59999084472656,30.05,0
-0.2467078864574432,-0.9379786849021912,-0.0246279444545507,-81.1985855102539,3.688714504241944,97.59999084472656,30.05,0
-0.2758761942386627,-0.8818294405937195,-0.0158047974109649,-76.4700927734375,3.68882155418396,97.59999084472656,30.05,0
-0.2945947349071502,-0.862589418888092,-0.0213381573557853,-66.22389221191406,3.698529720306397,94.69810485839844,30.05,0
-0.3010094463825226,-0.8726333975791931,-0.0248891506344079,-48.7681884765625,3.7047598361968994,92.83584594726562,30.05,0
-0.2827349305152893,-0.9294589757919312,-0.027167972177267,-26.019481658935547,3.7087581157684326,91.64075469970705,30.05,0
-0.2598118484020233,-0.9939152598381042,-0.0230326149612665,-1.1995841264724731,3.711323976516724,90.87380981445312,30.05,0
-0.2506988942623138,-1.0296818017959597,0.0076100905425846,23.022062301635746,3.712970495223999,90.38162994384766,30.05,0
-0.2504485249519348,-1.019048094749451,0.0328725911676883,44.62425231933594,3.714027166366577,90.06578063964844,30.05,0
-0.2502878308296203,-1.0066262483596802,0.0434868335723876,61.92656707763672,3.714705228805542,89.86308288574219,30.05,0
-0.2445869445800781,-1.004252314567566,0.0391028970479965,73.73238372802734,3.7151403427124015,89.7330093383789,30.05,0
-0.240928441286087,-1.0083266496658323,0.0306917633861303,79.50305938720703,3.721846580505371,89.64952850341797,30.03,0
-0.2441783994436264,-1.0053435564041138,0.0308917555958032,79.4518051147461,3.7261500358581534,89.59596252441406,30.03,0
-0.2462640255689621,-0.9866358637809752,0.0310200992971658,74.44988250732422,3.728911876678467,89.56158447265625,30.03,0
-0.2532002329826355,-0.96903258562088,0.0311024636030197,65.19255065917969,3.730684280395508,89.53952026367188,30.03,0
-0.2632492780685425,-0.9409424662590028,0.0311553198844194,51.73190307617188,3.731821775436402,89.52536010742188,30.03,0
-0.2696981728076935,-0.9173181056976318,0.031189240515232,35.308692932128906,3.7325515747070312,89.51627349853516,30.03,0
-0.2682389318943023,-0.9189506769180298,0.0256132334470748,20.230100631713867,3.733020067214966,89.51044464111328,30.03,0
-0.272900253534317,-0.9479871988296508,0.0276326481252908,10.832968711853027,3.733320713043213,89.50670623779297,30.03,0
-0.2702938318252563,-0.972218930721283,0.0289285909384489,5.680161476135254,3.7422354221344,89.50430297851562,30.03,0
-0.2518278658390045,-1.0045628547668457,0.0129669290035963,-3.588020086288452,3.747956275939941,89.50276184082031,30.03,0
-0.2399774640798568,-1.047710418701172,-0.0028741208370774,-25.03402709960937,3.7516276836395264,89.50177001953125,30.03,0
-0.2491658926010131,-1.1313776969909668,-0.0298333168029785,-56.12575912475586,3.753983736038208,89.50113677978516,30.03,0
-0.2886491417884826,-1.1570817232131958,-0.052731953561306,-83.14347839355469,3.75549578666687,89.500732421875,30.03,0
-0.3195849955081939,-1.1343926191329956,-0.0618292056024074,-93.33824157714844,3.7564659118652335,89.50047302246094,30.03,0
-0.3226445019245147,-1.0414632558822632,-0.0676672980189323,-84.33586120605469,3.757088661193848,89.50030517578125,30.03,0
-0.3134123682975769,-0.965033233165741,-0.0714138522744178,-61.011192321777344,3.757488250732422,89.50019836425781,30.03,0
-0.301889955997467,-1.0055491924285889,-0.0794159471988678,-30.010740280151367,3.77013897895813,89.50012969970703,30.03,0
-0.3056910932064056,-1.042745590209961,-0.0957467779517173,1.4122952222824097,3.778257369995117,89.50008392333984,30.03,0
-0.2969348728656769,-1.044224977493286,-0.1062269657850265,28.083749771118164,3.783467292785645,89.50005340576172,30.03,0
-0.2969134151935577,-1.022783279418945,-0.1129525452852249,50.19048309326172,3.786810874938965,89.50003051757812,30.03,0
-0.3024974167346954,-1.0034254789352417,-0.111670859158039,70.42111206054688,3.7889564037323,89.5000228881836,30.03,0
-0.3060809075832367,-0.979807198047638,-0.1052505746483802,88.5413818359375,3.7903332710266113,89.50001525878906,30.03,0
-0.3251739144325256,-0.959052562713623,-0.0955326333642005,101.37008666992188,3.791217088699341,89.50000762939453,30.03,0
-0.3430244922637939,-0.940135657787323,-0.0892962142825126,106.81915283203124,3.791784048080444,89.50000762939453,30.03,0
-0.343284398317337,-0.9112025499343872,-0.0852940455079078,106.25698852539062,3.801329135894776,87.47943115234375,30.03,0
-0.3378534317016601,-0.892634928226471,-0.0827256813645362,102.44620513916016,3.8074545860290527,86.1827392578125,30.03,0
-0.3231725990772247,-0.8695237636566162,-0.0642841309309005,94.17539978027344,3.8113856315612793,85.35060119628906,30.03,0
-0.3137512803077698,-0.8434967994689941,-0.0524494051933288,74.44422149658203,3.813908338546753,84.81658172607422,30.03,0
-0.313302993774414,-0.8379897475242615,-0.0448545590043067,38.93938446044922,3.815527200698853,84.473876953125,30.03,0
-0.3130153119564056,-0.8512489795684814,-0.039980623871088,-3.675132751464844,3.816565990447998,84.25395202636719,30.03,0
-0.3128306865692138,-0.8653557300567627,-0.0368528105318546,-35.769588470458984,3.817232847213745,84.1128158569336,30.03,0
-0.3127122223377228,-0.863213062286377,-0.0292477868497371,-46.76824188232422,3.817660808563232,84.0222396850586,30.03,0
-0.2958428561687469,-0.8730335831642151,-0.0299650952219963,-41.889404296875,3.816558122634888,83.96411895751953,30.03,0
-0.2850170731544494,-0.8961291909217834,-0.0360231958329677,-34.720882415771484,3.815850496292114,83.92681884765625,30.03,0
-0.2948630452156067,-0.8885595202445984,-0.0063242889009416,-33.298282623291016,3.815396547317505,83.90287780761719,30.03,0
-0.2955838441848755,-0.8669083714485168,0.0239303074777126,-33.47444534301758,3.8151051998138423,83.88751983642578,30.03,0
-0.2736553251743316,-0.869807243347168,0.0321504175662994,-25.039470672607425,3.814918041229248,83.8776626586914,30.03,0
-0.2539850771427154,-0.916449785232544,0.0206322874873876,-3.6982576847076416,3.81479811668396,83.871337890625,30.03,0
-0.2413618415594101,-0.9575778245925904,0.0132406149059534,24.173555374145508,3.81472110748291,83.86727905273438,30.03,0
-0.2444565296173095,-0.9951670169830322,0.0252903886139392,48.21136474609375,3.814671754837036,83.86466979980469,30.03,0
-0.252040296792984,-1.0024962425231934,0.04421878606081,62.47669219970703,3.8114266395568848,83.86299896240234,30.03,0
-0.251309335231781,-0.984808623790741,0.0619637183845043,67.62962341308594,3.809344291687012,83.86192321777344,30.03,0
-0.239644706249237,-0.9734577536582948,0.0621558465063571,68.94097900390625,3.808007955551148,83.86123657226562,30.03,0
-0.2321590185165405,-0.9661734104156494,0.0566813684999942,71.60606384277344,3.807150363922119,83.86079406738281,30.03,0
-0.2329529076814651,-0.9782920479774476,0.0531681627035141,75.35485076904297,3.8065998554229736,83.86051177978516,30.03,0
-0.2390601634979248,-0.9860690832138062,0.0509135909378528,75.7758560180664,3.806246757507324,83.8603286743164,30.03,0
-0.2485772222280502,-0.9854621887207032,0.0550645105540752,72.0371322631836,3.806020021438599,83.86021423339844,30.03,0
-0.2602824866771698,-0.9738771319389344,0.0465327836573123,68.13673400878906,3.8058745861053462,83.86013793945312,30.03,0
-0.2733920216560364,-0.9608447551727296,0.0410576090216636,64.44068908691406,3.81037163734436,83.86009216308594,30.03,0
-0.2874027490615845,-0.9804701805114746,0.0375439599156379,52.5964469909668,3.8132574558258057,83.86006164550781,30.03,0
-0.296394020318985,-1.015455722808838,0.0352891013026237,22.70829200744629,3.8151094913482666,83.86003875732422,30.03,0
-0.3021641075611114,-1.0211141109466553,0.0338420644402504,-23.499155044555664,3.816298007965088,83.86002349853516,30.03,0
-0.2834759354591369,-1.0527342557907104,0.0161201152950525,-68.278076171875,3.817060708999634,83.86001586914062,30.03,0
-0.2770807147026062,-1.1066129207611084,0.0047471881844103,-90.58387756347656,3.817550182342529,83.8600082397461,30.03,0
-0.3065632581710815,-1.14678692817688,0.0030464720912277,-85.03665924072266,3.817864418029785,83.8600082397461,30.03,0
-0.342276781797409,-1.1221883296966553,0.001955050509423,-66.0287094116211,3.818065881729126,83.8600082397461,30.03,0
-0.3204134702682495,-1.0672179460525513,-0.0323320068418979,-53.26803588867188,3.8145227432250977,83.46234130859375,30.03,0
-0.300785094499588,-1.082321047782898,-0.0487376935780048,-55.43619918823242,3.812248945236206,83.20713806152344,30.03,0
-0.2937864959239959,-1.1032088994979858,-0.0536681450903415,-65.76254272460938,3.810789823532105,83.04336547851562,30.03,0
-0.2948929667472839,-1.0718313455581665,-0.0624299980700016,-70.20761108398438,3.8098533153533936,82.93826293945312,30.03,0
-0.2900052666664123,-1.0460972785949707,-0.0736506283283233,-59.930057525634766,3.8092525005340576,82.87081909179688,30.03,0
-0.2756730914115906,-1.0183870792388916,-0.0752536058425903,-37.40280151367188,3.8088667392730713,82.8275375366211,30.03,0
-0.2552799582481384,-0.9894086718559264,-0.0762823075056076,-11.650245666503906,3.808619260787964,82.79975891113281,30.03,0
-0.2421928197145462,-0.9596164226531982,-0.076942466199398,11.013216018676758,3.808460474014282,82.78192901611328,30.03,0
-0.2561853528022766,-0.9348997473716736,-0.0773661211133003,30.415292739868164,3.805145263671875,82.77049255371094,30.05,0
-0.2707627117633819,-0.9134402275085448,-0.077637992799282,48.13281631469727,3.803017854690552,82.76315307617188,30.05,0
-0.2689220905303955,-0.8772776126861572,-0.0778124704957008,62.77737808227539,3.801652669906616,82.75843811035156,30.05,0
-0.2677408754825592,-0.8484727740287781,-0.0779244378209114,71.3550033569336,3.800776481628418,82.75541687011719,30.05,0
-0.2669828534126282,-0.8243896961212158,-0.0723985135555267,73.61023712158203,3.800214290618897,82.75347900390625,30.05,0
-0.2664963901042938,-0.8033367991447449,-0.0688522979617118,72.50672149658203,3.7998533248901367,82.75223541259766,30.05,0
-0.2605864405632019,-0.7954240441322327,-0.0665765404701232,69.49494934082031,3.799621820449829,82.75143432617188,30.05,0
-0.2567937672138214,-0.8351283073425293,-0.0651160925626754,60.60480499267578,3.799473285675049,82.75092315673828,30.05,0
-0.2599576115608215,-0.8774015307426453,-0.0585810840129852,41.98802185058594,3.7879018783569336,82.75059509277344,30.05,0
-0.2507924437522888,-0.915725588798523,-0.0599850639700889,20.22100067138672,3.780475854873657,82.75038146972656,30.05,0
-0.2393129914999008,-0.9851019382476808,-0.0720816105604171,8.90328598022461,3.775710344314575,82.750244140625,30.05,0
-0.243141695857048,-1.0016348361968994,-0.0686489269137382,11.488728523254396,3.77265214920044,82.75016021728516,30.05,0
-0.256794273853302,-0.9786580204963684,-0.0440549291670322,16.443885803222656,3.7706894874572754,82.7500991821289,30.05,0
-0.2767512798309326,-0.991901695728302,-0.0282719172537326,12.974560737609863,3.769429922103882,82.75006103515625,30.05,0
-0.28396075963974,-1.0171940326690674,-0.0181432887911796,4.260102272033691,3.768621683120728,82.75003814697266,30.05,0
-0.2717940509319305,-1.0446207523345947,-0.0116433184593915,2.103354930877685,3.7681031227111816,82.7500228881836,30.05,0
-0.247192844748497,-1.056623935699463,-0.0018742372049018,12.75314998626709,3.7622616291046143,82.75001525878906,30.05,0
-0.2090141028165817,-1.0307402610778809,0.0155905457213521,31.1198844909668,3.7585129737854,82.75000762939453,30.05,0
-0.2013065069913864,-0.9917384386062622,0.0267984382808208,48.115665435791016,3.7561073303222656,82.75000762939453,30.05,0
-0.2019580006599426,-0.966709315776825,0.0339910201728343,60.04361343383789,3.754563331604004,82.75000762939453,30.05,0
-0.2247671782970428,-0.9394515156745912,0.0386068038642406,68.29657745361328,3.753572702407837,82.75000762939453,30.05,0
-0.2450025826692581,-0.9219590425491332,0.0359711721539497,73.74331665039062,3.752936840057373,82.75000762939453,30.05,0
-0.2579884827136993,-0.9051356315612792,0.0286820027977228,76.30008697509766,3.7525289058685294,82.75000762939453,30.05,0
-0.2663221061229706,-0.899937093257904,0.0296020079404115,77.2780990600586,3.7522671222686768,82.75000762939453,30.05,0
-0.2772679030895233,-0.8966009616851807,0.0357901863753795,78.41087341308594,3.7539350986480713,82.44190216064453,30.05,0
-0.2786945104598999,-0.9112533330917358,0.0341636314988136,80.54935455322266,3.755005598068237,82.24417877197266,30.05,0
-0.2740122675895691,-0.9374496936798096,0.0331198014318943,84.07483673095703,3.755692481994629,82.11729431152344,30.05,0
-0.2710074782371521,-0.9990432262420654,0.0268521569669246,87.0681381225586,3.756133317947388,82.0358657836914,30.05,0
-0.2634813785552978,-1.04416823387146,0.0060366196557879,84.7508773803711,3.756416320800781,81.98360443115234,30.05,0
-0.2586515843868255,-1.089920163154602,-0.0129193682223558,76.75067138671875,3.7565977573394775,81.9500732421875,30.05,0
-0.2947365045547485,-1.1416722536087036,-0.0250842310488224,70.40210723876953,3.756714344024658,81.92855072021484,30.05,0
-0.3458825945854187,-1.1804814338684082,-0.021695390343666,69.84246826171875,3.756788969039917,81.91474151611328,30.05,0
-0.367509663105011,-1.1102248430252075,-0.025118401274085,68.79905700683594,3.756836891174317,81.90587615966797,30.03,0
-0.3366064727306366,-1.07633376121521,-0.0441084168851375,60.0650749206543,3.756867647171021,81.90018463134766,30.03,0
-0.3055790364742279,-1.0881710052490234,-0.0506973415613174,43.28963851928711,3.756887435913086,81.89653778076172,30.03,0
-0.2968629896640777,-1.106963038444519,-0.0549257323145866,20.88075828552246,3.7569000720977774,81.89419555664062,30.03,0
-0.2968672811985016,-1.096631646156311,-0.0632370486855506,-4.23336935043335,3.756908178329468,81.89269256591797,30.03,0
-0.2912722826004028,-1.0508171319961548,-0.0741685405373573,-27.26453971862793,3.756913423538208,81.89173126220703,30.03,0
-0.2820839583873749,-1.0102204084396362,-0.0867815241217613,-45.46239471435547,3.756916761398315,81.89111328125,30.03,0
-0.2817851901054382,-0.9729722142219543,-0.0892780348658561,-59.52672958374024,3.7569189071655273,81.89071655273438,30.03,0
-0.2927890121936798,-0.9490684866905212,-0.085282377898693,-68.37328338623047,3.75278902053833,81.89045715332031,30.03,0
-0.2942528426647186,-0.9225329160690308,-0.0827181935310363,-69.65108489990234,3.750138521194458,81.89029693603516,30.03,0
-0.2839967012405395,-0.89430832862854,-0.0810726508498191,-65.27278900146484,3.748437643051148,81.89019012451172,30.03,0
-0.2774148881435394,-0.8705976605415344,-0.0800166353583335,-59.00228118896485,3.747346162796021,81.89012145996094,30.03,0
-0.2787888348102569,-0.849783718585968,-0.0737411677837371,-51.24518585205078,3.74664568901062,81.89007568359375,30.03,0
-0.2796705663204193,-0.8252310156822205,-0.0697139352560043,-42.11850738525391,3.7461960315704346,81.89004516601562,30.03,0
-0.2802364230155945,-0.815072238445282,-0.0615317150950431,-35.000465393066406,3.7459075450897217,81.89002990722656,30.03,0
-0.2750017642974853,-0.802955150604248,-0.0562808364629745,-33.96134948730469,3.745722532272339,81.89002227783203,30.03,0
-0.2772402465343475,-0.8175702095031738,-0.0473133511841297,-42.80266189575195,3.7364227771759033,81.8900146484375,30.03,0
-0.28427454829216,-0.838144838809967,-0.0415585339069366,-63.88158416748047,3.730454683303833,81.89000701904297,30.03,0
-0.2831909954547882,-0.890532910823822,-0.0434631966054439,-90.1627960205078,3.7266247272491455,81.89000701904297,30.03,0
-0.2768978476524353,-0.9577391743659972,-0.0502832755446434,-103.63585662841795,3.724166870117188,81.89000701904297,30.03,0
-0.2784570455551147,-0.97847718000412,-0.0322689116001129,-91.216552734375,3.722589492797852,81.89000701904297,30.03,0
-0.2850554287433624,-0.9302101731300354,0.0072805420495569,-59.42959213256836,3.7215771675109854,81.89000701904297,30.03,0
-0.2836920917034149,-0.9104307293891908,0.0326611027121543,-26.444963455200195,3.720927476882935,81.89000701904297,30.03,0
-0.2660238742828369,-0.959312915802002,0.0265577901154756,-2.0207667350769043,3.720510721206665,81.89000701904297,30.03,0
-0.2434898763895034,-1.0130738019943235,0.0114454869180917,18.521997451782227,3.721161365509033,81.64280700683594,30.03,0
-0.2290288507938385,-1.0643677711486816,0.0185406040400266,41.94057846069336,3.721579074859619,81.48416900634766,30.03,0
-0.2365419268608093,-1.046905279159546,0.0454849377274513,66.73538208007812,3.721847057342529,81.38236236572266,30.03,0
-0.246961161494255,-1.018905520439148,0.0627762600779533,87.36192321777344,3.7220189571380615,81.31703186035156,30.03,0
-0.2536476254463196,-0.9897413849830629,0.0626772865653038,100.84246826171876,3.7221293449401855,81.27510070800781,30.03,0
-0.2579386234283447,-0.9766232967376708,0.062613770365715,105.82494354248048,3.7222001552581783,81.2481918334961,30.03,0
-0.2662900984287262,-0.9682048559188844,0.0569752380251884,102.68841552734376,3.722245693206787,81.23092651367188,30.03,0
-0.2716495990753174,-0.9628024101257324,0.0533567517995834,97.05001068115234,3.7222747802734375,81.2198486328125,30.03,0
-0.2750890254974365,-0.9593353867530824,0.0510346144437789,96.20809936523438,3.7204573154449454,81.21273803710938,30.05,0
-0.2940895557403564,-0.9515126943588256,0.0495444014668464,100.96286010742188,3.719290971755981,81.20817565917969,30.05,0
-0.3062829971313476,-0.9352970123291016,0.0485880672931671,105.52603912353516,3.7185425758361816,81.20524597167969,30.05,0
-0.3141080737113952,-0.91929292678833,0.0423765741288661,104.0048599243164,3.718062400817871,81.203369140625,30.05,0
-0.3079341948032379,-0.9482068419456482,0.0439881682395935,93.87159729003906,3.7177541255950928,81.20216369628906,30.05,0
-0.2983743846416473,-0.9779576659202576,0.0450223982334136,77.03292083740234,3.7175562381744394,81.20138549804688,30.05,0
-0.2754461169242859,-1.008245587348938,0.0232950095087289,60.01822280883789,3.717429399490357,81.20088958740234,30.05,0
-0.2551343142986297,-1.033280372619629,-0.0018439263803884,48.67284393310547,3.717347860336304,81.20056915283203,30.05,0
-0.2644904553890228,-1.1221174001693726,-0.029172196984291,41.710880279541016,3.712705373764038,81.20036315917969,30.05,0
-0.3376679718494415,-1.1287479400634766,-0.0243188105523586,32.005367279052734,3.709726095199585,81.20023345947266,30.05,0
-0.3846291005611419,-1.08262300491333,-0.0268019624054431,12.499903678894045,3.7078139781951904,81.20014953613281,30.05,0
-0.3699838519096374,-1.0530227422714231,-0.0731777027249336,-18.92999839782715,3.706587076187134,81.2000961303711,30.05,0
-0.3381942808628082,-1.0620157718658447,-0.1029389798641204,-55.98457717895508,3.705799579620361,81.20005798339844,30.05,0
-0.3065980076789856,-1.1069715023040771,-0.0996469557285308,-86.67127990722656,3.705294370651245,81.20003509521484,30.05,0
-0.2695280313491821,-1.0966370105743408,-0.0975343286991119,-103.20799255371094,3.704970121383667,81.20001983642578,30.05,0
-0.2513364255428314,-1.0564182996749878,-0.1017763391137123,-107.4433135986328,3.7047619819641113,81.20001220703125,30.05,0
-0.2508576512336731,-1.030608296394348,-0.0989008396863937,-106.21330261230467,3.706923246383667,81.20000457763672,30.05,0
-0.2505503892898559,-1.0140448808670044,-0.09705550968647,-104.4530792236328,3.70831036567688,81.20000457763672,30.05,0
-0.2559509873390198,-0.9810243248939514,-0.0958712846040725,-101.85460662841795,3.709200382232666,81.20000457763672,30.05,0
-0.259416788816452,-0.9598336219787598,-0.0895135402679443,-95.03531646728516,3.709771633148194,81.20000457763672,30.05,0
-0.2616409361362457,-0.9350391030311584,-0.0854335129261016,-83.64440155029297,3.710138320922852,81.20000457763672,30.05,0
-0.2574704885482788,-0.885540783405304,-0.0772174075245857,-71.5623779296875,3.710373640060425,81.20000457763672,30.05,0
-0.260391891002655,-0.8425800204277039,-0.0663470104336738,-60.52002716064453,3.710524559020996,81.20000457763672,30.05,0
-0.2846577763557434,-0.8150103092193604,-0.0425776913762092,-47.78037643432617,3.7106213569641113,81.20000457763672,30.05,0
-0.2946324646472931,-0.797317624092102,-0.0385194607079029,-33.797447204589844,3.7051749229431152,80.99938201904297,30.05,0
-0.3010336458683014,-0.7915613055229187,-0.035915121436119,-28.073406219482425,3.7016797065734863,80.8706283569336,30.05,0
-0.3051415681838989,-0.8102583289146423,-0.0286460313946008,-39.39670944213867,3.699436902999878,80.78800201416016,30.05,0
-0.3133755624294281,-0.8222569823265076,-0.0183833744376897,-58.14192581176758,3.697997570037842,80.73497772216797,30.05,0
-0.3354529738426208,-0.8299570083618164,-0.0006018420681357,-57.97285461425781,3.6970736980438232,80.7009506225586,30.05,0
-0.3384254574775696,-0.8740828633308411,-0.0003862275916617,-24.918989181518555,3.6964809894561768,80.67911529541016,30.05,0
-0.3291374742984772,-0.930389165878296,-0.0114434072747826,21.715036392211918,3.69610047340393,80.66510009765625,30.05,0
-0.3119814097881317,-0.9553277492523192,-0.0017459460068494,49.84003448486328,3.69585633277893,80.6561050415039,30.05,0
-0.300971657037735,-0.9489408135414124,0.043661743402481,51.935829162597656,3.6846823692321777,80.65033721923828,30.03,0
-0.2939062118530273,-0.9448420405387878,0.067204013466835,48.734500885009766,3.677511692047119,80.64663696289062,30.03,0
-0.278176486492157,-0.9869939088821412,0.0543232150375843,58.7999267578125,3.67290997505188,80.64425659179688,30.03,0
-0.2680820524692535,-1.036435604095459,0.0404592864215374,79.74010467529297,3.669956922531128,80.64273071289062,30.03,0
-0.2616040110588074,-1.0569689273834229,0.0427577644586563,99.65560913085938,3.6680617332458496,80.64175415039062,30.03,0
-0.2574467957019806,-1.0477548837661743,0.0554283447563648,111.60507202148438,3.666845560073853,80.64112854003906,30.03,0
-0.2491811513900756,-1.0194507837295532,0.0635595917701721,113.22257995605467,3.666064977645874,80.6407241821289,30.03,0
-0.2438767403364181,-1.0068845748901367,0.0631799846887588,104.63422393798828,3.6655640602111816,80.64046478271484,30.03,0
-0.240472674369812,-0.9932225942611694,0.0629363730549812,91.52764892578124,3.673046588897705,80.64029693603516,30.03,0
-0.2494836896657943,-0.9732595682144164,0.0571822635829448,82.43949890136719,3.6778485774993896,80.64019012451172,30.03,0
-0.2608641982078552,-0.9548506736755372,0.0534896068274974,80.20773315429688,3.680930137634277,80.64012145996094,30.03,0
-0.262569785118103,-0.9430369138717652,0.0511198751628398,81.41229248046875,3.6829075813293457,80.64007568359375,30.03,0
-0.2692621052265167,-0.9298577308654784,0.0384035669267177,83.61833953857422,3.6841766834259033,80.64004516601562,30.03,0
-0.2791546285152435,-0.9269978404045104,0.024645198136568,84.74386596679688,3.684991121292114,80.64002990722656,30.03,0
-0.2631119787693023,-0.9251625537872314,0.0214136447757482,76.0009994506836,3.685513734817505,80.64002227783203,30.03,0
-0.2528167366981506,-0.9183869957923888,0.0193398185074329,50.184600830078125,3.685849189758301,80.6400146484375,30.03,0
-0.2518076300621032,-0.919636607170105,0.0180089566856622,18.90706825256348,3.684687376022339,80.64000701904297,30.03,0
-0.2623555958271026,-0.9316340684890748,0.0171548854559659,2.91191840171814,3.683941602706909,80.64000701904297,30.03,0
-0.2635268867015838,-0.944931149482727,0.0054112430661916,4.014664173126221,3.683463096618652,80.64000701904297,30.03,0
-0.2474852353334427,-0.9870510697364808,-0.0189184732735157,5.603656768798828,3.6831560134887695,80.64000701904297,30.03,0
-0.2371906191110611,-1.0476678609848022,-0.0457274354994297,-3.092564344406128,3.682958841323853,80.64000701904297,30.03,0
-0.2809641063213348,-1.1257526874542236,-0.051736332476139,-21.04393196105957,3.6828324794769287,80.64000701904297,30.03,0
-0.3090553879737854,-1.05830979347229,-0.044396948069334,-44.279109954833984,3.682751417160034,80.64000701904297,30.03,0
-0.3102894425392151,-1.0038331747055054,-0.0620780512690544,-66.26211547851562,3.682699203491211,80.64000701904297,30.03,0
-0.2830925285816192,-1.013655424118042,-0.0734247639775276,-79.60645294189453,3.684501886367798,80.47162628173828,30.03,0
-0.2544435560703277,-1.0367521047592163,-0.0751086622476577,-85.10697937011719,3.685658693313599,80.36356353759766,30.03,0
-0.224862739443779,-1.0459765195846558,-0.0929826125502586,-91.58535766601562,3.686401128768921,80.29421997070312,30.03,0
-0.2170750349760055,-1.012711763381958,-0.0988553091883659,-105.14348602294922,3.686877489089966,80.24971771240234,30.03,0
-0.2176751047372818,-0.9801688194274902,-0.1026240661740303,-120.62612915039062,3.687183380126953,80.22116088867188,30.03,0
-0.2404512912034988,-0.976077914237976,-0.1162381917238235,-124.8227081298828,3.6873795986175537,80.20283508300781,30.03,0
-0.2494699656963348,-0.9678548574447632,-0.1305727213621139,-112.30421447753906,3.6875054836273193,80.19107055664062,30.03,0
-0.2384643107652664,-0.93458890914917,-0.1397718042135238,-94.66210174560548,3.6875863075256343,80.18351745605469,30.03,0
-0.2593903839588165,-0.9132407307624816,-0.1344796866178512,-85.41471862792969,3.691769599914551,80.17867279052734,30.03,0
-0.2896128594875335,-0.9107362627983092,-0.125485748052597,-82.47889709472656,3.6944541931152335,80.17556762695312,30.03,0
-0.2978123426437378,-0.9091290235519408,-0.1253117322921753,-74.99170684814453,3.6961770057678223,80.17356872558594,30.03,0
-0.2918787598609924,-0.8969020247459412,-0.1252000480890274,-59.52511596679688,3.697282552719116,80.17228698730469,30.03,0
-0.2992664873600006,-0.8722621202468872,-0.1083350554108619,-42.53470993041992,3.6979920864105225,80.17147064208984,30.03,0
-0.331996351480484,-0.8676452040672302,-0.0919143036007881,-32.11847305297852,3.6984474658966064,80.17094421386719,30.03,0
-0.3474027216434479,-0.8702800869941711,-0.0813764035701751,-27.110578536987305,3.698739767074585,80.17060852050781,30.03,0
-0.3572896420955658,-0.8887643814086914,-0.0634182393550872,-13.947988510131836,3.698927164077759,80.1703872680664,30.03,0
-0.3636344969272613,-0.900626540184021,-0.0462959483265876,16.012371063232422,3.6884896755218506,80.17024993896484,30.03,0
-0.356510728597641,-0.90823894739151,-0.0241123009473085,49.4512825012207,3.681791305541992,80.17015838623047,30.03,0
-0.3463413119316101,-0.9075263738632202,-0.009876113384962,67.00543975830078,3.67749285697937,80.17009735107422,30.03,0
-0.3342173993587494,-0.9126668572425842,-0.0063379211351275,69.76565551757812,3.674734354019165,80.17005920410156,30.03,0
-0.3320347368717193,-0.9327590465545654,-0.0096650877967476,72.9628677368164,3.672964096069336,80.17003631591797,30.03,0
-0.3418295979499817,-0.9400553107261658,-0.0006047229398973,82.31594848632812,3.671828031539917,80.1700210571289,30.03,0
-0.3761042356491089,-0.9279443025588988,0.0108074722811579,92.40235137939452,3.671098947525024,80.17001342773438,30.03,0
-0.403697520494461,-0.9033788442611694,0.0125333881005644,98.76774597167967,3.670630931854248,80.17000579833984,30.03,0
-0.4214052855968475,-0.8932119011878967,0.0192387551069259,99.89348602294922,3.668953657150269,80.17000579833984,30.03,0
-0.404780238866806,-0.9146762490272522,0.0347374230623245,94.4682159423828,3.667877197265625,80.17000579833984,30.03,0
-0.3829157054424286,-0.9396463632583618,0.0446835756301879,84.57378387451172,3.667186498641968,80.17000579833984,30.03,0
-0.340895414352417,-0.9444751739501952,0.051066443324089,77.80852508544922,3.666743278503418,80.17000579833984,30.03,0
-0.2971358895301819,-0.9531717896461488,0.0495648272335529,79.9908447265625,3.66645884513855,80.17000579833984,30.03,0
-0.2634557783603668,-0.9811438918113708,0.0430034026503562,86.24571990966797,3.666276216506958,80.17000579833984,30.03,0
-0.2530373632907867,-1.0102903842926023,0.0331948846578598,85.9749755859375,3.66615891456604,80.17000579833984,30.03,0
-0.257546991109848,-1.0122015476226809,0.0269003398716449,78.07361602783203,3.666083812713623,80.17000579833984,30.03,0
-0.2604410052299499,-0.9854391813278198,0.0172630902379751,73.05313110351562,3.665117263793945,80.02670288085938,30.03,0
-0.2511026561260223,-0.9570690393447876,0.005480682477355,75.67803955078125,3.664497137069702,79.93473815917969,30.03,0
-0.2395120710134506,-0.9444605112075806,-0.0020805879030376,72.83059692382812,3.6640992164611816,79.87571716308594,30.03,0
-0.2320739030838012,-0.9475646018981934,-0.0069329761900007,47.98163986206055,3.6638436317443848,79.83784484863281,30.03,0
-0.2328982949256897,-0.9551544189453124,-0.0100469598546624,6.387349605560303,3.663679838180542,79.81353759765625,30.03,0
-0.2390251159667968,-0.9432318210601808,-0.0008497864473611,-26.67887687683105,3.663574695587158,79.79793548583984,30.03,0
-0.2429569512605667,-0.9299827814102172,-0.0005453440244309,-34.67200469970703,3.663507223129273,79.78792572021484,30.03,0
-0.2398824095726013,-0.927078127861023,-0.0003499704180285,-24.306894302368164,3.663463830947876,79.78150177001953,30.03,0
-0.2323115617036819,-0.9308118224143982,0.0053731836378574,-12.363699913024902,3.65976357460022,79.77738189697266,30.03,0
-0.2274530231952667,-0.9332079291343688,0.0090459743514657,-10.907848358154297,3.657388925552368,79.77473449707031,30.03,0
-0.224335104227066,-0.9347456097602844,0.0114029599353671,-23.75931739807129,3.655864953994751,79.77304077148438,30.03,0
-0.2335297465324401,-0.9413301944732666,0.007317763287574,-47.27917098999024,3.654886960983277,79.7719497680664,30.03,0
-0.2394303381443023,-0.9455557465553284,0.0046961191110312,-74.51420593261719,3.654259443283081,79.77124786376953,30.03,0
-0.2488147765398025,-0.942669689655304,0.003013698849827,-101.17064666748048,3.6538565158844,79.77079772949219,30.03,0
-0.254837155342102,-0.9352198243141174,0.0075317928567528,-126.51355743408205,3.653598070144653,79.7705078125,30.03,0
-0.2587019801139831,-0.9304389357566832,0.0104312459006905,-149.92083740234375,3.653432130813599,79.77032470703125,30.03,0
-0.2611822187900543,-0.9329686164855956,0.0178897231817245,-169.29510498046875,3.650112390518189,79.77021026611328,30.03,0
-0.2571761012077331,-0.9345920085906982,0.0170783698558807,-183.17575073242188,3.647982120513916,79.77013397216797,30.03,0
-0.2602029740810394,-0.9524271488189696,0.0053621404804289,-190.9335479736328,3.646615028381348,79.77008819580078,30.03,0
-0.2677432298660278,-0.9694705009460448,0.0034411130473017,-189.0370941162109,3.645737648010254,79.77005767822266,30.03,0
-0.294973224401474,-0.9804079532623292,0.013403857126832,-172.9165496826172,3.645174503326416,79.77003479003906,30.03,0
-0.3124478757381439,-0.9650358557701112,0.0197973735630512,-144.33958435058594,3.644813299179077,79.77001953125,30.03,0
-0.312466561794281,-0.9495731592178344,0.0071070403791964,-109.62815856933594,3.6445813179016113,79.77001190185547,30.03,0
-0.3068807721138,-0.9788345098495485,-0.0122324340045452,-70.36737060546875,3.644432544708252,79.77000427246094,30.03,0
-0.3088938891887665,-1.0311994552612305,-0.0246433950960636,-23.56554412841797,3.649845600128174,79.77000427246094,30.03,0
-0.3157835900783539,-1.0424131155014038,-0.0382058098912239,28.029109954833984,3.653319358825684,79.77000427246094,30.03,0
-0.3202050030231476,-1.016022801399231,-0.0469093881547451,72.07719421386719,3.6555488109588623,79.77000427246094,30.03,0
-0.3230423927307129,-0.9934892058372498,-0.0524948425590992,97.37476348876952,3.656979322433472,79.77000427246094,30.03,0
-0.3304610550403595,-1.0126150846481323,-0.0616770386695861,105.3586196899414,3.657897472381592,79.77000427246094,30.03,0
-0.3240263760089874,-1.0248889923095703,-0.0675696432590484,106.67750549316406,3.658486604690552,79.77000427246094,30.03,0
-0.3087014257907867,-1.0439611673355105,-0.0825467258691787,110.3111343383789,3.658864736557007,79.77000427246094,30.03,0
-0.2820734083652496,-1.0450050830841064,-0.0921581611037254,119.6684112548828,3.659107446670532,79.77000427246094,30.03,0
-0.2593873143196106,-1.023283839225769,-0.0815329030156135,133.07139587402344,3.667526006698608,79.62311553955078,30.03,0
-0.2448286861181259,-0.9925511479377748,-0.0691164508461952,144.1697235107422,3.67292857170105,79.52885437011719,30.03,0
-0.246681347489357,-0.9672308564186096,-0.0611482821404933,146.99647521972656,3.6763956546783447,79.4683609008789,30.03,0
-0.2758591473102569,-0.9509817957878112,-0.0728280916810035,141.1473846435547,3.678620576858521,79.4295425415039,30.03,0
-0.2889859974384308,-0.9405540823936462,-0.0803235247731208,128.12924194335938,3.68004846572876,79.40462493896484,30.03,0
-0.286214530467987,-0.9338621497154236,-0.0907314345240593,107.40431213378906,3.680964708328247,79.38864135742188,30.03,0
-0.267642617225647,-0.923969864845276,-0.0862150862812995,80.76631927490234,3.681552648544312,79.37837982177734,30.03,0
-0.2557242512702942,-0.917621612548828,-0.0777189806103706,54.672157287597656,3.681930065155029,79.37179565429688,30.03,0
-0.2648690342903137,-0.9079498648643494,-0.0722666680812835,33.401634216308594,3.674368381500244,79.36756896972656,30.03,0
-0.2707376480102539,-0.9017431139945984,-0.074365459382534,13.850934028625488,3.669515609741211,79.36486053466797,30.03,0
-0.2801015377044678,-0.8977599740028381,-0.0757123455405235,-9.342995643615724,3.6664013862609854,79.36312103271484,30.03,0
-0.2805129885673523,-0.9008015990257264,-0.0709789246320724,-36.12884140014648,3.664402961730957,79.36199951171875,30.03,0
-0.2807770371437073,-0.925144612789154,-0.0679412856698036,-61.05681991577149,3.6631205081939697,79.36128234863281,30.03,0
-0.2809464931488037,-0.9575598835945128,-0.0659919008612632,-78.93859100341797,3.662297487258911,79.36082458496094,30.03,0
-0.292250782251358,-0.9391777515411376,-0.0479475781321525,-87.9241943359375,3.661769390106201,79.36052703857422,30.03,0
-0.299505203962326,-0.9105877876281738,-0.0251722205430269,-88.28811645507812,3.661430358886719,79.36033630371094,30.03,0
-0.2985629141330719,-0.8866426348686218,-0.0049585341475903,-81.78282928466797,3.679574489593506,79.36021423339844,30.03,0
-0.2811648845672607,-0.8936671018600464,0.0024156728759407,-72.45278930664062,3.691218376159668,79.36013793945312,30.03,0
-0.2476087361574173,-0.9149683713912964,0.0015502397436648,-65.16483306884766,3.69869065284729,79.36009216308594,30.03,0
-0.2148787826299667,-0.951029360294342,0.0121904034167528,-62.03909683227539,3.70348596572876,79.36006164550781,30.03,0
-0.2050701230764389,-0.9853667616844176,0.0246164239943027,-61.13661193847656,3.7065634727478023,79.36003875732422,30.03,0
-0.2099710404872894,-0.9850114583969116,0.0437862761318683,-58.526126861572266,3.708538293838501,79.36002349853516,30.03,0
-0.2187139391899109,-0.9679901003837584,0.0504906103014946,-50.6386833190918,3.709805727005005,79.36001586914062,30.03,0
-0.2187268584966659,-0.9458712339401244,0.0491952896118164,-36.67427444458008,3.71061897277832,79.3600082397461,30.03,0
-0.2131373733282089,-0.942872166633606,0.0539618022739887,-20.84134101867676,3.7368476390838623,79.3600082397461,30.03,0
-0.2151481360197067,-0.9521430730819702,0.0514229014515876,-9.51992130279541,3.7536797523498535,79.3600082397461,30.03,0
-0.2164385318756103,-0.9524948596954346,0.0385980308055877,-2.7452988624572754,3.764481544494629,79.3600082397461,30.03,0
-0.217266634106636,-0.952720582485199,0.0303677693009376,9.27972412109375,3.771413564682007,79.3600082397461,30.03,0
-0.2345913797616958,-0.9472677111625672,0.0250860601663589,36.539642333984375,3.775862216949463,79.3600082397461,30.03,0
-0.2513071894645691,-0.9325727820396424,0.02169656381011,77.1196060180664,3.778717041015625,79.3600082397461,30.03,0
-0.2620344161987304,-0.9175446629524232,0.0139236059039831,118.24771118164062,3.7805490493774414,79.3600082397461,30.03,0
-0.2633207738399505,-0.9134982824325562,0.0089353686198592,147.73312377929688,3.781724691390991,79.3600082397461,30.03,0
-0.2809396088123321,-0.927694857120514,0.0113319791853427,161.59657287597656,3.8169078826904297,79.30268096923828,30.03,0
-0.2978441417217254,-0.9647942781448364,0.0016744375461712,163.045166015625,3.839486360549927,79.2658920288086,30.03,0
-0.280703604221344,-1.0221891403198242,-0.0213165394961833,156.96726989746094,3.853976011276245,79.2422866821289,30.03,0
-0.2697038054466247,-1.0926085710525513,-0.041668601334095,143.74855041503906,3.863274574279785,79.22713470458984,30.03,0
-0.3242202997207641,-1.148995280265808,-0.0379360578954219,117.82555389404295,3.869241952896118,79.21741485595703,30.03,0
-0.3815969228744507,-1.1403987407684326,-0.0299429520964622,75.7175521850586,3.873071432113648,79.21117401123047,30.03,0
-0.3904290795326233,-1.0733065605163574,-0.0528023093938827,26.490259170532227,3.8755288124084473,79.20716857910156,30.03,0
-0.3793037235736847,-1.09182608127594,-0.0562765821814537,-12.724705696105955,3.877105951309204,79.20459747314453,30.03,0
-0.3609685599803924,-1.1261019706726074,-0.0473106205463409,-35.93094253540039,3.913464546203613,79.20294952392578,29.99,0
-0.3044199049472809,-1.1313049793243408,-0.0471545569598674,-53.62494659423828,3.936797380447388,79.20188903808594,29.99,0
-0.2681302428245544,-1.123448371887207,-0.0526521764695644,-74.1871566772461,3.951771020889282,79.20121002197266,29.99,0
-0.2616349458694458,-1.1072108745574951,-0.044984683394432,-93.13999938964844,3.961380243301392,79.20077514648438,29.99,0
-0.2574666440486908,-1.068801760673523,-0.0400641299784183,-105.46405792236328,3.9675469398498535,79.20049285888672,29.99,0
-0.2547916769981384,-1.0385552644729614,-0.0481019504368305,-113.0827407836914,3.971504211425781,79.2003173828125,29.99,0
-0.2530750334262848,-1.024742603302002,-0.0700534805655479,-116.92586517333984,3.974043846130371,79.20020294189453,29.99,0
-0.2519733905792236,-1.0046827793121338,-0.0841407105326652,-115.17546844482422,3.975673675537109,79.20012664794922,29.99,0
-0.2456686347723007,-0.9526251554489136,-0.070789985358715,-108.90399932861328,4.0015082359313965,79.20008087158203,29.99,0
-0.2472203820943832,-0.8912287354469299,-0.056624487042427,-100.71996307373048,4.018087387084961,79.2000503540039,29.99,0
-0.2482161968946457,-0.8350347280502319,-0.0531316585838794,-92.93145751953124,4.028726577758789,79.20002746582031,29.99,0
-0.2656485736370086,-0.8045703768730164,-0.0508901625871658,-91.64479064941406,4.0355544090271,79.20001983642578,29.99,0
-0.2880312204360962,-0.785020112991333,-0.0438539274036884,-102.62367248535156,4.039936065673828,79.20001220703125,29.99,0
-0.3023951053619385,-0.7724738717079163,-0.0337406992912292,-118.4394302368164,4.042747974395752,79.20000457763672,29.99,0
-0.3284063637256622,-0.7980090975761414,-0.0160550642758607,-119.99089050292967,4.044552326202393,79.20000457763672,29.99,0
-0.3506966531276703,-0.8199939131736755,0.006490106228739,-95.8547592163086,4.045710563659668,79.20000457763672,29.99,0
-0.3370124101638794,-0.8732869029045105,-0.0014327976386994,-52.96962356567383,4.05333948135376,79.20000457763672,29.99,0
-0.3170351088047027,-0.9298783540725708,-0.012115036137402,-7.711081981658935,4.058235168457031,79.20000457763672,29.99,0
-0.2986170351505279,-0.9382066130638124,0.0370074622333049,26.506486892700195,4.061377048492432,79.20000457763672,29.99,0
-0.2811996042728424,-0.9267579317092896,0.0797270014882087,45.785587310791016,4.063393592834473,79.20000457763672,29.99,0
-0.2700221240520477,-0.9194108247756958,0.0903486236929893,57.19766998291016,4.064687252044678,79.20000457763672,29.99,0
-0.2628490328788757,-0.9426847100257874,0.0579805448651313,71.24220275878906,4.065517425537109,79.20000457763672,29.99,0
-0.2638435363769531,-0.968816101551056,0.0316108018159866,89.89588165283203,4.0660505294799805,79.20000457763672,29.99,0
-0.2700795233249664,-0.9855857491493224,0.0314815416932106,105.35974884033205,4.066392421722412,79.20000457763672,29.99,0
-0.2740814387798309,-0.9795542359352112,0.0425941385328769,109.98136138916016,4.077169895172119,79.10685729980469,29.99,0
-0.2710518538951874,-0.9700857400894164,0.0497255623340606,102.78347778320312,4.084086418151856,79.04708099365234,29.99,0
-0.2635098695755005,-0.964009404182434,0.0487043261528015,87.73541259765625,4.088525295257568,79.00872039794922,29.99,0
-0.2586698532104492,-0.9601100087165833,0.0480489544570446,70.0212173461914,4.091373920440674,78.98410034179688,29.99,0
-0.261161595582962,-0.9576075673103333,0.0420306026935577,53.7451400756836,4.093201637268066,78.96829986572266,29.99,0
-0.2627606391906738,-0.9615994095802308,0.0325705967843532,41.19353485107422,4.094374656677246,78.95816040039062,29.99,0
-0.2693845927715301,-0.9641611576080322,0.0264997091144323,34.31730651855469,4.095127582550049,78.95165252685547,29.99,0
-0.2904287874698639,-0.9546095728874208,0.0282015372067689,35.328556060791016,4.095610618591309,78.94747924804688,29.99,0
-0.3095315098762512,-0.9428821802139282,0.0348914451897144,41.68456268310547,4.091789245605469,78.9448013305664,30.01,0
-0.3217905461788177,-0.952149510383606,0.0391846448183059,41.84056091308594,4.08933687210083,78.94308471679688,30.01,0
-0.3184621334075928,-1.0028789043426514,0.0419397726655006,25.77250862121582,4.087762832641602,78.94197845458984,30.01,0
-0.310728371143341,-1.0410319566726685,0.0381100811064243,2.04779314994812,4.086752891540527,78.94126892089844,30.01,0
-0.2833741903305053,-1.071114182472229,0.0244568567723035,-8.190417289733887,4.086104869842529,78.9408187866211,30.01,0
-0.2770154178142547,-1.1128102540969849,0.0100972279906272,2.202784299850464,4.085689067840576,78.9405288696289,30.01,0
-0.3065213561058044,-1.156361699104309,-0.0047157290391623,19.555782318115234,4.085422039031982,78.94033813476562,30.01,0
-0.3590432107448578,-1.105941653251648,-0.0254173800349235,28.72510528564453,4.085250854492188,78.94021606445312,30.01,0
-0.3759554028511047,-1.0791828632354736,-0.0554958321154117,23.39598655700684,4.07963228225708,78.94013977050781,30.01,0
-0.3532220125198364,-1.0508149862289429,-0.085994005203247,2.231566905975342,4.076026916503906,78.94009399414062,30.01,0
-0.3218397200107574,-1.0326101779937744,-0.1111637502908706,-27.289417266845703,4.0737128257751465,78.9400634765625,30.01,0
-0.2849070429801941,-1.048916220664978,-0.1217184662818908,-49.40128326416016,4.072227954864502,78.9400405883789,30.01,0
-0.2835968732833862,-1.0369893312454224,-0.12289410084486,-59.79745864868164,4.071275234222412,78.94002532958984,30.01,0
-0.2827560901641845,-1.0069442987442017,-0.1236485540866851,-73.29393005371094,4.0706634521484375,78.94001770019531,30.01,0
-0.2710209786891937,-0.9876631498336792,-0.1297304928302765,-99.62445068359376,4.070271015167236,78.94001007080078,30.01,0
-0.2634900510311126,-0.9752895832061768,-0.1280357539653778,-126.34170532226562,4.070019245147705,78.94001007080078,30.01,0
-0.2810482382774353,-0.9673489332199096,-0.1213504001498222,-138.29615783691406,4.061135768890381,78.94001007080078,30.01,0
-0.2867183089256286,-0.9510575532913208,-0.1058645769953727,-139.51202392578125,4.055435180664063,78.94001007080078,30.01,0
-0.2791614830493927,-0.9294071197509766,-0.0903288871049881,-141.18077087402344,4.051776885986328,78.94001007080078,30.01,0
-0.2575186192989349,-0.8987197875976562,-0.080358974635601,-140.53562927246094,4.049428939819336,78.94001007080078,30.01,0
-0.2492272406816482,-0.879026472568512,-0.0739608630537986,-126.17106628417967,4.047922134399414,78.94001007080078,30.01,0
-0.2662973999977112,-0.8663883805274963,-0.0642571449279785,-94.1567840576172,4.046955108642578,78.94001007080078,30.01,0
-0.277252048254013,-0.8582780361175537,-0.0580298602581024,-51.43572235107422,4.046334743499756,78.94001007080078,30.01,0
-0.2842821180820465,-0.8642687797546387,-0.0596313215792179,-13.082199096679688,4.045936584472656,78.94001007080078,30.01,0
-0.2775980532169342,-0.873711109161377,-0.0494634993374347,7.980550289154053,4.029614448547363,78.83611297607422,30.01,0
-0.2621130645275116,-0.8965639472007751,-0.0485361516475677,18.470134735107425,4.019139766693115,78.76943969726562,30.01,0
-0.2577734589576721,-0.9672073125839232,-0.0647343546152114,38.36412811279297,4.012417793273926,78.72664642333984,30.01,0
-0.2661841213703155,-0.934173345565796,-0.0303472336381673,70.46969604492188,4.008103847503662,78.69918823242188,30.01,0
-0.2715815901756286,-0.9073762893676758,-0.0082795582711696,96.35033416748048,4.005335330963135,78.68156433105469,30.01,0
-0.2638498246669769,-0.9125705361366272,0.0058822049759328,104.49698638916016,4.00355863571167,78.67025756835938,30.01,0
-0.2588880062103271,-0.9326972365379332,0.0037748606409877,101.13044738769533,4.002418518066406,78.66300201416016,30.01,0
-0.2445082664489746,-0.973602294921875,-0.014370834454894,94.7855453491211,4.001687049865723,78.6583480834961,30.01,0
-0.2296824008226394,-0.994255006313324,-0.0092223742976784,88.5212173461914,3.984691619873047,78.65535736083984,30.03,0
-0.2201680094003677,-0.9851176738739014,0.0108749335631728,85.05642700195312,3.973784923553467,78.6534423828125,30.03,0
-0.219659999012947,-0.95686274766922,0.0181744545698165,86.18621826171875,3.9667856693267822,78.65220642089844,30.03,0
-0.219333991408348,-0.9387303590774536,0.0172610934823751,87.41639709472656,3.962293863296509,78.65141296386719,30.03,0
-0.2191247791051864,-0.927094042301178,0.0166749507188797,81.87186431884766,3.959411382675171,78.65090942382812,30.03,0
-0.2301860600709915,-0.9140287041664124,0.0218965727835893,70.2958984375,3.957561492919922,78.65058135986328,30.03,0
-0.2372845560312271,-0.9000463485717773,0.0196497347205877,61.05073928833008,3.956374406814575,78.65037536621094,30.03,0
-0.2474377304315567,-0.9022688269615172,0.0126100685447454,59.92196273803711,3.9556126594543457,78.65023803710938,30.03,0
-0.2595512270927429,-0.9092928767204284,0.0136901903897523,65.1876449584961,3.944566011428833,78.65015411376953,30.03,0
-0.2785205245018005,-0.919398307800293,0.0255788993090391,72.18525695800781,3.937476873397827,78.65010070800781,30.03,0
-0.296291708946228,-0.9538722634315492,0.0332083888351917,77.17390441894531,3.932927370071411,78.65006256103516,30.03,0
-0.313293993473053,-0.9983867406845092,0.0381045565009117,76.20520782470703,3.930007696151733,78.65003967285156,30.03,0
-0.3130095303058624,-1.0437469482421875,0.0412466339766979,66.06465148925781,3.928134202957153,78.6500244140625,30.03,0
-0.3016314506530761,-1.061660885810852,0.0376652628183364,49.644039154052734,3.926931858062744,78.65001678466797,30.03,0
-0.2831341028213501,-1.0843526124954224,0.018573623150587,35.78519058227539,3.926160335540772,78.65000915527344,30.03,0
-0.3048502206802368,-1.1604903936386108,0.006321707740426,29.68578720092773,3.9256651401519775,78.65000915527344,30.03,0
-0.3635685443878174,-1.19255793094635,0.0096546821296215,26.104721069335938,3.913412094116211,78.65000915527344,30.03,0
-0.4180439114570617,-1.089985966682434,-0.0049997293390333,14.968384742736816,3.905548572540283,78.65000915527344,30.03,0
-0.4306119680404663,-1.0297589302062988,-0.0311974119395017,-8.052667617797852,3.900502443313599,78.65000915527344,30.03,0
-0.3938952386379242,-1.0694775581359863,-0.0424118004739284,-37.93039321899414,3.897264003753662,78.65000915527344,30.03,0
-0.3479414582252502,-1.0893689393997192,-0.0496085509657859,-66.02839660644531,3.895185708999634,78.65000915527344,30.03,0
-0.3184509575366974,-1.107731819152832,-0.0598247833549976,-88.03314971923828,3.89385199546814,78.65000915527344,30.03,0
-0.2883301079273224,-1.0803316831588743,-0.071978747844696,-105.49707794189452,3.892996072769165,78.65000915527344,30.03,0
-0.2690002918243408,-1.0403567552566528,-0.0741806924343109,-119.90007781982422,3.892446756362915,78.65000915527344,30.03,0
-0.2621932923793793,-1.0258986949920654,-0.0755937695503234,-127.95726013183594,3.8842904567718506,78.5568618774414,30.03,0
-0.2690204977989197,-0.999826967716217,-0.0820983797311782,-125.93766784667967,3.879056215286255,78.49708557128906,30.03,0
-0.2734017968177795,-0.9719001054763794,-0.0862726643681526,-116.43392944335938,3.875697135925293,78.4587173461914,30.03,0
-0.2650179266929626,-0.942782700061798,-0.088951475918293,-104.75332641601562,3.8735413551330566,78.43409729003906,30.03,0
-0.254039853811264,-0.9240968227386476,-0.0906705856323242,-91.01295471191406,3.872158050537109,78.41829681396484,30.03,0
-0.2302014529705047,-0.8897141814231873,-0.0861760377883911,-73.10260009765625,3.871270179748535,78.40815734863281,30.03,0
-0.220501109957695,-0.8508560657501221,-0.0776939168572425,-54.25015640258789,3.8707003593444815,78.40164947509766,30.03,0
-0.2198737561702728,-0.8315169215202332,-0.0722505822777748,-42.52433013916016,3.87033486366272,78.39747619628906,30.03,0
-0.2306667119264602,-0.8303017616271973,-0.0631595849990844,-46.66065216064453,3.8664281368255615,78.3947982788086,30.01,0
-0.2431907802820205,-0.8239241242408752,-0.0573255084455013,-68.36366271972656,3.8639209270477295,78.39308166503906,30.01,0
-0.2456302344799041,-0.8422224521636963,-0.0591793097555637,-92.30111694335938,3.862312078475952,78.39197540283203,30.01,0
-0.230402410030365,-0.9043452143669128,-0.065966747701168,-93.89854431152344,3.8612794876098633,78.39126586914062,30.01,0
-0.2206300646066665,-0.9498097896575928,-0.0647247582674026,-65.10590362548828,3.86061692237854,78.39081573486328,30.01,0
-0.2199565172195434,-0.928606390953064,-0.0415366254746913,-24.133453369140625,3.860191822052002,78.3905258178711,30.01,0
-0.2195242792367935,-0.9261948466300964,-0.0210580416023731,5.14100980758667,3.85991883277893,78.39033508300781,30.01,0
-0.213649109005928,-0.9526361227035522,-0.0191116128116846,17.077789306640625,3.85974383354187,78.39021301269531,30.01,0
-0.2378676384687423,-1.0087890625,-0.0122647332027554,23.541547775268555,3.84723711013794,78.39013671875,30.01,0
-0.2646052539348602,-1.03922700881958,0.0033247487153857,34.24931335449219,3.839210987091065,78.39009094238281,30.01,0
-0.2817639112472534,-1.0083802938461304,0.0357202775776386,47.07159805297852,3.834060430526733,78.39006042480469,30.01,0
-0.2759820222854614,-0.9773890972137452,0.0565098635852336,57.72202301025391,3.830754995346069,78.3900375366211,30.01,0
-0.2498804479837417,-0.9686962962150574,0.053058099001646,66.0794448852539,3.8286337852478023,78.39002227783203,30.01,0
-0.2331299483776092,-0.9799110889434814,0.0508429557085037,70.38231658935547,3.827272415161133,78.3900146484375,30.01,0
-0.227978229522705,-0.9927058815956116,0.0550191812217235,67.90950775146484,3.8263988494873047,78.39000701904297,30.01,0
-0.2414654642343521,-0.9953190684318542,0.0576992407441139,62.83317565917969,3.825838327407837,78.39000701904297,30.01,0
-0.2613163590431213,-0.991398274898529,0.059419147670269,62.839202880859375,3.824560403823853,78.39000701904297,30.01,0
-0.290848821401596,-0.9888821244239808,0.0605228878557682,68.5035400390625,3.823740243911743,78.39000701904297,30.01,0
-0.3209966123104095,-0.9704740643501282,0.0556334294378757,74.51383209228516,3.823213815689087,78.39000701904297,30.01,0
-0.3347459733486175,-0.96425861120224,0.0524956546723842,79.21996307373047,3.8228759765625,78.39000701904297,30.01,0
-0.3211784064769745,-0.977063238620758,0.0560797862708568,83.95256042480469,3.8226592540740967,78.39000701904297,30.01,0
-0.3012759685516357,-1.002073884010315,0.0527821034193038,84.52843475341797,3.822520256042481,78.39000701904297,30.01,0
-0.2829059660434723,-1.0293197631835938,0.0394702889025211,75.8770751953125,3.822431087493897,78.39000701904297,30.01,0
-0.2767149209976196,-1.1083800792694092,-0.0026591112837195,64.66824340820312,3.822373867034912,78.39000701904297,30.01,0
-0.295132964849472,-1.187105417251587,-0.0296953357756137,62.6805419921875,3.822795867919922,78.26819610595703,30.01,0
-0.3573325872421264,-1.1536601781845093,-0.0246545318514108,68.43038177490234,3.823066711425781,78.19002532958984,30.01,0
-0.3972487151622772,-1.098610281944275,-0.0270174089819192,68.75625610351562,3.8232405185699454,78.13986206054688,30.01,0
-0.3724846243858337,-1.0576846599578855,-0.0565226376056671,54.81063079833984,3.823352098464966,78.107666015625,30.01,0
-0.3342013657093048,-1.1041920185089111,-0.0642618462443351,27.335634231567383,3.823423624038696,78.08700561523438,30.01,0
-0.3040356040000915,-1.1284399032592771,-0.0636306479573249,-5.558011531829834,3.823469638824463,78.07374572753906,30.01,0
-0.2678836286067962,-1.132805347442627,-0.063225582242012,-31.252954483032227,3.823499202728272,78.06523895263672,30.01,0
-0.2334878146648407,-1.107617974281311,-0.0685634091496467,-43.4398193359375,3.823518037796021,78.05978393554688,30.01,0
-0.211414560675621,-1.08025860786438,-0.06639114767313,-49.67714691162109,3.80975866317749,78.05628204345703,30.01,0
-0.2140425443649292,-1.0459076166152954,-0.0538015663623809,-59.93866729736328,3.800928831100464,78.05403137207031,30.01,0
-0.2213267982006073,-1.0238630771636963,-0.0569178462028503,-73.65682983398438,3.795262336730957,78.0525894165039,30.01,0
-0.2260014116764068,-0.9985206127166748,-0.0701132416725158,-84.37702941894531,3.7916259765625,78.05166625976562,30.01,0
-0.2178057581186294,-0.9766595363616944,-0.072983518242836,-89.5441665649414,3.789292335510254,78.05107116699219,30.01,0
-0.2181440442800521,-0.9234459400177002,-0.0524343959987163,-89.94750213623047,3.787794589996338,78.05068969726562,30.01,0
-0.2183611392974853,-0.8613076210021973,-0.0392471514642238,-85.79618835449219,3.78683352470398,78.05044555664062,30.01,0
-0.2185004502534866,-0.8214308023452759,-0.0363821126520633,-78.01619720458984,3.786216735839844,78.05028533935547,30.01,0
-0.2297853976488113,-0.8126335144042969,-0.0457390435039997,-70.87748718261719,3.783984899520874,78.05018615722656,30.01,0
-0.2482229769229889,-0.812585711479187,-0.0517437830567359,-71.3620376586914,3.782552719116211,78.05011749267578,30.01,0
-0.2544573843479156,-0.8013594746589661,-0.0499995052814483,-84.56668090820312,3.7816336154937744,78.05007934570312,30.01,0
-0.2472627162933349,-0.8669261932373047,-0.0656734481453895,-105.97376251220705,3.781043767929077,78.050048828125,30.01,0
-0.2370478212833404,-0.9369919896125792,-0.0813298597931861,-120.99774169921876,3.780665159225464,78.05003356933594,30.01,0
-0.2416880428791046,-0.9203806519508362,-0.0577905960381031,-118.6304702758789,3.78042221069336,78.0500259399414,30.01,0
-0.2558614015579223,-0.9041227102279664,-0.0202933568507432,-103.09625244140624,3.780266284942627,78.05001831054688,30.01,0
-0.292945921421051,-0.938471496105194,-0.0130231082439422,-85.64686584472656,3.780166149139404,78.05001068115234,30.01,0
-0.2999513149261474,-0.988503396511078,-0.0307485796511173,-67.81034851074219,3.768166542053223,78.05001068115234,30.01,0
-0.2988491952419281,-1.0318065881729126,-0.0421237647533416,-40.71520614624024,3.760465860366821,78.05001068115234,30.01,0
-0.2813486158847809,-1.0428026914596558,0.0289451368153095,-0.5204253196716309,3.755524158477783,78.05001068115234,30.01,0
-0.2589221894741058,-1.021870493888855,0.0913463905453682,43.753196716308594,3.752352714538574,78.05001068115234,30.01,0
-0.2389324307441711,-0.980448603630066,0.103403054177761,80.69557189941406,3.7503175735473633,78.05001068115234,30.01,0
-0.237299695611,-0.9818552732467652,0.0831514522433281,107.73127746582033,3.749011516571045,78.05001068115234,30.01,0
-0.2530452311038971,-0.9883557558059692,0.0701551362872123,127.32034301757812,3.748173236846924,78.05001068115234,30.01,0
-0.285540908575058,-0.9869295954704284,0.0618148520588874,139.2681121826172,3.747635364532471,78.05001068115234,30.01,0
-0.3063947558403015,-0.9860143661499025,0.056462537497282,143.41383361816406,3.750044584274292,77.99626922607422,30.01,0
-0.31417977809906,-0.9854270219802856,0.0530277304351329,144.82757568359375,3.7515904903411865,77.96178436279297,30.01,0
-0.3247735202312469,-0.9682568311691284,0.0564212426543235,149.05587768554688,3.7525827884674072,77.93965148925781,30.01,0
-0.3315719962120056,-0.957237958908081,0.0530012287199497,155.1011505126953,3.753219366073608,77.92544555664062,30.01,0
-0.3359348475933075,-0.9893510937690736,0.0508064627647399,158.40386962890625,3.753628015518189,77.91632843017578,30.01,0
-0.3443324565887451,-1.0323505401611328,0.049397986382246,154.83424377441406,3.7538902759552,77.91047668457031,30.01,0
-0.3385260105133056,-1.0599451065063477,0.037298560142517,137.3067626953125,3.754058599472046,77.90672302246094,30.01,0
-0.3068108856678009,-1.049664855003357,0.0071427458897233,101.5717315673828,3.754166603088379,77.90431213378906,30.01,0
-0.2976534962654114,-1.0542631149291992,-0.0122095197439193,60.62227249145508,3.7542359828948975,77.90277099609375,29.99,0
-0.3365590274333954,-1.1243873834609983,-0.0134331416338682,35.6186637878418,3.7542803287506095,77.90177917480469,29.99,0
-0.3951129913330078,-1.1358023881912231,-0.008620616979897,28.39308738708496,3.754308938980103,77.9011459350586,29.99,0
-0.4326895475387573,-1.070356845855713,-0.0279233139008283,20.79333877563477,3.754327297210693,77.9007339477539,29.99,0
-0.4064240455627441,-1.0619442462921145,-0.051506221294403,0.2460709661245346,3.754338979721069,77.90047454833984,29.99,0
-0.367177277803421,-1.0733388662338257,-0.0666403770446777,-30.397872924804688,3.7543466091156006,77.90030670166016,29.99,0
-0.3251976370811462,-1.108640193939209,-0.0707548335194587,-62.26922607421875,3.754351377487183,77.90019989013672,29.99,0
-0.2982575297355652,-1.1424901485443115,-0.0733952522277832,-85.75686645507812,3.754354476928711,77.90013122558594,29.99,0
-0.2585777938365936,-1.102637529373169,-0.0862852707505226,-95.09417724609376,3.746093988418579,77.90008544921875,29.99,0
-0.233113631606102,-1.08266019821167,-0.0889595672488212,-96.4540557861328,3.740792751312256,77.90005493164062,29.99,0
-0.222369983792305,-1.0530465841293335,-0.0906757786870002,-101.79064178466795,3.737390756607056,77.90003204345703,29.99,0
-0.2210730910301208,-1.0116511583328247,-0.1029726937413215,-111.71414947509766,3.735207557678223,77.9000244140625,29.99,0
-0.21464304625988,-0.9738904237747192,-0.1164619177579879,-116.1837158203125,3.733806610107422,77.90001678466797,29.99,0
-0.2161143869161605,-0.9272666573524476,-0.1139229759573936,-112.39918518066406,3.73290753364563,77.90000915527344,29.99,0
-0.2114608436822891,-0.8749550580978394,-0.1122936308383941,-108.31175994873048,3.732330560684204,77.90000915527344,29.99,0
-0.2084744572639465,-0.8245911598205566,-0.1112480089068412,-107.71283721923828,3.7319602966308594,77.90000915527344,29.99,0
-0.2065579742193222,-0.7978683114051819,-0.1105769872665405,-105.15386199951172,3.731722593307495,77.90000915527344,29.99,0
-0.2109258621931076,-0.7807191014289856,-0.1157441437244415,-100.14045715332033,3.731570243835449,77.90000915527344,29.99,0
-0.2305222451686859,-0.7865070700645447,-0.107864573597908,-105.72553253173828,3.7314722537994394,77.90000915527344,29.99,0
-0.2486958503723144,-0.835003674030304,-0.1084056943655014,-131.60049438476562,3.731409549713135,77.90000915527344,29.99,0
-0.2547608315944671,-0.9109081625938416,-0.1143507286906242,-162.66482543945312,3.7313692569732666,77.90000915527344,29.99,0
-0.253055214881897,-0.9932059645652772,-0.118165910243988,-169.26577758789062,3.731343269348145,77.90000915527344,29.99,0
-0.2631562054157257,-0.995639979839325,-0.0982231795787811,-141.04376220703125,3.731326580047608,77.90000915527344,29.99,0
-0.2752362191677093,-0.963615357875824,-0.0518384352326393,-96.5324935913086,3.731316089630127,77.90000915527344,29.99,0
-0.2773906886577606,-0.993443727493286,-0.0388646982610225,-54.56172561645508,3.72121000289917,77.93582916259766,29.99,0
-0.2787733078002929,-1.023781418800354,-0.0361366756260395,-11.853221893310549,3.714724540710449,77.95881652832031,29.99,0
-0.262867271900177,-1.0488481521606443,-0.023190438747406,41.2739486694336,3.710562467575073,77.97357177734375,29.99,0
-0.2358663827180862,-1.0481412410736084,0.0019110344583168,97.7804946899414,3.7078914642333984,77.98303985595703,29.99,0
-0.2017454355955124,-1.0141009092330933,0.0348130390048027,141.86033630371094,3.706177473068237,77.9891128540039,29.99,0
-0.1854463517665863,-0.9978535771369934,0.0503298752009868,169.127197265625,3.705077409744263,77.99301147460938,29.99,0
-0.1861820816993713,-0.99302476644516,0.0602876879274845,183.0859222412109,3.704371452331543,77.99551391601562,29.99,0
-0.2146431058645248,-0.9899259209632874,0.061080265790224,182.7040557861328,3.70391845703125,77.99712371826172,29.99,0
-0.2441032975912094,-0.9823395013809204,0.0615888945758342,169.52230834960938,3.7123498916625977,77.99815368652344,29.99,0
-0.2742047011852264,-0.9718731641769408,0.0563175305724144,155.57093811035156,3.717760801315308,77.99881744384766,29.99,0
-0.2879242897033691,-0.9651564955711364,0.0473368987441062,149.94595336914062,3.721233129501343,77.9992446899414,29.99,0
-0.2967287302017212,-0.9440528154373168,0.0415736474096775,147.83009338378906,3.723461389541626,77.99951171875,29.99,0
-0.3023788928985595,-0.9249119162559508,0.03787512332201,142.330810546875,3.724891424179077,77.99968719482422,29.99,0
-0.3060048520565033,-0.923823893070221,0.0299038477241992,135.4913787841797,3.725809097290039,77.99980163574219,29.99,0
-0.3139295578002929,-0.973505675792694,0.0079950196668505,129.86624145507812,3.72639799118042,77.99987030029297,29.99,0
-0.3022218644618988,-1.0333774089813232,-0.022858127951622,119.63574981689452,3.726775884628296,77.99991607666016,29.99,0
-0.2835129797458648,-1.1109840869903564,-0.0538534522056579,98.60755157470705,3.7215094566345215,77.99994659423828,29.99,0
-0.2994955778121948,-1.1663854122161863,-0.0625489205121994,71.15873718261719,3.718129873275757,77.99996948242188,29.99,0
-0.3433389365673065,-1.1627542972564695,-0.0457380712032318,48.3238525390625,3.71596097946167,77.9999771118164,29.99,0
-0.3938661813735962,-1.1100441217422483,-0.0293520614504814,34.34326171875,3.714569091796875,77.99998474121094,29.99,0
-0.3703139126300812,-1.104206681251526,-0.0636186599731445,20.617244720458984,3.713675975799561,77.99999237060547,29.99,0
-0.3384060859680176,-1.1116560697555542,-0.080011211335659,-4.75356912612915,3.7131028175354,77.99999237060547,29.99,0
-0.301136165857315,-1.1388276815414429,-0.0569443628191947,-41.37337875366211,3.712734937667847,77.99999237060547,29.99,0
-0.2772184610366821,-1.1450693607330322,-0.0421413891017437,-74.32111358642578,3.712498903274536,77.99999237060547,29.99,0
-0.2786628007888794,-1.09309720993042,-0.0382394678890705,-90.15211486816406,3.707298040390015,77.99999237060547,29.99,0
-0.2851874530315399,-1.054146647453308,-0.0469309873878955,-91.00401306152344,3.703960418701172,77.99999237060547,29.99,0
-0.2837768197059631,-1.0123571157455444,-0.0525087043642997,-88.9246826171875,3.701818704605103,77.99999237060547,29.99,0
-0.2772738039493561,-0.979941189289093,-0.0504903867840766,-91.3484115600586,3.700444221496582,77.99999237060547,29.99,0
-0.2786982953548431,-0.96473628282547,-0.049195148050785,-97.91226196289062,3.699562072753906,77.99999237060547,29.99,0
-0.2684169113636017,-0.9437831044197084,-0.0539617128670215,-107.05418395996094,3.698996067047119,77.99999237060547,29.99,0
-0.2506233751773834,-0.9079455137252808,-0.0402272939682006,-118.4918441772461,3.698632717132568,77.99999237060547,29.99,0
-0.2392044961452484,-0.8793492317199707,-0.031413335353136,-129.80496215820312,3.698399543762207,77.99999237060547,29.99,0
-0.2486698478460312,-0.8442044258117676,-0.0313548184931278,-135.8040008544922,3.69549560546875,77.94983673095703,29.99,0
-0.265939712524414,-0.8328461050987244,-0.0313172675669193,-134.40895080566406,3.693632125854492,77.91765594482422,29.99,0
-0.2882180511951446,-0.8367525339126587,-0.0312931686639785,-133.29515075683594,3.692436218261719,77.89700317382812,29.99,0
-0.2969172298908233,-0.833661675453186,-0.0256799291819334,-146.11892700195312,3.691668748855591,77.88374328613281,29.99,0
-0.2969020903110504,-0.826080322265625,-0.0220776740461587,-174.4539031982422,3.691176176071167,77.87523651123047,29.99,0
-0.2856968343257904,-0.8492039442062378,-0.0309615042060613,-196.7468719482422,3.6908600330352783,77.86978149414062,29.99,0
-0.2897014915943146,-0.8864344358444214,-0.0366626344621181,-186.6702117919922,3.690657138824463,77.86627960205078,29.99,0
-0.3258581161499023,-0.8599468469619751,-0.0123324180021882,-141.72314453125,3.6905269622802734,77.86402893066406,29.99,0
-0.3546591103076935,-0.8261553049087524,0.0256724096834659,-83.87059020996094,3.681262493133545,77.86258697509766,30.01,0
-0.3619463741779327,-0.8212631940841675,0.0388661734759807,-32.560733795166016,3.675317049026489,77.86166381835938,30.01,0
-0.3442318439483642,-0.8796992301940918,0.0137465223670005,12.243218421936035,3.671501636505127,77.86106872558594,30.01,0
-0.3216681182384491,-0.956384539604187,-0.0023738220334053,58.37488555908203,3.669053077697754,77.86068725585938,30.01,0
-0.2903946936130523,-1.0111945867538452,0.037661038339138,104.44506072998048,3.667481660842896,77.86044311523438,30.01,0
-0.2703252136707306,-1.0015863180160522,0.0745486542582511,142.67291259765625,3.666473150253296,77.86028289794922,30.01,0
-0.2630435526371002,-0.9842246770858764,0.0870254561305046,170.010498046875,3.6658260822296143,77.86018371582031,30.01,0
-0.269566148519516,-0.9898763298988342,0.0894345715641975,186.1641540527344,3.6654107570648193,77.86011505126953,30.01,0
-0.2737519741058349,-0.9991009831428528,0.0909806042909622,188.05784606933597,3.664226531982422,77.86007690429688,30.01,0
-0.2820359766483307,-1.0162163972854614,0.0863749831914901,176.6194610595703,3.663466453552246,77.86004638671875,30.01,0
-0.2761566340923309,-1.0160045623779297,0.0834193676710128,163.22439575195312,3.662978649139404,77.86003112792969,30.01,0
-0.2779813706874847,-1.0158685445785522,0.0871203914284706,159.39662170410156,3.662665605545044,77.86002349853516,30.01,0
-0.2847501635551452,-0.9989879727363586,0.1006910502910614,162.95175170898438,3.66246485710144,77.86001586914062,30.01,0
-0.2946917414665222,-0.976959466934204,0.1038021445274353,161.11685180664062,3.6623358726501465,77.8600082397461,30.01,0
-0.2954739034175873,-0.9628227949142456,0.0890053361654281,142.6318817138672,3.6622531414031982,77.8600082397461,30.01,0
-0.2903780937194824,-0.9873373508453368,0.0739118233323097,103.23004150390624,3.6622002124786377,77.8600082397461,30.01,0
-0.2871078848838806,-1.0142649412155151,0.0586279034614563,50.74887847900391,3.6676745414733887,77.8600082397461,30.01,0
-0.2850092649459839,-1.0315455198287964,0.0320262387394905,7.923171043395996,3.67118763923645,77.8600082397461,30.01,0
-0.2780646979808807,-1.042635202407837,0.003759273327887,-7.174939632415772,3.6734423637390137,77.8600082397461,30.01,0
-0.279205858707428,-1.094534158706665,-0.0311741605401039,-3.9201912879943848,3.674889326095581,77.8600082397461,30.01,0
-0.313524842262268,-1.111046552658081,-0.0423968806862831,-6.223719120025635,3.6758177280426025,77.8600082397461,30.01,0
-0.3411465585231781,-1.076861023902893,-0.0495989769697189,-25.109724044799805,3.676413536071777,77.8600082397461,30.01,0
-0.3420792520046234,-1.0549226999282837,-0.0710141882300376,-57.14521408081055,3.676795959472656,77.8600082397461,30.01,0
-0.3314822614192962,-1.0464417934417725,-0.0903550162911415,-94.2946548461914,3.677041292190552,77.8600082397461,30.01,0
-0.2966928482055664,-1.0633903741836548,-0.1027668416500091,-125.52230072021484,3.667558908462525,78.04988098144531,30.01,0
-0.2631714642047882,-1.0686691999435425,-0.1107320412993431,-142.80023193359375,3.661473512649536,78.1717300415039,30.01,0
-0.2416593581438064,-1.0440679788589478,-0.1158436462283134,-148.72572326660156,3.657568216323853,78.24992370605469,30.01,0
-0.2334519028663635,-1.0058891773223877,-0.113526202738285,-149.5870819091797,3.655062198638916,78.30010986328125,30.01,0
-0.2337826043367386,-0.9813882112503052,-0.1120389997959137,-144.88778686523438,3.653453826904297,78.33231353759766,30.01,0
-0.2395926117897033,-0.9600671529769896,-0.1110846027731895,-130.13552856445312,3.652421712875366,78.35298156738281,30.01,0
-0.2489189058542251,-0.929591178894043,-0.104874350130558,-106.94353485107422,3.651759386062622,78.36624145507812,30.01,0
-0.2493062168359756,-0.904435694217682,-0.0952911898493766,-85.04198455810547,3.651334285736084,78.374755859375,30.01,0
-0.249554768204689,-0.8826946020126343,-0.0779457241296768,-71.26627349853516,3.650143384933472,78.38021850585938,29.99,0
-0.2497142702341079,-0.8687424063682556,-0.0612166263163089,-60.59153366088867,3.649379014968872,78.38372039794922,29.99,0
-0.2554143965244293,-0.8653864860534668,-0.0392853058874607,-45.75912094116211,3.64888858795166,78.38597106933594,29.99,0
-0.2702679634094238,-0.874428391456604,-0.0252110473811626,-33.16310119628906,3.648573875427246,78.38741302490234,29.99,0
-0.2853979170322418,-0.8914265036582947,-0.0161789990961551,-38.52510452270508,3.648371934890747,78.38833618164062,29.99,0
-0.2951074540615082,-0.9023349285125732,-0.0159805249422788,-63.604888916015625,3.648242235183716,78.38893127441406,29.99,0
-0.2957406938076019,-0.9205308556556702,-0.0214509293437004,-85.2562255859375,3.64815902709961,78.38931274414062,29.99,0
-0.3017448484897613,-0.937805712223053,-0.0193637460470199,-75.69568634033203,3.64810562133789,78.38955688476562,29.99,0
-0.3279890716075897,-0.9209028482437134,0.0043667857535183,-32.74573516845703,3.6416444778442383,78.38971710205078,29.99,0
-0.3560266494750976,-0.9044578075408936,0.0195956751704216,17.355056762695312,3.637498140335083,78.38981628417969,29.99,0
-0.3740195333957672,-0.8883065581321716,0.0293687004595994,49.528358459472656,3.6348373889923096,78.38988494873047,29.99,0
-0.3911641240119934,-0.8891371488571167,0.0468360148370265,64.25691223144531,3.633129835128784,78.38992309570312,29.99,0
-0.3909709751605987,-0.889670193195343,0.0804366245865821,77.94703674316406,3.6320340633392334,78.38995361328125,29.99,0
-0.3740537166595459,-0.890012264251709,0.1131951138377189,99.47579193115234,3.631330728530884,78.38996887207031,29.99,0
-0.3520016372203827,-0.8958295583724976,0.1286198496818542,124.96732330322266,3.630879402160645,78.38997650146484,29.99,0
-0.3154587745666504,-0.916356086730957,0.116127461194992,145.9048614501953,3.630589723587036,78.38998413085938,29.99,0
-0.3032032251358032,-0.9463221430778505,0.1137083396315574,153.66297912597656,3.624436378479004,78.3899917602539,29.99,0
-0.3121316432952881,-0.9599548578262328,0.1289492100477218,145.7551727294922,3.6204874515533447,78.3899917602539,29.99,0
-0.3234591484069824,-0.9407146573066713,0.1331321448087692,132.5766143798828,3.617953300476074,78.3899917602539,29.99,0
-0.3307285010814667,-0.9227696657180786,0.1302187442779541,128.80178833007812,3.6163270473480233,78.3899917602539,29.99,0
-0.3241980075836181,-0.9168513417243958,0.128349095582962,136.82611083984375,3.615283489227295,78.3899917602539,29.99,0
-0.3144093453884125,-0.9186511039733888,0.1271492540836334,146.2317657470703,3.614613771438599,78.3899917602539,29.99,0
-0.2857364416122436,-0.9198060631752014,0.1207814961671829,148.28395080566406,3.6141839027404794,78.3899917602539,29.99,0
-0.2617380321025848,-0.926145076751709,0.1166950315237045,143.5821990966797,3.613908052444458,78.3899917602539,29.99,0
-0.2519350051879883,-0.9358108639717102,0.1140725761651992,133.9012908935547,3.617862462997437,78.5476303100586,29.99,0
-0.2512417733669281,-0.9420138001441956,0.1011940836906433,112.67048645019533,3.6204001903533936,78.64878845214844,29.99,0
-0.2507968842983246,-0.9571900367736816,0.0873316377401351,72.60279083251953,3.622028827667236,78.71370697021484,29.99,0
-0.356869101524353,-0.9501359462738036,0.0728377401828765,22.241527557373047,3.6230740547180176,78.75537109375,29.99,0
-0.3129846751689911,-0.9568045735359192,0.0579386167228221,-18.027172088623047,3.6237447261810303,78.7821044921875,29.99,0
-0.2904199361801147,-0.9666818976402284,0.042779441922903,-39.720680236816406,3.6241750717163086,78.79926300048828,29.99,0
-0.2703414261341095,-0.9618250131607056,0.0554422549903392,-54.03999328613281,3.6244513988494873,78.81027221679688,29.99,0
-0.3134339153766632,-0.981099247932434,0.0467751957476139,-73.87313842773438,3.62462854385376,78.81733703613281,29.99,0
-0.3354904353618622,-0.9654794931411744,0.0132243065163493,-99.38711547851562,3.632546186447144,78.8218765258789,29.99,0
-0.2712762057781219,-0.966651201248169,0.0532687939703464,-123.45230865478516,3.637627363204956,78.82479095458984,29.99,0
-0.2916427254676819,-1.0289785861968994,0.0509781688451767,-142.1417694091797,3.640887975692749,78.82666015625,29.99,0
-0.338299423456192,-0.727512538433075,0.0551059506833553,-156.44993591308594,3.642980575561523,78.8278579711914,29.99,0
-0.3458499014377594,-1.0490442514419556,-0.1325694024562835,-167.03646850585938,3.6443235874176025,78.82862854003906,29.99,0
-0.3506953716278076,-0.9810938239097596,-0.0402932167053222,-171.09678649902344,3.645185232162476,78.82911682128906,29.99,0
-0.3594026863574981,-0.8759115934371948,0.0133265536278486,-166.25071716308594,3.645738363265991,78.82943725585938,29.99,0
-0.3481972217559814,-0.9091716408729552,0.0253455378115177,-153.94430541992188,3.6460933685302734,78.82964324951172,29.99,0
-0.3466039597988128,-0.9417116045951844,0.0442541800439357,-136.1302032470703,3.635762929916382,78.82977294921875,29.99,0
-0.3455815017223358,-0.9513983130455016,0.0563886575400829,-113.4990005493164,3.629133462905884,78.8298568725586,29.99,0
-0.3505231142044067,-0.9576146602630616,0.0529803186655044,-89.23099517822266,3.624879121780396,78.82991027832031,29.99,0
-0.3592921495437622,-0.9504084587097168,0.056390818208456,-69.14672088623047,3.622148752212525,78.82994079589844,29.99,0
-0.3537240624427795,-0.9513816833496094,0.0529817044734954,-56.9814682006836,3.620396614074707,78.82996368408203,29.99,0
-0.3613463342189789,-0.9408106803894044,0.0675872564315795,-53.144004821777344,3.619272232055664,78.8299789428711,29.99,0
-0.3550423085689544,-0.9172335267066956,0.0825580283999443,-54.77622604370117,3.618550539016724,78.82998657226562,29.99,0
-0.3733878433704376,-0.9132986068725586,0.0697743147611618,-54.971038818359375,3.618087530136109,78.82999420166016,29.99,0
-0.3963565230369568,-0.9107733964920044,0.0783637836575508,-47.80909729003906,3.6076912879943848,78.82999420166016,29.99,0
-0.4446831345558166,-0.9035550951957704,0.0894737839698791,-33.9126091003418,3.6010196208953857,78.82999420166016,29.99,0
-0.3917297422885895,-0.9157161116600036,0.1301901936531067,-15.633373260498049,3.59673810005188,78.82999420166016,29.99,0
-0.4137250483036041,-0.9011292457580566,0.1619174182415008,8.629037857055664,3.593990564346313,78.82999420166016,29.99,0
-0.427840381860733,-0.891768217086792,0.2046692222356796,39.58641815185547,3.5922272205352783,78.82999420166016,29.99,0
-0.4089099168777466,-0.8857609033584595,0.2433004081249237,71.4547119140625,3.5910956859588623,78.82999420166016,29.99,0
-0.4135547578334808,-0.8875035047531128,0.2624939084053039,96.44507598876952,3.590369462966919,78.82999420166016,29.99,0
-0.4277310967445373,-0.877426266670227,0.2860067486763,112.16718292236328,3.5899035930633545,78.82999420166016,29.99,0
-0.4368286430835724,-0.8821548223495483,0.28990039229393,121.72650909423828,3.56022572517395,78.9625473022461,29.99,0
-0.4202758371829986,-0.868395984172821,0.2979968786239624,128.53823852539062,3.54118013381958,79.04761505126953,29.99,0
-0.4320442974567413,-0.8707619309425354,0.3143882751464844,133.84825134277344,3.5289578437805176,79.10220336914062,29.99,0
-0.4172055125236511,-0.8442913889884949,0.3472984433174133,137.28814697265625,3.5211143493652344,79.13723754882812,29.99,0
-0.4020850658416748,-0.8161085844039917,0.3628205060958862,136.1280517578125,3.516080856323242,79.15972137451172,29.99,0
-0.3755883276462555,-0.8036202192306519,0.3783794641494751,126.14411163330078,3.512850522994995,79.17414855957031,29.99,0
-0.3641819953918457,-0.7900081276893616,0.4051576256752014,107.37710571289062,3.510777473449707,79.18341064453125,29.99,0
-0.3512642979621887,-0.770077109336853,0.4279400706291199,86.13705444335938,3.5094470977783203,79.1893539428711,29.99,0
-0.354170024394989,-0.7908732295036316,0.4425605237483978,69.02772521972656,3.5108883380889893,79.19316864013672,29.99,0
-0.3280458748340606,-0.7818278670310974,0.4743342101573944,56.238746643066406,3.511813163757324,79.19561767578125,29.99,0
-0.339269757270813,-0.7760230898857117,0.4891269505023956,38.749061584472656,3.512406826019287,79.19718933105469,29.99,0
-0.3408748507499695,-0.7722979187965393,0.4874245226383209,4.661190032958984,3.5127875804901123,79.19819641113281,29.99,0
-0.3363071084022522,-0.7587117552757263,0.5143208503723145,-44.52799987792969,3.5130319595336914,79.19884490966797,29.99,0
-0.3053869307041168,-0.7555906772613525,0.5315814018249512,-86.91775512695312,3.51318883895874,79.19925689697266,29.99,0
-0.3079352378845215,-0.7423922419548035,0.5370604395866394,-97.24353790283205,3.513289451599121,79.19952392578125,29.99,0
-0.3039728105068207,-0.7339222431182861,0.5405765771865845,-65.7012710571289,3.5133540630340576,79.19969177246094,29.99,0
-0.2958321869373321,-0.7284866571426392,0.5484308004379272,2.661893367767334,3.562513828277588,79.19979858398438,29.99,0
-0.3018035590648651,-0.7361939549446106,0.5590689778327942,90.59194946289062,3.5940616130828857,79.19986724853516,29.99,0
-0.3056356310844421,-0.7467378377914429,0.5658959150314331,167.0613250732422,3.614307165145874,79.19991302490234,29.99,0
-0.3080948293209076,-0.7423087358474731,0.5646793246269226,203.91839599609372,3.6272997856140137,79.19994354248047,29.99,0
-0.3040752410888672,-0.7450641989707947,0.5638985633850098,199.1147308349609,3.6356375217437744,79.19996643066406,29.99,0
-0.3014957010746002,-0.7412347197532654,0.5689952969551086,170.25897216796875,3.640988349914551,79.1999740600586,29.99,0
-0.2942425310611725,-0.7387771606445312,0.5666683316230774,128.33604431152344,3.644422054290772,79.19998168945312,29.99,0
-0.2895878553390503,-0.7316022515296936,0.5707727670669556,71.50706481933594,3.6466257572174072,79.19998931884766,29.99,0
-0.2866007685661316,-0.7381933927536011,0.5734067559242249,-0.8169184923171997,3.5305237770080566,79.19998931884766,29.99,0
-0.2790860533714294,-0.7312276363372803,0.5750970840454102,-79.13670349121094,3.4560163021087646,79.19998931884766,29.99,0
-0.2798613011837005,-0.7323551774024963,0.5705840587615967,-153.07150268554688,3.4082016944885254,79.19998931884766,29.99,0
-0.2579677104949951,-0.7386765480041504,0.5676878690719604,-225.2025451660156,3.377516984939575,79.19998931884766,29.99,0
-0.2215265780687332,-0.7707221508026123,0.5658292770385742,-302.06219482421875,3.35782527923584,79.19998931884766,29.99,0
-0.1589563339948654,-0.6961249709129333,0.6542009115219116,-371.0152282714844,3.34518837928772,79.19998931884766,29.99,0
-0.3147244453430176,-0.620263934135437,0.6549350023269653,-406.23724365234375,3.337078809738159,79.19998931884766,29.99,0
-0.3531119525432586,-0.6891339421272278,0.627417266368866,-400.0690307617188,3.331874370574951,79.19998931884766,29.99,0
-0.4001379311084747,-0.7221352458000183,0.5817690491676331,-365.7805480957031,3.26991605758667,79.3504638671875,29.99,0
-0.4023276269435882,-0.704129159450531,0.5748657584190369,-316.0506286621094,3.2301547527313232,79.44702911376953,29.99,0
-0.3757439851760864,-0.6813783049583435,0.5592401027679443,-260.0368347167969,3.2046382427215576,79.50899505615234,29.99,0
-0.3474885821342468,-0.7899291515350342,0.5212235450744629,-209.80667114257807,3.188263177871704,79.54876708984375,29.99,0
-0.3517469763755798,-0.7924175262451172,0.5024244785308838,-169.546875,3.177754640579224,79.57428741455078,29.99,0
-0.3936641812324524,-0.7660256028175354,0.484762579202652,-127.40615844726562,3.171010971069336,79.59066772460938,29.99,0
-0.3701842725276947,-0.7714798450469971,0.4790259599685669,-73.60800170898438,3.1666831970214844,79.60118103027344,29.99,0
-0.3607139885425567,-0.7749800682067871,0.4809423089027405,-12.192621231079102,3.1639058589935303,79.60792541503906,29.99,0
-0.3434409499168396,-0.7548352479934692,0.515758752822876,45.9105339050293,3.108415365219116,79.61225128173828,30.01,0
-0.3491494357585907,-0.7419074177742004,0.5436996817588806,96.88681030273438,3.0728046894073486,79.61502838134766,30.01,0
-0.3416172862052917,-0.7448066473007202,0.567228376865387,144.9661102294922,3.0499520301818848,79.61681365966797,30.01,0
-0.3535768985748291,-0.7522649765014648,0.5599366426467896,198.46609497070312,3.035286426544189,79.61795806884766,30.01,0
-0.3500563502311706,-0.740257978439331,0.583246111869812,262.7818908691406,3.0258748531341557,79.61869049072266,30.01,0
-0.331003725528717,-0.743748128414154,0.5870091915130615,331.9320983886719,3.0198349952697754,79.6191635131836,30.01,0
-0.3299723863601684,-0.7235968112945557,0.5950219035148621,396.9156799316406,3.0159590244293213,79.61946105957031,30.01,0
-0.3181149959564209,-0.721860408782959,0.6113595366477966,460.9342651367188,3.0134716033935547,79.6196517944336,30.01,0
