acc_x,acc_y,acc_z,bvp,eda,hr,temp,label
0.0,0.0,0.0,0.0,0.0,0.0,28.03,1
-0.0598958283662796,-0.1458333283662796,0.0520833283662796,7.409999370574951,0.3576186299324035,12.43666648864746,28.03,1
-0.1234756112098693,-0.3330792784690857,0.1177591457962989,19.15317153930664,0.8373510241508484,29.1200008392334,28.03,1
-0.1987126320600509,-0.5059177875518799,0.1699024140834808,29.83973503112793,1.2546355724334717,43.631629943847656,28.03,1
-0.2589402794837951,-0.6266745924949646,0.1865909397602081,35.8527717590332,1.5590671300888062,54.21864700317383,28.03,1
-0.3655936121940613,-0.7139217853546143,0.1978897750377655,37.53472518920898,1.7651801109313965,61.38650131225586,28.03,1
-0.3300650715827942,-0.787827730178833,0.2219626605510711,38.08746337890625,1.9004199504852293,66.08964538574219,28.03,1
-0.3516896367073059,-0.8245342969894409,0.2208154946565628,39.55952835083008,1.9880081415176392,69.1356430053711,28.03,1
-0.3767999410629272,-0.8761305212974548,0.2144863456487655,40.66521072387695,2.038470268249512,71.09778594970703,28.03,1
-0.3649661839008331,-0.8869150280952454,0.2272022664546966,39.50682067871094,2.070904493331909,72.35894012451172,28.03,1
-0.3965424597263336,-0.8602614402770996,0.2129819095134735,35.797264099121094,2.0917322635650635,73.16879272460938,28.03,1
-0.4168116450309753,-0.8767356276512146,0.2206454128026962,29.27499389648437,2.1051018238067627,73.68865203857422,28.03,1
-0.4018328785896301,-0.8873089551925659,0.236759066581726,18.9271297454834,2.113682508468628,74.02230072021484,28.03,1
-0.4146106839179992,-0.8773015737533569,0.2303072810173034,5.027988433837891,2.119189500808716,74.2364273071289,28.03,1
-0.4172131717205047,-0.882074773311615,0.231764554977417,-9.949939727783203,2.1227235794067383,74.37384796142578,28.03,1
-0.4188832938671112,-0.879540205001831,0.232699766755104,-22.92243194580078,2.1249914169311523,74.4620361328125,28.03,1
-0.4199551045894623,-0.8835114240646362,0.2332999259233474,-31.80275535583496,2.1471049785614014,74.51863098144531,28.03,1
-0.4206429123878479,-0.8860599398612976,0.2336850762367248,-35.98263168334961,2.161296367645264,74.55494689941406,28.03,1
-0.421084314584732,-0.8876954317092896,0.2339322417974472,-36.44742202758789,2.170403480529785,74.57825469970703,28.03,1
-0.4213675856590271,-0.8887449502944946,0.2340908646583557,-35.29833984375,2.1762478351593018,74.59320831298828,28.03,1
-0.421549379825592,-0.8894184827804565,0.2341926544904709,-34.26715087890625,2.1799983978271484,74.6028060913086,28.03,1
-0.4216660261154175,-0.8898507356643677,0.2342579811811447,-33.80243682861328,2.182405471801758,74.60897064208984,28.03,1
-0.4217408895492553,-0.8901281356811523,0.234299898147583,-33.35732650756836,2.183950185775757,74.61292266845703,28.03,1
-0.4217889308929443,-0.8903061151504517,0.2343268096446991,-31.99690628051757,2.184941530227661,74.6154556274414,28.03,1
-0.4218197762966156,-0.8904203772544861,0.2343440800905227,-29.38631629943848,2.128652334213257,74.6170883178711,28.03,1
-0.421839565038681,-0.8904936909675598,0.2343551516532898,-26.403350830078125,2.092529058456421,74.61813354492188,28.03,1
-0.4218522608280182,-0.8905407190322876,0.2343622595071792,-23.779705047607425,2.069347381591797,74.61880493164062,28.03,1
-0.42186039686203,-0.8905709385871887,0.2343668192625045,-20.645057678222656,2.0544705390930176,74.61923217773438,28.03,1
-0.4218656420707702,-0.8905903100967407,0.2287719696760177,-15.917828559875488,2.0449235439300537,74.6195068359375,28.03,1
-0.4162712097167969,-0.8906027674674988,0.2307793051004409,-10.168572425842283,2.038796901702881,74.61968231201172,28.03,1
-0.4182788133621216,-0.8906107544898987,0.2320674955844879,-4.6268391609191895,2.034865140914917,74.61979675292969,28.03,1
-0.4195671677589416,-0.8906158804893494,0.2272963970899582,0.6061710715293884,2.032341957092285,74.619873046875,28.03,1
-0.4203939735889435,-0.890619158744812,0.2298323661088943,6.511627674102783,2.036231517791748,74.852783203125,28.03,1
-0.420924574136734,-0.8906212449073792,0.2314597964286804,14.124017715454102,2.0387277603149414,75.00225067138672,28.03,1
-0.4212650656700134,-0.890622615814209,0.2325041890144348,23.19007682800293,2.040329694747925,75.09817504882812,28.03,1
-0.42148357629776,-0.8906234502792358,0.2331744283437729,31.46579933166504,2.0413577556610107,75.15972900390625,28.03,1
-0.4216237962245941,-0.8906239867210388,0.2280067652463913,36.55097961425781,2.0420174598693848,75.19923400878906,28.03,1
-0.4217137992382049,-0.8850265741348267,0.2246904522180557,38.57836532592773,2.042440891265869,75.2245864868164,28.03,1
-0.4217715561389923,-0.8870322704315186,0.2281600087881088,39.771949768066406,2.042712450027466,75.24085235595703,28.03,1
-0.4162108302116394,-0.8883193731307983,0.2247887998819351,40.82810974121094,2.042886734008789,75.25129699707031,28.03,1
-0.4126423001289367,-0.8947431445121765,0.2226253598928451,38.49652862548828,2.0443758964538574,75.25799560546875,28.03,1
-0.4047544300556183,-0.8876700401306152,0.2212369889020919,28.1799545288086,2.0453314781188965,75.26229858398438,28.03,1
-0.3996924459934234,-0.8775331377983093,0.2203460037708282,9.744036674499512,2.0459446907043457,75.26505279541016,28.03,1
-0.3964439630508423,-0.88222336769104,0.2253720015287399,-11.527161598205566,2.046338081359864,75.2668228149414,28.03,1
-0.3943592607975006,-0.8796355128288269,0.2285973876714706,-31.336238861083984,2.046590566635132,75.26795959472656,28.03,1
-0.3930214345455169,-0.8723770380020142,0.2306672632694244,-50.3001594543457,2.046752691268921,75.26869201660156,28.03,1
-0.397760659456253,-0.8733167052268982,0.2319955825805664,-69.91470336914062,2.046856641769409,75.26915740966797,28.03,1
-0.4063998162746429,-0.8795175552368164,0.2328480333089828,-88.20923614501953,2.0469233989715576,75.26945495605469,28.03,1
-0.4175416827201843,-0.8890946507453918,0.2277972996234893,-100.39743041992188,2.049261569976806,75.26964569091797,28.03,1
-0.4302896857261657,-0.8896428942680359,0.224556028842926,-102.26129150390624,2.050762176513672,75.26976776123047,28.03,1
-0.4496661722660064,-0.8843969702720642,0.2224759757518768,-93.79520416259766,2.051725149154663,75.26985168457031,28.03,1
-0.4509053230285644,-0.8866282105445862,0.2155433446168899,-79.81771087646484,2.0523431301116943,75.26990509033203,28.03,1
-0.4461027681827545,-0.8936578631401062,0.2110943794250488,-65.81423950195312,2.05273962020874,75.26993560791016,28.03,1
-0.4374229907989502,-0.8925713300704956,0.1914459615945816,-54.31623458862305,2.0529942512512207,75.26995849609375,28.03,1
-0.4598416686058044,-0.8918740153312683,0.1732389628887176,-45.672828674316406,2.0531575679779053,75.26997375488281,28.03,1
-0.4742286801338196,-0.874633252620697,0.1447614431381225,-39.29841232299805,2.05326247215271,75.26998138427734,28.03,1
-0.4722658991813659,-0.8691668510437012,0.1320839822292328,-33.88570785522461,2.0542478561401367,75.26998901367188,28.03,1
-0.4654085338115692,-0.8600610494613647,0.1295460909605026,-28.792823791503903,2.054880380630493,75.26998901367188,28.03,1
-0.4945945143699646,-0.859815239906311,0.1279174238443374,-24.68976402282715,2.055286169052124,75.26998901367188,28.03,1
-0.5021288394927979,-0.870853066444397,0.1324700117111206,-21.92768287658692,2.055546522140503,75.26998901367188,28.03,1
-0.5069639682769775,-0.88353431224823,0.1409893780946731,-19.571178436279297,2.055713653564453,75.26998901367188,28.03,1
-0.5156646370887756,-0.8916723728179932,0.1464566141366958,-16.758434295654297,2.055820941925049,75.26998901367188,28.03,1
-0.5212482213973999,-0.8968949317932129,0.1499651670455932,-13.932343482971191,2.055889844894409,75.26998901367188,28.03,1
-0.5136358737945557,-0.9002464413642883,0.1578145325183868,-11.989748001098633,2.055933952331543,75.26998901367188,28.03,1
-0.4975551664829254,-0.9079950451850892,0.1740473508834839,-10.807588577270508,2.056880474090576,75.43836975097656,28.03,1
-0.4816377162933349,-0.9129676222801208,0.1900624185800552,-9.439908981323242,2.057487964630127,75.54643249511719,28.03,1
-0.454629510641098,-0.9161587357521056,0.2115355134010315,-7.519680976867676,2.057877779006958,75.61577606201172,28.03,1
-0.4316994249820709,-0.9238044023513794,0.2197179347276687,-5.556543827056885,2.0581278800964355,75.6602783203125,28.03,1
-0.4169842004776001,-0.951102077960968,0.2361644953489303,-3.9599533081054688,2.05828857421875,75.68883514404297,28.03,1
-0.413138598203659,-1.0078045129776,0.2355233877897262,-2.824293613433838,2.058391571044922,75.70716094970703,28.03,1
-0.3994751572608948,-1.0777795314788818,0.2183186411857605,-2.331942558288574,2.058457612991333,75.71892547607422,28.03,1
-0.3571200966835022,-1.0890988111495972,0.1960820853710174,-2.424393653869629,2.058500051498413,75.72647857666016,28.03,1
-0.3243412971496582,-1.0515806674957275,0.1818119436502456,-2.480140686035156,2.05944561958313,75.7313232421875,28.03,1
-0.3089035153388977,-1.0386992692947388,0.1614586412906646,-2.071676731109619,2.060052394866944,75.73442840576172,28.03,1
-0.2710075676441192,-0.996846079826355,0.137201502919197,-1.4692033529281616,2.060441732406616,75.7364273071289,28.03,1
-0.2354925721883773,-0.9364004731178284,0.1216346770524978,-1.0933183431625366,2.060691595077514,75.73770904541016,28.03,1
-0.2518855035305023,-0.8920121788978577,0.1004492342472076,-1.0670515298843384,2.060851812362671,75.738525390625,28.03,1
-0.2791988849639892,-0.8803196549415588,0.0980491861701011,-1.376209378242493,2.0609548091888428,75.73905181884766,28.03,1
-0.3135203719139099,-0.8672183156013489,0.0909111946821212,-1.922118902206421,2.061020851135254,75.73938751220703,28.03,1
-0.3019592761993408,-0.853212833404541,0.1143193170428276,-2.498154401779175,2.061063289642334,75.73960876464844,28.03,1
-0.3001377880573272,-0.8330293893814087,0.1349390745162964,-2.9788806438446045,2.061090469360352,75.73974609375,28.03,1
-0.3101644217967987,-0.8256745934486389,0.1593672037124633,-3.3124611377716064,2.061107873916626,75.73983764648438,28.03,1
-0.3221967220306396,-0.8209546804428101,0.1750437617301941,-3.222014904022217,2.061119079589844,75.73989868164062,28.03,1
-0.3243205845355987,-0.8347190618515015,0.1907018572092056,-2.408048391342163,2.061126232147217,75.73993682861328,28.03,1
-0.3312813341617584,-0.8323566913604736,0.2119458615779876,-1.111855149269104,2.06113076210022,75.73995971679688,28.03,1
-0.3413461148738861,-0.8308406472206116,0.2255790382623672,0.0782245472073555,2.061133861541748,75.73997497558594,28.03,1
-0.3534028828144073,-0.8186721801757812,0.2399258017539978,0.9458438754081726,2.061135768890381,75.73998260498047,28.03,1
-0.3611402213573456,-0.810863196849823,0.2491327375173568,1.5384577512741089,2.0611369609832764,75.739990234375,28.03,1
-0.3661055862903595,-0.8338406682014465,0.2606389820575714,1.7396345138549805,2.0625147819519043,75.739990234375,28.03,1
-0.3860853910446167,-0.8653796315193176,0.2680230438709259,1.4997328519821167,2.063399076461792,75.739990234375,28.03,1
-0.4101028442382812,-0.9024128317832948,0.261566162109375,0.9839376211166382,2.0639665126800537,75.739990234375,28.03,1
-0.453504741191864,-0.9653630256652832,0.2574225068092346,0.3663239181041717,2.064330577850342,75.739990234375,28.03,1
-0.4925531148910522,-1.044945240020752,0.2603611052036285,-0.1589977294206619,2.0645642280578613,75.739990234375,28.03,1
-0.5456010103225708,-1.090418815612793,0.2566491663455963,-0.5176143050193787,2.064714193344116,75.739990234375,28.03,1
-0.5572530031204224,-1.063623309135437,0.2486692816019058,-1.084515929222107,2.064810514450073,75.739990234375,28.03,1
-0.5591327548027039,-1.046427607536316,0.2435482442378997,-2.143340349197388,2.0648722648620605,75.739990234375,28.03,1
-0.5491435527801514,-1.068979024887085,0.2346640825271606,-3.166760206222534,2.067666530609131,75.87612915039062,28.03,1
-0.5203419327735901,-1.077853441238403,0.2289627492427826,-3.683811902999878,2.0694596767425537,75.9635009765625,28.03,1
-0.4682720899581909,-1.044364094734192,0.214108407497406,-4.187589645385742,2.070610523223877,76.01956939697266,28.03,1
-0.434856653213501,-0.99488365650177,0.1821846514940261,-5.162913799285889,2.0713489055633545,76.05554962158203,28.03,1
-0.4022170007228851,-0.9575322270393372,0.1561000496149063,-6.107669830322266,2.0718228816986084,76.07864379882812,28.03,1
-0.3700751960277557,-0.9111711382865906,0.1281649023294448,-6.434518814086914,2.072127103805542,76.09346008300781,28.03,1
-0.3494484424591064,-0.8758214712142944,0.1046399548649787,-6.24660587310791,2.072322368621826,76.10296630859375,28.03,1
-0.3306136131286621,-0.8419405221939087,0.0783474519848823,-5.7176008224487305,2.0724475383758545,76.10906982421875,28.03,1
-0.3129287362098694,-0.809002161026001,0.0558766610920429,-4.726087093353272,2.067936897277832,76.11298370361328,28.03,1
-0.3071773648262024,-0.7822664380073547,0.0414562001824379,-3.244302749633789,2.06504225730896,76.1155014038086,28.03,1
-0.3202797770500183,-0.7986956238746643,0.0377997532486915,-1.551785588264465,2.0631844997406006,76.11711120605469,28.03,1
-0.3286881744861603,-0.8316299915313721,0.0410510301589965,-0.0751247107982635,2.0619924068450928,76.11814880371094,28.03,1
-0.3172908723354339,-0.880754292011261,0.0599308349192142,0.9728233218193054,2.061227321624756,76.11881256103516,28.03,1
-0.3267700672149658,-0.9906482696533204,0.0832423567771911,1.785056471824646,2.0607364177703857,76.1192398071289,28.03,1
-0.3328532576560974,-1.1059540510177612,0.1038001254200935,2.711132049560547,2.060421228408813,76.11951446533203,28.03,1
-0.3479526340961456,-1.129570722579956,0.1561773419380188,3.8643157482147217,2.060219049453736,76.11968994140625,28.03,1
-0.3632403314113617,-1.0439666509628296,0.1953877955675125,4.873055934906006,2.062844038009644,76.11980438232422,28.03,1
-0.4010399580001831,-0.9498464465141296,0.198159709572792,4.943612575531006,2.064528465270996,76.119873046875,28.03,1
-0.4029065072536468,-0.967814326286316,0.2167318910360336,3.699164628982544,2.0656094551086426,76.11991882324219,28.03,1
-0.3817132413387298,-0.962551772594452,0.2398459911346435,2.0514791011810303,2.066303253173828,76.11994934082031,28.03,1
-0.3457215130329132,-0.8975990414619446,0.2434837371110916,1.3380166292190552,2.0667483806610107,76.1199722290039,28.03,1
-0.339417427778244,-0.8335250020027161,0.2290249168872833,1.6683241128921509,2.0670340061187744,76.11997985839844,28.03,1
-0.3745562434196472,-0.7812104225158691,0.2141482979059219,1.969860911369324,2.0672173500061035,76.11998748779297,28.03,1
-0.4027040898799896,-0.7756268382072449,0.2101991176605224,1.5364190340042114,2.06733512878418,76.1199951171875,28.03,1
-0.4095722138881683,-0.7776413559913635,0.218860313296318,0.702961802482605,2.071542501449585,76.1199951171875,28.03,1
-0.4139797687530517,-0.7957274913787842,0.2412118911743164,0.1358537673950195,2.07424259185791,76.1199951171875,28.03,1
-0.4224060773849487,-0.8073341250419617,0.2555558383464813,0.1409217715263366,2.075975179672241,76.1199951171875,28.03,1
-0.4446069002151489,-0.8203803896903992,0.2591632008552551,0.8212808966636658,2.077087163925171,76.1199951171875,28.03,1
-0.4588541090488434,-0.8511438369750977,0.2726737260818481,2.189365863800049,2.077800750732422,76.1199951171875,28.03,1
-0.4679971635341644,-0.893277108669281,0.2813440263271332,3.780256748199463,2.078258752822876,76.1199951171875,28.03,1
-0.468266874551773,-0.9427069425582886,0.2869081199169159,4.668643474578857,2.078552484512329,76.1199951171875,28.03,1
-0.4684399664402008,-0.9800259470939636,0.284881055355072,4.407601356506348,2.0787410736083984,76.1199951171875,28.03,1
-0.5021376609802246,-1.0263662338256836,0.2723846435546875,3.5629727840423584,2.0728938579559326,76.20597839355469,28.03,1
-0.5517517924308777,-1.1008869409561155,0.2755607366561889,2.899131298065185,2.069141387939453,76.26116180419922,28.03,1
-0.5723957419395447,-1.098330020904541,0.2664034068584442,2.5161068439483643,2.066733360290528,76.29656982421875,28.03,1
-0.5632527470588684,-1.0687003135681152,0.2605267763137817,2.033853769302368,2.065187931060791,76.31929779052734,28.03,1
-0.557385265827179,-1.0720767974853516,0.2567554712295532,1.1834027767181396,2.064196348190308,76.33387756347656,28.03,1
-0.5536198616027832,-1.079841375350952,0.2375419437885284,0.1539844870567321,2.063560009002685,76.3432388305664,28.03,1
-0.4896279573440552,-1.056835412979126,0.2196140438318252,-0.5209672451019287,2.063151597976685,76.3492431640625,28.03,1
-0.4261705279350281,-1.0140825510025024,0.2081089466810226,-0.7427403926849365,2.062889575958252,76.35309600830078,28.03,1
-0.3798494338989258,-0.9530596137046814,0.1727367639541626,-1.1286767721176147,2.063639640808105,76.3555679321289,28.03,1
-0.3501232266426086,-0.8971052765846252,0.1388413906097412,-2.0606205463409424,2.0641207695007324,76.3571548461914,28.03,1
-0.3366444110870361,-0.8500014543533325,0.1058937385678291,-3.092180013656616,2.064429521560669,76.3581771850586,28.03,1
-0.3279944956302643,-0.8085774183273315,0.0735542774200439,-3.6001248359680176,2.064627885818481,76.35883331298828,28.03,1
-0.3168457150459289,-0.7707982659339905,0.0472029000520706,-3.3313868045806885,2.0647549629211426,76.3592529296875,28.03,1
-0.3096910417079925,-0.7577493786811829,0.0302921049296855,-2.317021131515503,2.064836502075196,76.3595199584961,28.03,1
-0.3162951469421386,-0.7661686539649963,0.0250375028699636,-0.9423792958259584,2.0648889541625977,76.35969543457031,28.03,1
-0.3261310458183288,-0.8107560873031616,0.0272631775587797,0.258635938167572,2.064922571182251,76.35980224609375,28.03,1
-0.3324431777000427,-0.8785541653633118,0.0510825850069522,1.276576042175293,2.06173062324524,76.35987091064453,28.03,1
-0.3364939391613006,-0.9500519037246704,0.0663685053586959,2.488713264465332,2.0596823692321777,76.35991668701172,28.03,1
-0.3390934765338897,-1.051912784576416,0.0873736813664436,3.717997789382935,2.058367729187012,76.35994720458984,28.03,1
-0.3463594913482666,-1.150867938995361,0.1176469177007675,4.402987003326416,2.0575242042541504,76.35997009277344,28.03,1
-0.3622179329395294,-1.085622787475586,0.1538678556680679,4.813913345336914,2.0569827556610107,76.35997772216797,28.03,1
-0.3947860896587372,-0.9821767210960388,0.1603190451860427,5.794137001037598,2.05663537979126,76.3599853515625,28.03,1
-0.4100886583328247,-0.954975426197052,0.1588612794876098,7.268675804138184,2.0564124584198,76.35999298095703,28.03,1
-0.3975178897380829,-0.95431250333786,0.1859146356582641,8.46214771270752,2.056269407272339,76.35999298095703,28.03,1
-0.3726573586463928,-0.93149596452713,0.2144714742898941,9.224467277526855,2.062145709991455,76.35999298095703,28.01,1
-0.3567033112049103,-0.8552781343460083,0.2216020673513412,9.685019493103027,2.0659167766571045,76.35999298095703,28.01,1
-0.3800515532493591,-0.8007681369781494,0.2205802947282791,9.457518577575684,2.0683369636535645,76.35999298095703,28.01,1
-0.4006328880786896,-0.776982307434082,0.2255223542451858,8.337060928344727,2.069890022277832,76.35999298095703,28.01,1
-0.4082430303096771,-0.7897067666053772,0.2454871982336044,6.987483024597168,2.070886611938477,76.35999298095703,28.01,1
-0.4131267964839935,-0.820263683795929,0.2694950401782989,6.071245193481445,2.071526288986206,76.35999298095703,28.01,1
-0.4162608981132507,-0.8342756032943726,0.2904996573925018,5.361449241638184,2.07193660736084,76.35999298095703,28.01,1
-0.4238699674606323,-0.8320720791816711,0.303979218006134,4.3184003829956055,2.072200059890747,76.35999298095703,28.01,1
-0.4455463588237762,-0.8474513292312622,0.3070318400859833,3.0937325954437256,2.0659420490264893,76.75408172607422,28.01,1
-0.4594570100307464,-0.8909074664115906,0.3089908361434936,2.214664459228516,2.0619258880615234,77.0069808959961,28.01,1
-0.4683840572834015,-0.9299907088279724,0.3102480173110962,1.5717123746871948,2.0593485832214355,77.16928100585938,28.01,1
-0.4797106981277466,-0.9942564964294434,0.294261485338211,0.6002209186553955,2.057694673538208,77.27342987060547,28.01,1
-0.5205661654472351,-1.0522918701171875,0.2784044742584228,-0.754071831703186,2.056633234024048,77.34027099609375,28.01,1
-0.5691758990287781,-1.111926794052124,0.2738261222839355,-2.056670665740967,2.0559520721435547,77.38316345214844,28.01,1
-0.6059686541557312,-1.0998170375823977,0.2484969049692154,-2.8603603839874268,2.055515050888061,77.41069030761719,28.01,1
-0.6071889996528625,-1.0920456647872925,0.2266443073749542,-2.7670843601226807,2.055234432220459,77.42835235595703,28.01,1
-0.5855810642242432,-1.1038517951965332,0.2294138818979263,-1.7865031957626345,2.0559725761413574,77.43968963623047,28.01,1
-0.5381276607513428,-1.1058305501937866,0.219995692372322,-0.7094007134437561,2.056446313858032,77.44696807861328,28.01,1
-0.4852837026119232,-1.0903069972991943,0.2083538621664047,-0.2653760612010956,2.0567502975463867,77.4516372680664,28.01,1
-0.4177848696708679,-1.0355627536773682,0.1896872669458389,-0.3100235164165497,2.056945562362671,77.45463562011719,28.01,1
-0.3744679987430572,-0.9892354607582092,0.1665125638246536,-0.5249696373939514,2.057070732116699,77.45655822753906,28.01,1
-0.3466697335243225,-0.9371141791343688,0.1292492747306823,-1.142974853515625,2.0571510791778564,77.45779418945312,28.01,1
-0.340025931596756,-0.886872410774231,0.0885425209999084,-2.345654487609864,2.0572025775909424,77.45858764648438,28.01,1
-0.3301645517349243,-0.8434346318244934,0.0568214915692806,-3.697842359542847,2.057235717773437,77.45909118652344,28.01,1
-0.3182383179664612,-0.7875698804855347,0.0252692122012376,-4.483199596405029,2.054961681365967,77.45941925048828,28.01,1
-0.3161825239658355,-0.7629146575927734,0.0106185525655746,-4.249186038970947,2.053502321243286,77.45962524414062,28.01,1
-0.3148632347583771,-0.7694834470748901,0.001216601463966,-3.196200370788574,2.052565813064575,77.45976257324219,28.01,1
-0.314016580581665,-0.8016877770423889,0.0175740681588649,-2.104876041412353,2.05196475982666,77.45984649658203,28.01,1
-0.3190710246562958,-0.8447457551956177,0.039266899228096,-1.3901965618133545,2.051578998565674,77.45989990234375,28.01,1
-0.3279124498367309,-0.9059645533561708,0.053188107907772,-0.5661337375640869,2.0513315200805664,77.4599380493164,28.01,1
-0.3391841351985931,-0.9844356775283812,0.0677197128534317,0.7723644375801086,2.0511727333068848,77.4599609375,28.01,1
-0.3520154356956482,-1.0851738452911377,0.1218274533748626,2.3084421157836914,2.0510706901550293,77.45997619628906,28.01,1
-0.3714453876018524,-1.0154752731323242,0.1789417862892151,3.871003150939941,2.0528414249420166,77.4599838256836,27.99,1
-0.4063054919242859,-0.9539533853530884,0.1988011598587036,5.826730251312256,2.053977727890014,77.45999145507812,27.99,1
-0.4398722648620605,-0.9872432351112366,0.2115457504987716,8.17448902130127,2.0547068119049072,77.45999145507812,27.99,1
-0.4446201622486114,-1.0030089616775513,0.2365178316831588,10.26510524749756,2.055174827575684,77.45999145507812,27.99,1
-0.4028849005699157,-0.9459532499313354,0.2693367898464203,11.613906860351562,2.055475234985352,77.45999145507812,27.99,1
-0.3761016130447387,-0.8701537251472473,0.2736047804355621,12.16064167022705,2.0556678771972656,77.45999145507812,27.99,1
-0.3813047409057617,-0.8271077275276184,0.2763437330722809,11.87738800048828,2.05579161643982,77.45999145507812,27.99,1
-0.4070349037647247,-0.8162766098976135,0.2781014442443847,10.810715675354004,2.05587100982666,77.45999145507812,27.99,1
-0.42914479970932,-0.8149235844612122,0.2792294323444366,9.538644790649414,2.0605125427246094,77.8397445678711,27.99,1
-0.4321381151676178,-0.8196530938148499,0.3079421818256378,8.811867713928223,2.0634913444519043,78.08345031738281,27.99,1
-0.4396568238735199,-0.8114926815032959,0.3263683915138244,8.517427444458008,2.065402746200561,78.2398452758789,27.99,1
-0.4500796794891357,-0.8118535876274109,0.3325954973697662,7.730182647705078,2.066629409790039,78.3402099609375,27.99,1
-0.4511706829071045,-0.8288785219192505,0.3309939205646515,6.168114185333252,2.0674166679382324,78.40461730957031,27.99,1
-0.4574685990810394,-0.8621951937675476,0.3355638682842254,4.588873863220215,2.0679218769073486,78.44595336914062,27.99,1
-0.4671080112457275,-0.9227603673934937,0.3328988254070282,3.489426612854004,2.0682461261749268,78.47248077392578,27.99,1
-0.4788918197154999,-0.9840186834335328,0.3087974786758423,2.547414779663086,2.0684542655944824,78.489501953125,27.99,1
-0.4976495206356048,-1.023330807685852,0.2877328395843506,1.4449076652526855,2.065833568572998,78.50042724609375,27.99,1
-0.5432738065719604,-1.0765478610992432,0.2686170041561126,0.2358215302228927,2.064151763916016,78.50743865966797,27.99,1
-0.5837484002113342,-1.1106995344161987,0.2563495337963104,-0.9126882553100586,2.063072443008423,78.5119400024414,27.99,1
-0.5761359930038452,-1.0934317111968994,0.2372814416885376,-1.7106395959854126,2.062379837036133,78.51482391357422,27.99,1
-0.5544574856758118,-1.1159368753433228,0.2418379634618759,-1.7928097248077393,2.0619354248046875,78.51667785644531,27.99,1
-0.5181543827056885,-1.1359771490097046,0.2391643077135086,-1.2472516298294067,2.061650037765503,78.51786804199219,27.99,1
-0.4668682515621185,-1.109653353691101,0.2206551730632782,-0.6786067485809326,2.061466932296753,78.51863098144531,27.99,1
-0.4227602183818817,-1.0591737031936646,0.2031792998313903,-0.6074543595314026,2.061349391937256,78.51911926269531,27.99,1
-0.3832586705684662,-0.9987898468971252,0.1695732027292251,-1.1994913816452026,2.056683301925659,78.5194320678711,27.99,1
-0.3523110747337341,-0.9320501089096068,0.1256156414747238,-2.460740089416504,2.0536890029907227,78.51963806152344,27.99,1
-0.3380484580993652,-0.8836225867271423,0.0918084383010864,-4.054720878601074,2.051767349243164,78.51976776123047,27.99,1
-0.323297768831253,-0.8357512950897217,0.0589173696935176,-5.174375534057617,2.050534009933472,78.51985168457031,27.99,1
-0.3082338273525238,-0.7882369160652161,0.0378097780048847,-5.162060260772705,2.0497426986694336,78.51990509033203,27.99,1
-0.2985666692256927,-0.7521471381187439,0.0242641381919384,-4.143870830535889,2.049234867095948,78.51993560791016,27.99,1
-0.3035583794116974,-0.7401823401451111,0.021169101819396,-2.8814175128936768,2.0489089488983154,78.51995849609375,27.99,1
-0.3123595714569092,-0.7436996102333069,0.0247806590050458,-2.0246741771698,2.048699855804444,78.51997375488281,27.99,1
-0.3236054182052612,-0.801934540271759,0.0382938981056213,-1.5500996112823486,2.04902458190918,78.51998138427734,28.03,1
-0.3308223783969879,-0.8616974353790283,0.0525636933743953,-0.9804344177246094,2.0492329597473145,78.51998901367188,28.03,1
-0.3522471189498901,-0.9728208780288696,0.0897100940346717,0.0085120759904384,2.0493667125701904,78.51998901367188,28.03,1
-0.3715940713882446,-1.0777201652526855,0.1415373980998993,1.5638829469680786,2.049452543258667,78.51998901367188,28.03,1
-0.3784120380878448,-1.0722674131393433,0.1915904879570007,3.948487281799317,2.0495076179504395,78.51998901367188,28.03,1
-0.3995807468891144,-1.0127904415130615,0.223711684346199,7.098113059997559,2.0495429039001465,78.51998901367188,28.03,1
-0.4187633693218231,-1.002610445022583,0.2387274503707885,10.219212532043455,2.049565553665161,78.51998901367188,28.03,1
-0.4086825847625732,-1.0072729587554932,0.265157014131546,12.422779083251951,2.0495800971984863,78.51998901367188,28.03,1
-0.3854199945926666,-0.943091869354248,0.2821179926395416,13.46073055267334,2.055098295211792,78.83168029785156,28.03,1
-0.3704914152622223,-0.8739152550697327,0.2818070352077484,13.471216201782228,2.0586395263671875,79.03170013427734,28.03,1
-0.3888999819755554,-0.8239238858222961,0.2704119384288788,12.49273681640625,2.060912132263184,79.16006469726562,28.03,1
-0.4119090735912323,-0.8030378818511963,0.2686969935894012,10.721963882446287,2.062370538711548,79.24243927001953,28.03,1
-0.4266749918460846,-0.8120255470275879,0.2731941938400268,8.944302558898926,2.063306331634521,79.29530334472656,28.03,1
-0.430553138256073,-0.8345866203308105,0.2816780209541321,7.953970432281494,2.0639069080352783,79.32923126220703,28.03,1
-0.4386396706104278,-0.8434672355651855,0.292720228433609,7.436656951904297,2.064292430877685,79.35100555419922,28.03,1
-0.449426919221878,-0.8379707932472229,0.2942087054252624,6.309343338012695,2.064539909362793,79.36497497558594,28.03,1
-0.4563495516777038,-0.8288456797599792,0.289566159248352,4.235267162322998,2.061026096343994,79.37393951416016,28.03,1
-0.4607920944690704,-0.8509786128997803,0.2865868210792541,1.9262014627456665,2.058771133422852,79.37969207763672,28.03,1
-0.4468497633934021,-0.8875733017921448,0.2846748530864715,0.0108843762427568,2.057324171066284,79.38338470458984,28.03,1
-0.4323045909404754,-0.9054599404335022,0.2722523212432861,-1.4439581632614136,2.056395530700684,79.38575744628906,28.03,1
-0.4397636651992798,-0.922536313533783,0.2474869340658188,-2.592546939849853,2.0557994842529297,79.38727569580078,28.03,1
-0.4501482248306274,-0.9502882361412048,0.2371917068958282,-3.652076959609986,2.055417060852051,79.38825225830078,28.03,1
-0.5183879733085632,-1.0688577890396118,0.2417803704738617,-4.683114528656006,2.055171728134156,79.38887786865234,28.03,1
-0.556582510471344,-1.0553845167160034,0.2335295677185058,-5.258793354034424,2.055014133453369,79.3892822265625,28.03,1
-0.5643002986907959,-1.0467381477355957,0.2114413529634475,-4.908133506774902,2.05307674407959,79.38954162597656,28.03,1
-0.5412642359733582,-1.091569423675537,0.2196575105190277,-3.826864242553711,2.051833391189575,79.38970184326172,28.03,1
-0.5152854919433594,-1.1371328830718994,0.2249301671981811,-2.656485319137573,2.0510354042053223,79.38980865478516,28.03,1
-0.4482338428497314,-1.1383839845657349,0.2171183079481125,-1.862412691116333,2.050523281097412,79.38987731933594,28.03,1
-0.3940083980560303,-1.0776113271713257,0.1897139996290207,-1.7433233261108398,2.05019474029541,79.38992309570312,28.03,1
-0.3592096269130707,-1.033013105392456,0.1609319448471069,-2.4837257862091064,2.0499837398529053,79.38995361328125,28.03,1
-0.3480733335018158,-0.9931970238685608,0.1144724041223526,-3.650310516357422,2.0498485565185547,79.38996887207031,28.03,1
-0.3521222472190857,-0.956449806690216,0.0790595710277557,-4.309392929077148,2.0497617721557617,79.38997650146484,28.03,1
-0.3379272818565368,-0.8992809057235718,0.0451381057500839,-3.9656832218170166,2.052001476287842,79.38998413085938,28.03,1
-0.3176222145557403,-0.8402020931243896,0.023369263857603,-2.8673789501190186,2.053438663482666,79.3899917602539,28.03,1
-0.3045915961265564,-0.80788654088974,0.0149970483034849,-1.5248521566390991,2.054360866546631,79.3899917602539,28.03,1
-0.301827073097229,-0.7871482372283936,0.0152220167219638,-0.5629835724830627,2.05495285987854,79.3899917602539,28.03,1
-0.3056507408618927,-0.7794373631477356,0.0209641624242067,-0.4902631640434265,2.055332660675049,79.3899917602539,28.03,1
-0.3025067746639251,-0.7800867557525635,0.0302469152957201,-1.1063718795776367,2.05557632446289,79.3899917602539,28.03,1
-0.3172824680805206,-0.8084923624992371,0.0529973767697811,-1.6522232294082642,2.055732727050781,79.3899917602539,28.03,1
-0.3267646729946136,-0.8491125702857971,0.0787928625941276,-1.4687154293060305,2.055833101272583,79.3899917602539,28.03,1
-0.3328498005867004,-0.9143646955490112,0.1009446904063224,0.0140107823535799,2.049929618835449,79.66943359375,28.03,1
-0.3311571180820465,-0.9786308407783508,0.1151604577898979,3.1186671257019043,2.0461411476135254,79.84876251220703,28.03,1
-0.341266393661499,-1.1150352954864502,0.1522721946239471,7.045647144317627,2.0437099933624268,79.9638442993164,28.03,1
-0.3701450228691101,-1.0682252645492554,0.1816861480474472,10.13896942138672,2.042149782180786,80.0376968383789,28.03,1
-0.4110687673091888,-0.9878053069114684,0.1949645578861236,11.561620712280272,2.0411486625671387,80.08509826660156,28.03,1
-0.4485268294811249,-0.975380837917328,0.1698992252349853,11.818984985351562,2.04050612449646,80.11551666259766,28.03,1
-0.4725652635097503,-1.0121897459030151,0.1706070601940155,11.582898139953612,2.0400936603546143,80.1350326538086,28.03,1
-0.4544050991535187,-1.0190181732177734,0.204647958278656,11.030142784118652,2.0398290157318115,80.1475601196289,28.03,1
-0.4315553903579712,-0.9674225449562072,0.2041023522615432,10.23117733001709,2.049299955368042,80.15560150146484,28.03,1
-0.4336850941181183,-0.9063225984573364,0.1925566643476486,9.313615798950195,2.055377960205078,80.16075897216797,28.03,1
-0.4574429094791412,-0.8671121597290039,0.1851473003625869,8.05483627319336,2.0592782497406006,80.16407012939453,28.03,1
-0.4726893007755279,-0.8419491648674011,0.1803923994302749,5.917888641357422,2.061781406402588,80.16619110107422,28.03,1
-0.460082471370697,-0.8537898659706116,0.1941342949867248,2.880621194839477,2.063387632369995,80.16755676269531,28.03,1
-0.4519921243190765,-0.8669863343238831,0.208550825715065,-0.2830154597759247,2.0644185543060303,80.1684341430664,28.03,1
-0.4523979723453522,-0.8586617708206177,0.2122047543525695,-2.789738178253174,2.065080165863037,80.16899108886719,28.03,1
-0.4638539850711822,-0.8309284448623657,0.208951860666275,-4.487972736358643,2.065504789352417,80.16934967041016,28.03,1
-0.4656080305576324,-0.813130795955658,0.2068643420934677,-5.584967136383057,2.060727119445801,80.1695785522461,28.03,1
-0.4499403536319732,-0.8129048347473145,0.21672023832798,-6.285372257232666,2.0576610565185547,80.16973114013672,28.03,1
-0.4510812759399414,-0.8799331188201904,0.2174474149942398,-6.6524529457092285,2.0556936264038086,80.16983032226562,28.03,1
-0.4686067700386047,-0.9789257049560548,0.2291096299886703,-6.339890003204346,2.0544309616088867,80.16989135742188,28.03,1
-0.4574625492095947,-1.003269076347351,0.2365937680006027,-4.760013580322266,2.0536205768585205,80.16992950439453,28.03,1
-0.4391152560710907,-0.985304594039917,0.2190055549144745,-2.012173175811768,2.0531005859375,80.16995239257812,28.03,1
-0.4497321248054504,-0.9905693531036376,0.2021206766366958,0.668371856212616,2.052766799926758,80.16996765136719,28.03,1
-0.4733387529850006,-1.044327974319458,0.1856871545314788,1.9622650146484373,2.0525527000427246,80.16997528076172,28.03,1
-0.4549014866352081,-1.112413763999939,0.1527499705553054,1.6031960248947144,2.0542516708374023,80.16998291015625,28.01,1
-0.3926895260810852,-1.094531774520874,0.1428083330392837,0.0902041122317314,2.055341958999634,80.16999053955078,28.01,1
-0.3471677005290985,-1.0606650114059448,0.1252328157424926,-1.980597734451294,2.056041717529297,80.16999053955078,28.01,1
-0.3403455018997192,-1.0165401697158811,0.085964985191822,-3.764506340026856,2.056490659713745,80.16999053955078,28.01,1
-0.341565191745758,-0.988223433494568,0.060765154659748,-4.336103916168213,2.056778907775879,80.16999053955078,28.01,1
-0.3311523795127868,-0.9532580375671388,0.0445933528244495,-3.542167901992798,2.0569639205932617,80.16999053955078,28.01,1
-0.313274472951889,-0.9252215027809144,0.0286174472421407,-2.0689525604248047,2.0570826530456543,80.16999053955078,28.01,1
-0.3073992431163788,-0.9072292447090148,0.0239628050476312,-0.7330271601676941,2.057158708572388,80.16999053955078,28.01,1
-0.2924332916736603,-0.8564984798431396,0.0377690456807613,-0.1479828655719757,2.056748390197754,80.44226837158203,28.01,1
-0.288426786661148,-0.8015512824058533,0.0466290973126888,-0.4926328063011169,2.0564849376678467,80.61700439453125,28.01,1
-0.3082467317581177,-0.7998759746551514,0.0467171929776668,-1.2404478788375854,2.056315898895264,80.72914123535156,28.01,1
-0.3041727244853973,-0.8379852771759033,0.035578180104494,-1.6952744722366333,2.0562074184417725,80.80110168457031,28.01,1
-0.301558256149292,-0.8456482887268066,0.0340275764465332,-1.6611416339874268,2.056137800216675,80.84728240966797,28.01,1
-0.3278693258762359,-0.8393704295158386,0.0330324880778789,-0.9907909631729126,2.056093215942383,80.87691497802734,28.01,1
-0.350352019071579,-0.840939462184906,0.0267961230129003,0.7183809876441956,2.05606460571289,80.89593505859375,28.01,1
-0.3703778982162475,-0.8699352145195007,0.0227939840406179,3.301997900009156,2.0560462474823,80.90814208984375,28.01,1
-0.4000226855278015,-0.927727460861206,0.0314211882650852,5.812667846679688,2.057870864868164,80.91596984863281,28.01,1
-0.4190469980239868,-0.9760107398033142,0.0313598588109016,7.52418327331543,2.059041738510132,80.9209976196289,28.01,1
-0.4424512386322021,-1.018191695213318,0.0313205011188983,8.278608322143555,2.05979323387146,80.92422485351562,28.01,1
-0.4518729746341705,-1.0340654850006104,0.0312952436506748,7.978170394897461,2.060275316238404,80.9262924194336,28.01,1
-0.4579192996025085,-1.0218613147735596,0.0200834851711988,6.542212963104248,2.060584783554077,80.92761993408203,28.01,1
-0.4617994725704193,-0.9972360134124756,0.0072906496934592,4.356049060821533,2.0607833862304688,80.92847442626953,28.01,1
-0.4586917757987976,-0.9814329147338868,0.0046787192113697,2.164928436279297,2.060910940170288,80.92902374267578,28.01,1
-0.4566974341869354,-0.954498052597046,0.0086003076285123,0.5295082926750183,2.06099271774292,80.92937469482422,28.01,1
-0.449819803237915,-0.9260172843933104,0.005519182421267,-0.5056799054145813,2.0651769638061523,80.92959594726562,28.01,1
-0.4566016793251037,-0.9021421670913696,0.0035418935585767,-1.216577649116516,2.067862033843994,80.92974090576172,28.01,1
-0.4553561210632324,-0.8868204951286316,0.0190663058310747,-1.9128234386444087,2.069585084915161,80.9298324584961,28.01,1
-0.454556792974472,-0.871390163898468,0.0290289800614118,-2.7787952423095703,2.070690870285034,80.92989349365234,28.01,1
-0.454043835401535,-0.8558900952339172,0.0410202257335186,-3.674870729446411,2.0714006423950195,80.929931640625,28.01,1
-0.4537146687507629,-0.8515408039093018,0.0543132908642292,-4.163938522338867,2.0718560218811035,80.9299545288086,28.01,1
-0.4479056298732757,-0.8487496972084045,0.0684417933225631,-3.983398675918579,2.072148323059082,80.92996978759766,28.01,1
-0.4497755169868469,-0.8637518286705017,0.0775086507201194,-3.2943265438079834,2.072335958480835,80.92997741699219,28.01,1
-0.4621710479259491,-0.8789771199226379,0.0945227891206741,-2.386384963989258,2.070619821548462,80.92998504638672,28.01,1
-0.4589302241802215,-0.8943455815315247,0.1166370287537574,-1.3021596670150757,2.069518566131592,80.92999267578125,28.01,1
-0.4456548988819122,-0.9042081832885742,0.1364264488220214,0.0241671055555343,2.0688118934631348,80.92999267578125,28.01,1
-0.4539288878440857,-0.9049396514892578,0.1603217124938964,1.265828013420105,2.068358421325684,80.92999267578125,28.01,1
-0.4424453377723694,-0.9110068678855896,0.2092429548501968,1.8118741512298584,2.0680673122406006,80.92999267578125,28.01,1
-0.4350758492946625,-0.8925093412399292,0.2630288898944855,1.621326208114624,2.067880392074585,80.92999267578125,28.01,1
-0.4527376294136047,-0.8694431781768799,0.3087411522865295,1.033308744430542,2.067760467529297,80.92999267578125,28.01,1
-0.4416808485984802,-0.8378472924232483,0.3716633021831512,-0.0677273422479629,2.067683696746826,80.92999267578125,28.01,1
-0.4849652349948883,-0.7951797842979431,0.456825315952301,-1.7630997896194458,2.073143243789673,81.18794250488281,28.01,1
-0.613502562046051,-0.7957870960235596,0.5338684916496277,-3.187854290008545,2.0766468048095703,81.35347747802734,28.01,1
-0.7463704347610474,-0.8129701614379883,0.5721148252487183,-3.328343391418457,2.078895330429077,81.45970916748047,28.01,1
-0.8036484718322754,-0.89676833152771,0.663832426071167,-2.2147557735443115,2.0803382396698,81.52788543701172,28.01,1
-0.873992919921875,-0.9449474215507508,0.6387248635292053,-0.5220763087272644,2.0812642574310303,81.5716323852539,28.01,1
-0.8911470174789429,-0.94227933883667,0.2531591951847076,1.3093637228012085,2.081858396530152,81.5997085571289,28.01,1
-1.0309044122695925,-1.0021426677703855,-0.5540521740913391,2.953993797302246,2.082239866256714,81.61772918701172,28.01,1
-1.165374755859375,-0.9397995471954346,-1.0720739364624023,3.894780397415161,2.082484483718872,81.62928771972656,28.01,1
-1.0221613645553589,-0.6478914618492126,-1.1414151191711426,3.989797353744507,2.0913641452789307,81.63671112060547,28.01,1
-1.0590040683746338,-0.3262150585651397,-0.6205390095710754,3.724759340286255,2.097062587738037,81.64147186279297,28.01,1
-0.9706920981407166,-0.1981505006551742,0.3126911222934723,3.275232315063477,2.100719451904297,81.64453125,28.01,1
-0.4550010561943054,-0.093574933707714,0.911584496498108,2.3920440673828125,2.1030662059783936,81.64649200439453,28.01,1
-0.4711222648620605,-0.6478173136711121,1.2959197759628296,1.5458239316940308,2.104572296142578,81.64775085449219,28.01,1
-0.0056571075692772,-0.695620596408844,1.3186531066894531,1.6977882385253906,2.105538845062256,81.6485595703125,28.01,1
0.7072869539260864,-0.4520070254802704,0.8686267733573914,2.6873714923858643,2.106158971786499,81.64907836914062,28.01,1
1.092042326927185,-0.715502917766571,0.6973790526390076,3.311681270599365,2.1065568923950195,81.64940643310547,28.01,1
0.8631453514099121,-0.6886773109436035,0.3411800265312195,2.7916054725646973,2.12609338760376,81.64962005615234,28.01,1
0.6770680546760559,-0.7106466293334961,0.0902008935809135,1.225444793701172,2.1386308670043945,81.6497573852539,28.01,1
0.5912410020828247,-0.7247452735900879,0.0466901920735836,-0.8042436838150024,2.146676540374756,81.64984130859375,28.01,1
0.6201287508010864,-0.7449885010719299,0.0299630779772996,-2.5331075191497803,2.1518399715423584,81.64990234375,28.01,1
0.9073604345321656,-0.9427059888839722,0.405474990606308,-3.5243678092956543,2.155153512954712,81.64994049072266,28.01,1
1.091689109802246,-1.00801420211792,0.5568925738334656,-4.010033130645752,2.1572799682617188,81.64996337890625,28.01,1
1.1092207431793213,-0.9771541953086852,0.5421081781387329,-4.379026412963867,2.158644676208496,81.64997863769531,28.01,1
0.896560549736023,-0.8565900921821594,0.3870782554149627,-4.630155563354492,2.159520387649536,81.64998626708984,28.01,1
0.7265008687973022,-0.7400345206260681,0.2931867241859436,-4.619351863861084,2.141719579696656,81.64999389648438,28.01,1
0.5893774628639221,-0.6540403366088867,0.2441281080245971,-4.48344612121582,2.130295991897583,81.64999389648438,28.01,1
0.5293684601783752,-0.6100497841835022,0.2854161858558655,-4.500124454498291,2.122964859008789,81.64999389648438,28.01,1
0.5692269802093506,-0.5930147171020508,0.3902813196182251,-4.593226909637451,2.118260383605957,81.64999389648438,28.01,1
0.6060014367103577,-0.5988759398460388,0.5415443778038025,-4.402194499969482,2.115241289138794,81.64999389648438,28.01,1
0.534438967704773,-0.6026372909545898,0.6162251830101013,-3.960751533508301,2.1133036613464355,81.64999389648438,28.01,1
0.3933521211147308,-0.5658667087554932,0.6641510128974915,-3.8207619190216064,2.112060308456421,81.64999389648438,28.01,1
0.3363973796367645,-0.5142806172370911,0.7005048394203186,-3.849149703979492,2.111262321472168,81.64999389648438,28.01,1
0.3222381770610809,-0.4867733716964721,0.7406279444694519,-2.8176724910736084,2.0570385456085205,81.88644409179688,28.01,1
0.2571738958358764,-0.5083052515983582,0.755181074142456,-0.6259700655937195,2.0222408771514893,82.0381851196289,28.01,1
0.1594416350126266,-0.5277209281921387,0.7253360152244568,0.5010975003242493,1.9999096393585205,82.13556671142578,28.01,1
0.0015605189837515,-0.6521362662315369,0.7229765057563782,-0.6170592308044434,1.985578775405884,82.19805908203125,28.01,1
-0.0213896464556455,-0.8047499656677246,0.8054289221763611,-1.2593938112258911,1.97638201713562,82.2381591796875,28.01,1
-0.0305199678987264,-0.9026886224746704,0.8415488600730896,1.402242660522461,1.9704800844192505,82.2638931274414,28.01,1
-0.0251837335526943,-0.88717120885849,0.7583708167076111,5.614548206329346,1.966692566871643,82.28041076660156,28.01,1
0.0118274027481675,-0.8660174608230591,0.6937963962554932,8.410910606384277,1.9642618894577024,82.29100799560547,28.01,1
0.0691656619310379,-0.8244533538818359,0.6691495776176453,12.064811706542969,1.949388861656189,82.29781341552734,28.01,1
0.1339509338140487,-0.7809865474700928,0.6589304208755493,22.090717315673828,1.939844250679016,82.30217742919922,28.01,1
0.1755263954401016,-0.7418965101242065,0.6411768198013306,38.509403228759766,1.9337190389633176,82.30497741699219,28.01,1
0.2022071331739425,-0.7168107628822327,0.6185880303382874,52.7109489440918,1.9297882318496704,82.30677795410156,28.01,1
0.2249270677566528,-0.7007122039794922,0.5984940528869629,53.98958969116211,1.9272656440734863,82.30792999267578,28.01,1
0.2563007473945617,-0.7183699011802673,0.5967944860458374,38.37687301635742,1.9256467819213867,82.30867004394531,28.01,1
0.2876301109790802,-0.7408971786499023,0.6068993210792542,13.411023139953612,1.924607872962952,82.30914306640625,28.01,1
0.2965399324893951,-0.7497560977935791,0.6021884679794312,-3.642402410507202,1.923941254615784,82.3094482421875,28.01,1
0.2910622060298919,-0.7386479377746582,0.5767742395401001,2.0440056324005127,1.990079045295716,82.30964660644531,28.01,1
0.2875469028949737,-0.7203238010406494,0.5660626292228699,28.3243465423584,2.032522439956665,82.30976867675781,28.01,1
0.2908887565135956,-0.7085644006729126,0.5703840851783752,62.27127456665039,2.059760332107544,82.30985260009766,28.01,1
0.2930333614349365,-0.706615686416626,0.6067439913749695,98.51215362548828,2.077239990234375,82.30990600585938,28.01,1
0.2944096624851227,-0.7109628915786743,0.6356754302978516,133.57763671875,2.0884573459625244,82.3099365234375,28.01,1
0.2617062330245971,-0.7025571465492249,0.6430464386940002,149.73590087890625,2.095656156539917,82.3099594116211,28.01,1
0.2295235097408294,-0.6915650367736816,0.6421789526939392,130.7389678955078,2.100275754928589,82.30997467041016,28.01,1
0.192077174782753,-0.6901087164878845,0.6528177857398987,84.83580017089844,2.103240489959717,82.30998229980469,28.01,1
0.1792418211698532,-0.7115651965141296,0.6708407402038574,30.668760299682617,2.12947416305542,82.30998992919922,28.05,1
0.1989936977624893,-0.6973459124565125,0.6880046129226685,-22.961952209472656,2.1463093757629395,82.30998992919922,28.05,1
0.211669310927391,-0.7050141096115112,0.6822260618209839,-68.13394927978516,2.1571133136749268,82.30998992919922,28.05,1
0.2030104696750641,-0.6819462180137634,0.6561266183853149,-92.19310760498048,2.1640465259552,82.30998992919922,28.05,1
0.1974537223577499,-0.7063270211219788,0.6673663854598999,-94.5994873046875,2.1684958934783936,82.30998992919922,28.05,1
0.2274743765592575,-0.7555598616600037,0.6577860713005066,-91.43267822265624,2.171351194381714,82.30998992919922,28.05,1
0.2691310048103332,-0.742372453212738,0.6124535799026489,-95.537353515625,2.1731836795806885,82.30998992919922,28.05,1
0.3238526880741119,-0.7451050877571106,0.64493727684021,-104.5162353515625,2.1743595600128174,82.30998992919922,28.05,1
0.3253832757472992,-0.7188698649406433,0.6433923840522766,-110.57213592529295,2.199904203414917,82.57868957519531,28.05,1
0.4495165646076202,-0.6908380389213562,0.7543564438819885,-111.12667083740234,2.2162973880767822,82.7511215209961,28.05,1
0.3444516062736511,-0.6728488206863403,0.7527956962585449,-106.98282623291016,2.22681736946106,82.86177825927734,28.05,1
0.3218091428279876,-0.6445110440254211,0.8245651721954346,-98.211669921875,2.2335686683654785,82.93279266357422,28.05,1
0.312876284122467,-0.6487166285514832,0.8202427625656128,-85.75445556640625,2.237901210784912,82.97836303710938,28.05,1
0.3239370286464691,-0.645817756652832,0.7950777411460876,-72.5044937133789,2.2406816482543945,83.00760650634766,28.05,1
0.2694596648216247,-0.5767841339111328,0.7845260500907898,-60.45109939575195,2.24246597290039,83.02637481689453,28.05,1
0.3632480204105377,-0.650035560131073,0.8449279069900513,-49.05094909667969,2.2436108589172363,83.03842163085938,28.05,1
0.3114805221557617,-0.5403064489364624,0.7829303741455078,-37.06331253051758,2.2806124687194824,83.04615020751953,28.05,1
0.2726613283157348,-0.5482574701309204,0.8103172183036804,-24.3547306060791,2.3043580055236816,83.05110931396484,28.05,1
0.3037271499633789,-0.4973822236061096,0.8670769333839417,-11.384112358093262,2.319596529006958,83.05429077148438,28.05,1
0.312467873096466,-0.4927222728729248,0.8251332640647888,1.74391770362854,2.329375743865967,83.05633544921875,28.05,1
0.3180771470069885,-0.4673407077789306,0.8485961556434631,14.256449699401855,2.335651397705078,83.05764770507812,28.05,1
0.3328724205493927,-0.4398567378520965,0.8804466128349304,23.769460678100582,2.3396787643432617,83.05848693847656,28.05,1
0.2919872105121612,-0.3886324465274811,0.8505064249038696,28.43416786193848,2.3422634601593018,83.05902862548828,28.05,1
0.282542735338211,-0.3557596504688263,0.8312925696372986,29.159936904907227,2.343922138214112,83.05937194824219,28.05,1
0.248492956161499,-0.3234682381153106,0.8637444376945496,28.06727409362793,2.428997278213501,83.0595932006836,28.05,1
0.1986528933048248,-0.2579632699489593,0.8285924196243286,26.112165451049805,2.483593463897705,83.05973815917969,28.05,1
0.2618305683135986,-0.1935348510742187,0.845218300819397,23.467449188232425,2.518630266189575,83.05982971191406,28.05,1
0.2967765927314758,-0.2081661373376846,0.8950722217559814,20.63096237182617,2.5411148071289062,83.05989074707031,28.05,1
0.280018538236618,-0.172773465514183,0.9046745300292968,18.11565017700196,2.555544137954712,83.05992889404297,28.05,1
0.3084485828876495,-0.1108760684728622,0.8828478455543518,16.20769500732422,2.564804077148437,83.05995178222656,28.05,1
0.3658777773380279,-0.087947204709053,0.90242737531662,15.216147422790527,2.570746421813965,83.05996704101562,28.05,1
0.3747436702251434,-0.0564394518733024,0.8590146899223328,14.959582328796388,2.5745599269866943,83.05997467041016,28.05,1
0.4923887550830841,-0.002632942283526,0.8535460233688354,14.468918800354004,2.558262348175049,83.05998229980469,27.99,1
0.5902777314186096,0.0542880743741989,0.8556342720985413,13.107927322387695,2.5478036403656006,83.05998992919922,27.99,1
0.5411417484283447,0.051632285118103,0.8345833420753479,11.60398769378662,2.5410916805267334,83.05998992919922,27.99,1
0.5655868053436279,0.0723190456628799,0.8602584600448608,11.219223022460938,2.536784410476685,83.05998992919922,27.99,1
0.6092631220817566,0.1023879423737526,0.876735270023346,12.179631233215332,2.534020185470581,83.05998992919922,27.99,1
0.4581632912158966,0.1608688533306121,0.7921469807624817,13.44799518585205,2.532246351242065,83.05998992919922,27.99,1
0.4731515944004059,0.192800760269165,0.7826452851295471,13.986099243164062,2.5311081409454346,83.05998992919922,27.99,1
0.4267925024032593,0.2300861477851867,0.7821454405784607,13.96241855621338,2.5303776264190674,83.05998992919922,27.99,1
0.425030767917633,0.2596115469932556,0.7706291079521179,14.627910614013672,2.4959373474121094,83.2606201171875,27.99,1
0.3455313444137573,0.3121458888053894,0.6960653066635132,16.921506881713867,2.4738357067108154,83.38937377929688,27.99,1
0.4064686894416809,0.3458594083786011,0.6706055998802185,20.17036247253418,2.4596521854400635,83.47200012207031,27.99,1
0.395194798707962,0.3283103704452514,0.6766581535339355,23.01479721069336,2.450549840927124,83.5250244140625,27.99,1
0.4495353698730469,0.3394395112991333,0.6861401200294495,25.83614730834961,2.444708585739136,83.55905151367188,27.99,1
0.4788102507591247,0.3857659697532654,0.6586384177207947,30.58085823059082,2.440959930419922,83.58088684082031,27.99,1
0.5087927579879761,0.387506753206253,0.6521849632263184,37.85676193237305,2.438554286956787,83.59490203857422,27.99,1
0.5000448822975159,0.4054172039031982,0.6704345941543579,46.48118209838867,2.4370105266571045,83.60389709472656,27.99,1
0.5000287890434265,0.4281066656112671,0.6709506511688232,55.906517028808594,2.6113860607147217,83.60966491699219,27.99,1
0.5224095582962036,0.4314718842506408,0.6656840443611145,66.39396667480469,2.723290205001831,83.61336517333984,27.99,1
0.5143811702728271,0.4336315095424652,0.6790975332260132,76.24821472167969,2.7951040267944336,83.6157455444336,27.99,1
0.5036312341690063,0.4294196367263794,0.6765099763870239,81.30744934082031,2.8411898612976074,83.61727142333984,27.99,1
0.5023303031921387,0.4211189448833465,0.6748494505882263,78.0195541381836,2.870765209197998,83.61824798583984,27.99,1
0.518288791179657,0.4269875884056091,0.6625882983207703,66.77400970458984,2.889744997024536,83.6188735961914,27.99,1
0.5341277718544006,0.4307537376880646,0.6827086806297302,52.69305038452149,2.9019250869750977,83.61927795410156,27.99,1
0.5610856413841248,0.4275728762149811,0.6732296347618103,42.42429733276367,2.9097416400909424,83.61953735351562,27.99,1
0.572787880897522,0.4031404852867126,0.6671465635299683,38.27413558959961,2.9313888549804688,83.61970520019531,27.99,1
