acc_x,acc_y,acc_z,bvp,eda,hr,temp,label
0.0,0.0,0.0,0.0,0.0,0.0,26.19,1
-0.0807291641831398,-0.1328124850988388,0.0677083283662796,18.834999084472656,0.9313967227935792,10.863332748413086,26.19,1
-0.1848323196172714,-0.306783527135849,0.1585365831851959,61.56731796264648,2.1808316707611084,25.436098098754883,26.19,1
-0.2654173672199249,-0.453125,0.237541526556015,114.4064483642578,3.267624855041504,38.11189651489258,26.19,1
-0.340223103761673,-0.5492125749588013,0.3058562874794006,159.3578643798828,4.06049919128418,47.35957336425781,26.19,1
-0.3853800296783447,-0.6087782382965088,0.3521082699298858,184.2933654785156,4.597308158874512,53.62063980102539,26.19,1
-0.4261156022548675,-0.6756272315979004,0.3380316197872162,186.3463592529297,4.949532508850098,57.72880172729492,26.19,1
-0.4636567234992981,-0.7691360712051392,0.2898595333099365,172.23953247070312,5.1776509284973145,60.38945388793945,26.19,1
-0.5605118870735168,-0.6952076554298401,0.2420579046010971,153.4674530029297,5.342477798461914,62.10337448120117,26.15,1
-0.4605201780796051,-0.8546925187110901,0.2616855502128601,137.1803436279297,5.448419094085693,63.20498275756836,26.15,1
-0.4466784298419952,-0.8451766967773438,0.2742895185947418,122.8281478881836,5.516449928283691,63.912384033203125,26.15,1
-0.4377932548522949,-0.8334711194038391,0.2823801636695862,106.93084716796876,5.56011962890625,64.36647033691406,26.15,1
-0.4376882016658783,-0.8539461493492126,0.2819752991199493,88.33412170410156,5.588147163391113,64.65791320800781,26.15,1
-0.4824022650718689,-0.8390979766845703,0.2649224102497101,68.66104125976562,5.606134414672852,64.84495544433594,26.15,1
-0.4775112569332123,-0.840764582157135,0.2595763802528381,48.82049560546875,5.617678165435791,64.9649887084961,26.15,1
-0.463176965713501,-0.8362363576889038,0.2617433369159698,27.160125732421875,5.625086307525635,65.0420150756836,26.15,1
-0.470771312713623,-0.8333303928375244,0.2519384324550628,2.5048205852508545,5.731295585632324,65.09144592285156,26.15,1
-0.4812427163124084,-0.8314655423164368,0.2400484234094619,-21.288780212402344,5.799454689025879,65.1231689453125,26.15,1
-0.4767670929431915,-0.8302687406539917,0.2380158752202987,-38.36018753051758,5.843194961547852,65.1435317993164,26.15,1
-0.4738948941230774,-0.8295007348060608,0.2367115020751953,-46.91530990600586,5.871264934539795,65.1565933227539,26.15,1
-0.4832472503185272,-0.8290078639984131,0.2302766591310501,-50.700191497802734,5.889278888702393,65.16497802734375,26.15,1
-0.4948468208312988,-0.8286915421485901,0.2261471450328827,-54.35076904296875,5.900839328765869,65.17035675048828,26.15,1
-0.4966929852962494,-0.8284885883331299,0.223497062921524,-59.108154296875,5.908257961273193,65.17381286621094,26.15,1
-0.4978777468204498,-0.8339561223983765,0.227394163608551,-63.92379760742188,5.913018703460693,65.17603302001953,26.15,1
-0.4930402934551239,-0.8318670988082886,0.2354928702116012,-67.15392303466797,5.934436798095703,65.17745208740234,26.15,1
-0.4899358749389648,-0.8305264711380005,0.246287927031517,-70.21562194824219,5.948181629180908,65.1783676147461,26.15,1
-0.493541419506073,-0.8184705972671509,0.2532155811786651,-73.49882507324219,5.957002639770508,65.178955078125,26.15,1
-0.5014530420303345,-0.8107337951660156,0.2520635724067688,-76.54443359375,5.962663173675537,65.17932891845703,26.15,1
-0.5009324550628662,-0.8057687878608704,0.2569220662117004,-79.60594940185547,5.9662957191467285,65.17957305908203,26.15,1
-0.4950006306171417,-0.8137780427932739,0.2544421851634979,-85.74076843261719,5.968626976013184,65.17972564697266,26.15,1
-0.5023894906044006,-0.8189179301261902,0.252850741147995,-96.98619842529295,5.970123291015625,65.17982482910156,26.15,1
-0.5015334486961365,-0.7998253107070923,0.246231660246849,-109.50507354736328,5.971083164215088,65.17988586425781,26.15,1
-0.5009840726852417,-0.7875728011131287,0.2419839203357696,-121.05348205566406,5.995112419128418,65.17634582519531,26.15,1
-0.5006315112113953,-0.7965031862258911,0.2392579615116119,-133.60557556152344,6.010532855987549,65.174072265625,26.15,1
-0.5060030221939087,-0.8134297132492065,0.226313054561615,-152.64138793945312,6.020428657531738,65.17261505126953,26.15,1
-0.5094501972198486,-0.8242921829223633,0.2180057615041732,-173.89988708496094,6.026779174804688,65.17167663574219,26.15,1
-0.5060645937919617,-0.8200675249099731,0.2182723879814148,-189.2333526611328,6.03085470199585,65.17107391357422,26.15,1
-0.4926963448524475,-0.8061608672142029,0.2184434980154037,-191.4246826171875,6.033470153808594,65.17068481445312,26.15,1
-0.4841173887252807,-0.7916386127471924,0.224151074886322,-153.81671142578125,6.035148620605469,65.17044067382812,26.15,1
-0.4842096865177154,-0.7879168391227722,0.2166183292865753,-91.51332092285156,6.03622579574585,65.17028045654297,26.15,1
-0.4842689037322998,-0.8079195022583008,0.2061864733695984,-33.606956481933594,6.052984237670898,65.17018127441406,26.17,1
-0.4899047017097473,-0.8599404692649841,0.1882963478565216,10.486294746398926,6.063738822937012,65.17011260986328,26.17,1
-0.4991191923618316,-0.8877267837524414,0.1768154948949813,37.93373107910156,6.070640563964844,65.17007446289062,26.17,1
-0.4994347393512726,-0.8775695562362671,0.1582522094249725,45.31608200073242,6.075069904327393,65.1700439453125,26.17,1
-0.4940394759178161,-0.876649022102356,0.1631326824426651,39.39190673828125,6.077912330627441,65.17002868652344,26.17,1
-0.4961748719215393,-0.8648626804351807,0.1718624532222747,37.3348274230957,6.079736232757568,65.1700210571289,26.17,1
-0.5031430125236511,-0.8349078297615051,0.1830624938011169,58.674503326416016,6.080906867980957,65.17001342773438,26.17,1
-0.5020170211791992,-0.810086727142334,0.1902500391006469,94.78883361816406,6.081658363342285,65.17000579833984,26.17,1
-0.4956966340541839,-0.7997557520866394,0.2004603594541549,121.88426971435548,6.085813522338867,65.17000579833984,26.17,1
-0.491640567779541,-0.7987236976623535,0.2070127576589584,130.88575744628906,6.088479995727539,65.17000579833984,26.17,1
-0.4890376329421997,-0.809256911277771,0.2112177163362503,123.81169128417967,6.090190887451172,65.17000579833984,26.17,1
-0.4873672127723694,-0.8216143250465393,0.2083184421062469,104.75894927978516,6.091289043426514,65.17000579833984,26.17,1
-0.486295223236084,-0.8351423740386963,0.2064578533172607,79.2083969116211,6.091993808746338,65.17000579833984,26.17,1
-0.4912050664424896,-0.8606172204017639,0.2108616083860397,56.516937255859375,6.0924458503723145,65.17000579833984,26.17,1
-0.4831603765487671,-0.8937588334083557,0.2192854583263397,42.49583435058594,6.09273624420166,65.17000579833984,26.17,1
-0.4723999798297882,-0.9150272011756896,0.2302891761064529,34.35771560668945,6.092922687530518,65.17000579833984,26.17,1
-0.4598968029022217,-0.9510671496391296,0.2317529469728469,25.968141555786133,6.062283992767334,65.17000579833984,26.17,1
-0.4462752044200897,-1.01337993144989,0.2214967757463455,16.367504119873047,6.042621612548828,65.17000579833984,26.17,1
-0.4599247574806213,-1.1037486791610718,0.2037193924188614,9.24265480041504,6.030003547668457,65.17000579833984,26.17,1
-0.4742820262908935,-1.0721776485443115,0.1979086697101593,4.982021331787109,6.021905899047852,65.17000579833984,26.17,1
-0.4667023718357086,-1.0183305740356443,0.1885819137096405,0.1269073188304901,6.016709327697754,65.17000579833984,26.17,1
-0.3890671133995056,-0.9781768321990968,0.1881943047046661,-6.535574913024902,6.013374328613281,65.17000579833984,26.17,1
-0.3280497193336487,-0.9636040329933168,0.1879455596208572,-12.828163146972656,6.011234283447266,65.17000579833984,26.17,1
-0.3224789202213287,-0.9598498344421388,0.1877859383821487,-17.2425537109375,6.009860992431641,65.17000579833984,26.17,1
-0.346892774105072,-0.9070606231689452,0.1708901822566986,-20.02888298034668,5.992453098297119,65.2022476196289,26.17,1
-0.3457668423652649,-0.8395969271659851,0.1656452268362045,-22.071352005004883,5.981281757354736,65.22293853759766,26.17,1
-0.3338487446308136,-0.7739114761352539,0.1734748631715774,-23.29610824584961,5.974112510681152,65.23621368408203,26.17,1
-0.3206026256084442,-0.7261605858802795,0.1896950304508209,-23.562612533569336,5.969511985778809,65.24473571777344,26.17,1
-0.3176997900009155,-0.69551682472229,0.1945064216852188,-22.612293243408203,5.966559410095215,65.25020599365234,26.17,1
-0.3270324766635895,-0.664655864238739,0.1863985508680343,-20.4511775970459,5.964664936065674,65.25371551513672,26.17,1
-0.3330216705799103,-0.6448510885238647,0.1811953783035278,-17.491548538208008,5.963449001312256,65.25596618652344,26.17,1
-0.3480607271194458,-0.6377393007278442,0.1890518367290496,-13.861845016479492,5.962668418884277,65.25741577148438,26.17,1
-0.368907481431961,-0.649968683719635,0.1940936595201492,-8.852743148803711,5.939672946929932,65.25833892822266,26.19,1
-0.4158723652362823,-0.708196759223938,0.1973292082548141,-2.1057705879211426,5.924915790557861,65.2589340209961,26.19,1
-0.4628050625324249,-0.8295307755470276,0.2106011360883712,5.60599946975708,5.915445804595947,65.25931549072266,26.19,1
-0.4985215365886688,-0.9521781802177428,0.2359116226434707,13.159502029418944,5.909368515014648,65.25955963134766,26.19,1
-0.5214422941207886,-1.1540372371673584,0.2689477503299713,19.21781539916992,5.905468463897705,65.25971984863281,26.19,1
-0.5809337496757507,-1.2779810428619385,0.2957462072372436,21.82671356201172,5.902965545654297,65.25981903076172,26.19,1
-0.6415030360221863,-1.1671966314315796,0.2625639736652374,20.10825538635254,5.901359081268311,65.2598876953125,26.19,1
-0.6187973618507385,-1.1520793437957764,0.2356717437505722,16.730512619018555,5.900328159332275,65.25992584228516,26.19,1
-0.5930306315422058,-1.181562423706055,0.22401162981987,15.780946731567385,5.864777088165283,65.25995635986328,26.19,1
-0.5205172896385193,-1.1277118921279907,0.1885399669408798,18.202428817749023,5.8419623374938965,65.25997161865234,26.19,1
-0.4571890830993652,-1.0203826427459717,0.1601785123348236,21.67665672302246,5.827321529388428,65.25997924804688,26.19,1
-0.4221464395523071,-0.873136043548584,0.1587710976600647,24.081762313842773,5.817925453186035,65.2599868774414,26.19,1
-0.4164514243602752,-0.7674461007118225,0.1466723531484604,24.188608169555664,5.811895847320557,65.25999450683594,26.19,1
-0.4183944761753082,-0.6940225958824158,0.1277125179767608,20.721174240112305,5.808026313781738,65.25999450683594,26.19,1
-0.3916525244712829,-0.6636969447135925,0.0987518653273582,13.59142780303955,5.805542945861816,65.25999450683594,26.19,1
-0.3576977550983429,-0.661029040813446,0.0857643634080886,4.35503625869751,5.803949356079102,65.25999450683594,26.19,1
-0.3247120082378387,-0.7152946591377258,0.0830275043845176,-5.627823829650879,5.736819744110107,65.25999450683594,26.19,1
-0.3147391974925995,-0.7893036007881165,0.0868689194321632,-15.262149810791016,5.693739891052246,65.25999450683594,26.19,1
-0.3251325488090515,-0.8591893911361694,0.0893341153860092,-22.319053649902344,5.666093826293945,65.25999450683594,26.19,1
-0.3429979383945465,-0.993602454662323,0.0853183642029762,-24.834360122680664,5.648352146148682,65.25999450683594,26.19,1
-0.3544629216194153,-1.1302410364151,0.0827412903308868,-23.47858428955078,5.636966705322266,65.25999450683594,26.19,1
-0.3954071402549743,-1.1731455326080322,0.1370652168989181,-20.57362174987793,5.629660129547119,65.25999450683594,26.19,1
-0.472062736749649,-0.999159336090088,0.2335027009248733,-17.125886917114258,5.624971389770508,65.25999450683594,26.19,1
-0.4876692593097687,-0.8651139140129089,0.27299964427948,-11.499134063720703,5.621962070465088,65.25999450683594,26.19,1
-0.391326904296875,-0.963817834854126,0.2647598385810852,-1.34642493724823,5.636098384857178,65.70423889160156,26.19,1
-0.3071088194847107,-1.004769206047058,0.281863123178482,12.223090171813965,5.645170211791992,65.98932647705078,26.19,1
-0.2698558270931244,-0.9414851069450378,0.304034560918808,23.54292106628418,5.650991916656494,66.17227935791016,26.19,1
-0.2739378809928894,-0.7833197116851807,0.2790784835815429,28.16339683532715,5.654727935791016,66.28968811035156,26.19,1
-0.298948585987091,-0.6538293957710266,0.2574653625488281,28.45953369140625,5.657125949859619,66.36503601074219,26.19,1
-0.3541834652423858,-0.5819255113601685,0.2323997467756271,30.010955810546875,5.658664703369141,66.41339111328125,26.19,1
-0.400825560092926,-0.5525750517845154,0.2163140773773193,33.915618896484375,5.659652233123779,66.44441986083984,26.19,1
-0.4083666801452636,-0.5561307668685913,0.2059912234544754,36.61845016479492,5.660285949707031,66.4643325805664,26.19,1
-0.4132061302661896,-0.57520592212677,0.1993665993213653,35.64454650878906,5.66344690322876,66.47711181640625,26.15,1
-0.4219096004962921,-0.5986428260803223,0.2007130682468414,31.51579093933105,5.665475368499756,66.48531341552734,26.15,1
-0.4498860836029053,-0.6640632152557373,0.2183704823255539,25.07941055297852,5.66677713394165,66.4905776977539,26.15,1
-0.4958286583423614,-0.778817355632782,0.2352997660636901,16.61041259765625,5.667612552642822,66.49394989013672,26.15,1
-0.5309097170829773,-0.992404282093048,0.2237729132175445,7.478279113769531,5.668148517608643,66.4961166381836,26.15,1
-0.553422749042511,-1.174254298210144,0.2443645149469375,-0.1089998036623001,5.668492794036865,66.49750518798828,26.15,1
-0.595859169960022,-1.2741618156433103,0.2687745690345764,-5.837896347045898,5.668713569641113,66.49839782714844,26.15,1
-0.6286901831626892,-1.2095279693603516,0.2396573424339294,-11.556440353393556,5.6688551902771,66.49897003173828,26.15,1
-0.599379301071167,-1.1848429441452026,0.2041782587766647,-17.451051712036133,5.678586959838867,66.49933624267578,26.15,1
-0.535787045955658,-1.2081859111785889,0.2093987017869949,-19.6002197265625,5.6848320960998535,66.49957275390625,26.15,1
-0.4781838655471802,-1.111210584640503,0.2071511000394821,-12.657109260559082,5.688839912414551,66.49972534179688,26.15,1
-0.4412174522876739,-0.976206362247467,0.2057087123394012,4.631364345550537,5.691411972045898,66.49982452392578,26.15,1
-0.4118967652320862,-0.8167973756790161,0.1991852968931198,24.883176803588867,5.69306230545044,66.49988555908203,26.15,1
-0.3986782133579254,-0.7144978642463684,0.1894011795520782,34.70904541015625,5.694121837615967,66.49992370605469,26.15,1
-0.395793080329895,-0.6544457077980042,0.1719267517328262,27.44034194946289,5.6948018074035645,66.49995422363281,26.15,1
-0.3603549301624298,-0.6382988095283508,0.1495171189308166,12.067386627197266,5.69523811340332,66.49996948242188,26.15,1
-0.3208194375038147,-0.6391322016716003,0.1295381337404251,3.0760586261749268,5.667973041534424,66.4999771118164,26.15,1
-0.3010456264019012,-0.6844491958618164,0.1223145350813865,3.4142327308654785,5.650475978851318,66.49998474121094,26.15,1
-0.2939536869525909,-0.7415199279785156,0.1120810732245445,3.7387306690216064,5.639247417449951,66.49999237060547,26.15,1
-0.3173913657665252,-0.8453179001808167,0.0999160557985305,-4.382513999938965,5.6320414543151855,66.49999237060547,26.15,1
-0.349225640296936,-0.9735050201416016,0.0921092480421066,-20.094789505004883,5.627417087554932,66.49999237060547,26.15,1
-0.369655042886734,-1.1229413747787476,0.0870992839336395,-35.52680969238281,5.624449729919434,66.49999237060547,26.15,1
-0.4163521230220794,-1.1628632545471191,0.145459696650505,-42.58921051025391,5.62254524230957,66.49999237060547,26.15,1
-0.4855040311813354,-1.0541362762451172,0.2220964729785919,-39.117977142333984,5.621323108673096,66.49999237060547,26.15,1
-0.4739039838314056,-0.950774908065796,0.2488864511251449,-29.4600772857666,5.62421178817749,66.86541748046875,26.15,1
-0.365699827671051,-1.0243879556655884,0.232492059469223,-18.17135429382324,5.626065254211426,67.09992218017578,26.15,1
-0.2906628549098968,-1.010053038597107,0.2499599605798721,-3.7760801315307617,5.627254962921143,67.25041961669922,26.15,1
-0.2648995220661163,-0.9280826449394226,0.2667676210403442,18.918132781982425,5.628018379211426,67.34700012207031,26.15,1
-0.2651594281196594,-0.8195009827613831,0.260760486125946,47.98781967163086,5.6285080909729,67.40897369384766,26.15,1
-0.315706193447113,-0.6770484447479248,0.2401121407747268,69.18669891357422,5.6288228034973145,67.44874572753906,26.15,1
-0.3873286247253418,-0.6024239659309387,0.226861223578453,70.59941864013672,5.629024505615234,67.47427368164062,26.15,1
-0.4388895332813263,-0.5713275671005249,0.2183575481176376,60.46810150146485,5.629154205322266,67.49065399169922,26.15,1
-0.4383917152881622,-0.5737627744674683,0.2184981405735016,58.10786437988281,5.61776065826416,67.50116729736328,25.91,1
-0.4380722641944885,-0.5865211486816406,0.2129905968904495,68.8205337524414,5.610448837280273,67.5079116821289,25.91,1
-0.4434650242328644,-0.628295361995697,0.2206517159938812,79.38177490234375,5.6057562828063965,67.51223754882812,25.91,1
-0.4973057508468628,-0.755863606929779,0.2311659604310989,75.01397705078125,5.602745056152344,67.5150146484375,25.91,1
-0.5542487502098083,-0.9105005860328674,0.2323156297206878,51.87269592285156,5.6008124351501465,67.51679992675781,25.91,1
-0.5684003829956055,-1.0601177215576172,0.216260090470314,17.564985275268555,5.59957218170166,67.5179443359375,25.91,1
-0.5774821043014526,-1.2009155750274658,0.2227498888969421,-14.629827499389648,5.598776340484619,67.5186767578125,25.91,1
-0.6392879486083984,-1.2632826566696167,0.2549035549163818,-35.43390274047852,5.598265647888184,67.51914978027344,25.91,1
-0.6005825400352478,-1.1801551580429075,0.2027668505907058,-45.85421752929688,5.606201171875,67.51945495605469,25.91,1
-0.5589503049850464,-1.1715909242630005,0.1749062836170196,-52.33000183105469,5.611293792724609,67.51964569091797,25.91,1
-0.5210375785827637,-1.1884859800338743,0.1738203018903732,-56.46787643432617,5.614562034606934,67.51976776123047,25.91,1
-0.4743162989616394,-1.1657416820526123,0.1619278341531753,-52.918304443359375,5.616659164428711,67.51985168457031,25.91,1
-0.4219421744346618,-1.0167990922927856,0.1431003808975219,-38.60293960571289,5.618005275726318,67.51990509033203,25.91,1
-0.3883314728736877,-0.8764340877532959,0.1422135531902313,-21.004274368286133,5.618868827819824,67.51993560791016,25.91,1
-0.3779576122760772,-0.7863559126853943,0.1416444480419159,-12.286336898803713,5.619423389434815,67.51995849609375,25.91,1
-0.3768980205059051,-0.7285489439964294,0.1188881248235702,-14.94591999053955,5.619779109954834,67.51997375488281,25.91,1
-0.3650224804878235,-0.6914517283439636,0.0986866503953933,-18.834476470947266,5.601184844970703,67.51998138427734,25.91,1
-0.3182170391082763,-0.6788404583930969,0.0969180613756179,-14.723658561706545,5.589252471923828,67.51998901367188,25.91,1
-0.2825822234153747,-0.6931383609771729,0.0957830771803855,-6.156409740447998,5.581594944000244,67.51998901367188,25.91,1
-0.2653116285800934,-0.7191072702407837,0.0950547084212303,-4.696004867553711,5.576680660247803,67.51998901367188,25.91,1
-0.2766194343566894,-0.7805547714233398,0.1001850590109825,-16.82445526123047,5.573526859283447,67.51998901367188,25.91,1
-0.3006694614887237,-0.8535749316215515,0.1034774258732795,-37.67344665527344,5.571503162384033,67.51998901367188,25.91,1
-0.3272989392280578,-0.9899994134902954,0.099992498755455,-55.40237808227539,5.570204257965088,67.51998901367188,25.91,1
-0.3891704082489013,-1.077548861503601,0.1425382643938064,-60.93660354614258,5.569370746612549,67.51998901367188,25.91,1
-0.4680603742599487,-1.0609619617462158,0.2146238833665847,-54.27423095703125,5.569295406341553,67.82093048095703,25.91,1
-0.4739052057266235,-0.988741934299469,0.2552865147590637,-41.40052032470703,5.569246768951416,68.01405334472656,25.91,1
-0.4216783344745636,-1.0151662826538086,0.2477948069572448,-26.095571517944336,5.569215774536133,68.13799285888672,25.91,1
-0.3545754849910736,-1.0601128339767456,0.2541826069355011,-6.031152725219727,5.569195747375488,68.217529296875,25.91,1
-0.317110538482666,-0.9937947392463684,0.2806730270385742,22.826904296875,5.569182872772217,68.26856994628906,25.91,1
-0.3098610043525696,-0.889660120010376,0.2752819657325744,55.64440536499024,5.569174766540527,68.30132293701172,25.91,1
-0.3555886447429657,-0.7556592226028442,0.2494311928749084,75.8879623413086,5.569169521331787,68.32234191894531,25.91,1
-0.4017273187637329,-0.6640673875808716,0.2272438704967498,73.14443969726562,5.56916618347168,68.33583068847656,25.91,1
-0.4425320327281952,-0.6108867526054382,0.2130053341388702,60.20975112915039,5.572836399078369,68.34449005126953,25.61,1
-0.4519248306751251,-0.5991495847702026,0.2038678526878357,58.61559295654297,5.575191974639893,68.35004425048828,25.61,1
-0.4523547887802124,-0.5860195755958557,0.1980039477348327,71.59683990478516,5.5767035484313965,68.3536148071289,25.61,1
-0.4638262689113617,-0.5943868160247803,0.2110341489315033,83.55661010742188,5.577673435211182,68.35590362548828,25.61,1
-0.4823835492134094,-0.6389408707618713,0.224993959069252,79.59908294677734,5.578295707702637,68.35736846923828,25.61,1
-0.5166836380958557,-0.7794885635375977,0.217159241437912,56.52045822143555,5.578695297241211,68.35831451416016,25.61,1
-0.5386954545974731,-0.9592483639717102,0.206533595919609,22.113237380981445,5.578951835632324,68.35891723632812,25.61,1
-0.5528213977813721,-1.1249878406524658,0.210910215973854,-10.39263153076172,5.579116344451904,68.35930633544922,25.61,1
-0.6178643703460693,-1.2033610343933103,0.241707757115364,-31.75100517272949,5.600339412689209,68.35955810546875,25.61,1
-0.6596052050590515,-1.208874225616455,0.2558740675449371,-42.50553894042969,5.613959312438965,68.3597183227539,25.61,1
-0.5912298560142517,-1.1508368253707886,0.2033896744251251,-48.34673690795898,5.622699737548828,68.35981750488281,25.61,1
-0.5361549854278564,-1.2087538242340088,0.186501532793045,-51.292781829833984,5.628308773040772,68.3598861694336,25.61,1
-0.4896155297756195,-1.234726071357727,0.1868592351675033,-48.16777801513672,5.631908416748047,68.35992431640625,25.61,1
-0.442955881357193,-1.094655990600586,0.1702954769134521,-38.628173828125,5.634218215942383,68.35995483398438,25.61,1
-0.4074146151542663,-0.9487892985343932,0.1596658080816269,-31.15915870666504,5.635700702667236,68.35997009277344,25.61,1
-0.3790085017681122,-0.8327893614768982,0.1528442949056625,-35.17911148071289,5.636651992797852,68.35997772216797,25.61,1
-0.3663768768310547,-0.7583472728729248,0.1316733211278915,-48.266578674316406,5.644148349761963,68.3599853515625,25.61,1
-0.3526728451251983,-0.7105746269226074,0.118087001144886,-57.96941757202149,5.648959159851074,68.35999298095703,25.61,1
-0.3158895075321197,-0.6855146288871765,0.1037703156471252,-56.24640655517578,5.65204668045044,68.35999298095703,25.61,1
-0.2810885310173034,-0.6750303506851196,0.0945826843380928,-46.50667190551758,5.654027938842773,68.35999298095703,25.61,1
-0.2699508368968963,-0.6962910294532776,0.0830888226628303,-37.36513137817383,5.655299663543701,68.35999298095703,25.61,1
-0.2851943969726562,-0.7603148818016052,0.0757127180695533,-34.45782470703125,5.656115531921387,68.35999298095703,25.61,1
-0.3117701709270477,-0.8349883556365967,0.0765769332647323,-37.16344833374024,5.656639099121094,68.35999298095703,25.61,1
-0.3400205075740814,-0.9220938682556152,0.0883270874619484,-39.58403396606445,5.656975269317627,68.35999298095703,25.61,1
-0.3637477159500122,-1.0395686626434326,0.090269885957241,-35.523529052734375,5.6617817878723145,68.68242645263672,25.61,1
-0.4237566888332367,-1.1597394943237305,0.1418966352939605,-24.10459518432617,5.664865970611572,68.88935089111328,25.61,1
-0.4902558624744415,-1.0521316528320312,0.2422010004520416,-9.665168762207031,5.666845321655273,69.02214050292969,25.61,1
-0.4881489872932434,-0.9550862312316896,0.2953750193119049,4.204833030700684,5.668115615844727,69.10735321044922,25.61,1
-0.3860369920730591,-1.0159591436386108,0.2735213041305542,19.40755271911621,5.668931007385254,69.16204071044922,25.61,1
-0.3037140667438507,-1.0326327085494995,0.2706924080848694,41.283634185791016,5.669454097747803,69.19713592529297,25.61,1
-0.250883936882019,-0.9705618023872375,0.2856702804565429,69.95368194580078,5.669789791107178,69.21965789794922,25.61,1
-0.272958368062973,-0.8579572439193726,0.2672933638095855,94.45359802246094,5.6700053215026855,69.2341079711914,25.61,1
-0.3207111060619354,-0.7633029818534851,0.2499023377895355,102.25157928466795,5.668766498565674,69.2433853149414,25.47,1
-0.3961382508277893,-0.7025593519210815,0.2499373257160186,95.85611724853516,5.667971134185791,69.24933624267578,25.47,1
-0.4501408338546753,-0.6691753268241882,0.2555575668811798,91.0425262451172,5.667460918426514,69.25315856933594,25.47,1
-0.4624054729938507,-0.6533491611480713,0.2479687482118606,96.49787902832033,5.667133331298828,69.25560760498047,25.47,1
-0.4534828960895538,-0.6431928873062134,0.2542942464351654,103.5634765625,5.6669230461120605,69.2571792602539,25.47,1
-0.4365613460540771,-0.6534684896469116,0.2639513611793518,97.44319152832033,5.666788101196289,69.25819396972656,25.47,1
-0.4312998652458191,-0.6992471814155579,0.2757464945316314,71.9627685546875,5.666701793670654,69.25884246826172,25.47,1
-0.439118891954422,-0.7454186081886292,0.2777181565761566,33.6031379699707,5.666646480560303,69.2592544555664,25.47,1
-0.4721255600452423,-0.7974398732185364,0.2565923631191253,-4.452106952667236,5.67854642868042,69.259521484375,25.47,1
-0.482111781835556,-0.8756063580513,0.2206439524888992,-32.78594207763672,5.686183452606201,69.25969696044922,25.47,1
-0.4997159242630005,-0.9985401630401612,0.1863787770271301,-51.60308074951172,5.691084384918213,69.25980377197266,25.47,1
-0.555795431137085,-1.194985270500183,0.1755849123001098,-65.80330657958984,5.694229602813721,69.25987243652344,25.47,1
-0.5525996088981628,-1.2370858192443848,0.1406691670417785,-75.90498352050781,5.696247577667236,69.25991821289062,25.47,1
-0.4217999279499054,-1.2920924425125122,0.0678822770714759,-76.86691284179688,5.697542667388916,69.25994873046875,25.47,1
-0.3378601968288421,-1.204241394996643,0.0659540370106697,-66.25643157958984,5.698373794555664,69.25997161865234,25.47,1
-0.2783947587013244,-1.0862882137298584,0.087107703089714,-51.44734191894531,5.698907375335693,69.25997924804688,25.47,1
-0.2458310276269912,-0.9937992691993712,0.0838895812630653,-44.8133659362793,5.715776443481445,69.2599868774414,25.47,1
-0.241726815700531,-0.9400429725646972,0.0818243771791458,-50.00331115722656,5.726602077484131,69.25999450683594,25.47,1
-0.2390929758548736,-0.9335341453552246,0.0749012753367424,-57.33924102783203,5.73354959487915,69.25999450683594,25.47,1
-0.1926205307245254,-0.9069660902023317,0.0592628754675388,-56.34714126586914,5.73800802230835,69.25999450683594,25.47,1
-0.1683949679136276,-0.8955140113830566,0.049227051436901,-47.8252182006836,5.740869045257568,69.25999450683594,25.47,1
-0.1752394884824752,-0.9217513799667358,0.0539821870625019,-40.02766418457031,5.742705345153809,69.25999450683594,25.47,1
-0.1964252293109893,-0.9273934364318848,0.0570337586104869,-38.5954704284668,5.7438836097717285,69.25999450683594,25.47,1
-0.2492054402828216,-0.9142208695411682,0.0813831761479377,-43.48730850219727,5.744639873504639,69.25999450683594,25.47,1
-0.277478963136673,-0.8329964280128479,0.1082047820091247,-50.00497817993164,5.735943794250488,69.58601379394531,25.47,1
-0.2732321918010711,-0.7696756720542908,0.1254173517227172,-50.38294982910156,5.730362892150879,69.79522705078125,25.47,1
-0.2649090886116028,-0.7962133884429932,0.1196700558066368,-39.56967926025391,5.726781368255615,69.92948913574219,25.47,1
-0.2651655673980713,-0.8076459765434265,0.1215795502066612,-20.95831298828125,5.724483013153076,70.01565551757812,25.47,1
-0.2877212464809418,-0.7925916314125061,0.1340004950761795,-2.519399881362915,5.723008155822754,70.07095336914062,25.47,1
-0.3077939748764038,-0.8892883658409119,0.1195804476737976,12.928451538085938,5.722061634063721,70.10643768310547,25.47,1
-0.3318710327148437,-0.9961249232292176,0.1047287210822105,30.22568130493164,5.72145414352417,70.12921142578125,25.47,1
-0.3473223149776459,-1.0646865367889404,0.0616110898554325,54.78219985961914,5.72106409072876,70.1438217163086,25.47,1
-0.3572380542755127,-1.091892123222351,0.0171473547816276,83.65697479248047,5.714846134185791,70.1531982421875,25.37,1
-0.3691991865634918,-1.0813621282577517,0.0054064108990132,103.94618225097656,5.710855960845947,70.15921783447266,25.37,1
-0.3656795918941498,-1.0522135496139526,0.003469523275271,104.74646759033205,5.7082953453063965,70.16307830810547,25.37,1
-0.3690187036991119,-1.0391054153442385,-0.014566782861948,91.61400604248048,5.7066521644592285,70.16555786132812,25.37,1
-0.3655637800693512,-1.0306934118270874,-0.0541303195059299,81.33058166503906,5.705597400665283,70.16715240478516,25.37,1
-0.3521510660648346,-0.9917083978652954,-0.0795199200510978,81.91791534423828,5.704920768737793,70.16817474365234,25.37,1
-0.3323479890823364,-0.927505612373352,-0.0846179574728012,86.0529556274414,5.70448637008667,70.16883087158203,25.37,1
-0.3252373039722442,-0.8974995017051697,-0.0878895819187164,81.88894653320312,5.704207420349121,70.16925048828125,25.37,1
-0.3318696320056915,-0.9006344079971313,-0.0955868959426879,62.53266906738281,5.703110218048096,70.16951751708984,25.37,1
-0.3417236506938934,-0.908244013786316,-0.1061243638396263,28.94864845275879,5.702406406402588,70.16969299316406,25.37,1
-0.3424496054649353,-0.9131274223327636,-0.1072889268398284,-9.971968650817873,5.701954364776611,70.1697998046875,25.37,1
-0.3597088158130646,-0.9274568557739258,-0.1080362796783447,-42.916629791259766,5.701664447784424,70.16986846923828,25.37,1
-0.4099691808223724,-0.9142615795135498,-0.0917225629091262,-64.180419921875,5.701478481292725,70.16991424560547,25.37,1
-0.4534189403057098,-0.900195837020874,-0.0756555870175361,-75.25042724609375,5.701359272003174,70.1699447631836,25.37,1
-0.5204869508743286,-0.8631803393363953,-0.0149647574871778,-80.7566909790039,5.701282501220703,70.16996765136719,25.37,1
-0.5803206562995911,-0.8058393001556396,0.0575697720050811,-84.8240966796875,5.701233386993408,70.16997528076172,25.37,1
-0.5907295942306519,-0.7018678188323975,0.126509353518486,-88.60224914550781,5.675034523010254,70.16998291015625,25.37,1
-0.6142027974128723,-0.73590487241745,0.1763485819101333,-89.90550231933594,5.65822172164917,70.16999053955078,25.37,1
-0.6292665004730225,-0.7857367396354675,0.1915392130613327,-86.70787811279297,5.647432327270508,70.16999053955078,25.37,1
-0.6109446883201599,-0.806520402431488,0.1732988059520721,-79.23180389404297,5.64050817489624,70.16999053955078,25.37,1
-0.6103823184967041,-0.8310537338256836,0.1727887094020843,-67.55196380615234,5.636064529418945,70.16999053955078,25.37,1
-0.6324125528335571,-0.8132111430168152,0.1948524564504623,-51.827335357666016,5.633213043212891,70.16999053955078,25.37,1
-0.7137235403060913,-0.7849674820899963,0.2481961250305175,-36.35514450073242,5.631382942199707,70.16999053955078,25.37,1
-0.7547087073326111,-0.8172222971916199,0.2656356990337372,-27.375368118286133,5.630208492279053,70.16999053955078,25.37,1
-0.7194351553916931,-0.7819438576698303,0.2544363141059875,-25.21315193176269,5.618896007537842,70.42435455322266,25.37,1
-0.6576141715049744,-0.7481086254119873,0.2640425264835357,-23.675098419189453,5.611636161804199,70.58759307861328,25.37,1
-0.6011477112770081,-0.7375906705856323,0.3093916475772857,-17.378686904907227,5.606977462768555,70.69235229492188,25.37,1
-0.3913797736167907,-0.6972542405128479,0.3049074709415436,-5.424102783203125,5.603987693786621,70.75957489013672,25.37,1
-0.2847516536712646,-0.6545752882957458,0.3412142097949981,10.727618217468262,5.602068901062012,70.80271911621094,25.37,1
-0.3898548781871795,-0.8287062644958496,0.403698205947876,28.39415168762207,5.600837707519531,70.83040618896484,25.37,1
-0.4517062902450561,-0.9964312314987184,0.4885790348052978,42.65131759643555,5.600047588348389,70.84817504882812,25.37,1
-0.3906390368938446,-0.9641231298446656,0.5654417276382446,48.11069107055664,5.5995402336120605,70.85957336425781,25.37,1
-0.2786785066127777,-1.1225184202194214,0.5811811685562134,44.28425216674805,5.6143646240234375,70.86688995361328,25.51,1
-0.1956331431865692,-1.1961785554885864,0.6136729121208191,36.75215530395508,5.623878002166748,70.87158203125,25.51,1
-0.1871216148138046,-1.2826337814331057,0.6009376049041748,30.01614189147949,5.629982948303223,70.87459564208984,25.51,1
-0.1704638451337814,-1.1869758367538452,0.5367870926856995,22.99925804138184,5.633901119232178,70.87653350830078,25.51,1
-0.2661315500736236,-0.9576548933982848,0.4620323181152344,15.168013572692873,5.636415481567383,70.87777709960938,25.51,1
-0.4786655008792877,-0.7153277397155762,0.5540033578872681,11.07025909423828,5.638029098510742,70.87857055664062,25.51,1
-0.6878286600112915,-0.5710116624832153,0.6913939118385315,13.64962100982666,5.639064311981201,70.87908172607422,25.51,1
-1.0907506942749023,-0.3272579908370971,0.6620100140571594,18.70835304260254,5.639729022979736,70.87940979003906,25.51,1
-1.0134563446044922,-0.0924620777368545,0.6263598203659058,20.181381225585938,5.645205020904541,70.87962341308594,25.51,1
-0.7679312229156494,-0.0313479676842689,0.9953257441520692,16.90999412536621,5.648719310760498,70.8797607421875,25.51,1
-0.3864563405513763,0.1534136980772018,0.9578158855438232,12.37803840637207,5.650974273681641,70.87984466552734,25.51,1
-0.4831119477748871,0.3783407807350158,0.8609731793403625,10.626861572265623,5.652421474456787,70.87989807128906,25.51,1
-0.4331844747066498,0.3323617279529571,0.9723560810089112,13.734078407287598,5.653350353240967,70.87993621826172,25.51,1
-0.1660373657941818,0.2580728232860565,1.1389974355697632,22.14092254638672,5.653946399688721,70.87995910644531,25.51,1
-0.0505754761397838,0.4007228016853332,1.083602786064148,35.67556381225586,5.6543288230896,70.87997436523438,25.51,1
-0.0380542054772377,0.4306918382644653,0.8913159966468811,53.09921646118164,5.654574394226074,70.8799819946289,25.51,1
0.0595456138253212,0.4667175710201263,0.8182973861694336,72.00475311279297,5.616628646850586,70.87998962402344,25.51,1
0.1165817901492118,0.4674457013607025,0.9001870155334473,90.74708557128906,5.592277050018311,70.87998962402344,25.51,1
0.2203576117753982,0.4119352400302887,0.8911635875701904,109.52082061767578,5.57664966583252,70.87998962402344,25.51,1
0.337334930896759,0.3483229279518127,0.986132800579071,129.11363220214844,5.566620826721191,70.87998962402344,25.51,1
0.1996888220310211,0.2683157920837402,1.0862629413604736,148.9669647216797,5.560184955596924,70.87998962402344,25.51,1
0.0889643728733062,0.1497985273599624,1.2344874143600464,164.40536499023438,5.556055068969727,70.87998962402344,25.51,1
0.0067122438922524,-0.0662033781409263,1.2288494110107422,165.9761962890625,5.553404808044434,70.87998962402344,25.51,1
-0.1636257022619247,-0.0648766160011291,1.0908846855163574,146.71763610839844,5.551703929901123,70.87998962402344,25.51,1
-0.2281565964221954,-0.0472318530082702,1.0303356647491455,110.6312026977539,5.479914665222168,71.14510345458984,25.51,1
-0.336742103099823,-0.0582995563745498,0.9970765709877014,69.69984436035156,5.433844566345215,71.31523895263672,25.51,1
-0.3224593997001648,-0.0933910459280014,0.9029617309570312,34.15358352661133,5.4042792320251465,71.42442321777344,25.51,1
-0.380466878414154,-0.1271062940359115,0.8817486763000488,8.372084617614746,5.385305881500244,71.49449157714844,25.51,1
-0.4960615932941437,-0.1487427949905395,0.8849287033081055,-9.942789077758787,5.3731303215026855,71.53945922851562,25.51,1
-0.4862770140171051,-0.1682256311178207,0.8813716769218445,-30.638330459594727,5.365316390991211,71.56831359863281,25.51,1
-0.5359755754470825,-0.1639352738857269,0.8511000871658325,-62.81762313842773,5.360301971435547,71.58683013916016,25.51,1
-0.5510759353637695,-0.1499864161014557,0.8316735625267029,-101.50670623779295,5.357084274291992,71.59871673583984,25.51,1
-0.5103865265846252,-0.1242415234446525,0.8136089444160461,-130.6342315673828,5.409451484680176,71.6063461303711,25.57,1
-0.4786766171455383,-0.1133177056908607,0.8132116794586182,-140.1157989501953,5.443057537078857,71.61123657226562,25.57,1
-0.435935914516449,-0.1007096543908119,0.8353478312492371,-133.05604553222656,5.464623928070068,71.6143798828125,25.57,1
-0.3637251853942871,-0.0926185324788093,0.8607490658760071,-121.3997573852539,5.478464126586914,71.61639404296875,25.57,1
-0.3341778218746185,-0.0762305632233619,0.9106367826461792,-119.71603393554688,5.487346172332764,71.61768341064453,25.57,1
-0.2984226942062378,-0.0881048068404197,0.9370540380477904,-133.08763122558594,5.493045806884766,71.61851501464844,25.57,1
-0.2642815709114074,-0.1125183403491973,0.9316160082817078,-148.6834259033203,5.496703624725342,71.61904907226562,25.57,1
-0.2199806720018386,-0.1169899925589561,0.939321756362915,-150.3480987548828,5.499051094055176,71.61939239501953,25.57,1
-0.1579642593860626,-0.1366529613733291,0.9666579961776732,-138.69107055664062,5.519838809967041,71.61961364746094,25.57,1
-0.0789812728762626,-0.2388359159231186,0.9506141543388368,-126.36663055419922,5.533178806304932,71.6197509765625,25.57,1
0.1060520485043525,-0.2428355365991592,0.9627092480659484,-120.26313018798828,5.541739940643311,71.61984252929688,25.57,1
0.1576224863529205,-0.2286089360713958,0.9928622841835022,-116.84423065185548,5.547234058380127,71.61990356445312,25.57,1
0.1179463639855384,-0.2250768989324569,1.0402016639709473,-108.43082427978516,5.550759792327881,71.61994171142578,25.57,1
0.0588978677988052,-0.2116146981716156,1.009005784988403,-87.60143280029297,5.553022384643555,71.61996459960938,25.57,1
0.1105683296918869,-0.2253665179014206,0.9721927642822266,-50.72188568115234,5.554474353790283,71.61997985839844,25.57,1
0.0485652908682823,-0.222996100783348,0.9429705142974854,-3.241333484649658,5.555406093597412,71.61998748779297,25.57,1
0.0759486034512519,-0.2326704561710357,0.9689995050430298,42.52296447753906,5.589975357055664,71.6199951171875,25.57,1
0.0263483468443155,-0.1717056035995483,0.9745078682899476,75.71088409423828,5.612159729003906,71.6199951171875,25.57,1
-0.0166777931153774,-0.1829618364572525,0.9724450707435608,90.51734924316406,5.626396656036377,71.6199951171875,25.57,1
0.0228838007897138,-0.1789898872375488,0.9991101622581482,89.21424102783203,5.635532855987549,71.6199951171875,25.57,1
-0.0468900129199028,-0.1764409244060516,0.9546467661857604,82.73184204101562,5.641396045684815,71.6199951171875,25.57,1
-0.0860690549015998,-0.174805149435997,0.926112711429596,77.76931762695312,5.645158767700195,71.6199951171875,25.57,1
0.0231346730142831,-0.1961465030908584,0.952583372592926,68.27215576171875,5.647573471069336,71.6199951171875,25.57,1
0.0316398255527019,-0.2098421454429626,0.9471796154975892,50.50180816650391,5.649123191833496,71.6199951171875,25.57,1
-0.0188798028975725,-0.1682512611150741,0.938114047050476,33.45884704589844,5.682252883911133,71.86360931396484,25.57,1
-0.0065181967802345,-0.1639517247676849,0.93789404630661,25.0975284576416,5.703513622283936,72.01995086669922,25.57,1
-0.0321718752384185,-0.1667902916669845,0.937752902507782,23.425352096557617,5.71715784072876,72.12028503417969,25.57,1
0.0409294590353965,-0.1742096990346908,0.948857843875885,24.97110748291016,5.7259135246276855,72.1846694946289,25.57,1
0.0598528161644935,-0.1901665925979614,0.9112021923065186,28.66434669494629,5.731532573699951,72.22599029541016,25.57,1
0.094387836754322,-0.1612223982810974,0.909428060054779,31.68648338317871,5.735138416290283,72.25250244140625,25.57,1
0.1165504232048988,-0.13145212829113,0.9530717134475708,30.208139419555664,5.737452507019043,72.26952362060547,25.57,1
0.1419686526060104,-0.1067495048046112,0.9922752380371094,24.58057975769043,5.738937854766846,72.28044128417969,25.57,1
0.1246939525008201,-0.0797012373805046,0.9838471412658693,19.13485717773437,5.811506271362305,72.2874526977539,25.77,1
0.1192058250308036,-0.0679409876465797,0.9784384965896606,16.71129608154297,5.858076572418213,72.29194641113281,25.77,1
0.1380749493837356,-0.0547961629927158,0.9749675393104552,16.316747665405273,5.887962341308594,72.29483032226562,25.77,1
