acc_x,acc_y,acc_z,bvp,eda,hr,temp,label
0.0,0.0,0.0,0.0,0.0,0.0,22.25,1
-0.0208333320915699,-0.0338541641831398,0.1614583283662796,-1.336666703224182,0.4146523177623749,9.499999046325684,22.25,1
-0.0487804897129535,-0.0834603682160377,0.3780487775802612,-2.960731744766236,0.9708933234214784,22.2439022064209,22.25,1
-0.0880398675799369,-0.0867421105504036,0.5963455438613892,-4.229866981506348,1.4547271728515625,33.32890319824219,22.25,1
-0.0739761069416999,-0.1585329174995422,0.7182374000549316,-5.077191352844238,1.80771005153656,41.416011810302734,22.25,1
-0.0809235125780105,-0.1906691640615463,0.8117427825927734,-5.745728015899658,2.046694278717041,46.89132308959961,22.25,1
-0.1188004612922668,-0.1451182514429092,0.8564364910125732,-6.585982799530029,2.2035024166107178,50.48391342163086,22.25,1
-0.1433315128087997,-0.182569146156311,0.9076997637748718,-7.812192440032959,2.3050594329833984,52.81066131591797,22.25,1
-0.136773020029068,-0.2178743034601211,0.912771224975586,-9.471466064453123,2.3310554027557373,54.30948638916016,22.25,1
-0.1157736778259277,-0.2014039158821106,0.921625554561615,-11.63002586364746,2.347764015197754,55.27284240722656,22.25,1
-0.1134818345308303,-0.207616850733757,0.927311360836029,-14.796283721923828,2.358493566513061,55.8914680480957,22.25,1
-0.12880240380764,-0.1892160326242447,0.914169430732727,-19.995439529418945,2.3653810024261475,56.288570404052734,22.25,1
-0.1274402141571045,-0.1830037236213684,0.9169299006462096,-27.556013107299805,2.369801521301269,56.543434143066406,22.25,1
-0.1433590501546859,-0.1846145242452621,0.918701469898224,-36.24146270751953,2.372638463973999,56.70700073242188,22.25,1
-0.1647705137729644,-0.1800505220890045,0.9254361391067504,-44.8533935546875,2.3744590282440186,56.81196975708008,22.25,1
-0.1785112619400024,-0.1771215945482254,0.929758071899414,-54.09519958496094,2.375627279281616,56.87933349609375,22.25,1
-0.1929270774126052,-0.1808397322893142,0.9325316548347472,-65.24588012695312,2.40024733543396,56.92256164550781,22.25,1
-0.196580559015274,-0.1776280552148819,0.9343116283416748,-77.85801696777344,2.4160470962524414,56.9503059387207,22.25,1
-0.1989251524209976,-0.1811647564172744,0.9298561215400696,-90.46939086914062,2.4261865615844727,56.968109130859375,22.25,1
-0.1948320120573043,-0.1834344118833542,0.93259459733963,-103.01937103271484,2.4326934814453125,56.97953414916992,22.25,1
-0.1866074949502945,-0.1792931705713272,0.9343519806861876,-117.04537963867188,2.4368691444396973,56.98686599731445,22.25,1
-0.1813294738531112,-0.1822333335876464,0.9354797601699828,-134.23265075683594,2.439548969268799,56.99156951904297,22.25,1
-0.1779423356056213,-0.184120163321495,0.9306057691574096,-155.16468811035156,2.4412686824798584,56.994590759277344,22.25,1
-0.1813664436340332,-0.1909287869930267,0.9274778962135316,-176.24288940429688,2.4423723220825195,56.99652862548828,22.25,1
-0.1835638433694839,-0.1897003948688507,0.914275050163269,-187.1794586181641,2.459606170654297,56.99777221679688,22.25,1
-0.1793762296438217,-0.1889120936393737,0.9002044796943665,-176.61105346679688,2.47066593170166,56.99856948852539,22.25,1
-0.1822866350412368,-0.1884061992168426,0.8855770230293274,-140.93539428710938,2.4777634143829346,56.99908065795898,22.25,1
-0.1841543614864349,-0.1936793178319931,0.8705921769142151,-83.53701782226562,2.482318162918091,56.99940872192383,22.25,1
-0.1853529661893844,-0.2026610821485519,0.8385846614837646,-10.277998924255373,2.485241174697876,56.9996223449707,22.25,1
-0.1973177045583725,-0.2196206003427505,0.7900552153587341,66.85055541992188,2.487117052078247,56.999755859375,22.25,1
-0.2105937600135803,-0.2361020296812057,0.7477162480354309,130.05056762695312,2.488320827484131,56.99984359741211,22.25,1
-0.2303091138601303,-0.26347216963768,0.7037522196769714,169.46945190429688,2.48909330368042,56.99990081787109,22.25,1
-0.2429613023996353,-0.2866345345973968,0.6643431186676025,190.21275329589844,2.488670825958252,59.328609466552734,22.25,1
-0.2510807514190674,-0.3238899111747741,0.6166614890098572,201.10997009277344,2.488399744033813,60.82304000854492,22.25,1
-0.2506935596466064,-0.3869826793670654,0.5692688822746277,205.4735565185547,2.4882256984710693,61.78208160400391,22.25,1
-0.2504450976848602,-0.4554608464241028,0.533257246017456,205.4436187744141,2.48811411857605,62.39753723144531,22.25,1
-0.2502856254577636,-0.5777750611305237,0.5157448053359985,205.5032196044922,2.48804235458374,62.7925033569336,22.25,1
-0.2389877438545227,-0.6954537034034729,0.5045063495635986,207.9919586181641,2.4879963397979736,63.04597091674805,22.25,1
-0.2037485539913177,-0.8325486183166504,0.4916963577270508,211.0400238037109,2.487966775894165,63.2086296081543,22.25,1
-0.1587429642677307,-0.9932993054389954,0.4834756553173065,213.2003173828125,2.487947940826416,63.31301498413086,22.25,1
-0.1354587376117706,-1.1244486570358276,0.4837978482246399,216.8938446044922,2.48426365852356,63.3800048828125,22.25,1
-0.1317118108272552,-1.2086127996444702,0.4840046167373657,225.0750732421875,2.4818992614746094,63.42299270629883,22.25,1
-0.1349050253629684,-1.2570266723632812,0.4841372966766357,236.78111267089844,2.480381965637207,63.45058059692383,22.25,1
-0.164943128824234,-1.2601070404052734,0.5010157823562622,247.2704925537109,2.479408264160156,63.4682846069336,22.25,1
-0.2010131776332855,-1.2340949773788452,0.5510318279266357,249.63124084472656,2.478783369064331,63.47964859008789,22.25,1
-0.229758620262146,-1.2006086111068726,0.5999225974082947,236.2498779296875,2.4783823490142822,63.4869384765625,22.25,1
-0.2370102405548095,-1.1343368291854858,0.6257001161575317,202.770751953125,2.478125095367432,63.49161911010742,22.25,1
-0.2360661476850509,-1.0638185739517212,0.6142537593841553,150.59742736816406,2.4779598712921143,63.49462127685547,22.25,1
-0.2354602813720703,-1.0073684453964231,0.5621259212493896,83.04888916015625,2.4773945808410645,63.49654769897461,22.25,1
-0.2350714653730392,-0.9655442237854004,0.5342710614204407,4.214710712432861,2.477031707763672,63.49778366088867,22.25,1
-0.2348219454288482,-0.9443016052246094,0.5219932198524475,-74.57498168945312,2.4767990112304688,63.49857711791992,22.25,1
-0.251455157995224,-0.9530604481697084,0.5085161924362183,-136.11827087402344,2.476649522781372,63.49908828735352,22.25,1
-0.26212939620018,-0.958681344985962,0.4830740988254547,-171.20663452148438,2.476553678512573,63.49941635131836,22.25,1
-0.2633817195892334,-0.9678862690925598,0.4555512964725494,-184.3343963623047,2.476492166519165,63.49962615966797,22.25,1
-0.2585876286029815,-0.9793912768363952,0.4210954010486603,-183.9100799560547,2.476452589035034,63.499759674072266,22.25,1
-0.2499132752418518,-0.9923722743988036,0.3877880573272705,-174.9786834716797,2.4764273166656494,63.499847412109375,22.25,1
-0.2331510186195373,-0.9895071983337402,0.360815554857254,-161.62330627441406,2.47732925415039,63.49990081787109,22.25,1
-0.2111984193325042,-0.982070803642273,0.3435061275959015,-147.58558654785156,2.477908134460449,63.49993515014648,22.25,1
-0.1859149634838104,-0.9549074172973632,0.3268001675605774,-133.40374755859375,2.478279590606689,63.49995803833008,22.25,1
-0.1640917211771011,-0.915084421634674,0.3160792589187622,-117.79670715332033,2.478518009185791,63.49997329711914,22.25,1
-0.1500868201255798,-0.878332793712616,0.3036014139652252,-101.48284149169922,2.478671073913574,63.49998474121094,22.25,1
-0.1355015039443969,-0.8435521721839905,0.3011916279792785,-86.8899917602539,2.478769302368164,63.4999885559082,22.25,1
-0.1205437108874321,-0.8156341910362244,0.3052429258823395,-74.80596923828125,2.478832244873047,63.49999237060547,22.25,1
-0.0773580148816108,-0.7977180480957031,0.3358317017555237,-63.74441909790039,2.478872537612915,63.499996185302734,22.25,1
-0.0720350220799446,-0.8366004228591919,0.3834506869316101,-52.69775390625,2.4752259254455566,68.90968322753906,22.25,1
-0.1022056713700294,-0.9007373452186584,0.4140098094940185,-42.61719131469727,2.472885847091675,72.38130950927734,22.25,1
-0.1887407600879669,-0.992276668548584,0.4336208999156952,-34.614723205566406,2.471384048461914,74.60919952392578,22.25,1
-0.2498717606067657,-1.028630256652832,0.4350106120109558,-28.24679374694824,2.470420360565185,76.03893280029297,22.25,1
-0.2387221604585647,-0.9511999487876892,0.3855224847793579,-22.465665817260746,2.469801902770996,76.95645141601562,22.25,1
-0.2035781145095825,-0.9127051830291748,0.3425683081150055,-17.193666458129883,2.469404935836792,77.5452651977539,22.25,1
-0.2090135514736175,-0.9047948122024536,0.3206005692481994,-13.075973510742188,2.4691503047943115,77.92313385009766,22.25,1
-0.2628816664218902,-0.9165117144584656,0.3176984786987304,-10.297337532043455,2.468986749649048,78.1656265258789,22.25,1
-0.2806577980518341,-0.9408242702484132,0.3158360719680786,-8.417439460754395,2.464750289916992,78.32124328613281,22.25,1
-0.2808699607849121,-0.9340355396270752,0.3146409094333648,-7.021152496337891,2.462031602859497,78.42111206054688,22.25,1
-0.2810061275959015,-0.9016900658607484,0.3082761466503143,-5.98537540435791,2.460287094116211,78.48519897460938,22.25,1
-0.2810935080051422,-0.8753347992897034,0.2985938191413879,-5.2561869621276855,2.45916748046875,78.52632904052734,22.25,1
-0.2811495661735534,-0.8696171045303345,0.2811847031116485,-4.770322799682617,2.458448886871338,78.55271911621094,22.25,1
-0.2755877673625946,-0.8715455532073975,0.2700125575065613,-4.379706382751465,2.4579877853393555,78.56965637207031,22.25,1
-0.2496274262666702,-0.8783808946609497,0.2740384638309479,-3.709869861602783,2.4576919078826904,78.58052825927734,22.25,1
-0.2161742597818374,-0.8939629793167114,0.2766220569610595,-2.4022762775421143,2.4575021266937256,78.5875015258789,22.25,1
-0.1947059333324432,-0.9039626717567444,0.2782800495624542,-0.6388335227966309,2.4605934619903564,78.59197998046875,22.25,1
-0.1753310263156891,-0.9215754270553588,0.2905395925045013,0.8582651615142822,2.4625773429870605,78.59485626220703,22.25,1
-0.1628973335027694,-0.9440738558769226,0.2984070777893066,1.6792964935302734,2.463850498199463,78.59669494628906,22.25,1
-0.1605158746242523,-0.980903148651123,0.3034559786319732,2.313664436340332,2.464667558670044,78.5978775024414,22.25,1
-0.1533898115158081,-0.9933425188064576,0.3234893977642059,3.483853816986084,2.4651918411254883,78.59864044189453,22.25,1
-0.1488167196512222,-1.0125209093093872,0.3643345534801483,5.069554328918457,2.4655282497406006,78.59912872314453,22.25,1
-0.1234908774495124,-1.0360240936279297,0.4465243816375732,6.219720840454102,2.4657442569732666,78.59944152832031,22.25,1
-0.1240315288305282,-1.028715968132019,0.4936712980270386,6.381036758422852,2.4658827781677246,78.59963989257812,22.25,1
-0.1803562343120575,-0.9904393553733826,0.4903408288955688,5.717888832092285,2.465512752532959,78.59976959228516,22.23,1
-0.1829155385494232,-0.9434845447540284,0.4322257936000824,4.776427745819092,2.465275287628174,78.599853515625,22.23,1
-0.1565690785646438,-0.935742735862732,0.3725397884845733,4.018201351165772,2.465122938156128,78.59990692138672,22.23,1
-0.1060747951269149,-0.9643611907958984,0.3286389708518982,3.5638585090637207,2.4650251865386963,78.59993743896484,22.23,1
-0.0736704692244529,-0.97712904214859,0.3060637414455414,3.2543747425079346,2.4649624824523926,78.59996032714844,22.23,1
-0.0920596644282341,-0.9405405521392822,0.3027718067169189,2.9124627113342285,2.4649221897125244,78.5999755859375,22.23,1
-0.1262518912553787,-0.8610824346542358,0.2838658988475799,2.4888365268707275,2.4648962020874023,78.59998321533203,22.23,1
-0.1593900322914123,-0.7876996397972107,0.2605376243591308,1.9626147747039795,2.464879512786865,78.59999084472656,22.23,1
-0.1862539649009704,-0.7238134741783142,0.2287735641002655,1.2809885740280151,2.4662461280822754,81.43022918701172,22.23,1
-0.2034936845302581,-0.6772172451019287,0.2027914524078369,0.3921556770801544,2.467123031616211,83.24651336669922,22.23,1
-0.2089593708515167,-0.6529122591018677,0.1973131746053695,-0.665476381778717,2.4676859378814697,84.41210174560547,22.23,1
-0.2124669402837753,-0.6541080474853516,0.2105908542871475,-1.6308097839355469,2.4680471420288086,85.16011047363281,22.23,1
-0.2203156650066375,-0.6660709381103516,0.2247094810009002,-2.225227117538452,2.468278884887696,85.64013671875,22.23,1
-0.2365480810403823,-0.7017369270324707,0.2617588639259338,-2.535038471221924,2.4684276580810547,85.94818878173828,22.23,1
-0.258160650730133,-0.7638097405433655,0.3079261183738708,-2.751770496368408,2.468523025512696,86.14588165283203,22.23,1
-0.3056170046329498,-0.9100022315979004,0.3879335820674896,-2.6723194122314453,2.4685842990875244,86.27275085449219,22.23,1
-0.3136806786060333,-1.0374068021774292,0.4560711085796356,-1.9979642629623413,2.465869188308716,86.35416412353516,22.23,1
-0.3020621538162231,-1.1471565961837769,0.5109933614730835,-0.9382511973381042,2.4641268253326416,86.40641021728516,22.23,1
-0.2834104895591736,-1.21758770942688,0.5630326271057129,-0.1327982097864151,2.463008642196656,86.43994140625,22.23,1
-0.2994298040866852,-1.2291996479034424,0.5628418326377869,-0.0601442158222198,2.4622912406921387,86.46145629882812,22.23,1
-0.3321011662483215,-1.107902765274048,0.4787527620792389,-0.590313732624054,2.4618308544158936,86.47526550292969,22.23,1
-0.3306766748428345,-0.9964747428894044,0.4023981392383575,-1.0989271402359009,2.461535215377808,86.48412322998047,22.23,1
-0.3241647481918335,-0.9417599439620972,0.3645936846733093,-1.242614507675171,2.461345672607422,86.48981475830078,22.23,1
-0.3255835473537445,-0.9346359968185424,0.3627240657806396,-1.2560081481933594,2.461223840713501,86.49346160888672,22.23,1
-0.326494038105011,-0.9412598013877868,0.361524224281311,-1.3505852222442627,2.462981939315796,86.49580383300781,22.23,1
-0.2766983807086944,-0.934315025806427,0.3551564812660217,-1.4506876468658447,2.4641101360321045,86.49730682373047,22.23,1
-0.2279490679502487,-0.91866272687912,0.3286789357662201,-1.5435882806777954,2.464834213256836,86.4982681274414,22.23,1
-0.2022623419761657,-0.9086179733276368,0.3060894012451172,-1.6533626317977903,2.465298891067505,86.49888610839844,22.23,1
-0.1969736218452453,-0.9077696204185486,0.2803971767425537,-1.763217806816101,2.465596914291382,86.49928283691406,22.23,1
-0.1935796290636062,-0.9072251915931702,0.2583115994930267,-1.9053680896759035,2.4657881259918213,86.49954223632812,22.23,1
-0.1858037859201431,-0.9124736189842224,0.2441383600234985,-2.089738845825196,2.4659109115600586,86.49970245361328,22.23,1
-0.1696181446313858,-0.9158417582511902,0.2350427806377411,-2.1543188095092773,2.465989828109741,86.49980926513672,22.23,1
-0.1648289114236831,-0.9291987419128418,0.229205772280693,-1.8518351316452024,2.466958522796631,86.4998779296875,22.21,1
-0.1673532277345657,-0.9657593965530396,0.2366554588079452,-1.148992896080017,2.467580318450928,86.49992370605469,22.21,1
-0.1689731925725937,-1.0116130113601685,0.2414362430572509,-0.4435862898826599,2.4679791927337646,86.49995422363281,22.21,1
-0.1700127869844436,-1.0074526071548462,0.2501020431518554,-0.141365110874176,2.46823525428772,86.49996948242188,22.21,1
-0.1594843864440918,-0.993587076663971,0.2724565863609314,0.002426971681416,2.4683995246887207,86.4999771118164,22.21,1
-0.152727872133255,-0.979091227054596,0.2979979813098907,0.5926824808120728,2.468504905700684,86.49998474121094,22.21,1
-0.1595874726772308,-0.975386381149292,0.3255845308303833,1.6378334760665894,2.4685726165771484,86.49999237060547,22.21,1
-0.1639895737171173,-0.9282266497612,0.3488857746124267,2.4124460220336914,2.468616008758545,86.49999237060547,22.21,1
-0.1612168103456497,-0.892364501953125,0.3582413792610168,2.3076748847961426,2.4691028594970703,88.57431030273438,22.21,1
-0.1482418626546859,-0.8973391056060791,0.3586474955081939,1.441524624824524,2.4694154262542725,89.90548706054688,22.21,1
-0.1175241917371749,-0.9229226112365724,0.3533103466033935,0.448604941368103,2.469615936279297,90.75975799560548,22.21,1
-0.1034091338515281,-0.9001561999320984,0.3498852849006653,-0.1205247864127159,2.469744682312012,91.30797576904295,22.21,1
-0.0999486744403839,-0.8519594073295593,0.3420895040035248,-0.2099011689424514,2.469827175140381,91.6597900390625,22.21,1
-0.12571682035923,-0.7930405735969543,0.3370866179466247,-0.1561979353427887,2.4698801040649414,91.88556671142578,22.21,1
-0.1702422052621841,-0.7552298903465271,0.3226805031299591,-0.3904274702072143,2.469914197921753,92.03045654296876,22.21,1
-0.204413816332817,-0.7421606779098511,0.2966421544551849,-1.1426151990890503,2.469935894012451,92.12344360351562,22.21,1
-0.2207454144954681,-0.7561647295951843,0.2799322605133056,-2.255859375,2.470409154891968,92.18311309814452,22.21,1
-0.2368238717317581,-0.7819450497627258,0.2692087888717651,-3.3177850246429443,2.470712900161743,92.22140502929688,22.21,1
-0.2695331871509552,-0.8040871620178223,0.2679248750209808,-4.095997333526611,2.470907926559448,92.24597930908205,22.21,1
-0.3073174655437469,-0.8238944411277771,0.2671009302139282,-4.663478374481201,2.471032857894897,92.26174926757812,22.21,1
-0.3483585715293884,-0.870192289352417,0.2833654880523681,-5.088558673858643,2.4711132049560547,92.2718734741211,22.21,1
-0.391489714384079,-0.9782723784446716,0.3217920064926147,-5.210882663726807,2.4711647033691406,92.2783660888672,22.21,1
-0.4079732596874237,-1.058827519416809,0.3576475083827972,-4.666015148162842,2.471197843551636,92.28253173828124,22.21,1
-0.3905625641345978,-1.144109845161438,0.3918530344963074,-2.997962713241577,2.471219062805176,92.28520965576172,22.21,1
-0.3569982945919037,-1.1876435279846191,0.4305975139141083,0.2112952619791031,2.4721505641937256,92.28692626953124,22.21,1
-0.3522520065307617,-1.1819943189620972,0.4554614722728729,4.796528339385986,2.472748279571533,92.28802490234376,22.21,1
-0.3659994304180145,-1.0944024324417114,0.4210377633571625,9.351225852966309,2.473131895065308,92.28873443603516,22.21,1
-0.3580284118652344,-1.0269954204559326,0.3765555024147033,11.754694938659668,2.4733779430389404,92.2891845703125,22.21,1
-0.3473152816295624,-1.0061285495758057,0.3368138074874878,10.997089385986328,2.4735360145568848,92.28947448730467,22.21,1
-0.3404402136802673,-1.009530782699585,0.3113098740577698,8.117741584777832,2.473637342453003,92.28966522216795,22.21,1
-0.2632571160793304,-1.0397030115127563,0.3005406856536865,4.976632118225098,2.4737024307250977,92.28978729248048,22.21,1
-0.1577477157115936,-1.025479078292847,0.3216185271739959,2.659912347793579,2.4737441539764404,92.28986358642578,22.21,1
-0.0844400823116302,-0.993959903717041,0.3407428562641144,1.2985650300979614,2.4737708568573,92.28990936279295,22.27,1
-0.0765798836946487,-0.9457438588142396,0.3306246399879455,0.6183897256851196,2.473788022994995,92.2899398803711,22.27,1
-0.0939267575740814,-0.9203993082046508,0.3073380291461944,0.221300721168518,2.473799228668213,92.28996276855467,22.27,1
-0.1386456340551376,-0.9209280014038086,0.27000293135643,-0.2735607028007507,2.473806381225586,92.28997802734376,22.27,1
-0.1617458611726761,-0.9156695008277892,0.2348478585481643,-0.92431378364563,2.473810911178589,92.28998565673828,22.27,1
-0.1709724813699722,-0.912294864654541,0.2066895812749862,-1.4673198461532593,2.473813772201538,92.2899932861328,22.27,1
-0.1712958216667175,-0.9381181001663208,0.1942169964313507,-1.6868171691894531,2.473815679550171,92.2899932861328,22.27,1
-0.1715033203363418,-0.9714832901954652,0.1918105781078338,-1.6951225996017456,2.4738168716430664,92.2899932861328,22.27,1
-0.1828320324420929,-1.004090666770935,0.201461836695671,-1.732695698738098,2.471522569656372,94.02037811279295,22.27,1
-0.1789065897464752,-0.9970273971557616,0.2020576745271682,-1.771138310432434,2.47005033493042,95.13084411621094,22.27,1
-0.1707896888256073,-0.986896812915802,0.2024400532245636,-1.5701062679290771,2.4691054821014404,95.84347534179688,22.27,1
-0.1599829643964767,-0.997188925743103,0.2194787710905075,-1.1079158782958984,2.468499183654785,96.3008041381836,22.27,1
-0.1530478298664093,-0.9870004653930664,0.2416087836027145,-0.6465102434158325,2.4681100845336914,96.59429168701172,22.27,1
-0.15419502556324,-0.902093231678009,0.2726038694381714,-0.4184756278991699,2.467860221862793,96.78263092041016,22.27,1
-0.1381379067897796,-0.8811913132667542,0.3092880547046661,-0.3975262939929962,2.4677000045776367,96.90349578857422,22.27,1
-0.1166378259658813,-0.9013643264770508,0.3384276330471039,-0.4234905540943146,2.467597246170044,96.98106384277344,22.27,1
-0.0860469937324523,-0.931103527545929,0.3459321856498718,-0.4723961055278778,2.470285415649414,97.03083801269533,22.27,1
-0.0776111036539077,-0.9333950877189636,0.3507481813430786,-0.657831609249115,2.472010612487793,97.06278228759766,22.27,1
-0.1001863107085228,-0.906876802444458,0.3762299120426178,-0.9953705668449402,2.4731178283691406,97.08328247070312,22.27,1
-0.1538581997156143,-0.8674678206443787,0.3645937442779541,-1.3409563302993774,2.473828315734864,97.096435546875,22.27,1
-0.1659106314182281,-0.8253840804100037,0.3515285551548004,-1.6236371994018557,2.474284172058105,97.1048812866211,22.27,1
-0.1848407387733459,-0.831963837146759,0.3375462889671325,-1.9340182542800903,2.474576711654663,97.11029815673828,22.27,1
-0.1969889849424362,-0.8361862897872925,0.3341710269451141,-2.391148328781128,2.474764585494995,97.11377716064452,22.27,1
-0.2215783596038818,-0.8332982659339905,0.3264072239398956,-2.974696636199951,2.4748852252960205,97.11600494384766,22.27,1
-0.2541517317295074,-0.8258471488952637,0.3214248418807983,-3.410088300704956,2.47725796699524,97.11743927001952,22.27,1
-0.2806532084941864,-0.8266631960868835,0.3238252103328705,-3.399308919906616,2.478780508041382,97.11835479736328,22.27,1
-0.3200514316558838,-0.8775668740272522,0.3421589732170105,-3.084289789199829,2.47975754737854,97.1189422607422,22.27,1
-0.3509327173233032,-0.9438205361366272,0.370717853307724,-2.8463029861450195,2.480384588241577,97.11932373046876,22.27,1
-0.3595550060272217,-1.0143271684646606,0.3946430683135986,-2.7222373485565186,2.4807870388031006,97.11956787109376,22.27,1
-0.3482949733734131,-1.1099542379379272,0.4267902076244354,-2.298691749572754,2.481045246124268,97.11972045898438,22.27,1
-0.357862263917923,-1.1881155967712402,0.4530181586742401,-0.9556945562362672,2.481210947036743,97.11981964111328,22.27,1
-0.3584042191505432,-1.1431128978729248,0.4306653439998626,1.7261122465133667,2.4813172817230225,97.11988830566406,22.27,1
-0.347556471824646,-1.0638527870178225,0.3939294815063476,5.173943042755127,2.483680725097656,97.11992645263672,22.25,1
-0.3238016664981842,-0.9961948394775392,0.359158992767334,7.698246479034424,2.4851973056793213,97.11995697021484,22.25,1
-0.3197527527809143,-0.9863625168800354,0.3312475085258484,8.021306991577148,2.486170530319214,97.1199722290039,22.25,1
-0.3115566372871399,-1.002443790435791,0.3077377378940582,6.559147834777832,2.48679518699646,97.11997985839844,22.25,1
-0.2223302125930786,-1.0183615684509275,0.3150416314601898,4.535297870635986,2.4871959686279297,97.11998748779295,22.25,1
-0.1538742780685424,-1.0117833614349363,0.3253266215324402,2.627469539642334,2.4874532222747803,97.1199951171875,22.25,1
-0.1043454259634018,-0.9795730113983154,0.3207314014434814,1.1236943006515503,2.4876184463500977,97.1199951171875,22.25,1
-0.1005495339632034,-0.947706699371338,0.3009891211986542,0.3951079547405243,2.4877243041992188,97.1199951171875,22.25,1
-0.114906869828701,-0.9328545331954956,0.2827218770980835,0.3825302720069885,2.491464614868164,98.47062683105467,22.25,1
-0.1297183632850647,-0.9177255034446716,0.2542057037353515,0.4031192362308502,2.4938650131225586,99.33738708496094,22.25,1
-0.1448213011026382,-0.908016562461853,0.2303078770637512,-0.0565679222345352,2.495405435562134,99.89362335205078,22.25,1
-0.1489157229661941,-0.8961881399154663,0.2093738615512848,-0.8531292676925659,2.496393918991089,100.25057983398438,22.25,1
-0.1627388298511505,-0.8997928500175476,0.190341830253601,-1.5685232877731323,2.497028350830078,100.47966003417967,22.25,1
-0.1828052550554275,-0.9188994765281676,0.1781281679868698,-1.9416401386260984,2.497435569763184,100.62667083740234,22.25,1
-0.1900849640369415,-0.9535521268844604,0.1870834678411483,-1.912391901016236,2.497696876525879,100.72100830078124,22.25,1
-0.1835611015558242,-0.9589968919754028,0.2040260136127472,-1.5568599700927734,2.497864484786988,100.78154754638672,22.25,1
-0.1849722415208816,-0.9400998950004578,0.2260943204164505,-1.106580376625061,2.495217800140381,100.82040405273438,22.25,1
-0.1690845042467117,-0.9727551341056824,0.2738431394100189,-0.8104516863822937,2.4935193061828613,100.8453369140625,22.25,1
-0.1588886678218841,-0.9881135821342468,0.2988877892494201,-0.742220938205719,2.492429494857788,100.86133575439452,22.25,1
-0.1859322190284729,-0.936394214630127,0.3429488837718963,-0.805911660194397,2.491729974746704,100.8716049194336,22.25,1
-0.2032872140407562,-0.8920081853866577,0.3880180716514587,-0.9220187664031982,2.491281032562256,100.8781967163086,22.25,1
-0.1920335441827774,-0.8971104025840759,0.4169408977031708,-1.039520502090454,2.490993022918701,100.8824234008789,22.25,1
-0.1400294005870819,-0.9451669454574584,0.4131107926368713,-1.1256741285324097,2.490808248519897,100.88513946533205,22.25,1
-0.1010583564639091,-0.9648113250732422,0.3994573056697845,-1.1057285070419312,2.490689516067505,100.88687896728516,22.25,1
-0.1040378585457801,-0.9270379543304444,0.3850975036621094,-0.8457307815551758,2.4906134605407715,100.88800048828124,22.25,1
-0.1283410340547561,-0.8971993923187256,0.3758822083473205,-0.3349519670009613,2.490564584732056,100.8887176513672,22.25,1
-0.1663285046815872,-0.8612574338912964,0.3643706142902374,0.1683827340602874,2.4905333518981934,100.88917541503906,22.25,1
-0.1963044553995132,-0.8381919264793396,0.3513853549957275,0.3731689453125,2.4905130863189697,100.88947296142578,22.25,1
-0.221139058470726,-0.8177920579910278,0.3430521488189697,0.250226080417633,2.4905002117156982,100.88966369628906,22.25,1
-0.2314787060022354,-0.7935050129890442,0.3321066200733185,-0.0364609695971012,2.4904918670654297,100.88978576660156,22.25,1
-0.2437118738889694,-0.7723212242126465,0.3194846212863922,-0.3350826203823089,2.490486621856689,100.88986206054688,22.25,1
-0.2459646463394165,-0.7531289458274841,0.3113845586776733,-0.5947897434234619,2.490483283996582,100.88990783691406,22.25,1
-0.2418125718832016,-0.7688012719154358,0.3285774886608124,-0.8904275298118591,2.4973666667938232,100.8899383544922,22.23,1
-0.2335502356290817,-0.8012499809265137,0.3508064746856689,-1.2306190729141235,2.501784086227417,100.88996124267578,22.23,1
-0.2394434809684753,-0.8724536895751953,0.387462854385376,-1.366535186767578,2.5046188831329346,100.88997650146484,22.23,1
-0.2488232105970382,-0.9573325514793396,0.4165845811367035,-0.9235370755195618,2.5064382553100586,100.88998413085938,22.23,1
-0.2212559282779693,-1.0509873628616333,0.4296754598617553,0.3244663774967193,2.507605791091919,100.8899917602539,22.23,1
-0.2483470290899276,-1.1390784978866575,0.4492719769477844,2.1929707527160645,2.508354902267456,100.8899917602539,22.23,1
-0.2937214076519012,-1.2068058252334597,0.4786412119865417,3.897212266921997,2.508835792541504,100.8899917602539,22.23,1
-0.317242294549942,-1.143911600112915,0.4415109753608703,4.424849510192871,2.5091443061828613,100.8899917602539,22.23,1
-0.3155433237552643,-1.0531697273254397,0.3896940350532532,3.541798591613769,2.505210876464844,102.0758285522461,22.23,1
-0.2304864078760147,-0.9725457429885864,0.3396475911140442,2.1152892112731934,2.5026865005493164,102.83683013916016,22.23,1
-0.175901785492897,-0.9599903225898744,0.3131284415721893,1.063699722290039,2.5010666847229004,103.3251953125,22.23,1
-0.1688613891601562,-0.9687263369560242,0.290512204170227,0.449753850698471,2.5000271797180176,103.63860321044922,22.23,1
-0.1755388081073761,-0.9575392603874208,0.2704006135463714,-0.0230579581111669,2.4993600845336914,103.83972930908205,22.23,1
-0.1854217648506164,-0.9391645193099976,0.2574941515922546,-0.3121510446071625,2.498931884765625,103.9687957763672,22.23,1
-0.191764086484909,-0.9273726344108582,0.2436137646436691,-0.3257107138633728,2.498656988143921,104.05162811279295,22.23,1
-0.1734431236982345,-0.9086097478866576,0.2291083633899688,-0.3702382743358612,2.498480796813965,104.1047821044922,22.23,1
-0.1672835499048233,-0.8741776943206787,0.2086040824651718,-0.6854195594787598,2.502958059310913,104.1388931274414,22.23,1
-0.1689284741878509,-0.8576789498329163,0.1954456120729446,-1.0632309913635254,2.505831241607666,104.16078186035156,22.23,1
-0.1643863171339035,-0.8582865595817566,0.1981968134641647,-1.309271216392517,2.507675170898437,104.1748275756836,22.23,1
-0.161471426486969,-0.864274263381958,0.2055601477622985,-1.495826244354248,2.5088584423065186,104.18384552001952,22.23,1
-0.1651985794305801,-0.8905079364776611,0.2158832848072052,-1.611963987350464,2.509617805480957,104.18962860107422,22.23,1
-0.1507971286773681,-0.924136519432068,0.239301398396492,-1.4822876453399658,2.5101051330566406,104.19334411621094,22.23,1
-0.1303595602512359,-0.9681085348129272,0.2599275708198547,-1.1662014722824097,2.510417938232422,104.19572448730467,22.23,1
-0.1172439083456993,-0.9795339107513428,0.2675665020942688,-0.9346948862075806,2.5106186866760254,104.19725799560548,22.23,1
-0.1088270395994186,-0.986866056919098,0.2668709456920624,-0.832700788974762,2.5061569213867188,104.1982421875,22.23,1
-0.1370122283697128,-1.0419514179229736,0.2608267962932586,-0.6454392671585083,2.503293752670288,104.19886779785156,22.23,1
-0.1606976240873336,-1.0605086088180542,0.2513502538204193,-0.3676322996616363,2.5014562606811523,104.19927215576172,22.23,1
-0.1926908791065216,-0.977255403995514,0.2396709620952606,-0.2681684195995331,2.500277042388916,104.19953155517578,22.23,1
-0.2188200801610946,-0.8902416825294495,0.2265781015157699,-0.3548064231872558,2.499520301818848,104.19969940185548,22.23,1
-0.2299905270338058,-0.8232057094573975,0.2181758433580398,-0.1990337371826172,2.4990346431732178,104.1998062133789,22.23,1
-0.2147679775953292,-0.830565869808197,0.2183815389871597,0.4024927914142608,2.498723030090332,104.19987487792967,22.23,1
-0.1938034743070602,-0.8408869504928589,0.218513548374176,1.075123906135559,2.498522996902466,104.19992065429688,22.23,1
-0.1691541075706482,-0.8307170867919922,0.2074027061462402,1.3419814109802246,2.49931263923645,104.199951171875,22.21,1
-0.1533355712890625,-0.8073973655700684,0.1890768557786941,1.111986756324768,2.499819278717041,104.19996643066406,22.21,1
-0.1599774658679962,-0.7756387591362,0.1605230569839477,0.584636390209198,2.5001444816589355,104.1999740600586,22.21,1
-0.1978264898061752,-0.7664535045623779,0.1310033351182937,0.0025981103535741,2.5003530979156494,104.19998168945312,22.21,1
-0.2445069104433059,-0.7661566734313965,0.1120592728257179,-0.4640675187110901,2.5004870891571045,104.19998931884766,22.21,1
-0.2800614833831787,-0.7715639472007751,0.1446842551231384,-0.7492163181304932,2.500572919845581,104.19998931884766,22.21,1
-0.2804872691631317,-0.7694362998008728,0.1936099678277969,-0.8498091697692871,2.500627994537353,104.19998931884766,22.21,1
-0.2583694159984588,-0.7344842553138733,0.2250076681375503,-0.8319646716117859,2.50066351890564,104.19998931884766,22.21,1
-0.2721643447875976,-0.6896629333496094,0.2563524544239044,-0.7416964173316956,2.501145601272583,105.04190063476562,22.21,1
-0.3034082353115082,-0.644105851650238,0.3212499320507049,-0.5225515365600586,2.5014548301696777,105.58219146728516,22.21,1
-0.3458498418331146,-0.6148699522018433,0.3628973960876465,-0.1096412315964698,2.5016534328460693,105.92891693115234,22.21,1
-0.3954775333404541,-0.6632813215255737,0.3672332465648651,0.6354060173034668,2.5017807483673096,106.15142822265624,22.21,1
-0.4217279553413391,-0.7335333824157715,0.3700157403945923,1.9626048803329468,2.5018625259399414,106.29421997070312,22.21,1
-0.4161828756332397,-0.7450304627418518,0.3997902572154999,3.677725315093994,2.501914978027344,106.38585662841795,22.21,1
-0.3958310186862945,-0.8027885556221008,0.4077022969722748,4.735400199890137,2.501948595046997,106.44466400146484,22.21,1
-0.3547815084457397,-0.8958321213722229,0.3959864377975464,4.160253524780273,2.501970291137696,106.4823989868164,22.21,1
-0.3172427415847778,-0.9443466067314148,0.405261218547821,2.347379446029663,2.5024430751800537,106.50662231445312,22.21,1
-0.2763592004776001,-1.0370559692382812,0.4168110191822052,0.6465948820114136,2.50274658203125,106.52216339111328,22.21,1
-0.227731391787529,-1.068562626838684,0.4354185461997986,-0.2442465424537658,2.502941131591797,106.53213500976562,22.21,1
-0.218915969133377,-1.0943795442581177,0.4417620301246643,-0.6009827256202698,2.503066062927246,106.53853607177734,22.21,1
-0.2356498390436172,-1.0773606300354004,0.5186039805412292,-0.6830298900604248,2.503146171569824,106.54264068603516,22.21,1
-0.2519864439964294,-1.0776344537734983,0.6406877636909485,-0.481320172548294,2.50319766998291,106.54528045654295,22.21,1
-0.7326833605766296,-1.13938570022583,1.0716938972473145,-0.3196313083171844,2.5032308101654053,106.5469741821289,22.21,1
0.2407233715057373,-1.4477072954177856,1.2251378297805786,-0.6457777619361877,2.5032520294189453,106.54805755615234,22.21,1
0.8653997778892517,-1.4216593503952026,1.4971402883529663,-1.2276676893234253,2.506019830703736,106.54875183105467,22.21,1
0.3650394082069397,-0.8283725380897522,1.4925670623779297,-1.4649531841278076,2.507796049118042,106.54920196533205,22.21,1
0.0327414013445377,-0.4644285440444946,1.2993078231811523,-1.309127926826477,2.5089359283447266,106.54949188232422,22.21,1
-0.0349661968648433,-0.4267923235893249,0.9289831519126892,-1.1303116083145142,2.50966739654541,106.54967498779295,22.21,1
-0.0224392917007207,-0.4642150700092315,0.640950083732605,-1.0155575275421145,2.510136842727661,106.54978942871094,22.21,1
-0.0144002456218004,-0.5050241351127625,0.4449115097522735,-0.7699514031410217,2.510438203811645,106.54986572265624,22.21,1
-0.0820123180747032,-0.3632798492908478,0.313507467508316,-0.4081287086009979,2.510631561279297,106.54991149902344,22.21,1
-0.0862174332141876,-0.1211766153573989,0.2347776889801025,-0.0720370039343833,2.510755777359009,106.54994201660156,22.21,1
0.0286372303962707,0.0901690497994422,0.0946890637278556,0.2367942780256271,2.509458303451538,106.54996490478516,22.23,1
0.119137667119503,0.332156240940094,-0.0679828226566314,0.4887230396270752,2.5086255073547363,106.54998016357422,22.23,1
0.1716178655624389,0.2859298288822174,-0.2227562367916107,0.5966578125953674,2.5080912113189697,106.54998779296876,22.23,1
0.3396432101726532,0.2114821821451187,-0.5515896677970886,0.6444286704063416,2.5077483654022217,106.54999542236328,22.23,1
0.4866566359996795,0.2980525493621826,-0.8073982000350952,0.7180761694908142,2.507528305053711,106.54999542236328,22.23,1
0.6089902520179749,0.3480106592178345,-0.8987903594970703,0.6757745146751404,2.507386922836304,106.54999542236328,22.23,1
0.7714635729789734,0.4696352779865265,-0.8454850912094116,0.5160724520683289,2.507296323776245,106.54999542236328,22.23,1
0.6966007947921753,0.2957871258258819,-0.654539167881012,0.5138969421386719,2.5072381496429443,106.54999542236328,22.23,1
0.928446888923645,0.16742804646492,-0.6215654611587524,0.6880470514297485,2.485625982284546,107.30950164794922,22.23,1
1.0548412799835205,0.1074456796050071,-0.6619803309440613,0.6779990196228027,2.4717564582824707,107.79691314697266,22.23,1
1.2423115968704224,0.1809079349040985,-0.7998717427253723,0.3240408897399902,2.462855815887451,108.10970306396484,22.23,1
1.4297925233840942,0.2504428923130035,-0.8323847651481628,-0.0643249526619911,2.457143783569336,108.31043243408205,22.23,1
1.426956057548523,0.2166975736618042,-0.7021098732948303,-0.0771058052778244,2.4534780979156494,108.43924713134766,22.23,1
1.4475268125534058,0.2622150778770447,-0.5681269764900208,0.2622020244598388,2.4511258602142334,108.52191162109376,22.23,1
1.4047502279281616,0.2858278155326843,-0.4597533643245697,0.4584547877311706,2.4496161937713623,108.57496643066406,22.23,1
1.2933320999145508,0.3233721852302551,-0.3230321109294891,0.2404712438583374,2.4486474990844727,108.6090087890625,22.23,1
1.1826459169387815,0.3642593324184418,-0.1849123239517212,0.1113296896219253,2.370905876159668,108.630859375,22.23,1
1.094820499420166,0.4128894507884979,0.0212782751768827,0.6482396721839905,2.3210155963897705,108.64488220214844,22.23,1
0.9880792498588562,0.4496952295303345,0.1759906411170959,1.411958932876587,2.288999080657959,108.65387725830078,22.23,1
0.8971877694129944,0.4565217494964599,0.3032650053501129,1.4936563968658447,2.2684526443481445,108.65965270996094,22.23,1
0.8780432939529419,0.4217181801795959,0.3905401229858398,1.1484191417694092,2.255267143249512,108.66336059570312,22.23,1
0.860159695148468,0.371394395828247,0.4633415937423706,1.729362726211548,2.246805429458618,108.66574096679688,22.23,1
0.764716386795044,0.3055128455162048,0.5100613832473755,3.614025831222534,2.241375207901001,108.66726684570312,22.23,1
0.6250975728034973,0.2184516489505767,0.5736300945281982,5.385958671569824,2.237890243530273,108.66824340820312,22.23,1
0.5243026614189148,0.1793741136789322,0.625620424747467,6.0609307289123535,2.224177837371826,108.66886901855467,22.23,1
0.4876071810722351,0.1431008577346801,0.6981692314147949,6.572905540466309,2.2153780460357666,108.66927337646484,22.23,1
0.4864492416381836,0.1198227629065513,0.7447268962860107,8.012060165405273,2.209730863571167,108.6695327758789,22.23,1
0.4745105803012848,0.1160797700285911,0.746616005897522,10.6409330368042,2.206106662750244,108.6697006225586,22.23,1
0.4780445694923401,0.0968844145536422,0.759023904800415,14.58143138885498,2.2037808895111084,108.66980743408205,22.23,1
0.5138991475105286,0.0901637151837349,0.7725843191146851,17.808818817138672,2.2022883892059326,108.6698760986328,22.23,1
0.5760929584503174,0.0690574347972869,0.7980799674987793,17.225282669067383,2.2013306617736816,108.669921875,22.23,1
0.6439942717552185,0.0667081847786903,0.8088438510894775,14.540040969848633,2.200716018676758,108.66995239257812,22.23,1
0.7099605202674866,0.1099827662110328,0.8101537227630615,13.862919807434082,2.254488945007324,108.6699676513672,22.23,1
0.7746849656105042,0.1769383251667022,0.8053964972496033,13.148941040039062,2.2889974117279053,108.66997528076172,22.23,1
0.7770369648933411,0.2143087685108184,0.7855502963066101,7.578415393829346,2.311142921447754,108.66998291015624,22.23,1
0.7505574226379395,0.2103020995855331,0.7560207843780518,-1.1983270645141602,2.32535457611084,108.66999053955078,22.23,1
0.7559555172920227,0.2021330744028091,0.7314726710319519,-8.3533296585083,2.334474802017212,108.66999053955078,22.23,1
0.7818107604980469,0.2080862075090408,0.6877302527427673,-12.98082447052002,2.340327739715576,108.66999053955078,22.23,1
0.7760120630264282,0.1839177161455154,0.6540611386299133,-15.44175910949707,2.344083786010742,108.66999053955078,22.23,1
0.7834863662719727,0.1628099977970123,0.6324542164802551,-14.369938850402832,2.346494197845459,108.66999053955078,22.23,1
0.8050762414932251,0.1380687355995178,0.5905992388725281,-10.095948219299316,2.3907320499420166,109.31127166748048,22.23,1
0.8133336305618286,0.110995665192604,0.5469458103179932,-6.547067165374756,2.419121503829956,109.72280883789062,22.23,1
0.8242305517196655,0.0600350797176361,0.4965404868125915,-6.98877477645874,2.437340259552002,109.9869155883789,22.23,1
0.8480168581008911,0.0385270565748214,0.4306066036224365,-10.14188003540039,2.4490318298339844,110.15640258789062,22.23,1
0.7849127054214478,0.0751044154167175,0.3826962411403656,-12.161779403686523,2.4565348625183105,110.26516723632812,22.23,1
0.8283827304840088,0.0985776633024215,0.4079278707504272,-11.12936019897461,2.4613499641418457,110.33496856689452,22.23,1
0.8282904028892517,0.1304347664117813,0.4353156387805938,-8.109477996826172,2.464439868927002,110.3797607421875,22.23,1
0.8338289260864258,0.1676721423864364,0.4920759499073028,-5.093136310577393,2.4664227962493896,110.40850830078124,22.23,1
0.8149921298027039,0.1747756153345108,0.5229036808013916,-3.5264270305633545,2.5067145824432373,110.4269561767578,22.23,1
0.8085015416145325,0.1961275488138198,0.5426871180534363,-3.7354965209960938,2.53257155418396,110.43879699707033,22.23,1
0.7987384796142578,0.2378188520669937,0.5441874861717224,-4.632753849029541,2.5491650104522705,110.44639587402344,22.23,1
0.8092664480209351,0.2589761614799499,0.5451502799987793,-4.771487712860107,2.5598137378692627,110.4512710571289,22.23,1
0.7992293238639832,0.2557603716850281,0.5513659715652466,-3.932631969451904,2.566647529602051,110.45439910888672,22.23,1
0.7759947776794434,0.2201100289821624,0.5497570633888245,-2.853333711624145,2.571033000946045,110.45640563964844,22.23,1
0.7890730500221252,0.2140250205993652,0.5487245321273804,-1.9421651363372805,2.573847532272339,110.45769500732422,22.23,1
0.77507483959198,0.2604999840259552,0.5312685966491699,-1.2857781648635864,2.575653553009033,110.4585189819336,22.23,1
0.7492982745170593,0.2623360455036163,0.5312619209289551,-1.1833959817886353,2.6351115703582764,110.45905303955078,22.23,1
0.7271585464477539,0.2635143399238586,0.5480509996414185,-1.6407490968704224,2.673268318176269,110.45938873291016,22.23,1
0.7017550468444824,0.2698682844638824,0.5868141055107117,-2.1527891159057617,2.6977550983428955,110.45960998535156,22.23,1
0.6742569804191589,0.2851414084434509,0.6060922741889954,-2.4598913192749023,2.7134692668914795,110.45974731445312,22.23,1
0.6845991611480713,0.3061383664608001,0.6296594142913818,-2.6318938732147217,2.7235536575317383,110.4598388671875,22.23,1
0.6800406575202942,0.3308085799217224,0.6391856670379639,-2.473582029342652,2.730025291442871,110.45989990234376,22.23,1
0.6659197211265564,0.3354449272155761,0.6452990770339966,-1.7450358867645264,2.7341785430908203,110.4599380493164,22.23,1
0.6344665884971619,0.3328225016593933,0.6604178547859192,-0.7795189023017883,2.7368438243865967,110.4599609375,22.23,1
0.5806951522827148,0.3255418241024017,0.6701202392578125,-0.1742359697818756,2.7968530654907227,110.45997619628906,22.23,1
0.5741766095161438,0.3264672756195068,0.6931399703025818,-0.0616585500538349,2.8353636264801025,110.4599838256836,22.23,1
0.5755911469459534,0.3326589465141296,0.7023149728775024,-0.1327158659696579,2.860077381134033,110.45999145507812,22.23,1
0.5597056150436401,0.3422301709651947,0.7138007283210754,-0.1317428797483444,2.875937223434448,110.45999145507812,22.23,1
0.5886955857276917,0.3315791189670563,0.7323671579360962,-0.073797270655632,2.886115312576294,110.45999145507812,22.23,1
0.6296907663345337,0.2967550158500671,0.7554776072502136,-0.2802262306213379,2.8926470279693604,110.45999145507812,22.23,1
0.5328481197357178,0.3807646036148071,0.7479174137115479,-1.1256331205368042,2.896838665008545,110.45999145507812,22.23,1
0.4930911660194397,0.3675038516521454,0.7262724041938782,-2.46708083152771,2.8995285034179688,110.45999145507812,22.23,1
0.5291529297828674,0.381384938955307,0.6899908185005188,-3.55722975730896,2.795674085617065,110.98663330078124,22.23,1
0.5690886378288269,0.3790974915027618,0.672305166721344,-4.020374298095703,2.7290263175964355,111.32460021972656,22.23,1
0.6003148555755615,0.3664339780807495,0.6441621780395508,-4.478809833526611,2.686255693435669,111.54148864746094,22.23,1
0.6147562861442566,0.3695028126239776,0.6149060726165771,-5.629242897033691,2.6588079929351807,111.68067932128906,22.23,1
0.6184262037277222,0.3658744394779205,0.590533435344696,-7.22017765045166,2.641193628311157,111.7699966430664,22.23,1
0.6711612939834595,0.3803392946720123,0.5636969208717346,-8.620901107788086,2.629889726638794,111.82731628417967,22.23,1
0.7106013894081116,0.3840242326259613,0.5352792143821716,-9.817158699035645,2.62263560295105,111.86410522460938,22.23,1
0.7303140163421631,0.3863890171051025,0.5226401686668396,-11.204632759094238,2.6179802417755127,111.88771057128906,22.23,1
0.7261711359024048,0.3655155003070831,0.5257247090339661,-12.976347923278809,2.607647657394409,111.90286254882812,22.23,1
0.7459035515785217,0.363315612077713,0.5277041792869568,-14.90149974822998,2.6010167598724365,111.91258239746094,22.23,1
0.7249800562858582,0.3675016462802887,0.5177789330482483,-16.18710708618164,2.596761465072632,111.9188232421875,22.23,1
0.7563347220420837,0.3701879978179931,0.5338006019592285,-16.059171676635742,2.5940306186676025,111.9228286743164,22.23,1
0.7652608156204224,0.3607163727283478,0.5272890329360962,-14.866470336914062,2.592278242111206,111.92539978027344,22.23,1
0.7653912901878357,0.3714313507080078,0.5175125598907471,-13.835952758789062,2.591153621673584,111.9270477294922,22.23,1
0.7598772644996643,0.3895031809806824,0.5056408047676086,-14.116843223571776,2.590431928634644,111.92810821533205,22.23,1
0.7563386559486389,0.3899050951004028,0.4980221688747406,-16.98403549194336,2.589968681335449,111.92878723144533,22.23,1
0.7652633190155029,0.3789674639701843,0.5043284893035889,-23.47063446044922,2.6121644973754883,111.9292221069336,22.23,1
0.7765884399414062,0.377546101808548,0.5027777552604675,-32.534324645996094,2.626408576965332,111.92950439453124,22.23,1
0.7670629024505615,0.3878294825553894,0.4961848258972168,-41.53220748901367,2.635549545288086,111.92967987060548,22.23,1
0.7553521990776062,0.3888309895992279,0.4863560795783996,-49.731929779052734,2.64141583442688,111.92979431152344,22.23,1
0.7702280282974243,0.3782781660556793,0.4800485670566559,-59.40777587890625,2.6451804637908936,111.92987060546876,22.23,1
0.7629811763763428,0.4162881672382355,0.4815985560417175,-72.25568389892578,2.6475963592529297,111.92991638183594,22.23,1
0.7359395027160645,0.4126919209957123,0.48819100856781,-86.7738265991211,2.649146795272827,111.92994689941406,22.23,1
0.7409768104553223,0.3823951780796051,0.4700305759906769,-100.89855194091795,2.650141716003418,111.92996978759766,22.23,1
0.761002779006958,0.3685502409934997,0.4527784883975982,-115.90647888183594,2.630582332611084,111.9299774169922,22.21,1
0.7962453961372375,0.3820564746856689,0.4249137639999389,-135.8411865234375,2.618030309677124,111.92998504638672,22.21,1
0.8356553912162781,0.3739306628704071,0.4126295447349548,-162.90353393554688,2.609975099563598,111.92999267578124,22.21,1
0.8497508764266968,0.3799115419387817,0.4103440344333648,-192.30088806152344,2.6048057079315186,111.92999267578124,22.21,1
0.8308076858520508,0.4117386043071747,0.380888432264328,-211.5497436523437,2.6014883518218994,111.92999267578124,22.21,1
0.8018577098846436,0.3929789364337921,0.3507899940013885,-208.4114990234375,2.5993595123291016,111.92999267578124,22.21,1
0.8000726103782654,0.4033311605453491,0.3426700830459595,-180.481201171875,2.5979933738708496,111.92999267578124,22.21,1
0.8213181495666504,0.4043768644332886,0.3486547470092773,-133.72816467285156,2.597116470336914,111.92999267578124,22.21,1
0.823756754398346,0.3938523828983307,0.3524953722953796,-72.89310455322266,2.623178482055664,112.57485961914062,22.21,1
0.8197239637374878,0.3926961421966553,0.3493622839450836,0.5149828791618347,2.6399035453796387,112.98870086669922,22.21,1
0.8171359300613403,0.3919541537761688,0.3473516404628753,79.44808197021484,2.650636672973633,113.25428009033205,22.21,1
0.8154750466346741,0.4026735126972198,0.3348657786846161,148.02284240722656,2.657524585723877,113.42471313476562,22.21,1
0.8200069665908813,0.3983570337295532,0.3436464071273803,192.23439025878903,2.66194486618042,113.53408813476562,22.21,1
0.8285130858421326,0.3955869674682617,0.354879081249237,210.1600341796875,2.6647815704345703,113.60427856445312,22.21,1
0.8227762579917908,0.3994070887565613,0.3620875477790832,208.4941253662109,2.66660213470459,113.64932250976562,22.21,1
0.8078991770744324,0.4186519384384155,0.3443224430084228,194.5277709960937,2.6677703857421875,113.67823028564452,22.21,1
0.8151452541351318,0.4142088592052459,0.3385195732116699,174.65243530273438,2.7598705291748047,113.69677734375,22.21,1
0.8141975998878479,0.4225530922412872,0.3236000835895538,154.34552001953125,2.81897497177124,113.70867919921876,22.21,1
0.8191872239112854,0.4279079437255859,0.3140256106853485,135.51351928710938,2.8569047451019287,113.71631622314452,22.21,1
0.827987015247345,0.4145510494709015,0.2742946147918701,117.03691864013672,2.881245851516724,113.72122192382812,22.21,1
0.8504275679588318,0.4115771353244781,0.2599931061267853,99.17888641357422,2.896866798400879,113.724365234375,22.21,1
0.8760241270065308,0.3928753137588501,0.2676085531711578,85.1570816040039,2.906891345977783,113.72638702392578,22.21,1
0.8868528008460999,0.3920691311359405,0.283691257238388,77.247802734375,2.9133245944976807,113.7276840209961,22.21,1
0.8826064467430115,0.3859539926052093,0.2940122187137604,73.39373779296875,2.917453050613404,113.728515625,22.21,1
0.863088071346283,0.3932251930236816,0.3062333762645721,69.85997772216797,2.930305957794189,113.7290496826172,22.21,1
