acc_x,acc_y,acc_z,bvp,eda,hr,temp,label
0.0,0.0,0.0,0.0,0.0,0.0,28.39,2
-0.0624999962747097,-0.1354166567325592,0.0729166641831398,11.943333625793455,0.2416033148765564,10.778332710266112,28.39,2
-0.1798780560493469,-0.3254573345184326,0.1665396392345428,29.349267959594727,0.5657053589820862,25.23707389831543,28.39,2
-0.1524086445569992,-0.4160091578960418,0.2629256844520569,45.01568222045898,0.8476183414459229,37.81368637084961,28.39,2
-0.2177794277667999,-0.5461300015449524,0.338582694530487,55.80630111694336,1.0532890558242798,46.98900604248047,28.39,2
-0.300466239452362,-0.6671656370162964,0.3843159675598144,61.95608901977539,1.1925368309020996,53.20108413696289,28.39,2
-0.3880391418933868,-0.6966047286987305,0.4087704718112945,64.31731414794922,1.2839033603668213,57.277099609375,28.39,2
-0.3554864823818207,-0.7993609309196472,0.3743944764137268,62.85782623291016,1.3430770635604858,59.916934967041016,28.39,2
-0.3736481964588165,-0.7817010283470154,0.3857914507389068,58.1324462890625,1.38761305809021,61.6174430847168,28.39,2
-0.3909161388874054,-0.7871341705322266,0.3875221312046051,51.94434356689453,1.4162383079528809,62.71043395996094,28.39,2
-0.413197785615921,-0.7906230688095093,0.3886334896087646,46.35525894165039,1.4346201419830322,63.41230010986328,28.39,2
-0.4219034016132355,-0.787265419960022,0.3893468976020813,41.63915252685547,1.446419596672058,63.86283874511719,28.39,2
-0.4218932390213012,-0.7963055372238159,0.3954023122787475,37.12916946411133,1.4539926052093506,64.1520004272461,28.39,2
-0.4218867123126983,-0.7965095639228821,0.393690824508667,31.5228271484375,1.458852767944336,64.33757781982422,28.39,2
-0.4218825101852417,-0.7966404557228088,0.3925924897193908,23.933969497680664,1.4619717597961426,64.45667266845703,28.39,2
-0.4274775683879852,-0.802322268486023,0.3806920945644378,12.891079902648926,1.4639734029769895,64.53309631347656,28.39,2
-0.4310681819915771,-0.8003707528114319,0.3674573302268982,-2.643338203430176,1.4409286975860596,64.58214569091797,28.45,2
-0.433372437953949,-0.7879227995872498,0.3477684557437897,-17.85375213623047,1.4261399507522583,64.61361694335938,28.45,2
-0.4460467100143432,-0.7855322360992432,0.3127421736717224,-26.278623580932617,1.416649341583252,64.63381958007812,28.45,2
-0.4765714406967163,-0.7839980721473694,0.2790687680244446,-27.694232940673828,1.410558819770813,64.64678192138672,28.45,2
-0.5073559880256653,-0.7718179821968079,0.2518613338470459,-34.38496780395508,1.4066503047943115,64.65509796142578,28.45,2
-0.5215139985084534,-0.7751970887184143,0.2288033962249755,-52.92659759521485,1.4041420221328735,64.66043853759766,28.45,2
-0.5361975431442261,-0.7997567057609558,0.2084083706140518,-77.86971282958984,1.4025323390960691,64.66386413574219,28.45,2
-0.5344250202178955,-0.8099198341369629,0.2121133357286453,-102.74005126953124,1.4014993906021118,64.66606140136719,28.45,2
-0.533287525177002,-0.8052464127540588,0.2088931947946548,-133.8332061767578,1.3980821371078491,64.66747283935547,28.45,2
-0.549350917339325,-0.8134428262710571,0.20122891664505,-182.3258056640625,1.395889163017273,64.66838073730469,28.45,2
-0.5484638810157776,-0.8298983573913574,0.2075059711933136,-240.7304534912109,1.394481897354126,64.66896057128906,28.45,2
-0.5255035758018494,-0.846056342124939,0.2171320021152496,-293.9960327148437,1.3935787677764893,64.6693344116211,28.45,2
-0.516366720199585,-0.8676211833953857,0.2177116572856903,-337.937744140625,1.3929991722106934,64.66957092285156,28.45,2
-0.5161010026931763,-0.8870580196380615,0.2180836498737335,-391.9637756347656,1.392627239227295,64.66972351074219,28.45,2
-0.5103327035903931,-0.9107270240783693,0.2183223813772201,-462.66455078125,1.3923885822296145,64.6698226928711,28.45,2
-0.4954353868961334,-0.914720892906189,0.2184755802154541,-535.743896484375,1.3922353982925415,64.66988372802734,28.45,2
-0.4522885084152221,-0.9340772032737732,0.26335608959198,-584.1180419921875,1.391218900680542,64.25076293945312,28.45,2
-0.4022082090377807,-0.9520967602729796,0.2865600287914276,-521.1979370117188,1.39056658744812,63.98179626464844,28.45,2
-0.3644717931747436,-0.9636606574058532,0.290255457162857,-349.63629150390625,1.3901479244232178,63.80918884277344,28.45,2
-0.3570480644702911,-1.0102661848068235,0.2814314067363739,-149.1817626953125,1.3898792266845703,63.69842147827149,28.45,2
-0.3410883843898773,-1.0345771312713623,0.2701708674430847,28.54327774047852,1.38970685005188,63.62733459472656,28.45,2
-0.3476397097110748,-1.089362859725952,0.2629444897174835,163.10006713867188,1.3895962238311768,63.58171463012695,28.45,2
-0.3574417531490326,-1.0573478937149048,0.2247203886508941,234.9700927734375,1.3895251750946045,63.55244064331055,28.45,2
-0.3525365889072418,-1.008813738822937,0.1889948099851608,254.43777465820312,1.389479637145996,63.533653259277344,28.45,2
-0.3549864888191223,-1.0112539529800415,0.1828615069389343,252.6401214599609,1.3885321617126465,63.5215950012207,28.45,2
-0.3565587103366852,-0.9904288053512572,0.1789255142211914,246.9545288085937,1.387924075126648,63.513858795166016,28.45,2
-0.3575676679611206,-0.9322822690010072,0.1596062928438186,224.773178100586,1.3875339031219482,63.50889205932617,28.45,2
-0.3638129234313965,-0.8893693685531616,0.1751971989870071,163.33802795410156,1.3872835636138916,63.505706787109375,28.45,2
-0.3734185397624969,-0.8506348133087158,0.1908003240823745,72.3628158569336,1.3871228694915771,63.503662109375,28.45,2
-0.385180652141571,-0.8201794028282166,0.2064112871885299,-15.357556343078612,1.3870197534561155,63.502349853515625,28.45,2
-0.3983266651630401,-0.8118304014205933,0.2220272719860077,-52.05117034912109,1.386953592300415,63.50150680541992,28.45,2
-0.4235563576221466,-0.7896791696548462,0.2264509350061416,-28.473819732666016,1.386911153793335,63.5009651184082,28.45,2
-0.4733339548110962,-0.7530727386474609,0.2292897850275039,12.8919677734375,1.387343168258667,63.50061798095703,28.45,2
-0.5276694893836975,-0.7351785898208618,0.2255138307809829,45.45687484741211,1.3876203298568726,63.500396728515625,28.45,2
-0.5569410920143127,-0.7124996185302734,0.2118950933218002,69.79084777832031,1.387798309326172,63.5002555847168,28.45,2
-0.5813236832618713,-0.6923477649688721,0.2143509089946746,83.46165466308594,1.3879125118255615,63.50016403198242,28.45,2
-0.6137644052505493,-0.7074043154716492,0.2103291451930999,81.69843292236328,1.3879857063293457,63.50010681152344,28.45,2
-0.7073540091514587,-0.7842400670051575,0.2133459746837616,74.43353271484375,1.3880326747894287,63.50006866455078,28.45,2
-0.7954033017158508,-0.8615376949310303,0.2320753335952758,74.26388549804688,1.388062834739685,63.50004577636719,28.45,2
-0.7959305644035339,-0.8719584345817566,0.2440947592258453,83.99635314941406,1.3880822658538818,63.500030517578125,28.45,2
-0.8130622506141663,-0.9010369777679444,0.2462103515863418,97.847900390625,1.382586121559143,63.50001907348633,28.45,2
-0.796067476272583,-0.9252956509590148,0.230774700641632,110.23003387451172,1.379059076309204,63.5000114440918,28.45,2
-0.7235857248306274,-0.9128746390342712,0.2264667600393295,116.49236297607422,1.376795530319214,63.50000762939453,28.45,2
-0.6434844732284546,-0.8825124502182007,0.2181043922901153,113.95863342285156,1.3753429651260376,63.50000381469727,28.45,2
-0.5472978949546814,-0.8350388407707214,0.1959445923566818,103.71653747558594,1.3744107484817505,63.50000381469727,28.45,2
-0.485570877790451,-0.7933774590492249,0.1761259287595749,89.4698715209961,1.373812556266785,63.50000381469727,28.45,2
-0.4459580183029175,-0.7778371572494507,0.1634074598550796,76.28604125976562,1.3734287023544312,63.50000381469727,28.45,2
-0.4149389863014221,-0.7734620571136475,0.1552454680204391,67.04441833496094,1.3731822967529297,63.50000381469727,28.45,2
-0.3782394528388977,-0.7706543803215027,0.1444098055362701,61.02769088745117,1.3698105812072754,63.17757034301758,28.45,2
-0.3602855801582336,-0.7744503617286682,0.1262605488300323,54.75542831420898,1.3676468133926392,62.97064971923828,28.45,2
-0.3711549043655395,-0.7768864035606384,0.1146133989095687,46.31293487548828,1.3662582635879517,62.83786010742188,28.45,2
-0.40052130818367,-0.7952430248260498,0.1183344796299934,37.244384765625,1.3653671741485596,62.75264358520508,28.45,2
-0.4193669855594635,-0.8518054485321045,0.1207224503159523,29.49011993408203,1.3647953271865845,62.69795608520508,28.45,2
-0.4146677255630493,-0.8992995023727417,0.1222549155354499,23.023527145385746,1.3644282817840576,62.66286087036133,28.45,2
-0.3780653774738312,-0.9913539886474608,0.1120428144931793,16.426742553710938,1.3641928434371948,62.64033889770508,28.45,2
-0.3601738512516022,-1.0728203058242798,0.1054892763495445,9.40964412689209,1.3640416860580444,62.625885009765625,28.45,2
-0.3710831999778747,-1.0691230297088623,0.1012835949659347,3.108020544052124,1.3653218746185305,62.61661148071289,28.45,2
-0.383681982755661,-1.055554747581482,0.081791304051876,-1.16886568069458,1.3661433458328247,62.61066055297852,28.45,2
-0.4141582548618316,-1.0916296243667605,0.0636845007538795,-2.691866636276245,1.3666706085205078,62.606842041015625,28.45,2
-0.4617050290107727,-1.0811936855316162,0.05766237154603,-1.3584797382354736,1.367008924484253,62.60438919067383,28.45,2
-0.4922178089618683,-1.0241165161132812,0.0593954883515834,2.277289867401123,1.367226004600525,62.60281753540039,28.45,2
-0.4670169651508331,-0.942705512046814,0.0828988030552864,6.706324577331543,1.3673653602600098,62.601806640625,28.45,2
-0.4452467262744903,-0.9128517508506776,0.1259707510471344,10.494423866271973,1.3674547672271729,62.60115814208984,28.45,2
-0.4424714148044586,-0.888095498085022,0.1592096239328384,13.165440559387209,1.3675121068954468,62.60074234008789,28.45,2
-0.4686792492866516,-0.8722084164619446,0.1917359679937362,14.736242294311523,1.3716803789138794,62.6004753112793,28.41,2
-0.4854979217052459,-0.8508174419403076,0.2126094996929168,15.47559928894043,1.3743553161621094,62.60030364990234,28.41,2
-0.4850956201553345,-0.8146988153457642,0.2204071581363678,16.258176803588867,1.3760720491409302,62.60019302368164,28.41,2
-0.5184240937232971,-0.8363021612167358,0.2254112362861633,17.842329025268555,1.377173662185669,62.60012435913086,28.41,2
-0.5566056966781616,-0.8837525844573975,0.2230248004198074,19.643529891967773,1.3778806924819946,62.60007858276367,28.41,2
-0.564315140247345,-0.9421924352645874,0.1935044527053833,20.193981170654297,1.378334403038025,62.60004806518555,28.41,2
-0.5524693131446838,-0.9908912777900696,0.1521688848733902,18.548152923583984,1.378625512123108,62.60002899169922,28.41,2
-0.6064428687095642,-1.1508922576904297,0.1088487803936004,14.536330223083496,1.378812313079834,62.60001754760742,28.41,2
-0.6690688729286194,-1.164007306098938,0.0586573332548141,7.985113620758057,1.378932237625122,62.60000991821289,28.41,2
-0.6644763946533203,-1.1556304693222046,-0.0015415208181366,-1.388736128807068,1.379009246826172,62.600006103515625,28.41,2
-0.6335403323173523,-1.1950368881225586,-0.068162553012371,-13.154366493225098,1.379058599472046,62.60000228881836,28.41,2
-0.5968940258026123,-1.2147278785705566,-0.0997205451130867,-25.992753982543945,1.3790903091430664,62.60000228881836,28.41,2
-0.5173988342285156,-1.1433978080749512,-0.1087770983576774,-38.8890380859375,1.3791106939315796,62.60000228881836,28.41,2
-0.4439922869205475,-1.047242283821106,-0.131382405757904,-52.15565872192383,1.3791236877441406,62.60000228881836,28.41,2
-0.3912864029407501,-0.985535204410553,-0.1570847332477569,-66.47319030761719,1.3791320323944092,62.60000228881836,28.41,2
-0.3574627935886383,-0.9179462790489196,-0.184774562716484,-80.53723907470703,1.379137396812439,62.60000228881836,28.41,2
-0.3357567489147186,-0.8577782511711121,-0.2081420719623565,-90.66259002685548,1.377763748168945,62.385047912597656,28.41,2
-0.3162292838096618,-0.8191658854484558,-0.2231379896402359,-93.78925323486328,1.3768821954727173,62.247100830078125,28.41,2
-0.3036977052688598,-0.7999844551086426,-0.2271637320518493,-90.09230041503906,1.3763164281845093,62.15857696533203,28.41,2
-0.3068512082099914,-0.8100660443305969,-0.2241494506597519,-81.93753814697266,1.3759533166885376,62.10176467895508,28.41,2
-0.3312660157680511,-0.8221336007118225,-0.2054217308759689,-71.62776947021484,1.3757203817367554,62.0653076171875,28.41,2
-0.346934050321579,-0.8466711640357971,-0.1654144823551178,-60.54766082763672,1.3755708932876587,62.04191207885742,28.41,2
-0.3513911068439483,-0.9575801491737366,-0.1397401392459869,-49.20248031616211,1.3754749298095703,62.02689743041992,28.41,2
-0.3318603038787842,-1.062341809272766,-0.1064705029129982,-37.65853118896485,1.3754132986068726,62.01726150512695,28.41,2
-0.3193265497684479,-1.0903873443603516,-0.051533319056034,-26.38469123840332,1.3712422847747805,62.011077880859375,28.41,2
-0.3616630733013153,-1.0971897840499878,0.0229066237807273,-16.35179901123047,1.3685656785964966,62.007110595703125,28.41,2
-0.4112233221530914,-1.0735663175582886,0.0594823472201824,-8.014500617980957,1.3668479919433594,62.00456237792969,28.41,2
-0.4374304711818695,-0.9968306422233582,0.0661612153053283,-0.9408844709396362,1.3657456636428833,62.0029296875,28.41,2
-0.3814776241779327,-0.9475861191749572,0.0760451033711433,5.06024694442749,1.3650381565093994,62.00188064575195,28.41,2
-0.317581444978714,-0.9215815663337708,0.0935835689306259,9.506134033203123,1.36458420753479,62.00120544433594,28.41,2
-0.2933698892593384,-0.8769044876098633,0.1664142608642578,12.53121280670166,1.364292860031128,62.00077438354492,28.41,2
-0.3170167207717895,-0.8538311123847961,0.2299461364746093,15.679862022399902,1.3641059398651123,62.00049591064453,28.41,2
-0.3825718760490417,-0.8446217179298401,0.2483261376619339,20.817325592041016,1.3575594425201416,62.00031661987305,28.43,2
-0.4246414005756378,-0.8555049896240234,0.2321324944496154,28.50649070739746,1.3533583879470823,62.00020217895508,28.43,2
-0.4404436349868774,-0.8904780745506287,0.2161425650119781,37.3746223449707,1.350662350654602,62.00012969970703,28.43,2
-0.4169979691505432,-0.924117386341095,0.22267447412014,45.283294677734375,1.348932147026062,62.00008392333984,28.43,2
-0.4187451899051666,-0.9680962562561036,0.2156707197427749,51.29726028442383,1.347821831703186,62.00005340576172,28.43,2
-0.4646486639976501,-1.0019171237945557,0.1440028250217437,55.85527801513672,1.347109317779541,62.00003433227539,28.43,2
-0.5053024291992188,-1.0963925123214722,0.0532283037900924,59.34639739990234,1.3466520309448242,62.0000228881836,28.43,2
-0.564978301525116,-1.1626191139221191,0.0061699892394244,61.71577072143555,1.3463585376739502,62.00001525878906,28.43,2
-0.6312637329101562,-1.1211528778076172,-0.0408226512372493,62.97835159301758,1.3553509712219238,62.0000114440918,28.43,2
-0.6738018989562988,-1.1169333457946775,-0.0989686921238899,63.27629470825195,1.3611217737197876,62.00000762939453,28.43,2
-0.6787093281745911,-1.119823336601257,-0.1418812572956085,62.70441055297852,1.3648251295089722,62.00000381469727,28.43,2
-0.5978920459747314,-1.0657001733779907,-0.1302356421947479,61.1659049987793,1.367201805114746,62.00000381469727,28.43,2
-0.5124415159225464,-1.0085759162902832,-0.1227621585130691,58.61299514770508,1.3687269687652588,62.00000381469727,28.43,2
-0.4576042890548706,-0.9663190841674804,-0.1403572112321853,56.11845016479492,1.3697057962417605,62.00000381469727,28.43,2
-0.4336084425449371,-0.9336033463478088,-0.1628442406654358,55.30575942993164,1.370333909988403,62.00000381469727,28.43,2
-0.4182092845439911,-0.8902171850204468,-0.1884706765413284,55.5938835144043,1.3707369565963743,62.00000381469727,28.43,2
-0.3971314430236816,-0.8847655057907104,-0.2161117941141128,54.27768707275391,1.3714549541473389,63.07477569580078,28.43,2
-0.3836049139499664,-0.8924624919891357,-0.228252500295639,50.05466079711914,1.3719156980514526,63.76450347900391,28.43,2
-0.3917177021503448,-0.9253908395767212,-0.2080548405647277,43.5756950378418,1.3722113370895386,64.2071304321289,28.43,2
-0.4025217890739441,-0.968913435935974,-0.1782998144626617,34.516902923583984,1.3724011182785034,64.49118041992188,28.43,2
-0.3926618993282318,-0.991245985031128,-0.1424114257097244,21.509679794311523,1.3725228309631348,64.67346954345703,28.43,2
-0.3751388490200043,-1.0783487558364868,-0.0969892293214798,4.965460300445557,1.37260103225708,64.79045104980469,28.43,2
-0.3638935685157776,-1.1286485195159912,-0.0678398758172988,-13.221650123596191,1.372651219367981,64.86552429199219,28.43,2
-0.3454814255237579,-1.04337477684021,-0.0211446303874254,-32.33409881591797,1.3726834058761597,64.91370391845703,28.43,2
-0.3504588901996612,-0.999846577644348,0.0200172383338212,-52.47028732299805,1.3676544427871704,64.94461822509766,28.43,2
-0.3648487031459808,-0.971912682056427,0.0520303323864936,-72.04179382324219,1.364427089691162,64.96446228027344,28.43,2
-0.3852787911891937,-0.9036063551902772,0.0669767186045646,-87.63968658447266,1.3623559474945068,64.9771957397461,28.43,2
-0.3815963268280029,-0.8485757112503052,0.0765684470534324,-96.41710662841795,1.3610268831253052,64.98536682128906,28.43,2
-0.3456465005874634,-0.8412491083145142,0.0995171889662742,-98.42797088623048,1.3601739406585691,64.99060821533203,28.43,2
-0.322575956583023,-0.8421450853347778,0.1310376971960067,-96.32572174072266,1.359626531600952,64.99397277832031,28.43,2
-0.3357594907283783,-0.8539156317710876,0.1736568361520767,-91.35105895996094,1.359275221824646,64.99613189697266,28.43,2
-0.3722088038921356,-0.8726648092269897,0.2066051214933395,-80.73192596435547,1.3590497970581057,64.99752044677734,28.43,2
-0.4067954123020172,-0.8902947306632996,0.2221516668796539,-62.148414611816406,1.3612004518508911,64.99840545654297,28.39,2
-0.4066000282764435,-0.9072063565254213,0.2433240860700607,-38.76909255981445,1.36258065700531,64.99897766113281,28.39,2
-0.3952790796756744,-0.9180592894554138,0.2569113373756408,-16.22426986694336,1.3634663820266724,64.99934387207031,28.39,2
-0.3992094993591308,-0.930621862411499,0.2544353008270263,2.7541627883911133,1.3640347719192505,64.99958038330078,28.39,2
-0.4689050912857055,-0.9442815780639648,0.1968685835599899,18.261642456054688,1.364399552345276,64.9997329711914,28.39,2
-0.5416206121444702,-0.9586453437805176,0.1207411512732505,31.26222038269043,1.3646336793899536,64.99983215332031,28.39,2
-0.6106763482093811,-1.0350364446640017,0.0271047484129667,43.14482879638672,1.3647838830947876,64.99989318847656,28.39,2
-0.6941767334938049,-1.0896576642990112,-0.0161923803389072,54.28849029541016,1.3648803234100342,64.99993133544922,28.39,2
-0.736566960811615,-1.0351459980010986,-0.05517353489995,62.80839538574219,1.3690736293792725,64.99995422363281,28.39,2
-0.7749661207199097,-1.039348006248474,-0.0913849472999572,66.60292053222656,1.3717646598815918,64.99996948242188,28.39,2
-0.7716196179389954,-1.0420446395874023,-0.1146233454346656,65.8065414428711,1.373491644859314,64.9999771118164,28.39,2
-0.6687120795249939,-0.9877973794937134,-0.0959497615694999,62.08190155029297,1.374599814414978,64.99998474121094,28.39,2
-0.5690852999687195,-0.9361913204193116,-0.0783683583140373,56.99396514892578,1.375311017036438,64.99999237060547,28.39,2
-0.4883572161197662,-0.9086713194847108,-0.0782811716198921,51.88379287719727,1.375767469406128,64.99999237060547,28.39,2
-0.442148357629776,-0.8798149824142456,-0.089420773088932,47.65141296386719,1.3760603666305542,64.99999237060547,28.39,2
-0.4124941825866699,-0.8668944239616394,-0.1133628487586975,43.93935775756836,1.3762483596801758,64.99999237060547,28.39,2
-0.3822682797908783,-0.8642005324363708,-0.1455208212137222,39.92710494995117,1.3726963996887207,65.93862915039062,28.39,2
-0.3572732806205749,-0.8848628401756287,-0.1605601757764816,35.77235412597656,1.3704169988632202,66.5409927368164,28.39,2
-0.3524284660816192,-0.9373071193695068,-0.1590160280466079,31.382856369018555,1.3689541816711426,66.92755889892578,28.39,2
-0.3549171090126037,-0.976560652256012,-0.1412317603826522,24.6895809173584,1.3680154085159302,67.17562866210938,28.39,2
-0.3453186452388763,-0.9961535334587096,-0.118623286485672,13.752127647399902,1.36741304397583,67.33483123779297,28.39,2
-0.3223655819892883,-1.081498146057129,-0.0985166952013969,-0.3066608905792236,1.367026448249817,67.43699645996094,28.39,2
-0.3132333755493164,-1.1698540449142456,-0.0688201189041137,-14.695481300354004,1.3667783737182615,67.5025634765625,28.39,2
-0.3017750978469848,-1.0474270582199097,-0.0273714680224657,-27.87381362915039,1.366619110107422,67.54463958740234,28.39,2
-0.288824051618576,-0.9296759963035583,0.0048256642185151,-39.186222076416016,1.3665169477462769,67.57164001464844,28.39,2
-0.2973061501979828,-0.9324790239334106,0.0478790290653705,-47.334354400634766,1.366451382637024,67.5889663696289,28.39,2
-0.3027494549751282,-0.9230822920799256,0.08670374751091,-51.15898513793945,1.3664093017578125,67.60008239746094,28.39,2
-0.2950471043586731,-0.8890631198883057,0.1116192191839218,-50.96588897705078,1.366382360458374,67.60721588134766,28.39,2
-0.2845064103603363,-0.8336449265480042,0.1276085376739502,-48.33416748046875,1.3663650751113892,67.6117935180664,28.39,2
-0.3001331090927124,-0.8148740530014038,0.1602606624364853,-44.58530044555664,1.3663538694381714,67.61473083496094,28.39,2
-0.3213569521903991,-0.8196213245391846,0.1924104541540146,-39.324180603027344,1.3663467168807983,67.61662292480469,28.39,2
-0.3349772095680237,-0.833863377571106,0.1962490230798721,-31.19023704528809,1.3663421869277954,67.61783599853516,28.39,2
-0.3437179028987884,-0.8486008644104004,0.1987123936414718,-20.48183250427246,1.3617489337921145,67.61861419677734,28.37,2
-0.3381316363811493,-0.8692541122436523,0.2114887982606887,-9.57939910888672,1.358801245689392,67.61911010742188,28.37,2
-0.3513399958610534,-0.9160948395729064,0.2308835089206695,-0.3903080224990845,1.3569095134735107,67.61943054199219,28.37,2
-0.3766096830368042,-0.9685456156730652,0.2377321422100067,6.946917533874512,1.3556956052780151,67.61963653564453,28.37,2
-0.4040218591690063,-1.058183193206787,0.2141383290290832,13.038400650024414,1.3549165725708008,67.61976623535156,28.37,2
-0.4104178845882416,-1.1380985975265503,0.1822038441896438,18.548974990844727,1.3544166088104248,67.6198501586914,28.37,2
-0.4201202690601349,-1.206176996231079,0.1281234920024871,24.005603790283203,1.354095697402954,67.61990356445312,28.37,2
-0.4655311107635498,-1.1938880681991575,0.0934178307652473,29.07652282714844,1.3538898229599,67.61994171142578,28.37,2
-0.5058687329292297,-1.124426245689392,0.0655479580163955,32.603023529052734,1.3542165756225586,67.61996459960938,28.37,2
-0.5093640089035034,-1.0742517709732056,0.0532604567706584,33.81643295288086,1.3544262647628784,67.61997985839844,28.37,2
-0.4780203998088836,-1.0812371969223022,0.0733639150857925,33.04029083251953,1.3545608520507812,67.61998748779297,28.37,2
-0.4467103481292724,-1.096915602684021,0.0638740584254264,31.21665573120117,1.3546472787857056,67.6199951171875,28.37,2
-0.4154218137264251,-1.0901837348937988,0.0521862432360649,29.157873153686523,1.354702711105347,67.6199951171875,28.37,2
-0.3673537373542785,-1.0298858880996704,0.0614789985120296,27.59305000305176,1.3547382354736328,67.6199951171875,28.37,2
-0.3141153156757355,-0.9576035141944884,0.0674425512552261,27.79258155822754,1.3547611236572266,67.6199951171875,28.37,2
-0.2855477333068847,-0.9112168550491332,0.0600740723311901,30.81893348693848,1.3547757863998413,67.6199951171875,28.37,2
-0.2672147154808044,-0.8814485669136047,0.0497476309537887,35.46949768066406,1.354326248168945,68.27202606201172,28.37,2
-0.2498518675565719,-0.8455516695976257,0.0319251641631126,38.597267150878906,1.3540377616882324,68.69046020507812,28.37,2
-0.2275138348340988,-0.794526219367981,0.0092921834439039,38.014286041259766,1.35385262966156,68.95899200439453,28.37,2
-0.2187763452529907,-0.7785743474960327,0.0003654140455182,33.53811264038086,1.353733777999878,69.13131713867188,28.37,2
-0.2243646830320358,-0.7795329093933105,-0.010961047373712,25.771764755249023,1.353657603263855,69.24190521240234,28.37,2
-0.2503420412540436,-0.8417235612869263,-0.0294252671301364,15.600199699401855,1.3536086082458496,69.31287384033203,28.37,2
-0.2614150643348694,-0.9040250778198242,-0.0468723140656948,3.931679964065552,1.3535772562026978,69.3584213256836,28.37,2
-0.257325530052185,-0.999984323978424,-0.0692643746733665,-9.098748207092283,1.3535571098327637,69.38764953613281,28.37,2
-0.2994832992553711,-1.1959120035171509,-0.0388521142303943,-23.31485748291016,1.351248860359192,69.40640258789062,28.37,2
-0.3433310389518738,-1.2376805543899536,-0.0025419541634619,-36.59730911254883,1.3497674465179443,69.41844177246094,28.37,2
-0.3378833532333374,-1.1637252569198608,0.0039664944633841,-45.93804550170898,1.3488168716430664,69.42616271972656,28.37,2
-0.345582902431488,-1.1946338415145874,0.0193387903273105,-50.94718551635742,1.3482067584991455,69.43112182617188,28.37,2
-0.3785128891468048,-1.1361002922058103,0.0292038451880216,-53.95397567749024,1.3478152751922607,69.4343032836914,28.37,2
-0.3940477073192596,-0.9977769255638124,0.0411324426531791,-55.98028945922852,1.3475639820098877,69.43634796142578,28.37,2
-0.3984192609786987,-0.8810200691223145,0.0543853044509887,-54.87675476074219,1.347402811050415,69.43766021728516,28.37,2
-0.401224672794342,-0.789298951625824,0.0237058084458112,-48.23582077026367,1.347299337387085,69.4384994506836,28.37,2
-0.4254161417484283,-0.7416331768035889,0.0040174736641347,-36.51871109008789,1.3481510877609253,69.43904113769531,28.39,2
-0.452136367559433,-0.7222395539283752,-0.0254106875509023,-22.891054153442383,1.3486977815628052,69.43938446044922,28.39,2
-0.4580883383750915,-0.7153916358947754,-0.0275026652961969,-10.817397117614746,1.3490486145019531,69.43960571289062,28.39,2
-0.4619079530239105,-0.727790355682373,-0.0120518533512949,-1.2958438396453855,1.349273681640625,69.43975067138672,28.39,2
-0.4923480451107025,-0.7861270904541016,0.0034613634925335,7.52296781539917,1.3494181632995603,69.4398422241211,28.39,2
-0.5342738628387451,-0.8459553718566895,0.0190146267414093,17.17694664001465,1.349510908126831,69.43990325927734,28.39,2
-0.5219950079917908,-0.8787519335746765,0.040191363543272,26.4175033569336,1.349570393562317,69.43994140625,28.39,2
-0.5085173845291138,-0.950178861618042,0.0985635668039321,33.193050384521484,1.3496085405349731,69.4399642944336,28.39,2
-0.5110637545585632,-1.029603123664856,0.1472190469503402,37.5662841796875,1.3427473306655884,69.43997955322266,28.39,2
-0.5350889563560486,-1.1197575330734253,0.1448566764593124,41.25408554077149,1.3383442163467407,69.43998718261719,28.39,2
-0.5281158685684204,-1.2000045776367188,0.1265473216772079,45.175540924072266,1.3355185985565186,69.43999481201172,28.39,2
-0.4452720880508423,-1.2459046840667725,0.1315907537937164,48.00020980834961,1.333705186843872,69.43999481201172,28.39,2
-0.3529232740402221,-1.1634052991867063,0.1516206711530685,47.21196746826172,1.3325414657592771,69.43999481201172,28.39,2
-0.3048546910285949,-1.0824730396270752,0.1476813852787017,41.894718170166016,1.3317947387695312,69.43999481201172,28.39,2
-0.2908003628253937,-1.024937629699707,0.1003711894154548,34.13675308227539,1.331315517425537,69.43999481201172,28.39,2
-0.2929766476154327,-0.9880146384239196,0.0644124522805213,27.08382606506348,1.331007957458496,69.43999481201172,28.39,2
-0.2943732738494873,-0.9363307356834412,0.0301406551152467,21.909215927124023,1.3344826698303225,70.03470611572266,28.39,2
-0.2672806680202484,-0.8695763349533081,0.0137447640299797,16.990619659423828,1.3367125988006592,70.4163589477539,28.39,2
-0.2442964166402816,-0.8099439144134521,-0.0023749503307044,10.108269691467283,1.3381435871124268,70.6612777709961,28.39,2
-0.2351442128419876,-0.7828707695007324,-0.0015241063665598,1.5859423875808716,1.339061975479126,70.81845092773438,28.39,2
-0.2460641860961914,-0.7878878712654114,-0.0009780836990103,-5.423704624176025,1.339651346206665,70.91931915283203,28.39,2
-0.2530719935894012,-0.8190964460372925,-0.0286165494471788,-8.360089302062988,1.34002947807312,70.98404693603516,28.39,2
-0.2631669640541076,-0.8615154027938843,-0.0351577773690223,-7.73310661315918,1.3402721881866455,71.02558898925781,28.39,2
-0.2528520226478576,-0.9167263507843018,-0.0505511090159416,-6.112669467926025,1.3404279947280884,71.05224609375,28.39,2
-0.2574280500411987,-1.136884093284607,-0.0660274401307106,-5.993488311767578,1.3423643112182615,71.06935119628906,28.39,2
-0.3051468729972839,-1.2501797676086426,-0.0703614801168441,-8.378233909606934,1.343606948852539,71.08032989501953,28.39,2
-0.3133789598941803,-1.1325621604919434,-0.0507517233490943,-12.301787376403809,1.3444044589996338,71.0873794555664,28.39,2
-0.3018685281276703,-1.14664626121521,-0.0381673090159893,-16.138086318969727,1.3449162244796753,71.09190368652344,28.39,2
-0.3280684351921081,-1.138891339302063,-0.0244935825467109,-19.696269989013672,1.3452446460723877,71.09480285644531,28.39,2
-0.3448820114135742,-1.0331547260284424,-0.03251189365983,-24.15791320800781,1.3454554080963137,71.09666442871094,28.39,2
-0.3388786911964416,-0.9317123889923096,-0.0432553589344024,-29.58626365661621,1.3455907106399536,71.09786224365234,28.39,2
-0.318232774734497,-0.8610147833824158,-0.0277587994933128,-33.496192932128906,1.3456774950027466,71.09862518310547,28.39,2
-0.3553633987903595,-0.8492317795753479,-0.0178139992058277,-32.63773727416992,1.3425196409225464,71.09911346435547,28.37,2
-0.3847894668579101,-0.8472678661346436,-0.0114319995045661,-26.007200241088867,1.340493083000183,71.09943389892578,28.37,2
-0.4036734104156494,-0.8572031259536743,0.003859149524942,-15.987738609313965,1.3391926288604736,71.09963989257812,28.37,2
-0.4101942777633667,-0.8523834347724915,0.0192699022591114,-6.473227500915527,1.3383580446243286,71.09976959228516,28.37,2
-0.4143789708614349,-0.8380948901176453,0.0515507347881794,0.058963868767023,1.337822437286377,71.099853515625,28.37,2
-0.4450533390045166,-0.856914222240448,0.0778644904494285,3.0758635997772217,1.337478756904602,71.09990692138672,28.37,2
-0.4591406285762787,-0.880186915397644,0.0947511419653892,2.4002387523651123,1.337258219718933,71.09993743896484,28.37,2
-0.4905721247196197,-0.9902841448783876,0.133576899766922,-1.924015641212464,1.3371165990829468,71.09996032714844,28.37,2
-0.5331341624259949,-1.0721337795257568,0.1864819079637527,-8.023703575134277,1.335189700126648,71.0999755859375,28.37,2
-0.5324591398239136,-1.113464593887329,0.209237739443779,-12.67255973815918,1.3339531421661377,71.09998321533203,28.37,2
-0.4648526608943939,-1.2407482862472534,0.2014500349760055,-13.835979461669922,1.333159565925598,71.09999084472656,28.37,2
-0.3878800570964813,-1.3224316835403442,0.2020501047372818,-11.44067668914795,1.3326503038406372,71.09999084472656,28.37,2
-0.2937012910842895,-1.2405047416687012,0.213630735874176,-6.041492938995361,1.332323431968689,71.09999084472656,28.37,2
-0.238860547542572,-1.1543420553207395,0.2098669707775116,2.2634518146514893,1.3321137428283691,71.09999084472656,28.37,2
-0.2260580211877823,-1.0654611587524414,0.185060515999794,13.138914108276367,1.3319791555404663,71.09999084472656,28.37,2
-0.2514287531375885,-1.008422613143921,0.1523478329181671,24.26320075988769,1.331892728805542,71.09999084472656,28.37,2
-0.2789057493209839,-0.9662207365036012,0.125756949186325,31.87502670288086,1.333673357963562,71.5836410522461,28.37,2
-0.2741478085517883,-0.8943557739257812,0.1030946671962738,34.53866195678711,1.3348160982131958,71.8940200805664,28.37,2
-0.2487033456563949,-0.837041437625885,0.0941490978002548,34.732601165771484,1.3355494737625122,72.09320068359375,28.37,2
-0.2155812382698059,-0.7946626543998718,0.0996038913726806,35.19023895263672,1.3360201120376587,72.22102355957031,28.37,2
-0.216716468334198,-0.8010530471801758,0.0975066870450973,35.87084197998047,1.3363220691680908,72.30305480957031,28.37,2
-0.228640541434288,-0.8107517957687378,0.0905630514025688,35.55168914794922,1.3365159034729004,72.35569763183594,28.37,2
-0.2418905049562454,-0.8393669724464417,0.0749114751815795,33.63082504272461,1.336640238761902,72.38948059082031,28.37,2
-0.2391980141401291,-0.8633283376693726,0.0648671984672546,29.213212966918945,1.3367201089859009,72.41116333007812,28.37,2
-0.2150790393352508,-0.9962586164474488,0.0304324850440025,20.93631172180176,1.339984893798828,72.42507934570312,28.37,2
-0.2723719179630279,-1.15433669090271,0.0027364939451217,9.11155128479004,1.342079997062683,72.43400573730469,28.37,2
-0.3091391921043396,-1.155022144317627,-0.009439424611628,-3.689547538757324,1.3434245586395264,72.43973541259766,28.37,2
-0.3215387761592865,-1.166657567024231,-0.017253229394555,-15.18619441986084,1.344287395477295,72.44341278076172,28.37,2
-0.3238983452320099,-1.1405378580093384,-0.0222676787525415,-25.046804428100582,1.3448411226272583,72.44577026367188,28.37,2
-0.3589992225170135,-1.028613567352295,-0.0534745343029499,-33.789432525634766,1.3451964855194092,72.44728088378906,28.37,2
-0.3815249502658844,-0.9064070582389832,-0.084696851670742,-41.85042953491211,1.3454245328903198,72.44825744628906,28.37,2
-0.401578426361084,-0.8167864084243774,-0.0935379862785339,-48.87928771972656,1.3455708026885986,72.44888305664062,28.37,2
-0.448034256696701,-0.7872619032859802,-0.0824183896183967,-52.36539077758789,1.3438283205032349,72.44927978515625,28.37,2
-0.4890424609184265,-0.7795103192329407,-0.0752824768424034,-48.87403106689453,1.342710018157959,72.44953918457031,28.37,2
-0.5153591632843018,-0.7913291454315186,-0.0595075078308582,-38.350563049316406,1.3419923782348633,72.44969940185547,28.37,2
-0.5378454923629761,-0.7989137768745422,-0.0213951710611581,-25.478166580200195,1.3415318727493286,72.4498062133789,28.37,2
-0.5522759556770325,-0.8093789219856262,-0.0025346411857753,-15.709139823913574,1.3412363529205322,72.44987487792969,28.37,2
-0.5671343207359314,-0.855279266834259,0.0207645110785961,-11.06643009185791,1.341046690940857,72.44992065429688,28.37,2
-0.5710718035697937,-0.9127243161201476,0.0357165671885013,-9.896206855773926,1.3409249782562256,72.449951171875,28.37,2
-0.6015875339508057,-1.0391536951065063,0.0844963565468788,-9.381674766540527,1.3408468961715698,72.44996643066406,28.37,2
-0.6323662996292114,-1.0475176572799685,0.1269959658384323,-7.682933807373047,1.3348292112350464,72.4499740600586,28.37,2
-0.6465206146240234,-1.058483004570007,0.1598675400018692,-4.289183616638184,1.3309674263000488,72.44998168945312,28.37,2
-0.6500062346458435,-1.1270954608917236,0.1697670817375183,0.3320463299751282,1.3284891843795776,72.44998931884766,28.37,2
-0.6186564564704895,-1.1823225021362305,0.1873155832290649,5.045982360839844,1.3268988132476809,72.44998931884766,28.37,2
-0.5369624495506287,-1.1505907773971558,0.19857719540596,8.934515953063965,1.3258781433105469,72.44998931884766,28.37,2
-0.4789381921291351,-1.063053846359253,0.1890109330415725,12.734010696411133,1.3252232074737549,72.44998931884766,28.37,2
-0.4305059909820556,-0.9900843501091005,0.1660785377025604,18.69756126403809,1.3248028755187988,72.44998931884766,28.37,2
-0.3938272297382355,-0.9208656549453736,0.1289707422256469,27.33602523803711,1.3245331048965454,72.44998931884766,28.37,2
-0.3646911382675171,-0.8708472847938538,0.110754869878292,35.15821075439453,1.3257371187210083,72.85482788085938,28.37,2
-0.3403954803943634,-0.827552855014801,0.0990649685263633,38.42974472045898,1.3265098333358765,73.1146240234375,28.37,2
-0.3080106079578399,-0.7829756140708923,0.0859652906656265,37.89961624145508,1.3270057439804075,73.2813491821289,28.37,2
-0.2984234094619751,-0.7543685436248779,0.0719608962535858,36.8428955078125,1.3273239135742188,73.38834381103516,28.37,2
-0.3202597796916961,-0.7472057342529297,0.0741692334413528,36.41553115844727,1.3275281190872192,73.4570083618164,28.37,2
-0.3510664403438568,-0.7538045644760132,0.0643908679485321,35.91557312011719,1.3276591300964355,73.50106811523438,28.37,2
-0.3876296877861023,-0.7916259765625,0.035724576562643,35.15048599243164,1.3277432918548584,73.52935028076172,28.37,2
-0.388702780008316,-0.8774731159210205,0.0229259766638278,33.84983825683594,1.327797293663025,73.54749298095703,28.37,2
-0.3725981116294861,-0.966151475906372,0.0147125720977783,30.55750846862793,1.3287501335144043,73.55914306640625,28.37,2
-0.3790563941001892,-1.0734400749206543,0.0542238764464855,24.29247665405273,1.3293616771697998,73.56661224365234,28.37,2
-0.388798713684082,-1.063922882080078,0.0963732823729515,16.356184005737305,1.329754114151001,73.5714111328125,28.37,2
-0.3838552236557007,-1.0018376111984253,0.1234223470091819,9.045514106750488,1.3300058841705322,73.5744857788086,28.37,2
-0.3806827664375305,-1.057157039642334,0.112792007625103,3.1179590225219727,1.330167531967163,73.57646179199219,28.37,2
-0.3842446506023407,-1.0534734725952148,0.1003722921013832,-2.5381968021392822,1.3302712440490725,73.57772827148438,28.37,2
-0.3865304589271545,-0.9671428799629213,0.1091953516006469,-9.639508247375488,1.3303377628326416,73.57854461669922,28.37,2
-0.3712040483951568,-0.8781542778015137,0.1148574873805046,-18.99020767211914,1.3303804397583008,73.57906341552734,28.37,2
-0.3837595283985138,-0.8378398418426514,0.1352844387292862,-28.537696838378903,1.3290307521820068,73.57939910888672,28.37,2
-0.4142079949378967,-0.828761637210846,0.137197732925415,-33.740421295166016,1.3281645774841309,73.5796127319336,28.37,2
-0.4393458664417267,-0.8341313600540161,0.1384255737066269,-32.228424072265625,1.3276087045669556,73.57975006103516,28.37,2
-0.4554778933525085,-0.831979513168335,0.1728001832962036,-27.134565353393555,1.32725191116333,73.57984161376953,28.37,2
-0.4658305048942566,-0.8194030523300171,0.2004576027393341,-23.94085502624512,1.3270230293273926,73.57990264892578,28.37,2
-0.4948652982711792,-0.828125536441803,0.2126087695360183,-25.14071273803711,1.326876163482666,73.57994079589844,28.37,2
-0.5358892679214478,-0.9064942002296448,0.2092111408710479,-28.96306610107422,1.3267818689346311,73.57996368408203,28.37,2
-0.5622161030769348,-0.973580002784729,0.1958351880311966,-31.928340911865234,1.3267213106155396,73.5799789428711,28.37,2
-0.5567200183868408,-1.0334250926971436,0.1760557144880294,-31.592172622680664,1.326682448387146,73.57998657226562,28.37,2
-0.547595202922821,-1.0942213535308838,0.1577646136283874,-27.406946182250977,1.32665753364563,73.57999420166016,28.37,2
-0.5921193957328796,-1.1892147064208984,0.1572219878435135,-20.260801315307617,1.32664155960083,73.57999420166016,28.37,2
-0.5871058106422424,-1.1550137996673584,0.0952982455492019,-12.074328422546388,1.3266313076019287,73.57999420166016,28.37,2
-0.578290581703186,-1.1722500324249268,0.0499613806605339,-4.878966331481934,1.3266247510910034,73.57999420166016,28.37,2
-0.5390468239784241,-1.1609201431274414,0.0320623368024826,1.049825668334961,1.3266205787658691,73.57999420166016,28.37,2
-0.4858735799789428,-1.1144648790359497,0.026173535734415,7.520020008087158,1.3266178369522097,73.57999420166016,28.37,2
-0.4181634187698364,-1.0062836408615112,0.0111988941207528,15.92831802368164,1.3266160488128662,73.57999420166016,28.37,2
-0.3803086876869201,-0.9368591904640198,-0.0208020657300949,25.02507972717285,1.3252378702163696,73.9239273071289,28.37,2
-0.3616134822368622,-0.8923065662384033,-0.0525339879095554,31.92329978942871,1.3243533372879028,74.14463806152344,28.37,2
-0.3552137613296509,-0.874910831451416,-0.0896910354495048,34.71652603149414,1.3237857818603516,74.2862777709961,28.37,2
-0.3511067926883697,-0.8581494688987732,-0.1191340610384941,33.63225173950195,1.3234214782714844,74.3771743774414,28.37,2
-0.3428733944892883,-0.8473929762840271,-0.1380289047956466,30.027374267578125,1.3231877088546753,74.43550872802734,28.37,2
-0.3431874513626098,-0.8684789538383484,-0.1445567458868026,24.95897102355957,1.3230377435684204,74.47294616699219,28.37,2
-0.3489867746829986,-0.8876084685325623,-0.1375503987073898,18.84746551513672,1.3229414224624634,74.4969711303711,28.37,2
-0.3583061993122101,-0.911080241203308,-0.1162607967853546,11.844437599182127,1.322879672050476,74.51239013671875,28.37,2
-0.3586890995502472,-0.9485341906547546,-0.1025983616709709,3.674575328826904,1.321462869644165,74.52228546142578,28.37,2
-0.3533370494842529,-1.0173522233963013,-0.0882328227162361,-5.881793022155762,1.3205536603927612,74.52863311767578,28.37,2
-0.3387068808078766,-0.9775490164756776,-0.0510249733924865,-15.253168106079102,1.3199701309204102,74.53270721435547,28.37,2
-0.346111387014389,-0.9743967056274414,-0.0159515682607889,-21.535871505737305,1.3195956945419312,74.53531646728516,28.37,2
-0.4012431502342224,-0.9835692644119264,0.0177520737051963,-24.098892211914062,1.3193553686141968,74.53699493408203,28.37,2
-0.4478190839290619,-0.944673478603363,0.0505766794085502,-25.65412712097168,1.3192012310028076,74.53807067871094,28.37,2
-0.4329266548156738,-0.897321343421936,0.0940327197313308,-28.712167739868164,1.3191022872924805,74.53876495361328,28.37,2
-0.3617940247058868,-0.8781290054321289,0.1331158578395843,-32.85284805297852,1.31903874874115,74.5392074584961,28.37,2
-0.3161451816558838,-0.8658124804496765,0.169392704963684,-35.51009750366211,1.3222111463546753,74.53948974609375,28.35,2
-0.326034814119339,-0.8635061979293823,0.2150641977787017,-34.01612854003906,1.3242470026016235,74.5396728515625,28.35,2
-0.3659680485725403,-0.8676239252090454,0.238775759935379,-27.67277336120605,1.3255535364151,74.53978729248047,28.35,2
-0.4027904570102691,-0.881462037563324,0.2539924681186676,-18.661602020263672,1.3263920545578003,74.53986358642578,28.35,2
-0.4096276462078094,-0.9127336144447328,0.2413665801286697,-10.091506958007812,1.3269301652908323,74.53990936279297,28.35,2
-0.402819812297821,-0.9328019022941588,0.2220684736967086,-3.294820785522461,1.3272755146026611,74.5399398803711,28.35,2
-0.3760598301887512,-0.968071699142456,0.2096840590238571,2.156003952026367,1.327497124671936,74.53996276855469,28.35,2
-0.3700823783874511,-0.9851080179214478,0.1905409097671508,6.746715068817139,1.32763934135437,74.53997802734375,28.35,2
-0.3998330235481262,-0.996040940284729,0.133473739027977,10.599160194396973,1.325894474983215,74.53998565673828,28.35,2
-0.4357185959815979,-1.0142526626586914,0.0296780131757259,14.060229301452637,1.3247747421264648,74.53999328613281,28.35,2
-0.4811390042304992,-1.1043087244033811,-0.020138781517744,17.54241180419922,1.3240561485290527,74.53999328613281,28.35,2
-0.5942538380622864,-1.066939353942871,-0.024119459092617,20.9521598815918,1.3235950469970703,74.53999328613281,28.35,2
-0.6276599764823914,-0.9757845401763916,-0.0546629019081592,23.92134094238281,1.3232991695404053,74.53999328613281,28.35,2
-0.6435003280639648,-1.0404376983642578,-0.0910572484135627,26.18146514892578,1.3231092691421509,74.53999328613281,28.35,2
-0.6256768703460693,-1.0427439212799072,-0.1032174974679946,27.43125915527344,1.32298743724823,74.53999328613281,28.35,2
-0.575054407119751,-1.010637283325195,-0.0886301472783088,27.896543502807617,1.322909235954285,74.53999328613281,28.35,2
-0.4753945171833038,-0.9396530985832214,-0.0736710503697395,28.84000015258789,1.3297446966171265,74.85884857177734,28.35,2
-0.4114385545253753,-0.8996973037719727,-0.0696689337491989,30.8928165435791,1.334131360054016,75.06346893310547,28.35,2
-0.3927863836288452,-0.8740559816360474,-0.0838939324021339,32.41798400878906,1.3369464874267578,75.19477844238281,28.35,2
-0.4032076001167297,-0.8576008677482605,-0.1210115924477577,31.257951736450195,1.3387529850006104,75.27904510498047,28.35,2
-0.4098953306674957,-0.8526386618614197,-0.1504293382167816,27.163801193237305,1.3399122953414917,75.33312225341797,28.35,2
-0.4141871333122253,-0.8886386752128601,-0.1469168663024902,21.161624908447266,1.340656280517578,75.36782836914062,28.35,2
-0.416941374540329,-0.93413245677948,-0.1390649825334549,13.77018928527832,1.341133713722229,75.39009857177734,28.35,2
-0.4019155502319336,-0.9465344548225404,-0.1340260952711105,4.88533353805542,1.3414400815963743,75.4043960571289,28.35,2
-0.3810772895812988,-1.0608510971069336,-0.1195968762040138,-5.5275421142578125,1.339341402053833,75.41356658935547,28.35,2
-0.3844978213310241,-1.1677995920181274,-0.0823481678962707,-17.14313316345215,1.3379945755004885,75.4194564819336,28.35,2
-0.381095141172409,-1.0629019737243652,-0.0304552167654037,-29.247533798217773,1.3371303081512451,75.42323303222656,28.35,2
-0.3677159547805786,-0.978791356086731,0.0028466924559324,-40.744903564453125,1.336575627326965,75.4256591796875,28.35,2
-0.3647277355194092,-1.003182888031006,0.018620166927576,-50.15457534790039,1.3362196683883667,75.42721557617188,28.35,2
-0.3740056157112121,-0.9852492809295654,0.0511337742209434,-55.92804718017578,1.3359912633895874,75.42821502685547,28.35,2
-0.3743618726730346,-0.9401538968086244,0.0831946805119514,-57.69137191772461,1.33584463596344,75.4288558959961,28.35,2
-0.3354060649871826,-0.8720298409461975,0.1037695258855819,-57.12483215332031,1.3357505798339844,75.42926788330078,28.35,2
-0.3104064762592315,-0.8339095115661621,0.1169732809066772,-56.15580368041992,1.3343130350112915,75.42952728271484,28.37,2
-0.3111565113067627,-0.8318371772766113,0.1366422325372696,-54.21196746826172,1.333390474319458,75.42969512939453,28.37,2
-0.3396266996860504,-0.8417028188705444,0.1660579591989517,-48.60453414916992,1.3327984809875488,75.42980194091797,28.37,2
-0.3634949922561645,-0.8480340242385864,0.1849352866411209,-37.640228271484375,1.3324185609817505,75.42987060546875,28.37,2
-0.3844100832939148,-0.8464992642402649,0.1970496624708175,-22.56825065612793,1.3321747779846191,75.42991638183594,28.37,2
-0.3978321850299835,-0.856709897518158,0.2160195261240005,-6.852118968963623,1.332018256187439,75.42994689941406,28.37,2
-0.4176412522792816,-0.885653555393219,0.2058021873235702,6.142641544342041,1.3319178819656372,75.42996978759766,28.37,2
-0.458342432975769,-0.9322168231010436,0.165658637881279,15.388323783874512,1.3318533897399902,75.42997741699219,28.37,2
-0.5068532228469849,-0.9676961898803712,0.1342990547418594,22.22089576721192,1.331812024116516,75.42998504638672,28.37,2
-0.5379846692085266,-1.0240514278411863,0.0693920776247978,28.113910675048828,1.3317855596542358,75.42999267578125,28.37,2
-0.5859518647193909,-1.1385858058929443,0.0333362929522991,33.03138732910156,1.33176851272583,75.42999267578125,28.37,2
-0.6559188961982727,-1.088936448097229,0.0157955400645732,36.04742050170898,1.3317575454711914,75.42999267578125,28.37,2
-0.6280486583709717,-1.029085397720337,-0.0402433015406131,36.67529678344727,1.331750512123108,75.42999267578125,28.37,2
-0.6213586926460266,-1.0298608541488647,-0.0650102570652961,35.16871643066406,1.331745982170105,75.42999267578125,28.37,2
-0.6282609701156616,-1.013565182685852,-0.0529153905808925,31.7979736328125,1.3317431211471558,75.42999267578125,28.37,2
-0.6102994084358215,-0.9695209264755248,-0.0507513731718063,26.56455612182617,1.3317413330078125,75.42999267578125,28.37,2
-0.5371971726417542,-0.9076692461967468,-0.0605581812560558,20.49762344360352,1.3349533081054688,75.68077087402344,28.37,2
-0.4622954726219177,-0.8791719079017639,-0.0668516233563423,16.12773323059082,1.3370145559310913,75.84171295166016,28.37,2
-0.4254234433174133,-0.855286180973053,-0.0708903968334198,14.92838191986084,1.3383374214172363,75.94499206542969,28.37,2
-0.407358855009079,-0.8511532545089722,-0.0902755707502365,15.323044776916504,1.3391863107681274,76.01126861572266,28.37,2
-0.3901682794094085,-0.8652942776679993,-0.1083136349916458,14.99952220916748,1.3397310972213743,76.05380249023438,28.37,2
-0.3791363537311554,-0.902358055114746,-0.1254871934652328,13.591740608215332,1.340080738067627,76.08110046386719,28.37,2
-0.3888500332832336,-0.9485345482826232,-0.1197148784995079,11.212286949157717,1.3403050899505615,76.09861755371094,28.37,2
-0.4006814658641815,-0.9725701808929444,-0.1160105392336845,6.783404350280762,1.3404490947723389,76.10986328125,28.37,2
-0.3914808928966522,-1.0327770709991455,-0.1136333048343658,0.0576907023787498,1.3387054204940796,76.11707305908203,28.37,2
-0.3799787163734436,-1.088207721710205,-0.0953144133090972,-7.22844123840332,1.3375864028930664,76.1217041015625,28.37,2
-0.37819504737854,-1.0454111099243164,-0.0499717555940151,-13.892590522766112,1.3368682861328125,76.12467193603516,28.37,2
-0.349061518907547,-0.995555579662323,-0.0208734460175037,-20.36179542541504,1.3364074230194092,76.12657928466797,28.37,2
-0.3359630703926086,-0.9859522581100464,0.0145934941247105,-26.37271308898925,1.3361116647720337,76.12779998779297,28.37,2
-0.3331550359725952,-0.974191665649414,0.0597452335059642,-30.617094039916992,1.3359218835830688,76.12858581542969,28.37,2
-0.3257552087306976,-0.927459955215454,0.0943187922239303,-33.065032958984375,1.3358001708984375,76.12908935546875,28.37,2
-0.2986153364181518,-0.8414924740791321,0.1221038922667503,-34.76495361328125,1.3357219696044922,76.1294174194336,28.37,2
-0.2867963016033172,-0.8143123984336853,0.1567280888557434,-35.411624908447266,1.3347536325454712,76.12962341308594,28.37,2
-0.2792115211486816,-0.8080652952194214,0.1733501404523849,-33.497947692871094,1.334132194519043,76.1297607421875,28.37,2
-0.2855395972728729,-0.8152518272399902,0.1896149814128875,-28.66578865051269,1.3337334394454956,76.12984466552734,28.37,2
-0.2951983511447906,-0.8310592770576477,0.211248368024826,-22.207914352416992,1.33347749710083,76.12989807128906,28.37,2
-0.3013967871665954,-0.8691924810409546,0.2307292073965072,-15.602392196655272,1.333313226699829,76.12993621826172,28.37,2
-0.3109723627567291,-0.8824686408042908,0.2376331090927124,-9.797762870788574,1.3332078456878662,76.12995910644531,28.37,2
-0.3115196526050567,-0.9077818393707277,0.2308680862188339,-5.474395751953125,1.333140254020691,76.12997436523438,28.37,2
-0.3286641836166382,-0.974406361579895,0.2041355967521667,-2.6497514247894287,1.3330968618392944,76.1299819946289,28.37,2
-0.3396665751934051,-1.0171620845794678,0.1757846772670745,-0.235184371471405,1.3275604248046875,76.12998962402344,28.37,2
-0.3523250520229339,-1.0501980781555176,0.1351995915174484,2.9050092697143555,1.3240073919296265,76.12998962402344,28.37,2
-0.3716440796852112,-1.1161808967590332,0.1091544106602668,6.765231132507324,1.321727275848389,76.12998962402344,28.37,2
-0.4344218671321869,-1.1809159517288208,0.103635661303997,10.57163429260254,1.3202641010284424,76.12998962402344,28.37,2
-0.4915023744106293,-1.0881125926971436,0.0441163033246994,13.677142143249512,1.3193250894546509,76.12998962402344,28.37,2
-0.5057422518730164,-1.0677411556243896,0.0003224320244044,15.831294059753418,1.3187224864959717,76.12998962402344,28.37,2
-0.5148805975914001,-1.1218411922454834,0.0114024672657251,17.271026611328125,1.318335771560669,76.12998962402344,28.37,2
-0.4815606474876404,-1.09498393535614,0.024110771715641,18.671445846557617,1.3180875778198242,76.12998962402344,28.37,2
-0.437786728143692,-1.0273685455322266,0.032266229391098,20.87421226501465,1.3238961696624756,76.33061981201172,28.37,2
-0.3761084973812103,-0.9447925090789796,0.0486954823136329,24.426618576049805,1.327623724937439,76.4593734741211,28.37,2
-0.3365269601345062,-0.902995467185974,0.04804328083992,28.787824630737305,1.3300158977508545,76.54199981689453,28.37,2
-0.3055280148983001,-0.859379231929779,0.0252336375415325,32.47865676879883,1.3315510749816897,76.59502410888672,28.37,2
-0.2968302369117737,-0.8369866013526917,0.0105957221239805,34.779151916503906,1.332536220550537,76.6290512084961,28.37,2
-0.2856507301330566,-0.83381187915802,0.0012019501300528,36.04768753051758,1.3331685066223145,76.65088653564453,28.37,2
-0.2672808170318603,-0.8149811625480652,0.0007713424274697,35.65443420410156,1.3335741758346558,76.66490173339844,28.37,2
-0.2666876018047333,-0.836483359336853,0.0228861011564731,31.629613876342773,1.333834528923035,76.67389678955078,28.37,2
-0.2719046771526336,-0.8894666433334351,0.0314803048968315,23.51521873474121,1.330329179763794,76.6796646118164,28.37,2
-0.2696549296379089,-0.9178705215454102,0.0369955711066722,13.26360034942627,1.3280795812606812,76.68336486816406,28.37,2
-0.2738089561462402,-0.9640873670578004,0.0517304986715316,2.396359205245972,1.3266359567642212,76.68574523925781,28.37,2
-0.2652792036533355,-1.0833110809326172,0.0275998823344707,-9.138229370117188,1.3257094621658323,76.68727111816406,28.37,2
-0.3269785940647125,-1.1822130680084229,0.0289075654000043,-20.58161163330078,1.3251149654388428,76.68824768066406,28.37,2
-0.3609759509563446,-1.1337271928787231,0.0801267325878143,-29.773923873901367,1.3247333765029907,76.68887329101562,28.37,2
-0.4163801372051239,-1.1138073205947876,0.0906051471829414,-35.97395706176758,1.3244885206222534,76.68927764892578,28.37,2
-0.4575331211090088,-1.0674371719360352,0.1029273644089698,-40.4041862487793,1.3243314027786257,76.68953704833984,28.37,2
-0.4559538662433624,-0.9481151103973388,0.0996395051479339,-43.440711975097656,1.3260666131973269,76.68970489501953,28.37,2
-0.4381470680236816,-0.8435522317886353,0.0919317677617073,-43.752140045166016,1.32718026638031,76.68981170654297,28.37,2
-0.4323174655437469,-0.7764497995376587,0.0981809347867965,-40.33001327514648,1.327894926071167,76.68988037109375,28.37,2
-0.4621630311012268,-0.755778431892395,0.1021912917494773,-33.63775634765625,1.3283535242080688,76.68992614746094,28.37,2
-0.4981095194816589,-0.759306013584137,0.0935693606734275,-24.990222930908203,1.3286478519439695,76.68995666503906,28.37,2
-0.5211778879165649,-0.7559720873832703,0.0824385285377502,-15.901148796081545,1.3288366794586182,76.68997192382812,28.37,2
-0.5415796041488647,-0.7538325190544128,0.0864909514784812,-7.764708042144775,1.3289579153060913,76.68997955322266,28.37,2
-0.5434767007827759,-0.7636550664901733,0.1058848872780799,-1.300054907798767,1.3290356397628784,76.68998718261719,28.37,2
-0.544694185256958,-0.8035452365875244,0.1071352437138557,3.8660385608673096,1.3217408657073977,76.68999481201172,28.37,2
-0.5342799425125122,-0.8403400182723999,0.1023398786783218,8.768421173095703,1.3170595169067385,76.68999481201172,28.37,2
-0.5555855631828308,-0.9479193687438964,0.1048602610826492,13.83833122253418,1.314055323600769,76.68999481201172,28.37,2
-0.5916493535041809,-1.0393487215042114,0.1120754778385162,18.428207397460938,1.3121274709701538,76.68999481201172,28.37,2
-0.5979996919631958,-1.030849575996399,0.1279013305902481,21.835878372192383,1.3108901977539062,76.68999481201172,28.37,2
-0.5852816700935364,-1.1093618869781494,0.1044708117842674,23.940326690673828,1.310096263885498,76.68999481201172,28.37,2
-0.5603266358375549,-1.1653443574905396,0.0614455789327621,24.56357765197754,1.309586763381958,76.68999481201172,28.37,2
-0.4939319789409637,-1.111706256866455,0.061823334544897,23.344221115112305,1.3092597723007202,76.68999481201172,28.37,2
-0.4289326071739197,-1.038100004196167,0.0732613056898117,20.774002075195312,1.301245927810669,76.88703918457031,28.37,2
-0.3760241866111755,-0.9516793489456176,0.0638082101941108,18.38298988342285,1.2961031198501587,77.01348876953125,28.37,2
-0.353266179561615,-0.8962194919586182,0.0353506617248058,17.174591064453125,1.292802810668945,77.09463500976562,28.37,2
-0.3274658322334289,-0.8550307750701904,0.0114904697984457,16.61048126220703,1.2906848192214966,77.14671325683594,28.37,2
-0.2941153347492218,-0.8118049502372742,0.0017761477502062,15.600022315979004,1.2893255949020386,77.18013000488281,28.37,2
-0.2727129161357879,-0.7840650677680969,-0.0044579450041055,13.79439640045166,1.2884533405303955,77.20157623291016,28.37,2
-0.2645758390426636,-0.7718610167503357,-0.0196541771292686,11.73642349243164,1.2878936529159546,77.21533966064453,28.37,2
-0.281745046377182,-0.8144091367721558,-0.0350040160119533,10.29034423828125,1.287534475326538,77.22417449951172,28.37,2
-0.3039588034152984,-0.869702935218811,-0.056050207465887,9.64177417755127,1.2992392778396606,77.22984313964844,28.37,2
-0.3238120675086975,-0.9163828492164612,-0.0751542150974273,8.713251113891602,1.306750774383545,77.23348236083984,28.37,2
-0.3309549689292907,-0.9463393092155457,-0.0930118411779403,6.232944011688232,1.31157124042511,77.2358169555664,28.37,2
-0.3131477832794189,-1.133496880531311,-0.115667387843132,2.0044500827789307,1.3146647214889526,77.23731231689453,28.37,2
-0.3688934445381164,-1.1752350330352783,-0.1022175401449203,-3.335181713104248,1.3166499137878418,77.23827362060547,28.37,2
-0.3990700244903564,-1.078869104385376,-0.0879884287714958,-8.664196968078613,1.317923903465271,77.2388916015625,28.37,2
-0.3568601012229919,-1.095395803451538,-0.0676614567637443,-12.46380615234375,1.3187414407730105,77.23928833007812,28.37,2
-0.3297722041606903,-1.1227951049804688,-0.0546167753636837,-13.626779556274414,1.3192662000656128,77.23954010009766,28.37,2
-0.3403776288032532,-1.050813913345337,-0.046245452016592,-12.151912689208984,1.3182257413864136,77.23970031738281,28.37,2
-0.3191947042942047,-0.9262517094612122,-0.0408732183277606,-9.743736267089844,1.3175580501556396,77.23980712890625,28.37,2
-0.3056007325649261,-0.8295215368270874,-0.0262300781905651,-9.849875450134276,1.317129611968994,77.23987579345703,28.37,2
-0.3248657584190368,-0.7954345941543579,-0.0056374054402112,-14.793874740600586,1.3168545961380005,77.23992156982422,28.37,2
-0.3428267240524292,-0.7847551107406616,-0.0036177623551338,-22.828203201293945,1.316678166389465,77.23995208740234,28.37,2
-0.3543530404567718,-0.8002927303314209,0.0032761024776846,-30.30926513671875,1.316564917564392,77.2399673461914,28.37,2
-0.3729455173015594,-0.8214594125747681,0.0244935117661952,-35.52217483520508,1.316492199897766,77.23997497558594,28.37,2
-0.396072655916214,-0.8406407237052917,0.0493051707744598,-38.49493408203125,1.3164455890655518,77.23998260498047,28.37,2
-0.4277076423168182,-0.8641457557678223,0.0820211917161941,-39.58585357666016,1.3113659620285034,77.239990234375,28.37,2
-0.4536069333553314,-0.890425443649292,0.1030164510011673,-39.86677932739258,1.3081061840057373,77.239990234375,28.37,2
-0.4478364884853363,-0.9520724415779114,0.1388811022043228,-40.74566268920898,1.3060141801834106,77.239990234375,28.37,2
-0.43853560090065,-1.019622802734375,0.1842880547046661,-41.94738006591797,1.3046717643737793,77.239990234375,28.37,2
-0.4381645917892456,-1.079766035079956,0.2134276330471038,-41.01326751708984,1.3038102388381958,77.239990234375,28.37,2
-0.4323287308216095,-1.202329158782959,0.1873455345630645,-35.91767501831055,1.3032573461532593,77.239990234375,28.37,2
-0.4005947411060333,-1.2921786308288574,0.1482164561748504,-27.77173042297364,1.3029025793075562,77.239990234375,28.37,2
-0.3298497200012207,-1.2490789890289309,0.1566923111677169,-19.70673370361328,1.3026748895645142,77.239990234375,28.37,2
-0.2620585262775421,-1.143051266670227,0.1733271777629852,-13.517212867736816,1.3066601753234863,77.41195678710938,28.37,2
-0.2297495901584625,-1.080606460571289,0.1616113781929016,-8.352137565612793,1.3092176914215088,77.5223159790039,28.37,2
-0.2481999993324279,-1.0237396955490112,0.1149084270000457,-1.802423119544983,1.310858964920044,77.5931396484375,28.37,2
-0.2712359726428985,-0.9704525470733644,0.0793393850326538,7.638531684875488,1.3119122982025146,77.63858795166016,28.37,2
-0.2804213464260101,-0.9250603914260864,0.0677087754011154,18.31513214111328,1.3125882148742676,77.66775512695312,28.37,2
-0.2527293562889099,-0.8567458987236023,0.0658426955342292,27.036865234375,1.3130220174789429,77.68647003173828,28.37,2
-0.2237626761198043,-0.8073078393936157,0.0758406966924667,33.142696380615234,1.313300371170044,77.698486328125,28.37,2
-0.2107712924480438,-0.7979724407196045,0.0822568386793136,38.00687026977539,1.3134790658950806,77.70619201660156,28.37,2
-0.2136297225952148,-0.7863837480545044,0.0807765796780586,41.46517562866211,1.3200204372406006,77.71113586425781,28.37,2
-0.2378551959991455,-0.812533438205719,0.0630333051085472,42.26581954956055,1.3242183923721311,77.71430969238281,28.37,2
-0.2422061711549759,-0.8852925300598145,0.0180600471794605,40.38646697998047,1.3269124031066897,77.71634674072266,28.37,2
-0.2449983656406402,-0.9655717611312866,-0.0275945216417312,35.89518356323242,1.3286411762237549,77.71765899658203,28.37,2
-0.2803768813610077,-1.1402413845062256,-0.0624907724559307,27.90060043334961,1.329750657081604,77.71849822998047,28.37,2
-0.3422651886940002,-1.1067922115325928,-0.0512985289096832,16.955615997314453,1.3304626941680908,77.71903991699219,28.37,2
-0.3427971303462982,-1.0629353523254397,-0.0609093159437179,5.95151424407959,1.330919623374939,77.7193832397461,28.37,2
-0.3207474052906036,-1.1187571287155151,-0.072674736380577,-2.7439393997192383,1.3312127590179443,77.7196044921875,28.37,2
-0.3401837944984436,-1.1097981929779053,-0.0746273323893547,-9.477770805358888,1.3300237655639648,77.7197494506836,28.39,2
-0.3750480711460113,-1.014484405517578,-0.0926737189292907,-16.17798614501953,1.3292607069015503,77.71984100341797,28.39,2
-0.3862263858318329,-0.914133071899414,-0.1042548567056655,-23.325946807861328,1.3287711143493652,77.71990203857422,28.39,2
-0.3989977836608886,-0.8385378122329712,-0.0836980864405632,-27.916677474975582,1.3284568786621094,77.71994018554688,28.39,2
-0.4183892607688904,-0.8124162554740906,-0.0593103878200054,-25.69308853149414,1.3282551765441897,77.71996307373047,28.39,2
-0.4364313781261444,-0.8124462366104126,-0.0436597689986228,-16.671056747436523,1.3281257152557373,77.71997833251953,28.39,2
-0.4536075294017792,-0.8180632591247559,-0.0224205516278743,-6.363607883453369,1.32804274559021,77.71998596191406,28.39,2
-0.470227986574173,-0.8160701990127563,-0.0031926706433296,-0.1250509470701217,1.3279894590377808,77.7199935913086,28.39,2
-0.4976873695850372,-0.8147911429405212,0.0259399991482496,1.4710047245025637,1.3252010345458984,77.7199935913086,28.39,2
-0.5209069848060608,-0.8475569486618042,0.0334401205182075,0.7863727807998657,1.3234115839004517,77.7199935913086,28.39,2
-0.5414057970046997,-0.8797797560691833,0.0438510403037071,-0.5808716416358948,1.3222631216049194,77.7199935913086,28.39,2
-0.5825495719909668,-0.9508384466171264,0.1009121388196945,-2.117484331130981,1.3215261697769165,77.7199935913086,28.39,2
-0.6145510673522949,-0.9796465039253236,0.1319328993558883,-2.888639450073242,1.3210532665252686,77.7199935913086,28.39,2
-0.6406855583190918,-1.087698221206665,0.1630357801914215,-1.8430148363113403,1.3207497596740725,77.7199935913086,28.39,2
-0.5958816409111023,-1.1794307231903076,0.1718002706766128,1.0420385599136353,1.3205549716949463,77.7199935913086,28.39,2
-0.5335424542427063,-1.182321548461914,0.1830225884914398,5.240087032318115,1.3204299211502075,77.7199935913086,28.39,2
-0.45435231924057,-1.0890146493911743,0.2070177495479583,10.918437957763672,1.3198907375335691,77.83821868896484,28.39,2
-0.4091304242610931,-1.0011467933654783,0.2056231498718261,18.385086059570312,1.319544792175293,77.91409301757812,28.39,2
-0.402500718832016,-0.9279648661613464,0.176739290356636,26.40106773376465,1.31932270526886,77.96278381347656,28.39,2
-0.387050598859787,-0.8586098551750183,0.1414099782705307,31.87127685546875,1.319180250167847,77.99403381347656,28.39,2
-0.3659400641918182,-0.8029062151908875,0.1187376528978347,32.53001403808594,1.3190888166427612,78.01408386230469,28.39,2
-0.3244036734104156,-0.7559632658958435,0.1153834089636802,30.272985458374023,1.3190301656723022,78.0269546508789,28.39,2
-0.2977479994297027,-0.7314357757568359,0.1188286244869232,29.666460037231445,1.3189924955368042,78.03520965576172,28.39,2
-0.3030330240726471,-0.732488751411438,0.1098440140485763,32.111045837402344,1.3189682960510254,78.04051208496094,28.39,2
-0.3232179582118988,-0.7611533999443054,0.1152737587690353,34.532493591308594,1.3244613409042358,78.04391479492188,28.39,2
-0.341769278049469,-0.8019397854804993,0.1187582612037658,34.606834411621094,1.327986478805542,78.04609680175781,28.39,2
-0.3312833309173584,-0.8952874541282654,0.1042010858654975,33.135528564453125,1.3302487134933472,78.04749298095703,28.39,2
-0.3077607452869415,-1.0391591787338257,0.0836635828018188,30.38929557800293,1.3317004442214966,78.04839324951172,28.39,2
-0.3262519538402557,-1.221052169799805,0.0872771143913269,24.73982620239257,1.332632064819336,78.0489730834961,28.39,2
-0.3661074042320251,-1.1138696670532229,0.0951938480138778,16.062891006469727,1.3332300186157229,78.0493392944336,28.39,2
-0.3692932426929474,-1.0338906049728394,0.083481028676033,6.911957263946533,1.3336137533187866,78.04957580566406,28.39,2
-0.360142171382904,-1.0553356409072876,0.0479755438864231,-0.6802217364311218,1.333859920501709,78.04972839355469,28.39,2
-0.3654651045799255,-1.0411089658737185,0.030787942931056,-7.469122886657715,1.3330997228622437,78.0498275756836,28.39,2
-0.374478816986084,-0.9480125308036804,0.0309534780681133,-15.526649475097656,1.332611918449402,78.04988861083984,28.39,2
-0.3802632987499237,-0.8546819686889648,0.0366574823856353,-25.329776763916016,1.3322988748550415,78.0499267578125,28.39,2
-0.3895732164382934,-0.8003855347633362,0.0515135340392589,-34.529911041259766,1.3320978879928589,78.04995727539062,28.39,2
-0.4123411178588867,-0.7767367362976074,0.0610472932457923,-39.65302658081055,1.331968903541565,78.04997253417969,28.39,2
-0.4381478130817413,-0.7783536314964294,0.0727632865309715,-39.24352645874024,1.3318861722946167,78.04998016357422,28.39,2
-0.4659045934677124,-0.7737935185432434,0.0970752611756324,-35.115135192871094,1.3318331241607666,78.04998779296875,28.39,2
-0.4837172925472259,-0.7988559603691101,0.1238728314638137,-30.65298843383789,1.331799030303955,78.04999542236328,28.39,2
-0.5063440203666687,-0.8541240096092224,0.1466677486896515,-28.208600997924805,1.329481840133667,78.04999542236328,28.39,2
-0.5376578569412231,-0.945569634437561,0.1556984335184097,-27.74336814880371,1.327994704246521,78.04999542236328,28.39,2
-0.5521554946899414,-1.032243013381958,0.1558960378170013,-27.523624420166016,1.327040433883667,78.04999542236328,28.39,2
-0.5334703922271729,-1.0990605354309082,0.1392295211553573,-25.96748733520508,1.3264280557632446,78.04999542236328,28.39,2
-0.5550659894943237,-1.2427000999450684,0.1509250104427337,-22.765565872192383,1.3260350227355957,78.04999542236328,28.39,2
-0.5689248442649841,-1.2397176027297974,0.1528327316045761,-18.51105499267578,1.3257827758789062,78.04999542236328,28.39,2
-0.5386342406272888,-1.1930214166641235,0.0812859237194061,-13.889154434204102,1.3256208896636963,78.04999542236328,28.39,2
-0.5247932076454163,-1.1854455471038818,0.0297735296189785,-9.47214126586914,1.3255170583724976,78.04999542236328,28.39,2
-0.510313093662262,-1.1525949239730835,0.0023136129602789,-5.458889484405518,1.325450420379639,78.157470703125,28.39,2
-0.4394450485706329,-1.0587421655654907,-0.0153085803613066,-1.0455541610717771,1.32540762424469,78.22644805908203,28.39,2
-0.3771727085113525,-0.9873173832893372,-0.0322152636945247,4.9966583251953125,1.3253802061080933,78.27071380615234,28.39,2
-0.3260143399238586,-0.947078824043274,-0.0710538700222969,12.40303897857666,1.3253625631332395,78.29911804199219,28.39,2
-0.304379403591156,-0.9212560653686525,-0.1071738004684448,18.87566375732422,1.3253512382507324,78.31734466552734,28.39,2
-0.318484216928482,-0.8710978627204895,-0.1471468210220337,22.395307540893555,1.3253439664840698,78.32904052734375,28.39,2
-0.3331336379051208,-0.8557025194168091,-0.1727991998195648,23.16007804870605,1.3253393173217771,78.3365478515625,28.39,2
-0.3369370400905609,-0.8626160025596619,-0.1892614215612411,22.651323318481445,1.3253363370895386,78.34136962890625,28.39,2
-0.3393778204917907,-0.8950415253639221,-0.1718370616436004,21.894926071166992,1.3239573240280151,78.3444595336914,28.39,2
-0.3353464007377624,-0.9270459413528442,-0.143861785531044,21.13007354736328,1.32307231426239,78.34644317626953,28.39,2
-0.3383570611476898,-0.9755733609199524,-0.0979199856519699,19.8725643157959,1.3225044012069702,78.34771728515625,28.39,2
-0.3290935754776001,-1.0570954084396362,-0.074034959077835,16.84078598022461,1.322139859199524,78.3485336303711,28.39,2
-0.3119532465934753,-1.0814226865768433,-0.047511376440525,11.015236854553224,1.3219059705734253,78.34906005859375,28.39,2
-0.2953557968139648,-0.9962746500968932,-0.0080989692360162,3.4827864170074463,1.3217558860778809,78.34939575195312,28.39,2
-0.3070956170558929,-0.969620406627655,0.0227914191782474,-2.7196500301361084,1.3216595649719238,78.349609375,28.39,2
-0.3538139760494232,-0.9525152444839478,0.0426150932908058,-5.349386215209961,1.321597695350647,78.34974670410156,28.39,2
-0.3949906826019287,-0.8911581635475159,0.0497390106320381,-5.428422927856445,1.3210991621017456,78.34983825683594,28.39,2
-0.3934266567230224,-0.8461849689483643,0.0543107315897941,-6.471517562866211,1.3207792043685913,78.34989929199219,28.39,2
-0.3476407527923584,-0.8397148251533508,0.0852334722876548,-10.6375093460083,1.320573806762695,78.34993743896484,28.39,2
-0.3238557577133178,-0.8411604762077332,0.127469003200531,-15.478461265563965,1.3204420804977417,78.34996032714844,28.39,2
-0.3533741235733032,-0.8532837629318237,0.1825622022151947,-15.858765602111816,1.3203575611114502,78.3499755859375,28.39,2
-0.4115017354488373,-0.8834548592567444,0.2067223042249679,-9.718673706054688,1.3203033208847046,78.34998321533203,28.39,2
-0.4488046765327453,-0.9028169512748718,0.2166290879249572,-0.3184702694416046,1.3202685117721558,78.34999084472656,28.39,2
-0.4223635792732239,-0.9208402037620544,0.2173889279365539,7.5769782066345215,1.3202461004257202,78.34999084472656,28.39,2
-0.3830041289329529,-0.9380042552947998,0.2178765386343002,11.561884880065918,1.3211499452590942,78.34999084472656,28.39,2
-0.357745498418808,-0.9658124446868896,0.2069939076900482,11.718842506408691,1.3217300176620483,78.34999084472656,28.39,2
-0.4031114876270294,-0.9836581945419312,0.1552278697490692,9.523138046264648,1.3221023082733154,78.34999084472656,28.39,2
-0.4322247505187988,-1.0063060522079468,0.0884207636117935,6.938976764678955,1.3223412036895752,78.34999084472656,28.39,2
-0.490092396736145,-1.1216001510620115,0.0623411312699317,5.413166046142578,1.3224945068359375,78.34999084472656,28.39,2
-0.5720106959342957,-1.1116225719451904,0.0512024983763694,5.483683109283447,1.322592854499817,78.34999084472656,28.39,2
-0.6245811581611633,-1.1164151430130005,0.0216632671654224,7.094522476196289,1.3226560354232788,78.34999084472656,28.39,2
-0.6527200937271118,-1.136284112930298,-0.0252821817994117,9.754755973815918,1.322696566581726,78.34999084472656,28.39,2
-0.6427891850471497,-1.1154481172561646,-0.0498112961649894,12.504469871520996,1.3259357213974,78.4288101196289,28.39,2
-0.5580472350120544,-1.040501356124878,-0.0543571189045906,14.509111404418944,1.3280143737792969,78.4793930053711,28.39,2
-0.4812736213207245,-0.9868069887161256,-0.057274367660284,16.282804489135742,1.3293484449386597,78.51185607910156,28.39,2
-0.426406979560852,-0.9467512965202332,-0.0759398117661476,19.237424850463867,1.3302044868469238,78.53268432617188,28.39,2
-0.4135878086090088,-0.9210458397865297,-0.1047115474939346,23.13619041442871,1.3307539224624634,78.54605102539062,28.39,2
-0.3997634351253509,-0.8933539986610413,-0.134371131658554,25.845983505249023,1.331106424331665,78.55463409423828,28.39,2
-0.3796961903572082,-0.8867785334587097,-0.1590027213096618,25.886831283569336,1.3313326835632324,78.56014251708984,28.39,2
-0.3780137300491333,-0.8993521332740784,-0.1748098582029342,22.97175025939941,1.3314778804779053,78.56367492675781,28.39,2
-0.3993251323699951,-0.92981219291687,-0.1681606471538543,16.44725227355957,1.3288167715072632,78.5659408569336,28.39,2
-0.4018060266971588,-0.9549574851989746,-0.1526980251073837,5.833065032958984,1.3271089792251587,78.56739807128906,28.39,2
-0.3866047859191894,-1.0102787017822266,-0.1315794438123703,-7.796150207519531,1.3260130882263184,78.56832885742188,28.39,2
-0.376849502325058,-1.062574028968811,-0.1012334376573562,-22.536245346069336,1.3253097534179688,78.56892395019531,28.39,2
-0.3593935668468475,-1.0177652835845947,-0.0649657920002937,-36.79624176025391,1.3248584270477295,78.5693130493164,28.39,2
-0.3481913805007934,-1.0058029890060425,-0.036093533039093,-49.218379974365234,1.324568748474121,78.5695571899414,28.39,2
-0.357795774936676,-0.9981262683868408,-0.0007716542459093,-58.32586669921875,1.3243829011917114,78.56971740722656,28.39,2
-0.3807526528835296,-0.9652109146118164,0.021895894780755,-62.5977783203125,1.324263572692871,78.56981658935547,28.39,2
-0.3730939328670501,-0.9049032926559448,0.0532359480857849,-61.40916061401367,1.318219542503357,78.56988525390625,28.37,2
-0.345787912607193,-0.8773968815803528,0.0789459645748138,-56.37236022949219,1.3143408298492432,78.5699234008789,28.37,2
-0.3170689344406128,-0.8709403872489929,0.1122384965419769,-50.57490539550781,1.3118517398834229,78.56995391845703,28.37,2
-0.3322254121303558,-0.8891881108283997,0.1615926027297973,-45.36050033569336,1.3102543354034424,78.5699691772461,28.37,2
-0.358745276927948,-0.9064962267875672,0.198862999677658,-38.89019012451172,1.3092292547225952,78.56997680664062,28.37,2
-0.3925575315952301,-0.9064080119132996,0.211585447192192,-28.955638885498047,1.3085713386535645,78.56998443603516,28.37,2
-0.4030607342720032,-0.9063513875007628,0.2141522020101547,-15.991860389709473,1.3081492185592651,78.56999206542969,28.37,2
-0.3874099850654602,-0.9063150882720948,0.2046038508415222,-2.613856077194214,1.3078782558441162,78.56999206542969,28.37,2
-0.3885617852210998,-0.9286828637123108,0.1704873889684677,8.640395164489746,1.3077044486999512,78.56999206542969,28.37,2
-0.4340831339359283,-0.9654282927513124,0.1262023150920868,16.937498092651367,1.3075928688049316,78.56999206542969,28.37,2
-0.4968827664852142,-0.9946072101593018,0.0585982836782932,23.29746627807617,1.3075212240219116,78.56999206542969,28.37,2
-0.5315861701965332,-1.0413213968276978,-0.007177188526839,28.987504959106445,1.3074753284454346,78.56999206542969,28.37,2
-0.6154323220252991,-1.0768976211547852,-0.0213992297649383,33.946685791015625,1.307445764541626,78.56999206542969,28.37,2
-0.6524466872215271,-0.9989684820175172,-0.0585149899125099,37.45521545410156,1.3074268102645874,78.56999206542969,28.37,2
-0.692993700504303,-0.9993380308151244,-0.0935292989015579,39.38077163696289,1.3074146509170532,78.56999206542969,28.37,2
-0.707818865776062,-1.0107706785202026,-0.1048039123415947,39.80323791503906,1.3074069023132324,78.56999206542969,28.37,2
-0.6781483888626099,-0.990118682384491,-0.1064415425062179,38.32963943481445,1.3170418739318848,78.69180297851562,28.37,2
-0.5807387232780457,-0.9488765597343444,-0.085101380944252,34.87616729736328,1.3232251405715942,78.76997375488281,28.37,2
-0.5014334917068481,-0.9168119430541992,-0.0881998166441917,30.693092346191406,1.3271931409835815,78.82013702392578,28.37,2
-0.4505399763584137,-0.8906369209289551,-0.0901882126927375,27.643213272094727,1.3297395706176758,78.85233306884766,28.37,2
-0.4346727430820465,-0.8738393187522888,-0.1138553470373153,26.449064254760746,1.331373691558838,78.87299346923828,28.37,2
-0.4188922941684723,-0.8742551207542419,-0.1402391046285629,26.227279663085938,1.332422375679016,78.8862533569336,28.37,2
-0.4087653160095215,-0.908108651638031,-0.151572898030281,25.66937255859375,1.3330954313278198,78.89476013183594,28.37,2
-0.4190597236156463,-0.9578227400779724,-0.1364551782608032,23.924882888793945,1.3335273265838623,78.90022277832031,28.37,2
-0.4200683236122131,-0.9785308241844176,-0.126753494143486,20.4552001953125,1.330132007598877,78.90372467041016,28.37,2
-0.392726719379425,-1.019809007644653,-0.1149297431111335,15.004240036010742,1.3279531002044678,78.90597534179688,28.37,2
-0.3807782232761383,-1.0798856019973757,-0.0961463898420333,7.937881946563721,1.326554775238037,78.90741729736328,28.37,2
-0.3563170433044433,-1.012081503868103,-0.0505056716501712,-0.1508152931928634,1.3256573677062988,78.90834045410156,28.37,2
-0.3406192660331726,-0.9685688018798828,-0.0156183112412691,-9.339829444885254,1.325081467628479,78.908935546875,28.37,2
-0.3361431062221527,-0.9686337113380432,0.012368164025247,-19.93356704711914,1.3247119188308716,78.90931701660156,28.37,2
-0.3556616604328155,-0.9350887537002563,0.0527193695306777,-30.916465759277344,1.324474811553955,78.90956115722656,28.37,2
-0.3681875467300415,-0.8911703824996948,0.0898099988698959,-40.05688095092773,1.3243225812911987,78.90972137451172,28.37,2
-0.331443727016449,-0.840595006942749,0.1192104071378707,-46.04448318481445,1.3187164068222046,78.90982055664062,28.37,2
-0.2966681122779846,-0.8249319791793823,0.1548712253570556,-49.310184478759766,1.315118670463562,78.9098892211914,28.37,2
-0.2799489200115204,-0.8260759115219116,0.1833540499210357,-50.43862915039063,1.3128098249435425,78.90992736816406,28.37,2
-0.2860128283500671,-0.838005542755127,0.2184260189533233,-48.9165267944336,1.3113281726837158,78.90995788574219,28.37,2
-0.2955020666122436,-0.8456613421440125,0.2409331798553466,-44.04188537597656,1.3103772401809692,78.90997314453125,28.37,2
-0.3071894645690918,-0.8729654550552368,0.2497792094945907,-36.20253372192383,1.3097670078277588,78.90998077392578,28.37,2
-0.3202875554561615,-0.9016832113265992,0.2610538601875305,-26.646896362304688,1.3093754053115845,78.90998840332031,28.37,2
-0.3230953812599182,-0.9369059205055236,0.2738870680332184,-16.87116050720215,1.3091241121292114,78.90999603271484,28.37,2
-0.3081039488315582,-0.9819009304046632,0.25413379073143,-8.333466529846191,1.308044672012329,78.90999603271484,28.37,2
-0.2872877717018127,-1.016373872756958,0.224663957953453,-1.5289138555526731,1.3073519468307495,78.90999603271484,28.37,2
-0.2739291489124298,-1.0720833539962769,0.1665674895048141,4.675718307495117,1.3069074153900146,78.90999603271484,28.37,2
-0.3269318640232086,-1.169409990310669,0.1460778415203094,11.523554801940918,1.30662202835083,78.90999603271484,28.37,2
-0.4057281613349914,-1.153499722480774,0.1441243141889572,18.42232322692871,1.30643892288208,78.90999603271484,28.37,2
-0.4395017623901367,-1.0593228340148926,0.1036862358450889,23.612642288208008,1.306321382522583,78.90999603271484,28.37,2
-0.4611757099628448,-1.116438865661621,0.0721376314759254,26.309375762939453,1.306246042251587,78.90999603271484,28.37,2
-0.4582914710044861,-1.1978747844696045,0.051891554147005,27.301973342895508,1.3061976432800293,78.90999603271484,28.37,2
-0.389267235994339,-1.1213868856430054,0.0556921102106571,27.72042655944824,1.3112162351608276,78.95657348632812,28.37,2
-0.3113848268985748,-1.0387146472930908,0.069326639175415,28.114356994628903,1.314436912536621,78.98646545410156,28.37,2
-0.2670021653175354,-0.9800626635551452,0.0668809413909912,28.7827377319336,1.3165037631988523,79.00564575195312,28.37,2
-0.2497154623270034,-0.9480209350585938,0.0597136616706848,30.1789608001709,1.3178300857543943,79.01795196533203,28.37,2
-0.2442196309566497,-0.9162628650665284,0.0383207909762859,32.493675231933594,1.318681240081787,79.02584838867188,28.37,2
-0.2406927198171615,-0.8958823680877686,0.0245920773595571,35.272438049316406,1.3192274570465088,79.03092193603516,28.37,2
-0.221636027097702,-0.8604122400283813,0.021379554644227,37.51425552368164,1.3195780515670776,79.03417205810547,28.37,2
-0.19821098446846,-0.8544428944587708,0.0417090393602848,37.645286560058594,1.31980299949646,79.03626251220703,28.37,2
-0.1887759119272232,-0.8674054145812988,0.0491575598716735,33.81361770629883,1.318570256233215,79.03760528564453,28.37,2
-0.1939165741205215,-0.864528477191925,0.053937591612339,25.47566795349121,1.3177791833877563,79.03845977783203,28.37,2
-0.1972155570983886,-0.8570844531059265,0.0737984627485275,14.177776336669922,1.3172714710235596,79.03900909423828,28.37,2
-0.2049304395914077,-0.9082850217819214,0.0809462517499923,1.6538876295089722,1.3169456720352173,79.03936767578125,28.37,2
-0.2042836248874664,-1.0810869932174685,0.068739965558052,-11.72126007080078,1.3167365789413452,79.03959655761719,28.37,2
-0.2430529594421386,-1.1751879453659058,0.0553089007735252,-25.42416000366211,1.316602349281311,79.03974151611328,28.37,2
-0.2903239727020263,-1.1124255657196045,0.0690807178616523,-37.52819061279297,1.3165162801742554,79.03983306884766,28.37,2
-0.3486486673355102,-1.1169304847717283,0.0667231231927871,-46.20225524902344,1.3164609670639038,79.0398941040039,28.37,2
-0.3860780894756317,-1.075039267539978,0.0540146082639694,-50.90895080566406,1.3145893812179563,79.03993225097656,28.31,2
-0.3989025950431824,-0.9641892910003662,0.0234679169952869,-51.89095306396485,1.3133883476257324,79.03995513916016,28.31,2
-0.3959370851516723,-0.8650632500648499,0.0150603586807847,-49.75897979736328,1.3126176595687866,79.03997039794922,28.31,2
-0.4276206493377685,-0.8070476651191711,0.0152626456692814,-44.99093627929688,1.3121230602264404,79.03997802734375,28.31,2
-0.4703444242477417,-0.8034032583236694,0.0097946878522634,-37.40270614624024,1.3118056058883667,79.03998565673828,28.31,2
-0.4921643137931824,-0.8122600317001343,0.0062856669537723,-27.15915298461914,1.3116018772125244,79.03999328613281,28.31,2
-0.4893737435340881,-0.8123459815979004,0.0264248773455619,-16.08571434020996,1.3114711046218872,79.03999328613281,28.31,2
-0.4875828921794891,-0.823596715927124,0.0561423860490322,-6.571928977966309,1.3113871812820437,79.03999328613281,28.31,2
-0.4920314252376556,-0.8588056564331055,0.0864089205861091,0.6763128638267517,1.3072019815444946,79.03999328613281,28.31,2
-0.4892884492874145,-0.9093896150588988,0.1058322414755821,6.846828460693359,1.3045161962509155,79.03999328613281,28.31,2
-0.4819304049015045,-0.9866336584091188,0.1350903362035751,12.977750778198242,1.3027925491333008,79.03999328613281,28.31,2
-0.505197286605835,-1.086584448814392,0.1594642698764801,18.621112823486328,1.301686406135559,79.03999328613281,28.31,2
-0.5257264375686646,-1.122738242149353,0.1751060634851455,23.0129508972168,1.3009765148162842,79.03999328613281,28.31,2
-0.4997164309024811,-1.1851240396499634,0.1851440668106079,26.34368896484375,1.3005210161209106,79.03999328613281,28.31,2
-0.438242495059967,-1.2531485557556152,0.1579992324113845,28.796430587768555,1.300228714942932,79.03999328613281,28.31,2
-0.3708032071590423,-1.2688138484954834,0.1517747789621353,29.44257354736328,1.3000410795211792,79.03999328613281,28.31,2
-0.3051334619522095,-1.1781070232391355,0.1477802842855453,27.356592178344727,1.3012977838516235,79.14389038085938,28.31,2
-0.2517948448657989,-1.0975055694580078,0.1340212970972061,23.076635360717773,1.302104353904724,79.21056365966797,28.31,2
-0.2455540597438812,-1.0233889818191528,0.0916049256920814,18.40616226196289,1.3026219606399536,79.25335693359375,28.31,2
-0.2527446150779724,-0.95343416929245,0.0531889945268631,15.233375549316406,1.302954077720642,79.28081512451172,28.31,2
-0.257359117269516,-0.908541202545166,0.0117425378412008,14.225462913513184,1.3031672239303589,79.2984390258789,28.31,2
-0.2435271143913269,-0.8349493145942688,-0.0148554136976599,14.280826568603516,1.3033039569854736,79.30974578857422,28.31,2
-0.2290527522563934,-0.7709289193153381,-0.031924445182085,13.961681365966797,1.3033918142318726,79.31700134277344,28.31,2
-0.2141661643981933,-0.7522354125976562,-0.0372805930674076,13.133503913879396,1.30344820022583,79.3216552734375,28.31,2
-0.2270039021968841,-0.7570323348045349,-0.0519134104251861,12.265265464782717,1.3076157569885254,79.32464599609375,28.31,2
-0.246437981724739,-0.7713062763214111,-0.0557061359286308,11.346240043640137,1.3102902173995972,79.3265609741211,28.31,2
-0.2589096426963806,-0.8364441990852356,-0.0637378618121147,10.240571022033691,1.312006592750549,79.32779693603516,28.31,2
-0.2445221543312072,-0.911832630634308,-0.0800877138972282,8.470574378967285,1.313107967376709,79.3285903930664,28.31,2
-0.240886852145195,-1.1449391841888428,-0.1017756536602974,4.518787384033203,1.3138148784637451,79.32909393310547,28.31,2
-0.2777383625507355,-1.148991346359253,-0.0933026298880577,-2.77848482131958,1.3142684698104858,79.32942199707031,28.31,2
-0.2901919782161712,-1.1180051565170288,-0.0654740333557128,-12.394660949707031,1.3145595788955688,79.32962799072266,28.31,2
-0.3149773180484772,-1.1261088848114014,-0.0420174673199653,-21.65753173828125,1.314746379852295,79.32976531982422,28.31,2
-0.342078685760498,-1.0921249389648438,-0.0325621664524078,-28.150043487548828,1.3107348680496216,79.32984924316406,28.37,2
-0.3650685548782348,-1.0143382549285889,-0.0488853976130485,-31.360015869140625,1.3081605434417725,79.32990264892578,28.37,2
-0.3630287945270538,-0.9308326244354248,-0.0593607053160667,-33.19070816040039,1.3065084218978882,79.32994079589844,28.37,2
-0.3617197871208191,-0.8604502081871033,-0.0268987342715263,-35.447479248046875,1.3054481744766235,79.32996368408203,28.37,2
-0.3944664001464844,-0.8208805918693542,-0.0116642853245139,-36.318946838378906,1.3047678470611572,79.3299789428711,28.37,2
-0.415481299161911,-0.8066826462745667,-0.0130832409486174,-31.615402221679688,1.3043311834335327,79.32998657226562,28.37,2
-0.4401629865169525,-0.7975711822509766,-0.0027982962783426,-20.718854904174805,1.3040509223937988,79.32999420166016,28.37,2
-0.45600226521492,-0.808517336845398,0.0205953121185302,-8.993494987487793,1.3038711547851562,79.32999420166016,28.37,2
-0.4717647731304168,-0.8491286039352417,0.0524013079702854,-2.543606996536255,1.2996243238449097,79.32999420166016,28.37,2
-0.4594891667366028,-0.8975816369056702,0.0728125646710395,-2.320194959640503,1.2968989610671997,79.32999420166016,28.37,2
-0.4516113698482513,-0.9566648602485656,0.0971068814396858,-4.895997047424316,1.2951499223709106,79.32999420166016,28.37,2
-0.4577514231204986,-1.0505588054656982,0.157479777932167,-6.928751468658447,1.29402756690979,79.32999420166016,28.37,2
-0.4728873074054718,-1.088423490524292,0.2018214017152786,-6.807391166687012,1.2933073043823242,79.32999420166016,28.37,2
-0.4490139782428741,-1.1575050354003906,0.2134839743375778,-3.838370323181152,1.2928450107574463,79.32999420166016,28.37,2
-0.3721179366111755,-1.2466198205947876,0.187381699681282,1.5599870681762695,1.292548418045044,79.32999420166016,28.37,2
-0.3115749359130859,-1.2758196592330933,0.1650329828262329,7.496318817138672,1.2923580408096311,79.32999420166016,28.37,2
-0.272721916437149,-1.2105917930603027,0.1562886387109756,12.459505081176758,1.2945308685302734,79.42672729492188,28.37,2
-0.2477882951498031,-1.1183524131774902,0.1338836997747421,17.15643882751465,1.295925259590149,79.48880004882812,28.37,2
-0.242982879281044,-1.0535606145858765,0.1139077246189117,23.047468185424805,1.2968201637268066,79.52864074707031,28.37,2
-0.2454968094825744,-1.0119810104370115,0.0786971971392631,29.482681274414062,1.2973943948745728,79.55420684814453,28.37,2
-0.2471101135015487,-0.962906539440155,0.0449055582284927,33.96710586547852,1.2977628707885742,79.57061004638672,28.37,2
-0.2369498908519745,-0.8978267312049866,0.0344155766069889,35.286529541015625,1.297999382019043,79.58113861083984,28.37,2
-0.2136363238096237,-0.8280733823776245,0.0332814864814281,34.8936882019043,1.2981511354446411,79.58789825439453,28.37,2
-0.1986750066280365,-0.7665163278579712,0.0269559174776077,34.555606842041016,1.298248529434204,79.59223175048828,28.37,2
-0.2058670222759246,-0.7605992555618286,0.0284943059086799,33.90873336791992,1.30244243144989,79.59501647949219,28.37,2
-0.2160802185535431,-0.7735953330993652,0.0182860046625137,31.32615089416504,1.305133819580078,79.5968017578125,28.37,2
-0.2282322347164154,-0.781935453414917,0.0005393563769757,25.817527770996094,1.3068610429763794,79.59794616699219,28.37,2
-0.2248351573944091,-0.8936453461647034,-0.038838293403387,16.933626174926758,1.3079694509506226,79.59867858886719,28.37,2
-0.2394484281539917,-1.054898738861084,-0.0753041505813598,4.346737861633301,1.308680772781372,79.59915161132812,28.37,2
-0.3327929973602295,-1.1359907388687134,-0.0931080654263496,-10.924612998962402,1.309137225151062,79.59945678710938,28.37,2
-0.3759028613567352,-1.137650966644287,-0.0933380424976348,-25.826475143432617,1.3094302415847778,79.59964752197266,28.37,2
-0.3307971954345703,-1.1946941614151,-0.0654967576265335,-36.93372344970703,1.3096182346343994,79.59976959228516,28.37,2
-0.3130465447902679,-1.175323486328125,-0.0420320481061935,-43.02635192871094,1.3079028129577637,79.599853515625,28.37,2
-0.3240462839603424,-1.0621325969696045,-0.054962620139122,-46.226898193359375,1.3068019151687622,79.59990692138672,28.37,2
-0.3423008322715759,-0.9503087401390076,-0.0744562670588493,-50.22616195678711,1.3060954809188845,79.59993743896484,28.37,2
-0.370808869600296,-0.8785465955734253,-0.075770616531372,-55.834266662597656,1.3056421279907229,79.59996032714844,28.37,2
-0.4058970212936401,-0.8380915522575378,-0.0598207674920558,-58.54833221435547,1.3053511381149292,79.5999755859375,28.37,2
-0.4340123534202575,-0.8177276253700256,-0.0551828481256961,-52.84188461303711,1.305164456367493,79.59998321533203,28.37,2
-0.4576529264450073,-0.8046592473983765,-0.0354131758213043,-39.0017204284668,1.305044651031494,79.59999084472656,28.37,2
-0.4728240966796875,-0.8242616057395935,0.0052627343684434,-23.60677528381348,1.304967761039734,79.59999084472656,28.37,2
-0.4825600683689117,-0.8536345958709717,0.031366191804409,-12.878116607666016,1.301245927810669,79.59999084472656,28.37,2
-0.4832102954387665,-0.8948755860328674,0.0425201132893562,-7.601657390594482,1.2988574504852295,79.59999084472656,28.37,2
-0.4836275577545166,-0.9325371980667114,0.0608736090362072,-4.892636299133301,1.2973246574401855,79.59999084472656,28.37,2
-0.5174819827079773,-1.02947735786438,0.1062384694814682,-2.494948625564575,1.296341061592102,79.59999084472656,28.37,2
-0.5392078161239624,-1.0357102155685425,0.1577421277761459,0.3549717962741852,1.2957098484039309,79.59999084472656,28.37,2
-0.5419546365737915,-1.067698955535889,0.1907942146062851,4.340597152709961,1.295304775238037,79.59999084472656,28.37,2
-0.5269240736961365,-1.1498030424118042,0.2008095830678939,9.5745267868042,1.2950447797775269,79.59999084472656,28.37,2
-0.511680543422699,-1.2024927139282229,0.1960413306951522,14.527606964111328,1.2948778867721558,79.59999084472656,28.37,2
-0.4123337268829345,-1.1579370498657229,0.2377635240554809,17.9605712890625,1.2952301502227783,79.67522430419922,28.37,2
-0.4045564234256744,-1.0789637565612793,0.2085606902837753,21.29216194152832,1.2954561710357666,79.7235107421875,28.37,2
-0.3827720582485199,-1.0058921575546265,0.1842222213745117,26.7189884185791,1.29560124874115,79.7544937133789,28.37,2
-0.3799876570701599,-0.9366079568862916,0.1294187605381012,33.52266311645508,1.295694351196289,79.77437591552734,28.37,2
-0.3670052289962768,-0.8809497952461243,0.0998468324542045,38.46208190917969,1.295754075050354,79.78713989257812,28.37,2
-0.3306849896907806,-0.8228405117988586,0.0808692723512649,39.74031448364258,1.2957923412322998,79.79532623291016,28.37,2
-0.3017789721488952,-0.7799515128135681,0.0686905682086944,38.6224365234375,1.2958168983459473,79.80058288574219,28.37,2
-0.2776309847831726,-0.7636233568191528,0.0608749762177467,37.04881286621094,1.2958327531814575,79.803955078125,28.37,2
-0.2957208454608917,-0.781133770942688,0.0502616055309772,35.40483474731445,1.2976789474487305,79.80612182617188,28.37,2
-0.3129276633262634,-0.80916428565979,0.0378527790307998,32.88813400268555,1.2988637685775757,79.80751037597656,28.37,2
-0.3239699900150299,-0.8495437502861023,0.0354872830212116,28.747344970703125,1.2996240854263306,79.80840301513672,28.37,2
-0.3142630159854889,-0.95942360162735,0.0283714700490236,22.46087646484375,1.300112009048462,79.80897521972656,28.37,2
-0.3024358451366424,-1.097111463546753,0.0126094026491045,13.49695873260498,1.3004251718521118,79.80934143066406,28.37,2
-0.334030270576477,-1.151884913444519,0.0192875377833843,2.2021875381469727,1.3006261587142944,79.80957794189453,28.37,2
-0.3543057739734649,-1.0918731689453125,0.0403665043413639,-9.370315551757812,1.3007551431655884,79.80973052978516,28.37,2
-0.3449263274669647,-1.0813499689102173,0.0482959970831871,-18.871192932128903,1.3008378744125366,79.80982971191406,28.37,2
-0.3557004332542419,-1.0689990520477295,0.0421891398727893,-26.00725746154785,1.3018091917037964,79.80989074707031,28.39,2
-0.3682124316692352,-1.0274863243103027,0.0382701121270656,-32.628841400146484,1.3024325370788574,79.80992889404297,28.39,2
-0.3818396925926208,-0.9224769473075868,0.04135287925601,-40.30313491821289,1.3028324842453003,79.80995178222656,28.39,2
-0.3793893158435821,-0.849490225315094,0.0601245425641536,-47.79317855834961,1.3030891418457031,79.80996704101562,28.39,2
-0.400207906961441,-0.8026515245437622,0.0777688920497894,-51.06651306152344,1.3032538890838623,79.80997467041016,28.39,2
-0.4303613901138305,-0.8229731321334839,0.1170808896422386,-46.71493148803711,1.3033596277236938,79.80998229980469,28.39,2
-0.4609077274799347,-0.8472099304199219,0.1479068398475647,-35.57493591308594,1.3034274578094482,79.80998992919922,28.39,2
-0.4693150520324707,-0.8179815411567688,0.1732869446277618,-22.16716957092285,1.3034709692001345,79.80998992919922,28.39,2
-0.4803081750869751,-0.816017746925354,0.1895744353532791,-10.915313720703123,1.3021217584609983,79.80998992919922,28.39,2
-0.5209495425224304,-0.8595396876335144,0.1664401590824127,-3.708850145339966,1.3012559413909912,79.80998992919922,28.39,2
-0.5582264065742493,-0.9210562109947203,0.1571916788816452,-0.065782755613327,1.300700306892395,79.80998992919922,28.39,2
-0.5541597008705139,-0.9605339765548706,0.1512565463781356,1.5520304441452026,1.3003437519073486,79.80998992919922,28.39,2
-0.5627454519271851,-0.9802707433700562,0.1362521648406982,2.686979293823242,1.3001148700714111,79.80998992919922,28.39,2
-0.6074396967887878,-1.0601099729537964,0.1322209984064102,4.479349136352539,1.2999680042266846,79.80998992919922,28.39,2
-0.6920996308326721,-1.088955044746399,0.1128406971693039,7.105610370635986,1.2998738288879397,79.80998992919922,28.39,2
-0.6512673497200012,-1.073879599571228,0.0556213408708572,9.597073554992676,1.2998133897781372,79.80998992919922,28.39,2
-0.6194657683372498,-1.1033893823623655,0.0189012512564659,11.51121711730957,1.3011517524719238,79.87805938720703,28.39,2
-0.6046551465988159,-1.1447181701660156,0.000934186275117,14.426997184753418,1.3020106554031372,79.92174530029297,28.39,2
-0.5615638494491577,-1.1264584064483645,-0.0161938164383173,20.02047348022461,1.3025617599487305,79.94978332519531,28.39,2
-0.4555415213108063,-1.053164839744568,-0.0159900337457656,27.235610961914062,1.3029154539108276,79.9677734375,28.39,2
-0.3875024914741516,-0.9949337244033812,-0.043848130851984,32.77584457397461,1.3031424283981323,79.97931671142578,28.39,2
-0.3606322705745697,-0.9519665837287904,-0.089714728295803,34.092140197753906,1.3032881021499634,79.98672485351562,28.39,2
-0.3769751787185669,-0.9187949299812316,-0.135942593216896,31.494007110595703,1.3033815622329712,79.9914779663086,28.39,2
-0.3818653225898742,-0.8863117694854736,-0.1656089723110199,27.30095863342285,1.3034415245056152,79.9945297241211,28.39,2
-0.3738079965114593,-0.8598681688308716,-0.1902449280023574,22.94778633117676,1.3007256984710691,79.99649047851562,28.39,2
-0.3742350339889526,-0.8652892708778381,-0.1892615407705307,17.950885772705078,1.298982858657837,79.99774932861328,28.39,2
-0.3689113259315491,-0.8743659853935242,-0.183032676577568,11.655982971191406,1.2978644371032717,79.9985580444336,28.39,2
-0.3431037664413452,-0.9025819897651672,-0.1622420251369476,3.979962348937988,1.2971466779708862,79.99907684326172,28.39,2
-0.3265419602394104,-0.965471625328064,-0.1265086829662323,-5.180669784545898,1.296686053276062,79.99940490722656,28.39,2
-0.3215113282203674,-0.9946349859237672,-0.0699904412031173,-15.028929710388184,1.296390414237976,79.99961853027344,28.39,2
-0.3070873916149139,-0.9237859845161438,-0.0113291898742318,-23.36238479614257,1.2962007522583008,79.999755859375,28.39,2
-0.2978309392929077,-0.9175035953521729,0.0319139994680881,-28.57059669494629,1.2960790395736694,79.99983978271484,28.39,2
-0.3142817914485931,-0.9526563286781312,0.0708605423569679,-30.88472557067871,1.295082688331604,79.9999008178711,28.37,2
-0.3360345363616943,-0.9584220051765442,0.101451963186264,-31.52073097229004,1.2944433689117432,79.99993896484375,28.37,2
-0.3443964421749115,-0.9229376912117004,0.1378770917654037,-31.96470832824707,1.2940330505371094,79.99996185302734,28.37,2
-0.3329693078994751,-0.9113613963127136,0.1556548774242401,-32.9697265625,1.2937697172164917,79.9999771118164,28.37,2
-0.3368315696716308,-0.9207257628440856,0.1726614087820053,-32.96623992919922,1.2936006784439087,79.99998474121094,28.37,2
-0.3672990202903747,-0.9379308223724364,0.2059663236141204,-29.241708755493164,1.2934921979904177,79.99999237060547,28.37,2
-0.3924490511417389,-0.937776505947113,0.2273394912481308,-21.509899139404297,1.2934225797653198,79.99999237060547,28.37,2
-0.4253822267055511,-0.9096885919570924,0.2298600226640701,-12.521252632141112,1.2933779954910278,79.99999237060547,28.37,2
-0.4353212714195251,-0.9140544533729552,0.2370753288269043,-4.929325580596924,1.2928904294967651,79.99999237060547,28.37,2
-0.4416995942592621,-0.9168562293052672,0.2305101454257965,0.6914938688278198,1.2925775051116943,79.99999237060547,28.37,2
-0.4681839346885681,-0.9522408843040466,0.2039058804512024,5.0294575691223145,1.2923766374588013,79.99999237060547,28.37,2
-0.4907778203487396,-0.9917420744895936,0.1812350302934646,8.981232643127441,1.2922477722167969,79.99999237060547,28.37,2
-0.5164728164672852,-1.045080542564392,0.127501755952835,13.22256088256836,1.2921650409698486,79.99999237060547,28.37,2
-0.5665490627288818,-1.1856677532196045,0.0706277415156364,17.929147720336914,1.2921119928359983,79.99999237060547,28.37,2
-0.621076226234436,-1.21431303024292,0.0341292694211006,22.6369571685791,1.292077898979187,79.99999237060547,28.37,2
-0.588895320892334,-1.1039471626281738,-0.0172822177410125,26.47856903076172,1.2920560836791992,79.99999237060547,28.37,2
-0.5458523631095886,-1.077902913093567,-0.0614707022905349,28.85433006286621,1.297091364860535,80.0394058227539,28.37,2
-0.5574142932891846,-1.0891780853271484,-0.0954261049628257,29.75558853149414,1.300322651863098,80.064697265625,28.37,2
-0.5424429774284363,-1.034838318824768,-0.1172167286276817,29.671186447143555,1.3023964166641235,80.08092498779297,28.37,2
-0.5048463344573975,-0.9831728339195251,-0.131200686097145,29.745994567871094,1.303727149963379,80.09133911132812,28.37,2
-0.4359368085861206,-0.9668101668357848,-0.1513703465461731,31.019243240356445,1.3045811653137207,80.0980224609375,28.37,2
-0.3917146325111389,-0.9339184761047364,-0.1699118465185165,32.73198699951172,1.3051292896270752,80.10231018066406,28.37,2
-0.37453094124794,-0.9184082746505736,-0.1874084770679474,33.01071548461914,1.30548095703125,80.10506439208984,28.37,2
-0.3523078858852386,-0.902856945991516,-0.2098323702812194,31.444873809814453,1.3057066202163696,80.1068344116211,28.37,2
-0.3380464017391205,-0.9096702933311462,-0.2186249494552612,29.003393173217773,1.3044743537902832,80.10797119140625,28.37,2
-0.3400897681713104,-0.9476293921470642,-0.2018764317035675,25.706207275390625,1.303683519363403,80.10869598388672,28.37,2
-0.341401070356369,-0.9663915634155272,-0.1799326390028,20.14740943908692,1.3031760454177856,80.10916137695312,28.37,2
-0.3310470581054687,-0.9840298295021056,-0.1490570604801178,10.99843978881836,1.302850365638733,80.10945892333984,28.37,2
-0.3188046514987945,-1.0513267517089844,-0.1068517938256263,-1.4432861804962158,1.3026413917541504,80.10964965820312,28.37,2
-0.3109481930732727,-1.05532968044281,-0.0685713291168212,-15.156208992004396,1.3025072813034058,80.10977172851562,28.37,2
-0.3059063553810119,-1.0019207000732422,-0.0216140337288379,-28.133657455444336,1.30242121219635,80.10985565185547,28.37,2
-0.3250618875026703,-0.9900370240211488,0.0197160020470619,-39.43537521362305,1.3023658990859983,80.10990905761719,28.37,2
-0.3597459197044372,-0.9544219374656676,0.0630325675010681,-48.483036041259766,1.3004944324493408,80.10993957519531,28.35,2
-0.3820041418075561,-0.9147728681564332,0.1020261943340301,-54.91267013549805,1.2992933988571167,80.1099624633789,28.35,2
-0.3738970756530761,-0.8949261903762817,0.1382456123828888,-58.917030334472656,1.298522710800171,80.10997772216797,28.35,2
-0.3407055735588074,-0.8933852314949036,0.1726846992969513,-60.39769744873047,1.2980281114578247,80.1099853515625,28.35,2
-0.3194051682949066,-0.8867985606193542,0.2115790396928787,-58.46751403808594,1.297710657119751,80.10999298095703,28.35,2
-0.3337246775627136,-0.8993649482727051,0.2477347403764724,-52.58939743041992,1.2975069284439087,80.10999298095703,28.35,2
-0.3653051853179931,-0.907429337501526,0.2597418427467346,-43.3250732421875,1.2973761558532717,80.10999298095703,28.35,2
-0.3799739778041839,-0.9238001704216005,0.2562517523765564,-31.737205505371094,1.2972922325134275,80.10999298095703,28.35,2
-0.35020312666893,-0.934306025505066,0.2596097886562347,-18.76928329467773,1.2944841384887695,80.10999298095703,28.35,2
-0.3255001604557037,-0.9466458559036256,0.261764794588089,-5.535504817962647,1.2926820516586304,80.10999298095703,28.35,2
-0.3544293940067291,-0.9713581800460817,0.2239633202552795,6.579155921936035,1.2915256023406982,80.10999298095703,28.35,2
-0.4233744740486145,-0.959228217601776,0.1605200916528701,16.739643096923828,1.290783405303955,80.10999298095703,28.35,2
-0.4788150191307068,-0.945846140384674,0.0918170064687728,25.08717155456543,1.2903071641921997,80.10999298095703,28.35,2
-0.5703713297843933,-1.0548115968704224,0.0309339966624975,31.97031211853028,1.2900015115737915,80.10999298095703,28.35,2
-0.6907023787498474,-1.1135437488555908,-0.0025394398253411,37.14702224731445,1.2898054122924805,80.10999298095703,28.35,2
-0.7455328702926636,-1.0784636735916138,-0.085596278309822,39.90667343139648,1.2896795272827148,80.10999298095703,28.35,2
-0.7471332550048828,-1.1007333993911743,-0.1277018338441848,39.94369125366211,1.2978615760803225,79.97027587890625,28.35,2
-0.7145736217498779,-1.0926337242126465,-0.1323316544294357,38.12958526611328,1.3031123876571655,79.880615234375,28.35,2
-0.6209076642990112,-1.0090670585632324,-0.1129117086529731,35.91928482055664,1.3064820766448977,79.82307434082031,28.35,2
-0.5496026873588562,-0.933047652244568,-0.1116446554660797,34.03868865966797,1.3086445331573486,79.78614807128906,28.35,2
-0.509441077709198,-0.8898605704307556,-0.1276248544454574,32.45566177368164,1.3100322484970093,79.762451171875,28.35,2
-0.4892654120922088,-0.8621455430984497,-0.1658689081668853,30.884464263916016,1.3109227418899536,79.74724578857422,28.35,2
-0.4707200527191162,-0.8555551767349243,-0.1960095018148422,28.46820831298828,1.31149423122406,79.73748779296875,28.35,2
-0.4588187038898468,-0.8625214099884033,-0.2265475541353225,24.3488883972168,1.3118610382080078,79.7312240600586,28.35,2
-0.4511811137199402,-0.8837853074073792,-0.2405473440885543,19.269193649291992,1.3088831901550293,79.72720336914062,28.35,2
-0.4574753046035766,-0.925420105457306,-0.2159449607133865,14.662290573120115,1.3069721460342407,79.72462463378906,28.35,2
-0.4447212219238281,-0.9633344411849976,-0.1721676886081695,9.778419494628906,1.3057458400726318,79.72296905517578,28.35,2
-0.4197430610656738,-1.0212523937225342,-0.1384761780500412,2.3415589332580566,1.3049588203430176,79.72190856933594,28.35,2
-0.3813224136829376,-1.0864096879959106,-0.0776704922318458,-7.872922420501709,1.304453730583191,79.72122192382812,28.35,2
-0.3398729264736175,-0.9938772320747375,-0.005062258336693,-18.924121856689453,1.3041296005249023,79.72078704833984,28.35,2
-0.3132730424404144,-0.9456908106803894,0.0359357558190822,-29.58439064025879,1.3039215803146362,79.72050476074219,28.35,2
-0.3129960894584656,-0.948354184627533,0.0790392458438873,-39.42057037353516,1.3037880659103394,79.72032165527344,28.35,2
-0.3240139186382293,-0.9388678073883056,0.1122983545064926,-47.07274627685547,1.3000298738479614,79.72020721435547,28.37,2
-0.3142912089824676,-0.8879978060722351,0.1392399072647094,-51.18814086914063,1.2976181507110596,79.72013092041016,28.37,2
-0.2856606245040893,-0.8385590314865112,0.1621272265911102,-52.202674865722656,1.2960704565048218,79.72008514404297,28.37,2
-0.2728849351406097,-0.823625385761261,0.1768149882555008,-51.37055969238281,1.295077204704285,79.72005462646484,28.37,2
-0.2814795672893524,-0.8420307040214539,0.1918385177850723,-48.780155181884766,1.2944397926330566,79.72003173828125,28.37,2
-0.2925928831100464,-0.865037739276886,0.1902842074632644,-43.32741928100586,1.294030785560608,79.72002410888672,28.37,2
-0.305322527885437,-0.8798023462295532,0.1948845237493515,-34.48654556274414,1.293768286705017,79.72001647949219,28.37,2
-0.3134916722774505,-0.894875168800354,0.2034345120191574,-23.40329360961914,1.2935998439788818,79.72000885009766,28.37,2
-0.3243319392204284,-0.9101458191871644,0.2145191729068756,-12.016688346862791,1.2902785539627075,79.72000885009766,28.37,2
-0.3480819165706634,-0.9367389678955078,0.2272304445505142,-1.7824561595916748,1.2881470918655396,79.72000885009766,28.37,2
-0.3577255308628082,-0.9761960506439208,0.2241922616958618,6.587320327758789,1.286779284477234,79.72000885009766,28.37,2
-0.3583164513111114,-1.0183106660842896,0.2110469788312912,13.180219650268556,1.285901427268982,79.72000885009766,28.37,2
-0.3698912262916565,-1.0565329790115356,0.1858177781105041,18.80836677551269,1.2853381633758545,79.72000885009766,28.37,2
-0.3941125869750976,-1.1482350826263428,0.1584315747022628,24.003686904907227,1.284976601600647,79.72000885009766,28.37,2
-0.4488408863544464,-1.0671398639678955,0.1184655874967575,28.32295227050781,1.2847446203231812,79.72000885009766,28.37,2
-0.4783645868301391,-1.0150976181030271,0.0928177163004875,31.11988639831543,1.2845957279205322,79.72000885009766,28.37,2
-0.4861156344413757,-1.0992531776428225,0.0819561630487442,32.4096565246582,1.2835819721221924,79.59461975097656,28.37,2
-0.4910898208618164,-1.1644549369812012,0.0637902989983558,32.592491149902344,1.2829314470291138,79.51415252685547,28.37,2
-0.4327064454555511,-1.1055376529693604,0.0633280426263809,32.02555084228516,1.282513976097107,79.46250915527344,28.37,2
-0.3616527020931244,-1.0285435914993286,0.0686291679739952,31.25689125061035,1.2822459936141968,79.42936706542969,28.37,2
-0.3216522634029388,-0.995926558971405,0.0552377998828887,31.078876495361328,1.2820740938186646,79.40809631347656,28.37,2
-0.3071778416633606,-0.9749947786331176,0.0186551176011562,31.874610900878903,1.2819637060165403,79.39444732666016,28.37,2
-0.2866934537887573,-0.95036643743515,-0.0160170923918485,33.04446029663086,1.2818928956985474,79.38568878173828,28.37,2
-0.2231677770614624,-0.9289636015892028,-0.038267720490694,33.45127487182617,1.2818474769592283,79.38006591796875,28.37,2
-0.1768028736114502,-0.892837405204773,-0.0301557946950197,32.22199630737305,1.2836543321609497,79.37645721435547,28.37,2
-0.1526463329792022,-0.8696537017822266,-0.013754479587078,28.88232040405273,1.2848138809204102,79.3741455078125,28.37,2
-0.1483395993709564,-0.9051557183265686,-0.0200223829597234,23.19952392578125,1.285557985305786,79.3726577758789,28.37,2
-0.1511735618114471,-0.9279388785362244,-0.0296425353735685,15.17830753326416,1.2860355377197266,79.3717041015625,28.37,2
-0.1753833293914795,-0.948157548904419,-0.0134250978007912,4.699880599975586,1.2863420248031616,79.37109375,28.37,2
-0.1517353504896164,-1.0618926286697388,-0.0030176809523254,-8.48753833770752,1.2865387201309204,79.3707046508789,28.37,2
-0.1645483076572418,-1.162870168685913,0.0316500701010227,-23.36327362060547,1.286664962768555,79.37045288085938,28.37,2
-0.2063575685024261,-1.1045206785202026,0.0818867161870002,-36.64270782470703,1.2867459058761597,79.37029266357422,28.37,2
-0.2275905758142471,-1.0726730823516846,0.1141256988048553,-44.97838973999024,1.2858800888061523,79.37018585205078,28.35,2
-0.3139877617359161,-1.1250061988830566,0.1012281775474548,-48.26777267456055,1.2853244543075562,79.3701171875,28.35,2
-0.3638347387313843,-1.0354396104812622,0.0817557424306869,-49.346923828125,1.2849678993225098,79.37007904052734,28.35,2
-0.390225887298584,-0.9387764930725098,0.0636616796255111,-50.39055633544922,1.2847390174865725,79.37004852294922,28.35,2
-0.4071621894836426,-0.8431569933891296,0.0632454976439476,-50.877586364746094,1.2845921516418457,79.37003326416016,28.35,2
-0.4404220283031463,-0.787391722202301,0.0573806427419185,-48.940277099609375,1.284497857093811,79.37002563476562,28.35,2
-0.4729618430137634,-0.7739958763122559,0.0368235930800437,-43.56989669799805,1.2844374179840088,79.3700180053711,28.35,2
-0.4938440024852752,-0.7709969282150269,0.0180334877222776,-35.51630401611328,1.2843985557556152,79.37001037597656,28.35,2
-0.4960494339466095,-0.7802679538726807,0.0227684024721384,-26.77614402770996,1.278865098953247,79.37001037597656,28.35,2
-0.5030625462532043,-0.8142064213752747,0.0426003225147724,-18.996171951293945,1.2753139734268188,79.37001037597656,28.35,2
-0.5131609439849854,-0.8583772778511047,0.060925081372261,-12.169154167175291,1.2730350494384766,79.37001037597656,28.35,2
-0.5028481483459473,-0.9035168886184692,0.0670870840549469,-5.255086421966553,1.2715725898742676,79.37001037597656,28.35,2
-0.4850344657897949,-0.999658226966858,0.0990303754806518,2.219988346099853,1.2706340551376345,79.37001037597656,28.35,2
-0.4903959929943084,-1.0949428081512451,0.1419208347797393,9.761314392089844,1.2700318098068235,79.37001037597656,28.35,2
-0.4938367009162903,-1.083319902420044,0.1526521444320678,16.811351776123047,1.2696453332901,79.37001037597656,28.35,2
-0.473653644323349,-1.1262409687042236,0.1539411097764969,23.32040786743164,1.269397258758545,79.37001037597656,28.35,2
-0.4215168952941894,-1.1985673904418943,0.1267794221639633,29.299579620361328,1.270155906677246,79.2374496459961,28.35,2
-0.3656674325466156,-1.155418038368225,0.1205441579222679,34.186363220214844,1.2706427574157717,79.15238189697266,28.35,2
-0.3130331635475158,-1.0941405296325684,0.1277382671833038,37.22210693359375,1.270955204963684,79.09779357910156,28.35,2
-0.2792555093765259,-1.0156317949295044,0.104366160929203,38.48600006103516,1.2711557149887085,79.06275939941406,28.35,2
-0.2631767392158508,-0.970847189426422,0.0781717449426651,39.1251335144043,1.2712844610214231,79.04027557373047,28.35,2
-0.2584560811519623,-0.9253136515617372,0.0501661263406276,40.40227508544922,1.271367073059082,79.02584838867188,28.35,2
-0.2386333048343658,-0.8681039810180664,0.0154004078358411,42.4901008605957,1.271420121192932,79.01658630371094,28.35,2
-0.2147166430950164,-0.8257923126220703,-0.0069102286361157,43.998329162597656,1.271454095840454,79.0106430053711,28.35,2
-0.2105638533830642,-0.7986391186714172,-0.0100323613733053,43.22867202758789,1.274689555168152,79.00682830810547,28.35,2
-0.219094380736351,-0.7980071306228638,-0.0176337417215108,40.22694778442383,1.2767658233642578,79.00437927246094,28.35,2
-0.2357643246650695,-0.8311882019042969,-0.044902965426445,36.67412567138672,1.278098225593567,79.0028076171875,28.35,2
-0.2464621365070343,-0.8972640633583069,-0.0680005624890327,33.466243743896484,1.2789533138275146,79.00180053710938,28.35,2
-0.2421318292617797,-0.9956455230712892,-0.094018816947937,29.28314208984375,1.279502034187317,79.00115203857422,28.35,2
-0.2617439925670624,-1.1371499300003052,-0.0827269628643989,21.45408821105957,1.27985417842865,79.00074005126953,28.35,2
-0.2799277305603027,-1.1551882028579712,-0.0642849504947662,8.060956954956055,1.2800801992416382,79.00047302246094,28.35,2
-0.2971947789192199,-1.161166429519653,-0.0692432522773742,-9.81643772125244,1.2802252769470217,79.00030517578125,28.35,2
-0.3418624103069305,-1.1594051122665403,-0.0780229791998863,-28.192745208740234,1.279400110244751,79.00019836425781,28.35,2
-0.376125305891037,-1.102297067642212,-0.089255079627037,-43.46428298950195,1.2788705825805664,79.00012969970703,28.35,2
-0.3701243698596954,-0.9760839939117432,-0.0852676481008529,-54.80876541137695,1.2785307168960571,79.00008392333984,28.35,2
-0.3662733137607574,-0.8838921189308167,-0.0715131908655166,-62.60847473144531,1.2783126831054688,79.00005340576172,28.35,2
-0.3917908072471618,-0.8191309571266174,-0.0570885986089706,-66.03754425048828,1.278172731399536,79.00003051757812,28.35,2
-0.4137642383575439,-0.7887665033340454,-0.0478317253291606,-63.11862564086914,1.2780829668045044,79.0000228881836,28.35,2
-0.4222677648067474,-0.7692803144454956,-0.0362934209406375,-52.53619003295898,1.2780252695083618,79.00001525878906,28.35,2
-0.4333226084709167,-0.7735685706138611,0.0046978420577943,-35.41642761230469,1.277988314628601,79.00000762939453,28.35,2
-0.4404169619083404,-0.7931138277053833,0.0366014502942562,-15.631143569946287,1.2747513055801392,79.00000762939453,28.35,2
-0.4449697136878967,-0.8280479311943054,0.0458797998726367,2.29289174079895,1.2726739645004272,79.00000762939453,28.35,2
-0.4366958439350128,-0.8616622090339661,0.0854207575321197,15.783835411071776,1.2713408470153809,79.00000762939453,28.35,2
-0.425788402557373,-0.883233904838562,0.1051980927586555,24.24808692932129,1.2704854011535645,79.00000762939453,28.35,2
-0.4635708034038543,-1.0258262157440186,0.1570744663476944,27.193649291992188,1.269936442375183,79.00000762939453,28.35,2
-0.5046107172966003,-1.1229314804077148,0.1791701912879943,24.161481857299805,1.269584059715271,79.00000762939453,28.35,2
-0.4525789320468902,-1.1852480173110962,0.1485677659511566,16.569473266601562,1.2693579196929932,79.00000762939453,28.35,2
-0.3520146310329437,-1.2588258981704712,0.1233311146497726,7.975062847137451,1.26921284198761,79.00000762939453,28.35,2
-0.2874782383441925,-1.266859531402588,0.1239290088415145,1.6070122718811035,1.267283320426941,78.8638687133789,28.35,2
-0.2572580575942993,-1.1880483627319336,0.1131171509623527,-1.4156110286712646,1.266045093536377,78.77650451660156,28.35,2
-0.24346224963665,-1.1150808334350586,0.100580945611,-1.2774629592895508,1.2652504444122314,78.7204360961914,28.35,2
-0.2625977694988251,-1.0570589303970337,0.0757426097989082,1.670087814331055,1.2647404670715332,78.68445587158203,28.35,2
-0.2692800760269165,-0.9750416278839112,0.054205022752285,6.699992656707764,1.2644132375717163,78.66136169433594,28.35,2
-0.2567750811576843,-0.9000165462493896,0.0403834395110607,12.217162132263184,1.2642031908035278,78.64654541015625,28.35,2
-0.2207612097263336,-0.8406742215156555,0.0371113158762455,16.19483757019043,1.264068365097046,78.63703918457031,28.35,2
-0.1976495832204818,-0.7969939708709717,0.0294136814773082,17.54015350341797,1.2639819383621216,78.63093566894531,28.35,2
-0.1940134167671203,-0.7913535833358765,0.0300715565681457,16.981216430664062,1.2708121538162231,78.62702178955078,28.35,2
-0.208473265171051,-0.8101249933242798,0.0081026451662182,16.09946632385254,1.2751953601837158,78.62450408935547,28.35,2
-0.2233505249023437,-0.8277691602706909,-0.0115935113281011,15.752147674560549,1.278008222579956,78.62289428710938,28.35,2
-0.2384956777095794,-0.8782765865325928,-0.0410266928374767,15.67614459991455,1.2798134088516235,78.62185668945312,28.35,2
-0.2482149600982666,-0.9554715752601624,-0.0767085403203964,14.563344955444336,1.280971884727478,78.6211929321289,28.35,2
-0.2992344200611114,-1.0665863752365112,-0.0996070951223373,10.495923042297363,1.2817152738571167,78.62076568603516,28.35,2
-0.3375735580921173,-1.0707201957702637,-0.0975087434053421,2.773350477218628,1.282192349433899,78.62049102783203,28.35,2
-0.3565796315670013,-1.1069597005844116,-0.0849665999412536,-6.922299385070801,1.282498478889465,78.62031555175781,28.35,2
-0.3911677300930023,-1.0854339599609375,-0.0769177675247192,-16.39380645751953,1.2790228128433228,78.62020111083984,28.33,2
-0.4245599508285522,-1.026837706565857,-0.07735026627779,-25.094518661499023,1.2767924070358276,78.62013244628906,28.33,2
-0.423598051071167,-0.9332562685012816,-0.0776278227567672,-33.576438903808594,1.2753610610961914,78.62008666992188,28.33,2
-0.4285785257816314,-0.8620055317878723,-0.0498170666396617,-41.398475646972656,1.274442434310913,78.62005615234375,28.33,2
-0.437372475862503,-0.8218787312507629,-0.0263719502836465,-46.32506561279297,1.2738529443740845,78.62003326416016,28.33,2
-0.4542114734649658,-0.8129209280014038,-0.0169239994138479,-45.99723815917969,1.2734746932983398,78.62002563476562,28.33,2
-0.4762133359909057,-0.8183678984642029,-0.0052630733698606,-40.52763366699219,1.273231863975525,78.6200180053711,28.33,2
-0.4959306418895721,-0.8442545533180237,0.0190135613083839,-32.575164794921875,1.273076057434082,78.62001037597656,28.33,2
-0.5141818523406982,-0.8776604533195496,0.0457884557545185,-24.662986755371094,1.2697625160217283,78.62001037597656,28.33,2
-0.5202966332435608,-0.8990983963012695,0.0685688182711601,-17.67947769165039,1.2676360607147217,78.62001037597656,28.33,2
-0.5298185348510742,-0.9576382637023926,0.1223723590373992,-11.883057594299316,1.266271471977234,78.62001037597656,28.33,2
-0.5471246838569641,-1.0623791217803955,0.1624981462955474,-7.557793617248535,1.2653957605361938,78.62001037597656,28.33,2
-0.5750241279602051,-1.0848134756088257,0.1882485747337341,-4.180215358734131,1.264833688735962,78.62001037597656,28.33,2
-0.570537269115448,-1.093612790107727,0.1935781687498092,-0.5259110927581787,1.2644730806350708,78.62001037597656,28.33,2
-0.5620600581169128,-1.138444185256958,0.2081939429044723,3.800375461578369,1.2642415761947632,78.62001037597656,28.33,2
-0.562217652797699,-1.161616563796997,0.1615957617759704,8.17814826965332,1.264093041419983,78.62001037597656,28.33,2
-0.5063410401344299,-1.1317050457000732,0.1484850496053695,12.549553871154783,1.2653748989105225,78.50536346435547,28.33,2
-0.476080447435379,-1.0285429954528809,0.1400713473558426,17.887752532958984,1.2661974430084229,78.43179321289062,28.33,2
-0.4342698454856872,-0.9455462098121644,0.1010852754116058,24.856666564941406,1.2667253017425537,78.38457489013672,28.33,2
-0.4130359888076782,-0.8922836184501648,0.0592729374766349,32.38843536376953,1.267064094543457,78.35427856445312,28.33,2
-0.3826159834861755,-0.8637005090713501,0.032440185546875,37.57298278808594,1.2672815322875977,78.33483123779297,28.33,2
-0.3630941808223724,-0.8397597670555115,0.0208182446658611,37.865684509277344,1.267421007156372,78.32235717773438,28.33,2
-0.3337728977203369,-0.8243959546089172,0.0189577247947454,34.03387451171875,1.2675105333328247,78.31434631347656,28.33,2
-0.3317494988441467,-0.797743022441864,0.0009704270632937,29.640249252319336,1.2675679922103882,78.3092041015625,28.33,2
-0.3360487818717956,-0.79183429479599,0.0118183130398392,27.14668655395508,1.267604947090149,78.305908203125,28.33,2
-0.3444055616855621,-0.8104335069656372,0.0243776366114616,26.105344772338867,1.26762855052948,78.30379486083984,28.33,2
-0.3497684895992279,-0.8279671669006348,0.0268397126346826,25.01432609558105,1.2676438093185425,78.30243682861328,28.33,2
-0.3476123213768005,-0.900794804096222,0.0284197311848402,22.72709274291992,1.2676535844802856,78.30156707763672,28.33,2
-0.351826399564743,-1.0482913255691528,0.0406292453408241,18.027795791625977,1.2676597833633425,78.30101013183594,28.33,2
-0.3545307517051697,-1.126152753829956,0.0484646074473857,10.136171340942385,1.267663836479187,78.30065155029297,28.33,2
-0.3618640005588531,-1.0529687404632568,0.0814817622303962,0.1708175092935562,1.2676663398742676,78.30042266845703,28.33,2
-0.3721678555011749,-1.017198920249939,0.0914747267961502,-9.54183864593506,1.2676680088043213,78.3002700805664,28.33,2
-0.3955735862255096,-1.039026141166687,0.0754965394735336,-17.874250411987305,1.2635380029678345,78.3001708984375,28.35,2
-0.4049962759017944,-0.9746647477149964,0.0708404332399368,-25.34956359863281,1.260887622833252,78.30010986328125,28.35,2
-0.3886521160602569,-0.8997746706008911,0.0734501853585243,-32.50054168701172,1.2591867446899414,78.3000717163086,28.35,2
-0.3725655972957611,-0.829323410987854,0.0807227492332458,-38.83075714111328,1.2580952644348145,78.300048828125,28.35,2
-0.3846333026885986,-0.8009052276611328,0.0909876376390457,-42.692501068115234,1.257394790649414,78.30003356933594,28.35,2
-0.4203665256500244,-0.8162546753883362,0.0919772759079933,-41.88552474975586,1.256945252418518,78.3000259399414,28.35,2
-0.4488958120346069,-0.8373006582260132,0.1038079187273979,-35.6641960144043,1.2566567659378052,78.30001831054688,28.35,2
