acc_x,acc_y,acc_z,bvp,eda,hr,temp,label
0.0,0.0,0.0,0.0,0.0,0.0,35.95,2
-0.0390624962747097,-0.1510416567325592,0.0468749962747097,1.4799998998641968,0.096144326031208,16.249998092651367,35.95,2
-0.108231708407402,-0.3536585569381714,0.0971798747777938,2.04878044128418,0.2251184284687042,38.04877853393555,35.95,2
-0.1384966820478439,-0.5448505282402039,0.1608700156211853,0.0175413955003023,0.3373036980628967,57.00996398925781,35.95,2
-0.1819294095039367,-0.6896736025810242,0.2073354125022888,-3.1486656665802,0.4191488921642303,70.84317779541016,35.95,2
-0.2278043627738952,-0.7822352051734924,0.2058561146259308,-4.772335052490234,0.4745615422725677,80.2088394165039,35.95,2
-0.2023741602897644,-0.8207566142082214,0.1882262527942657,-4.220640182495117,0.5109202265739441,86.35406494140625,35.95,2
-0.2472769320011139,-0.8457050323486328,0.1768082529306411,-2.6314175128936768,0.5344679355621338,90.33402252197266,35.95,2
-0.2929725646972656,-0.9288581609725952,0.1750432848930359,-0.53794926404953,0.549636721611023,92.8978042602539,35.95,2
-0.3279377222061157,-0.987898886203766,0.1795035004615783,2.050069808959961,0.5593863725662231,94.545654296875,35.95,2
-0.3727766871452331,-0.9922332167625428,0.1823676526546478,4.499962329864502,0.5656471252441406,95.60382843017578,35.95,2
-0.3959620893001556,-0.9446402788162231,0.1618172079324722,5.7967448234558105,0.5696659684181213,96.2830810546875,35.95,2
-0.394050121307373,-0.9084969758987428,0.1430301219224929,5.457579612731934,0.5722452998161316,96.71903228759766,35.95,2
-0.3648346364498138,-0.9412781000137328,0.1309731155633926,4.322788715362549,0.5739006400108337,96.99881744384766,35.95,2
-0.3460854887962341,-0.9959019422531128,0.1344309598207473,4.182070255279541,0.5749629735946655,97.1783676147461,35.95,2
-0.3284555077552795,-1.0365544557571411,0.1534432917833328,6.395354270935059,0.5756447315216064,97.29359436035156,35.95,2
-0.3283371031284332,-1.017860770225525,0.1544488221406936,10.345012664794922,0.5765411853790283,97.36753845214844,35.95,2
-0.3338588774204254,-0.9778754115104676,0.1383007913827896,14.567071914672852,0.5771164894104004,97.4149932861328,35.95,2
-0.3318046629428863,-0.9130306839942932,0.1055468171834945,18.336990356445312,0.5774856805801392,97.44544982910156,35.95,2
-0.3136930763721466,-0.8714170455932617,0.0789294242858886,21.895566940307617,0.5777226090431213,97.46499633789062,35.95,2
-0.2684834599494934,-0.917482852935791,0.0786412358283996,25.16088104248047,0.5778746604919434,97.4775390625,35.95,2
-0.2226772010326385,-1.0086207389831543,0.106445163488388,26.96976661682129,0.5779722332954407,97.48558807373048,35.95,2
-0.1932813823223114,-1.0559122562408447,0.1242881193757057,26.106449127197266,0.5780348181724548,97.49075317382812,35.95,2
-0.1912101656198501,-1.0470768213272097,0.158129796385765,20.902238845825195,0.5780749917030334,97.49406433105467,35.95,2
-0.133903220295906,-1.047004461288452,0.2918029129505157,11.902007102966309,0.5753465294837952,97.4961929321289,35.95,2
0.0428174287080764,-1.018969178199768,0.4335643947124481,2.3752195835113525,0.5735955238342285,97.49755859375,35.95,2
0.1450310349464416,-0.9282066822052002,0.3789966106414795,-6.310813903808594,0.5724718570709229,97.4984359741211,35.95,2
0.154648095369339,-0.8755583167076111,0.3215870559215545,-13.712122917175291,0.5717507600784302,97.49899291992188,35.95,2
0.0936464741826057,-0.8641627430915833,0.2847448885440826,-19.3503360748291,0.571287989616394,97.49935150146484,35.95,2
0.0377058200538158,-0.8512519598007202,0.2499061673879623,-23.39852523803711,0.5709909796714783,97.49958038330078,35.95,2
-0.0485736429691314,-0.8597598671913147,0.1715709418058395,-26.268695831298828,0.5708004236221313,97.4997329711914,35.95,2
-0.1487250328063964,-0.8820130825042725,0.0877132564783096,-27.412004470825195,0.5706781148910522,97.49983215332033,35.95,2
-0.2241919785737991,-0.8906961679458618,0.0338982231914997,-25.329809188842773,0.5705996155738831,93.13990020751952,35.95,2
-0.2782200872898102,-0.8962684273719788,0.0273517034947872,-18.222047805786133,0.5705492496490479,90.3419418334961,35.95,2
-0.3128922283649444,-0.9054421782493592,0.0511393956840038,-9.057085037231444,0.5705169439315796,88.54637908935547,35.95,2
-0.3183494806289673,-0.91692715883255,0.1055893898010253,-2.835195779800415,0.5704962015151978,87.39408874511719,35.95,2
-0.3218516409397125,-0.9186997413635254,0.1349344849586486,-1.3859739303588867,0.5704828500747681,86.65461730957031,35.95,2
-0.3240991234779358,-0.9254350662231444,0.159364253282547,-2.7953686714172363,0.5704743266105652,86.18006134033203,35.95,2
-0.3255414366722107,-0.9521484971046448,0.1974329650402069,-4.373361110687256,0.5704688429832458,85.87551879882812,35.95,2
-0.3376625776290893,-1.0028783082962036,0.2274610549211502,-5.156741142272949,0.5704653263092041,85.68008422851562,35.95,2
-0.3958211839199066,-1.1138026714324951,0.2523291110992431,-5.569904804229736,0.5677087903022766,85.5546646118164,35.95,2
-0.5115128755569458,-1.2017807960510254,0.2738857865333557,-5.745485305786133,0.5659397840499878,85.47417449951172,35.95,2
-0.5801593661308289,-1.2190556526184082,0.2765240669250488,-4.819215774536133,0.5648045539855957,85.42252349853516,35.95,2
-0.4674750566482544,-1.162968397140503,0.2782171666622162,-1.1652696132659912,0.5640760064125061,85.38937377929688,35.95,2
-0.3335852324962616,-1.13817036151886,0.3016948103904724,6.137907028198242,0.5636084675788879,85.36810302734375,35.95,2
-0.2252713441848755,-1.1614408493041992,0.3279569447040558,14.984036445617676,0.5633084177970886,85.35445404052734,35.95,2
-0.20054392516613,-1.2043633460998535,0.3112238347530365,20.1916561126709,0.5631158947944641,85.34569549560547,35.95,2
-0.2014686167240142,-1.209517478942871,0.2780943810939789,19.058969497680664,0.5629923343658447,85.34007263183594,35.95,2
-0.2356486767530441,-1.12885844707489,0.2064538449048996,13.968499183654783,0.5629130601882935,85.33646392822266,35.95,2
-0.2631812393665313,-1.049107313156128,0.1548812985420227,8.304985046386719,0.5628621578216553,85.33415222167969,35.95,2
-0.2808500528335571,-0.9643409252166748,0.1217849999666214,3.344914436340332,0.5628294944763184,85.3326644897461,35.95,2
-0.2921888828277588,-0.8987472057342529,0.100545696914196,-0.6084269285202026,0.5628085732460022,85.33171081542969,35.95,2
-0.2826721668243408,-0.8510551452636719,0.0869155377149581,-3.3998167514801025,0.562795102596283,85.33110046386719,35.95,2
-0.2541737854480743,-0.8148514032363892,0.0781684890389442,-5.262822151184082,0.5627864599227905,85.33070373535156,35.95,2
-0.219091847538948,-0.7860201001167297,0.0725551322102546,-6.601694583892822,0.5627809166908264,85.33045196533203,35.95,2
-0.1797849535942077,-0.7507245540618896,0.0689528062939643,-7.833493709564209,0.5627774000167847,85.33029174804688,35.95,2
-0.1545600593090057,-0.7504649758338928,0.0722388103604316,-9.190037727355955,0.5650704503059387,85.33018493652344,35.95,2
-0.1495677232742309,-0.7726895213127136,0.0687498077750206,-10.569315910339355,0.5665420293807983,85.33011627197266,35.95,2
-0.1631572544574737,-0.8037452697753906,0.0665107667446136,-11.597760200500488,0.5674864053726196,85.330078125,35.95,2
-0.1830737739801406,-0.8460661172866821,0.0650738775730133,-11.799186706542969,0.568092405796051,85.33004760742188,35.95,2
-0.2014528214931488,-0.9907785058021544,0.0529562160372734,-10.753366470336914,0.5684813261032104,85.33003234863281,35.95,2
-0.2412363141775131,-1.1788086891174316,0.0507775731384754,-8.706509590148926,0.568730890750885,85.33002471923828,35.95,2
-0.3115492761135101,-1.2882801294326782,0.060574997216463,-6.551049709320068,0.5688910484313965,85.33001708984375,35.95,2
-0.4070520401000976,-1.2353816032409668,0.1116446182131767,-4.805959224700928,0.568993866443634,85.33000946044922,35.95,2
-0.4459491372108459,-1.173445463180542,0.1500159353017807,-3.539175033569336,0.5672237873077393,96.76558685302734,35.93,2
-0.3869444131851196,-1.150491714477539,0.1746404320001602,-2.787129640579224,0.5660878419876099,104.10428619384766,35.93,2
-0.2763075232505798,-1.0965769290924072,0.2128341197967529,-2.333170890808105,0.5653588175773621,108.81383514404295,35.93,2
-0.1941115856170654,-1.03398859500885,0.2373446226119995,-1.4077303409576416,0.56489098072052,111.8361587524414,35.93,2
-0.1413629651069641,-0.9714319705963136,0.2306829541921615,0.6048639416694641,0.5645907521247864,113.77571105957033,35.93,2
-0.1355008035898208,-0.9256889224052428,0.209614560008049,3.401112794876098,0.5643981099128723,115.02040100097656,35.93,2
-0.193314328789711,-0.9075292348861694,0.1793007552623748,6.09839391708374,0.5642744898796082,115.81916809082033,35.93,2
-0.2919912338256836,-0.9014731645584106,0.1542493253946304,7.954743385314941,0.5641951560974121,116.33177185058594,35.93,2
-0.3833052814006805,-0.9087823033332824,0.1437705308198928,8.583577156066895,0.5636849403381348,116.66073608398438,35.93,2
-0.4419053792953491,-0.9078750610351562,0.1538391709327697,7.837120056152344,0.5633575320243835,116.87184143066406,35.93,2
-0.4571204483509063,-0.9016950726509094,0.1603006422519683,6.011038303375244,0.5631474256515503,117.00731658935548,35.93,2
-0.4332979619503021,-0.90332692861557,0.1700450181961059,3.8611209392547607,0.5630125999450684,117.0942611694336,35.93,2
-0.4068145155906677,-0.9267652630805968,0.1930917203426361,1.9798671007156368,0.5629260540008545,117.15005493164062,35.93,2
-0.38981893658638,-0.9641976952552797,0.219077318906784,0.4214943945407867,0.5628705024719238,117.18585968017578,35.93,2
-0.3845099508762359,-0.9938174486160278,0.2413511574268341,-0.8544379472732544,0.5628348588943481,117.2088394165039,35.93,2
-0.3811029493808746,-1.0240212678909302,0.2668407559394836,-1.90970778465271,0.5628119707107544,117.2235870361328,35.93,2
-0.3733187615871429,-1.0937843322753906,0.3279807269573211,-3.532719373703003,0.5641744136810303,117.23304748535156,35.93,2
-0.3739210665225982,-1.1609452962875366,0.3840101659297943,-6.974600315093994,0.5650487542152405,117.23912048339844,35.93,2
-0.363112062215805,-1.1816542148590088,0.4143688380718231,-12.56177043914795,0.565609872341156,117.2430191040039,35.93,2
-0.3057954907417297,-1.1949440240859983,0.3778735697269439,-19.06351089477539,0.5659699440002441,117.24552154541016,35.93,2
-0.2634152472019195,-1.1810816526412964,0.3264641165733337,-23.8843994140625,0.5662010312080383,117.24712371826172,35.93,2
-0.2026313841342926,-1.1553921699523926,0.2654836177825928,-24.420209884643555,0.5663493275642395,117.24815368652344,35.93,2
-0.1636238098144531,-1.1333084106445312,0.2543387115001678,-19.83802032470703,0.5664445161819458,117.24881744384766,35.93,2
-0.1553843170404434,-1.102342963218689,0.2359910160303115,-12.200678825378418,0.5665056109428406,117.2492446899414,35.93,2
-0.2004766464233398,-1.0544822216033936,0.2466076165437698,-5.110517978668213,0.566544771194458,117.24951171875,35.93,2
-0.145447701215744,-1.006974697113037,0.2870073914527893,-0.8721455335617065,0.5665699243545532,117.24968719482422,35.93,2
-0.1493177115917205,-0.9708893299102784,0.2849447727203369,0.6762957572937012,0.5665860772132874,117.2498016357422,35.93,2
-0.2133767753839492,-0.9645251035690308,0.2388388961553573,0.6955357193946838,0.5665964484214783,117.24987030029295,35.93,2
-0.2544862031936645,-0.9604409337043762,0.1980552524328231,-0.09461410343647,0.5666030645370483,117.24991607666016,35.93,2
-0.2584767639636993,-0.907439947128296,0.15508933365345,-1.3862708806991575,0.5666073560714722,117.24994659423828,35.93,2
-0.2498421221971511,-0.8510358929634094,0.127516284584999,-2.7633159160614014,0.5666100978851318,117.24996948242188,35.93,2
-0.2219098061323166,-0.7924479246139526,0.1266148090362548,-3.6111984252929688,0.5666118264198303,117.2499771118164,35.93,2
-0.1871911287307739,-0.7436540126800537,0.1372318416833877,-3.395814657211304,0.5689083337783813,124.1106185913086,35.95,2
-0.1705084592103958,-0.7179386615753174,0.1496430188417434,-1.96428382396698,0.5703821182250977,128.5133819580078,35.95,2
-0.1765958070755005,-0.718229353427887,0.1688033491373062,0.51639324426651,0.5713278651237488,131.3388214111328,35.95,2
-0.1916978657245636,-0.7408069968223572,0.1699037849903106,4.143251895904541,0.5719348192214966,133.1520233154297,35.95,2
-0.2181828171014785,-0.8560559749603271,0.1706099808216095,9.469377517700195,0.5723243355751038,134.3156280517578,35.95,2
-0.2743637561798095,-1.064362645149231,0.1822587251663208,16.33381462097168,0.572574257850647,135.06236267089844,35.95,2
-0.3551996350288391,-1.1756508350372314,0.2065275460481643,22.68435478210449,0.5727346539497375,135.5415802001953,35.95,2
-0.4406621158123016,-1.1351137161254885,0.2556885182857513,25.82829666137696,0.5728375911712646,135.84910583496094,35.95,2
-0.4899092316627502,-1.1258926391601562,0.3096283078193664,25.090896606445312,0.5687722563743591,136.0464630126953,35.95,2
-0.4823287725448608,-1.159159541130066,0.3498415350914001,22.177940368652344,0.5661633610725403,136.17311096191406,35.95,2
-0.3934974670410156,-1.1133350133895874,0.3700502812862396,18.7895622253418,0.5644890666007996,136.25439453125,35.95,2
-0.2861106693744659,-1.0335475206375122,0.3830190896987915,15.156987190246582,0.5634146332740784,136.30654907226562,35.95,2
-0.2004026770591735,-0.9319644570350648,0.3633528649806976,11.163495063781738,0.5627251267433167,136.34002685546875,35.95,2
-0.1733890920877456,-0.8611765503883362,0.3395366668701172,7.293061256408691,0.5622826218605042,136.36151123046875,35.95,2
-0.2288244068622589,-0.8325422406196594,0.3018617033958435,3.9888296127319336,0.5619986653327942,136.37530517578125,35.95,2
-0.3483662009239197,-0.8365575075149536,0.2440974414348602,1.248578667640686,0.5618164539337158,136.3841552734375,35.95,2
-0.4530701339244842,-0.8447320461273193,0.1902343332767486,-0.9255355596542358,0.5621584057807922,136.38983154296875,35.95,2
-0.5370563864707947,-0.8387824296951294,0.1836569607257843,-2.51779842376709,0.5623778700828552,136.3934783935547,35.95,2
-0.5797584056854248,-0.8237687945365906,0.2018270790576934,-3.987443208694458,0.5625187158584595,136.39581298828125,35.95,2
-0.57917320728302,-0.8309271931648254,0.2582698166370392,-5.9086198806762695,0.5626091361045837,136.39730834960938,35.95,2
-0.5676021575927734,-0.8579121828079224,0.3000892996788025,-8.198380470275879,0.5626671314239502,136.3982696533203,35.95,2
-0.5545787215232849,-0.8752295970916748,0.3101333081722259,-10.280437469482422,0.56270432472229,136.3988800048828,35.95,2
-0.5686120986938477,-0.9311251044273376,0.2829923331737518,-11.79212760925293,0.562728226184845,136.39927673339844,35.95,2
-0.5832157135009766,-0.9949844479560852,0.2543792426586151,-12.357412338256836,0.5627435445785522,136.3995361328125,35.95,2
-0.5925874710083008,-1.1199322938919067,0.2472125738859176,-11.140263557434082,0.5632126927375793,136.3997039794922,35.95,2
-0.5314284563064575,-1.1217478513717651,0.2426134198904037,-7.779713153839111,0.5635137557983398,136.39981079101562,35.95,2
-0.486582338809967,-1.0445441007614136,0.2228686213493347,-3.502220869064331,0.5637069344520569,136.39987182617188,35.95,2
-0.4410093426704407,-1.0005970001220703,0.1822086721658706,-0.2412815392017364,0.5638309121131897,136.39991760253906,35.95,2
-0.4061654508113861,-1.0507631301879885,0.1393221318721771,1.1277214288711548,0.5639104843139648,136.3999481201172,35.95,2
-0.3670113086700439,-1.1837167739868164,0.0502245053648948,1.028225660324097,0.5639615654945374,136.39996337890625,35.95,2
-0.3250911235809326,-1.1794743537902832,-0.0517354235053062,0.2012863755226135,0.5639943480491638,136.3999786376953,35.95,2
-0.2702002823352813,-1.1487629413604736,-0.111569657921791,-1.0494933128356934,0.5640153884887695,136.3999786376953,35.95,2
-0.190192312002182,-1.117858648300171,-0.1275767236948013,-2.7836413383483887,0.5608152747154236,132.25494384765625,35.95,2
-0.1388477981090545,-1.081232666969299,-0.1322513669729232,-4.853065490722656,0.5587616562843323,129.59490966796875,35.95,2
-0.1394844949245453,-1.0353370904922483,-0.1352512836456298,-6.557272911071777,0.5574437379837036,127.88784790039062,35.95,2
-0.1510886400938034,-0.9946884512901306,-0.1371764540672302,-7.170870304107666,0.5565979480743408,126.79235076904295,35.95,2
-0.1697310656309127,-0.9630047082901,-0.1496074646711349,-6.808718204498291,0.5560551881790161,126.08932495117188,35.95,2
-0.1816947013139724,-0.9482696652412416,-0.1575849801301956,-6.354190349578857,0.5557068586349487,125.6381607055664,35.95,2
-0.1837744861841201,-0.9444113373756408,-0.151508942246437,-6.453001499176025,0.555483341217041,125.3486328125,35.95,2
-0.1907069534063339,-0.9475330710411072,-0.1364141404628753,-7.1433634757995605,0.5553399324417114,125.16282653808594,35.95,2
-0.2007535845041275,-0.9775252938270568,-0.1099338382482528,-8.109454154968262,0.557084321975708,125.04358673095705,35.95,2
-0.2072009295225143,-1.0023703575134275,-0.081744760274887,-8.446412086486816,0.5582037568092346,124.96707153320312,35.95,2
-0.2113384753465652,-1.0127166509628296,-0.0468613058328628,-6.348308086395264,0.5589221715927124,124.91796875,35.95,2
-0.2139937132596969,-1.0305519104003906,-0.0188773404806852,0.1964516341686248,0.5593831539154053,124.8864517211914,35.95,2
-0.2380887866020202,-1.0475953817367554,0.0214722566306591,12.220845222473145,0.5596790313720703,124.86622619628906,35.95,2
-0.3151271343231201,-1.0025551319122314,0.0753551721572876,28.33138465881348,0.5598688721656799,124.8532485961914,35.95,2
-0.3925547897815704,-0.9456620216369628,0.1043363586068153,43.50667953491211,0.5599907040596008,124.84491729736328,35.95,2
-0.464634507894516,-0.99871563911438,0.1173370406031608,50.966793060302734,0.5600689053535461,124.8395767211914,35.95,2
-0.3821423053741455,-1.0887401103973389,0.1984511911869049,47.13458633422852,0.557364821434021,124.83614349365234,35.95,2
-0.1668680906295776,-1.1577082872390747,0.4408299326896667,34.49720001220703,0.5556294918060303,124.83394622802734,35.95,2
-0.2134440541267395,-1.0844147205352783,0.529201328754425,19.121789932250977,0.5545158386230469,124.83253479003906,35.95,2
-0.2993115782737732,-0.986999213695526,0.5019463896751404,5.969512939453125,0.5538011789321899,124.83162689208984,35.95,2
-0.3600141704082489,-0.9188857674598694,0.3725002706050873,-3.302018165588379,0.5533425211906433,124.83104705810548,35.95,2
-0.4157629311084747,-0.8807722330093384,0.2446470111608505,-9.474072456359863,0.5530481934547424,124.83067321777344,35.95,2
-0.423550397157669,-0.8731065392494202,0.1178159415721893,-14.047562599182127,0.5528593063354492,124.83042907714844,35.95,2
-0.3837657570838928,-0.8681871294975281,0.0364230684936046,-17.9785213470459,0.5527381300926208,124.8302764892578,35.95,2
-0.3470387160778045,-0.8650301098823547,-0.0158101934939622,-21.167543411254883,0.5517421364784241,124.8301773071289,35.95,2
-0.317871630191803,-0.86860191822052,-0.026939395815134,-23.135257720947266,0.5511029362678528,124.83011627197266,35.95,2
-0.2991538941860199,-0.8764918446540833,-0.0172881539911031,-24.104251861572266,0.5506927371025085,124.830078125,35.95,2
-0.3151308000087738,-0.9151418209075928,0.0168943312019109,-24.661609649658203,0.5504295229911804,124.83004760742188,35.95,2
-0.3309816122055053,-0.9511407017707824,0.0444284565746784,-24.671781539916992,0.550260603427887,124.8300323486328,35.95,2
-0.3299582004547119,-0.9798404574394226,0.0509027242660522,-23.48531150817871,0.5501521825790405,124.83002471923828,35.95,2
-0.2901170253753662,-1.0150516033172607,0.0270686633884906,-20.75348663330078,0.5500826239585876,124.83001708984376,35.95,2
-0.2589514851570129,-1.121614694595337,0.04535998031497,-16.58211898803711,0.5500379800796509,124.83000946044922,35.95,2
-0.2389512211084365,-1.1844030618667605,0.0794893950223922,-11.898933410644531,0.5481732487678528,122.27921295166016,35.93,2
-0.2653006315231323,-1.1183393001556396,0.1013916879892349,-8.707240104675293,0.5469765663146973,120.64225769042967,35.93,2
-0.2934057116508484,-1.0479544401168823,0.098653994500637,-8.396544456481934,0.5462086200714111,119.5917510986328,35.93,2
-0.3226374685764313,-1.0755566358566284,0.0801037773489952,-9.7018404006958,0.5457158088684082,118.9176025390625,35.93,2
-0.37498340010643,-1.082074522972107,0.0737970918416976,-10.106012344360352,0.54539954662323,118.48497009277344,35.93,2
-0.4197715520858764,-1.05267071723938,0.0641520470380783,-9.136563301086426,0.5451965928077698,118.20732879638672,35.93,2
-0.4093295931816101,-0.9834210872650146,0.029973542317748,-8.414113998413086,0.5450663566589355,118.02915954589844,35.93,2
-0.3746396601200104,-0.9333828687667848,0.0024419701658189,-8.842549324035645,0.5449827313423157,117.9148178100586,35.93,2
-0.329986572265625,-0.9236623048782348,-0.0040306588634848,-9.726531982421877,0.549519419670105,117.84143829345705,35.93,2
-0.2901352345943451,-0.9062286615371704,0.0030111297965049,-10.444289207458496,0.5524308085441589,117.79434967041016,35.93,2
-0.2589631676673889,-0.89504075050354,0.0075301439501345,-11.195093154907228,0.5542991757392883,117.76412963867188,35.93,2
-0.2165676206350326,-0.904654324054718,0.0104301879182457,-11.69841194152832,0.5554981827735901,117.74473571777344,35.93,2
-0.1837628334760666,-0.9164215326309204,0.0122912684455513,-10.39134120941162,0.5562676191329956,117.73229217529295,35.93,2
-0.1683083772659301,-0.9351686239242554,0.0078878281638026,-5.661860942840576,0.5567614436149597,117.72430419921876,35.93,2
-0.1639883667230606,-0.9583949446678162,0.0106597281992435,2.374523162841797,0.5570783615112305,117.71917724609376,35.93,2
-0.189204916357994,-0.9956913590431212,0.0236341226845979,11.812989234924316,0.5572817325592041,117.71588897705078,35.93,2
-0.2221807688474655,-1.0308215618133545,0.0263625681400299,20.592811584472656,0.5569533109664917,117.71377563476562,35.93,2
-0.2489405423402786,-1.0813549757003784,0.0169179793447256,28.043561935424805,0.5567425489425659,117.7124252319336,35.93,2
-0.2605156600475311,-1.136175513267517,0.0052592102438211,35.04622268676758,0.5566073060035706,117.71155548095705,35.93,2
-0.3015305399894714,-1.0146185159683228,0.0201683826744556,42.68562698364258,0.5565205216407776,117.71099853515624,35.93,2
-0.3334493041038513,-0.8862302899360657,0.0353340059518814,50.23567962646485,0.5564647912979126,117.71063995361328,35.93,2
-0.3259440660476684,-0.8374247550964355,0.033870879560709,54.389434814453125,0.5564290285110474,117.71041107177734,35.93,2
-0.3099320828914642,-0.8452885746955872,0.0329319313168525,51.71703720092773,0.5564060807228088,117.71026611328124,35.93,2
-0.2996565103530884,-0.9398995041847228,0.0659160166978836,42.84764099121094,0.5563913583755493,117.71016693115234,35.93,2
-0.2370844930410385,-0.9894198179244996,0.1374632716178894,32.673973083496094,0.5554637312889099,117.7101058959961,35.93,2
-0.2081249207258224,-0.9988080263137816,0.2001715004444122,24.76580619812012,0.5548684000968933,117.71006774902344,35.93,2
-0.2343225330114364,-0.988039493560791,0.2572073638439178,17.702470779418945,0.5544863343238831,117.71004486083984,35.93,2
-0.312710165977478,-0.9811288714408876,0.2490274906158447,8.745145797729492,0.5542411804199219,117.71002960205078,35.93,2
-0.4357859194278717,-0.9766940474510192,0.1598115116357803,-1.538689374923706,0.5540838241577148,117.71002197265624,35.93,2
-0.4755844175815582,-0.9794458150863647,0.08576450496912,-10.34512996673584,0.5539828538894653,117.71001434326172,35.93,2
-0.4675381481647491,-0.9812117218971252,0.0326476283371448,-15.778059005737305,0.5539180636405945,117.7100067138672,35.93,2
-0.4007990062236786,-0.9543561339378356,-0.0126352766528725,-17.358671188354492,0.5538764595985413,117.7100067138672,35.93,2
-0.324383020401001,-0.9203284382820128,-0.0249019172042608,-15.395895957946776,0.5543087124824524,115.6213607788086,35.93,2
-0.2361592203378677,-0.9040891528129578,0.0343993492424488,-11.06244945526123,0.5545861124992371,114.28099060058594,35.93,2
-0.1851400434970855,-0.9048632979393004,0.0836510434746742,-6.36481523513794,0.5547640919685364,113.42081451416016,35.93,2
-0.1691921949386596,-0.9109578728675842,0.115257941186428,-3.317900896072388,0.5548783540725708,112.86880493164062,35.93,2
-0.1813488751649856,-0.9204667806625366,0.1187481060624122,-2.720362663269043,0.5549516677856445,112.51455688476562,35.93,2
-0.1947481036186218,-0.9265690445899964,0.1097923442721366,-3.709023714065552,0.5549986958503723,112.28722381591795,35.93,2
-0.2145425081253051,-0.9472784399986268,0.0816539525985717,-4.909536361694336,0.5550289154052734,112.1413345336914,35.93,2
-0.2440387457609176,-1.0389374494552612,0.0915852263569831,-5.89849328994751,0.5550482869148254,112.0477066040039,35.93,2
-0.2741632759571075,-1.1033565998077393,0.1147518679499626,-7.156517028808594,0.5532246232032776,111.98762512207033,35.93,2
-0.3102887868881225,-1.0775238275527954,0.1128255650401115,-8.952634811401367,0.5520543456077576,111.94906616210938,35.93,2
-0.3334720730781555,-1.0553481578826904,0.1003938242793083,-10.742979049682615,0.5513033270835876,111.92432403564452,35.93,2
-0.3763386309146881,-1.0858992338180542,0.098013624548912,-11.827432632446287,0.5508213639259338,111.908447265625,35.93,2
-0.4094457030296325,-1.0831140279769895,0.0796928256750106,-12.405146598815918,0.5505120754241943,111.89825439453124,35.93,2
-0.4083008170127868,-1.0645333528518677,0.056740041822195,-13.33835506439209,0.5503135919570923,111.89171600341795,35.93,2
-0.3683816790580749,-1.0190227031707764,0.0420102663338184,-14.685993194580078,0.5501862168312073,111.88751983642578,35.93,2
-0.3259705603122711,-0.973023235797882,0.0437530949711799,-15.196154594421388,0.5501044392585754,111.88482666015624,35.93,2
-0.2819602191448211,-0.9323078989982604,0.0896537378430366,-13.603285789489746,0.5518880486488342,111.88309478759766,35.93,2
-0.2537169158458709,-0.906179130077362,0.1191101297736167,-9.84040355682373,0.553032636642456,111.88198852539062,35.93,2
-0.2411897480487823,-0.889411211013794,0.132415771484375,-4.778079509735107,0.553767204284668,111.88127136230467,35.93,2
-0.2499438673257827,-0.8898460865020752,0.1185634657740593,0.6954081654548645,0.5542386174201965,111.8808135986328,35.93,2
-0.2499639838933944,-0.9013206958770752,0.1096738576889038,5.873875141143799,0.5545411109924316,111.88052368164062,35.93,2
-0.2443791180849075,-0.9254777431488036,0.0871756896376609,9.999613761901855,0.5547352433204651,111.88033294677734,35.93,2
-0.2407950609922409,-0.9409803748130798,0.0671398863196373,12.546963691711426,0.5548598170280457,111.88021087646484,35.93,2
-0.2440928071737289,-0.9453312754631042,0.0598798356950283,13.887934684753418,0.5549397468566895,111.88013458251952,35.93,2
-0.2462090998888015,-0.9817100763320924,0.0552207566797733,15.228557586669922,0.5545321702957153,111.88008880615234,35.93,2
-0.2419694513082504,-1.0050559043884275,0.0242419559508562,17.905258178710938,0.5542705655097961,111.88005828857422,35.93,2
-0.2112598121166229,-1.0144401788711548,-0.0012362306006252,22.320690155029297,0.5541027188301086,111.88003540039062,35.93,2
-0.1803565770387649,-1.0820379257202148,0.0159999821335077,26.58012580871582,0.5539950132369995,111.88002014160156,35.93,2
-0.143731340765953,-1.147809386253357,0.0382567420601844,26.77354049682617,0.5539258718490601,111.88001251220705,35.93,2
-0.1314229220151901,-1.2124087810516355,0.0637353956699371,20.58516311645508,0.5538815259933472,111.8800048828125,35.93,2
-0.1403174102306366,-1.1866916418075562,0.0968794524669647,10.458954811096191,0.5538530349731445,111.8800048828125,35.93,2
-0.0956454128026962,-1.0638302564620972,0.1517360508441925,1.227031707763672,0.5538347363471985,111.8800048828125,35.93,2
-0.0389886237680912,-1.007375955581665,0.1813420802354812,-4.754806518554688,0.5547412037849426,110.21052551269533,35.93,2
-0.0194228794425725,-0.971146821975708,0.1947437524795532,-8.14936637878418,0.5553229451179504,109.13914489746094,35.93,2
-0.0684422329068183,-0.9646903872489928,0.169757530093193,-9.804743766784668,0.5556962490081787,108.45159912109376,35.93,2
-0.1222911328077316,-0.971742570400238,0.1649183481931686,-9.7098970413208,0.5559358596801758,108.01036834716795,35.93,2
-0.1680438071489334,-0.9538771510124208,0.2121928185224533,-7.789673328399658,0.5560895800590515,107.72721099853516,35.93,2
-0.119036391377449,-0.9144232869148254,0.3488885462284088,-4.354100227355957,0.5561882853507996,107.54550170898438,35.93,2
-0.1099773496389389,-0.8779085278511047,0.4478075504302978,-0.7915510535240173,0.556251585483551,107.42888641357422,35.93,2
-0.2273148149251938,-0.8544754385948181,0.4273214638233185,0.409167468547821,0.5562922358512878,107.3540496826172,35.93,2
-0.3417996764183044,-0.8338396549224854,0.3693924844264984,-1.915625810623169,0.5563182830810547,107.30602264404295,35.93,2
-0.4264650046825409,-0.8261945843696594,0.2594459354877472,-5.76846170425415,0.5563350319862366,107.27520751953124,35.93,2
-0.4304183721542358,-0.8604727983474731,0.1832907944917678,-8.101269721984863,0.5563457608222961,107.25543212890624,35.93,2
-0.3937709927558899,-0.8880683779716492,0.1568098962306976,-7.957511901855469,0.5563526749610901,107.24273681640624,35.93,2
-0.3142750859260559,-0.9001798629760742,0.1901959627866745,-6.665093421936035,0.5563570857048035,107.23458862304688,35.93,2
-0.2520636320114136,-0.9079523086547852,0.2284145355224609,-5.789120197296143,0.5563599467277527,107.22936248779295,35.93,2
-0.2233354449272155,-0.940929114818573,0.2641365528106689,-5.578063488006592,0.556361734867096,107.22600555419922,35.93,2
-0.2048993557691574,-0.9900805950164796,0.2534742653369903,-5.31006383895874,0.5563629269599915,107.2238540649414,35.93,2
-0.2210569977760315,-1.0943942070007324,0.2466318160295486,-4.718915939331055,0.5559043884277344,107.22247314453124,35.93,2
-0.3153926730155945,-1.1837278604507446,0.2814251482486725,-4.411202907562256,0.5556101202964783,107.22158813476562,35.93,2
-0.3647363185882568,-1.1514925956726074,0.2701668441295624,-4.804855346679688,0.5554212927818298,107.22101593017578,35.93,2
-0.3516200482845306,-1.11961030960083,0.2237575054168701,-5.2222771644592285,0.5553001165390015,107.22064971923828,35.93,2
-0.3152138888835907,-1.1327368021011353,0.2163657546043396,-4.171766757965088,0.5552223324775696,107.22042083740234,35.93,2
-0.3030460774898529,-1.1747472286224363,0.2284154742956161,-0.5563151240348816,0.5551723837852478,107.22026824951172,35.93,2
-0.3120307922363281,-1.1961092948913574,0.2361482977867126,4.834141254425049,0.5551403760910034,107.2201690673828,35.93,2
-0.3289922177791595,-1.1874271631240845,0.2299152314662933,9.2678861618042,0.5551198124885559,107.22010803222656,35.93,2
-0.2950948774814605,-1.1090843677520752,0.2203174233436584,10.479554176330566,0.5560248494148254,107.2200698852539,35.93,2
-0.2341571003198623,-1.0084285736083984,0.2365491986274719,8.631104469299316,0.5566056370735168,107.22004699707033,35.93,2
-0.1782574206590652,-0.9326379299163818,0.2469658255577087,5.245174884796143,0.5569783449172974,107.22003173828124,35.93,2
-0.1703730970621109,-0.9007931351661682,0.2200639694929123,1.3920522928237915,0.557217538356781,107.22002410888672,35.93,2
-0.1709111630916595,-0.8747591972351074,0.1916043609380722,-2.2593276500701904,0.5573710203170776,107.2200164794922,35.93,2
-0.1880497932434082,-0.8356610536575317,0.1509495228528976,-4.9966559410095215,0.5574695467948914,107.22000885009766,35.93,2
-0.1934505999088287,-0.771385669708252,0.1192618161439895,-6.606430530548096,0.5575327277183533,107.22000885009766,35.93,2
-0.1857209801673889,-0.7133440971374512,0.0989264696836471,-7.481857776641846,0.5575733184814453,107.22000885009766,35.93,2
-0.1751627773046493,-0.6649008393287659,0.0746808648109436,-7.857362747192383,0.5571404099464417,105.7798080444336,35.95,2
-0.1739849001169204,-0.6506060361862183,0.0591214299201965,-7.492885112762451,0.5568625926971436,104.8555679321289,35.95,2
-0.2012178897857666,-0.6862146854400635,0.0603318288922309,-5.96925687789917,0.5566843152046204,104.26244354248048,35.95,2
-0.2466833144426345,-0.7874351143836975,0.0667063668370246,-2.8670125007629395,0.5565699338912964,103.8818130493164,35.95,2
-0.2870559692382812,-0.9195658564567566,0.070797175168991,1.9468985795974727,0.5564965009689331,103.6375503540039,35.95,2
-0.3185625970363617,-1.172292947769165,0.0510313250124454,7.730286598205566,0.5564494132995605,103.48079681396484,35.95,2
-0.3667705953121185,-1.3960541486740112,0.0271511934697628,13.16495132446289,0.5564191937446594,103.38019561767578,35.95,2
-0.5488476157188416,-1.4109023809432983,0.0174240730702877,17.652145385742188,0.5563997626304626,103.31563568115234,35.95,2
-0.5593364834785461,-1.280486822128296,0.0391706377267837,21.538471221923828,0.5563873052597046,103.27420806884766,35.95,2
-0.431721031665802,-1.1967936754226685,0.1035063043236732,25.17533302307129,0.5563793182373047,103.24761962890624,35.95,2
-0.2490648329257965,-1.1038997173309326,0.1839776486158371,28.75241470336914,0.556374192237854,103.23056030273438,35.95,2
-0.1206510514020919,-1.0162968635559082,0.2132284343242645,32.64222717285156,0.5563709139823914,103.21961212158205,35.95,2
-0.0718291252851486,-0.937687337398529,0.1816199272871017,36.71123504638672,0.5563688278198242,103.21258544921876,35.95,2
-0.1356601864099502,-0.9040336012840272,0.1165532171726226,39.4586296081543,0.5563674569129944,103.20807647705078,35.95,2
-0.221405491232872,-0.8824365735054016,0.0580038242042064,38.3485221862793,0.5563665628433228,103.20518493652344,35.95,2
-0.3100185394287109,-0.8685768246650696,0.0092346426099538,31.14090919494629,0.5563660264015198,103.2033233642578,35.95,2
-0.3780808448791504,-0.8540846705436707,-0.0164648368954658,18.185991287231445,0.5545292496681213,103.20213317871094,35.95,2
-0.3993681967258453,-0.8503822088241577,-0.0049684103578329,3.377059936523437,0.5533505082130432,103.2013702392578,35.95,2
-0.4018336534500122,-0.8424084186553955,0.019202658906579,-9.096415519714355,0.5525940656661987,103.2008819580078,35.95,2
-0.4034158289432525,-0.8484868407249451,0.0459098070859909,-18.51629066467285,0.5521085858345032,103.2005615234375,35.95,2
-0.4156267344951629,-0.874778687953949,0.1022333353757858,-26.152088165283203,0.5517970323562622,103.20035552978516,35.95,2
-0.4346585571765899,-0.90844464302063,0.1607696413993835,-31.775983810424805,0.5515971183776855,103.20022583007812,35.95,2
-0.4300787448883056,-0.9916250109672546,0.2375192940235138,-34.328216552734375,0.5514688491821289,103.20014190673828,35.95,2
-0.4047485888004303,-1.1737542152404783,0.3315549790859222,-34.20705032348633,0.5513865351676941,103.20008850097656,35.95,2
-0.3772976100444793,-1.3522098064422607,0.3974994421005249,-32.46339416503906,0.5531700849533081,103.20005798339844,35.95,2
-0.2925078570842743,-1.3099945783615112,0.3558521866798401,-29.381162643432617,0.5543146729469299,103.20003509521484,35.95,2
-0.1037480756640434,-1.1933388710021973,0.3403209447860718,-25.250036239624023,0.5550492405891418,103.20001983642578,35.95,2
0.0957559198141098,-1.135269284248352,0.2631805837154388,-20.95451545715332,0.5555206537246704,103.20001220703124,35.95,2
0.0670484155416488,-1.137187957763672,0.2416652143001556,-16.915334701538086,0.5558231472969055,103.20000457763672,35.95,2
0.0710166841745376,-1.1104304790496826,0.2446512132883072,-12.69314956665039,0.556017279624939,103.20000457763672,35.95,2
0.0455744192004203,-1.0876612663269043,0.2409696877002716,-8.267539978027344,0.5561418533325195,103.20000457763672,35.95,2
0.023649264127016,-1.0618537664413452,0.2106182128190994,-4.886469841003418,0.5562217831611633,103.20000457763672,35.95,2
-0.0128121338784694,-1.028498649597168,0.1407604217529297,-3.859535455703736,0.5548959374427795,102.08582305908205,35.95,2
-0.1313731223344802,-0.9902999401092528,0.0679408386349678,-4.809084415435791,0.5540450811386108,101.3708038330078,35.95,2
-0.2354476153850555,-0.9713839888572692,0.0156116504222154,-5.834029197692871,0.5534990429878235,100.91194152832033,35.95,2
-0.2126722484827041,-0.9592447876930236,0.0156164327636361,-5.506571292877197,0.553148627281189,100.61746978759766,35.95,2
-0.1532741338014602,-0.945856750011444,0.032412827014923,-4.157168865203857,0.5529237985610962,100.42849731445312,35.95,2
-0.1039602905511856,-0.9372650980949402,0.0599851086735725,-2.950855255126953,0.552779495716095,100.3072280883789,35.95,2
-0.1394868046045303,-0.9037625789642334,0.0384949892759323,-2.191042900085449,0.552686870098114,100.22940063476562,35.95,2
-0.173481211066246,-0.859871506690979,0.0135083198547363,-1.144557237625122,0.552627444267273,100.17945861816406,35.95,2
-0.2120901942253112,-0.8317047357559204,0.0030710876453667,0.5731292963027954,0.5535071492195129,100.14740753173828,35.95,2
-0.236867219209671,-0.8136289715766907,0.001970847370103,2.356131076812744,0.5540717244148254,100.12683868408205,35.95,2
-0.2527676820755005,-0.8076267242431641,-0.0043329983018338,4.016249656677246,0.5544340014457703,100.11363983154295,35.95,2
-0.2685694694519043,-0.8373614549636841,-0.0139762172475457,7.564342975616455,0.5546665191650391,100.10517120361328,35.95,2
-0.289905697107315,-0.8900301456451416,-0.0257624555379152,16.37592315673828,0.5548157095909119,100.0997314453125,35.95,2
-0.3203913867473602,-0.9966009855270386,-0.0277284104377031,31.087438583374023,0.5549114346504211,100.09624481201172,35.95,2
-0.3455531001091003,-1.0929808616638184,-0.0289900470525026,45.76974868774414,0.5549728870391846,100.09400939941406,35.95,2
-0.3281137943267822,-1.2220052480697632,-0.0353974662721157,50.76753234863281,0.5550123453140259,100.0925750732422,35.95,2
-0.3225200474262237,-1.27121901512146,0.0164683666080236,41.557613372802734,0.5545787215232849,100.0916519165039,35.95,2
-0.3189302980899811,-1.1740527153015137,0.0721439719200134,22.86458969116211,0.5543004870414734,100.09105682373048,35.95,2
-0.2550510764122009,-1.0445237159729004,0.0966778174042701,3.1157891750335693,0.5541219115257263,100.0906753540039,35.95,2
-0.1860681921243667,-1.0341705083847046,0.0900311321020126,-12.22329044342041,0.5540072917938232,100.0904312133789,35.95,2
-0.1417989581823349,-1.038722038269043,0.0857656672596931,-21.705188751220703,0.5539337396621704,100.09027862548828,35.95,2
-0.1469761580228805,-0.996860682964325,0.06063724309206,-26.38933753967285,0.5538865327835083,100.09017944335938,35.95,2
-0.17268967628479,-0.958800971508026,0.0277179442346096,-28.57852935791016,0.5538562536239624,100.0901107788086,35.95,2
-0.2283755540847778,-0.9007897973060608,0.0065922322683036,-29.9511833190918,0.5538368225097656,100.09007263183594,35.95,2
-0.2641115486621856,-0.8635615110397339,0.0266216117888689,-30.38066864013672,0.5542832612991333,100.0900421142578,35.95,2
-0.2702515423297882,-0.8676594495773315,0.1626263558864593,-29.051294326782227,0.5545697808265686,100.09002685546876,35.95,2
-0.1790296584367752,-0.8367025852203369,0.3114818930625915,-25.998476028442383,0.5547536611557007,100.09001922607422,35.95,2
-0.0589131899178028,-0.8112385272979736,0.3174444139003753,-22.115509033203125,0.5548716187477112,100.09001159667967,35.95,2
-0.1441648155450821,-0.8172882199287415,0.1869242340326309,-18.40556907653809,0.5549473166465759,100.09000396728516,35.95,2
-0.2772432267665863,-0.8211705684661865,0.1311527639627456,-15.670068740844728,0.5549958944320679,100.09000396728516,35.95,2
-0.4578074514865875,-0.8908353447914124,0.1737306863069534,-14.344491004943848,0.5550270676612854,100.09000396728516,35.95,2
-0.5568898916244507,-0.9523354768753052,0.1842614263296127,-14.138675689697266,0.5550470948219299,100.09000396728516,35.95,2
-0.5756930708885193,-0.95821613073349,0.1910194456577301,-13.727153778076172,0.5546010136604309,99.13345336914062,35.95,2
-0.5093910098075867,-0.9451966285705566,0.2177474498748779,-10.822704315185549,0.5543147921562195,98.51959228515624,35.95,2
-0.444451093673706,-0.9592325687408448,0.2516932785511017,-4.014841556549072,0.5541310906410217,98.12565612792967,35.95,2
-0.4027763903141022,-0.9682400226593018,0.3014666140079498,4.466849327087402,0.554013192653656,97.8728485107422,35.95,2
-0.4655963480472564,-0.9740204811096193,0.3278104960918426,9.73436450958252,0.553937554359436,97.71060943603516,35.95,2
-0.5059105753898621,-0.9777300953865052,0.2999342978000641,9.342300415039062,0.5538889765739441,97.60649871826172,35.95,2
-0.4590108692646026,-0.9745129346847534,0.2540560960769653,5.515285491943359,0.5538578033447266,97.53968048095705,35.95,2
-0.39532670378685,-1.0060349702835083,0.2078207731246948,1.6728708744049072,0.5538378357887268,97.4968032836914,35.95,2
-0.3488600850105285,-1.071046233177185,0.1781496107578277,-0.8932816386222839,0.5538250207901001,97.4692840576172,35.95,2
-0.3022471666336059,-1.140755534172058,0.159108355641365,-2.47560453414917,0.5538167953491211,97.45162963867188,35.95,2
-0.2611381411552429,-1.1686975955963137,0.1524865478277206,-3.53403902053833,0.5538114905357361,97.44029998779295,35.95,2
-0.2291589528322219,-1.1474448442459106,0.1818237006664276,-4.643190383911133,0.5538080930709839,97.43302917480467,35.95,2
-0.2310276478528976,-1.111414909362793,0.234237253665924,-6.508569240570068,0.5538058876991272,97.42835998535156,35.95,2
-0.2322268635034561,-1.088292956352234,0.318253219127655,-9.479037284851074,0.5538045167922974,97.42536163330078,35.95,2
-0.2441920042037964,-1.0566613674163818,0.3273876309394836,-13.445293426513672,0.5538036227226257,97.4234390258789,35.95,2
-0.2630660831928253,-1.019568681716919,0.3108584880828857,-17.75323486328125,0.553803026676178,97.42220306396484,35.95,2
-0.2751783728599548,-0.9565802812576294,0.2610666155815124,-20.664709091186523,0.5565569400787354,97.4214096069336,35.95,2
-0.2717558145523071,-0.876973569393158,0.2179175019264221,-20.07906150817871,0.5583242177963257,97.42090606689452,35.95,2
-0.2471683025360107,-0.7978976964950562,0.2014224231243133,-15.511613845825195,0.5594583749771118,97.42057800292967,35.95,2
-0.1978028118610382,-0.7079669237136841,0.1964346170425415,-8.299310684204102,0.5601862072944641,97.42037200927734,35.95,2
-0.1661228835582733,-0.6334611773490906,0.1932337284088134,0.2448856234550476,0.5606533288955688,97.42023468017578,35.95,2
-0.1513902992010116,-0.5968432426452637,0.1911795735359192,9.428858757019045,0.5609530806541443,97.42015075683594,35.95,2
-0.1531313210725784,-0.6013328433036804,0.1786657869815826,18.42869758605957,0.5611454248428345,97.42009735107422,35.95,2
-0.1822374761104583,-0.693778395652771,0.1818307042121887,25.999147415161133,0.5612688660621643,97.42005920410156,35.95,2
-0.2233072370290756,-0.881853461265564,0.1838617771863937,30.459760665893555,0.5604298710823059,97.42003631591795,35.95,2
-0.2776523232460022,-1.0977113246917725,0.1851651966571808,30.370281219482425,0.5598914623260498,97.4200210571289,35.95,2
-0.3517122864723205,-1.3649853467941284,0.2195883095264434,26.27887916564941,0.5595459342002869,97.42001342773438,35.95,2
-0.43842414021492,-1.5421041250228882,0.2696679532527923,20.98423385620117,0.5593242049217224,97.42000579833984,35.95,2
-0.6116240620613098,-1.4094667434692385,0.307403951883316,17.124282836914062,0.5591819286346436,97.42000579833984,35.95,2
-0.560438334941864,-1.190001130104065,0.2812407910823822,15.496258735656738,0.5590906143188477,97.42000579833984,35.95,2
-0.3932437002658844,-1.0771496295928955,0.2980374097824096,15.504764556884766,0.5590320229530334,97.42000579833984,35.95,2
-0.1795901209115982,-1.0159235000610352,0.3424031734466553,15.58187484741211,0.5589944124221802,97.42000579833984,35.95,2
-0.0424795411527156,-0.9598388075828552,0.354081243276596,13.424492835998535,0.5580524206161499,96.60675811767578,35.95,2
-0.0384564734995365,-0.8958579897880554,0.2776089310646057,7.705092430114746,0.5574479103088379,96.0848617553711,35.95,2
-0.1534279584884643,-0.8492010235786438,0.1613601148128509,0.1261206567287445,0.5570599436759949,95.74993896484376,35.95,2
-0.2943833470344543,-0.8192592859268188,0.0699649900197982,-5.608192920684815,0.5568109750747681,95.53500366210938,35.95,2
-0.4688070118427276,-0.8112399578094482,0.0281061809509992,-7.346389293670654,0.55665123462677,95.3970718383789,35.95,2
-0.5695465207099915,-0.8004958033561707,0.0460258014500141,-5.778514862060547,0.5565487146377563,95.30855560302734,35.95,2
-0.6006087064743042,-0.7991986274719238,0.0855144560337066,-2.3146960735321045,0.5564829111099243,95.2517547607422,35.95,2
-0.5813581943511963,-0.7983661890029907,0.1276493221521377,2.226109504699707,0.5564406514167786,95.21530151367188,35.95,2
-0.5466132164001465,-0.8034297227859497,0.1602868288755417,6.6734795570373535,0.5550364255905151,95.19190979003906,35.95,2
-0.4851314723491668,-0.8346680998802185,0.1980250179767608,9.63502311706543,0.554135262966156,95.17689514160156,35.95,2
-0.4232849478721618,-0.8771061897277832,0.2334387749433517,11.073418617248535,0.5535569190979004,95.1672592163086,35.95,2
-0.3612042963504791,-0.9267315864562988,0.2505674958229065,12.150548934936523,0.553185760974884,95.16107940673828,35.95,2
-0.3549511730670929,-0.9697738885879515,0.2223753184080124,13.22512435913086,0.5529475808143616,95.15711212158205,35.95,2
-0.3789271414279938,-1.0309826135635376,0.1930876523256302,13.094315528869627,0.5527947545051575,95.1545639038086,35.95,2
-0.4446935057640075,-1.1374361515045166,0.179890289902687,10.11923122406006,0.552696704864502,95.1529312133789,35.95,2
-0.481300801038742,-1.2001540660858154,0.1826165318489074,3.581305980682373,0.5526337623596191,95.1518783569336,35.95,2
-0.4600110650062561,-1.134045124053955,0.1787682920694351,-5.540399074554443,0.552134096622467,95.15120697021484,35.95,2
-0.3735774755477905,-1.097218036651611,0.1427120715379715,-14.66507625579834,0.5518134236335754,95.15077209472656,35.95,2
-0.295718252658844,-1.1183667182922363,0.1083777174353599,-21.28385734558105,0.551607608795166,95.15049743652344,35.95,2
-0.3129259943962097,-1.1767208576202393,0.0639528036117553,-24.9725284576416,0.5514755845069885,95.15032196044922,35.95,2
-0.2735889554023742,-1.1134092807769775,0.0354434549808502,-26.934873580932617,0.5513908267021179,95.15020751953124,35.95,2
-0.2091602832078933,-1.0391929149627686,0.0339411161839962,-27.395278930664062,0.5513364672660828,95.15013122558594,35.95,2
-0.1734114438295364,-0.9635762572288512,0.0441725514829158,-24.77094268798828,0.5513015389442444,95.15008544921876,35.95,2
-0.1784587800502777,-0.903854250907898,0.0395429506897926,-18.08551979064941,0.5512791275978088,95.15005493164062,35.95,2
-0.2376756072044372,-0.8599303364753723,-0.0082102539017796,-9.037538528442385,0.5521829724311829,95.15003204345705,35.95,2
-0.2868731021881103,-0.8653291463851929,-0.0556488372385501,-0.4975596964359283,0.5527629852294922,95.1500244140625,35.95,2
-0.3184452354907989,-0.8855871558189392,-0.0860921889543533,6.218895435333252,0.5531352162361145,95.15001678466795,35.95,2
-0.3051197528839111,-0.8985875248908997,-0.0776401087641716,11.507172584533691,0.5533741116523743,95.15000915527344,35.95,2
-0.2909704446792602,-0.906930446624756,-0.0666182786226272,15.87892723083496,0.5535274147987366,95.15000915527344,35.95,2
-0.2706947028636932,-0.8786978125572205,-0.05954509973526,19.35441017150879,0.553625762462616,95.15000915527344,35.95,2
-0.2632806599140167,-0.866177499294281,-0.0438103936612606,22.46250534057617,0.5536888837814331,95.15000915527344,35.95,2
-0.2753160893917084,-0.8861315250396729,-0.0281149893999099,27.3410758972168,0.5537294149398804,95.15000915527344,35.95,2
-0.3278219401836395,-0.9493168592453004,0.0043485159985721,37.12112045288086,0.5528371930122375,94.4299087524414,35.97,2
-0.3727127015590668,-1.006658911705017,0.0251817256212234,52.7909049987793,0.5522646307945251,93.96778869628906,35.97,2
-0.4183143377304077,-1.105033278465271,0.0609423778951168,69.13070678710938,0.5518971681594849,93.67122650146484,35.97,2
-0.4307855069637298,-1.1569687128067017,0.0950870513916015,75.00587463378906,0.5516613721847534,93.4809112548828,35.97,2
-0.3884088397026062,-1.1902978420257568,0.1114013642072677,61.75540542602539,0.5515100359916687,93.35877990722656,35.97,2
-0.3668116927146911,-1.1277199983596802,0.1050776317715644,32.16497802734375,0.5514129400253296,93.28040313720705,35.97,2
-0.3025719225406647,-1.0595722198486328,0.1178127452731132,-1.756632924079895,0.5513506531715393,93.2301025390625,35.97,2
-0.2221621125936508,-1.0774143934249878,0.4226674437522888,-29.23261070251465,0.551310658454895,93.19782257080078,35.97,2
-0.2713196575641632,-1.0496801137924194,0.4615679681301117,-46.12710189819336,0.5512849688529968,93.17710876464844,35.97,2
-0.2972683608531952,-0.9591107964515686,0.3913699090480804,-52.96727752685547,0.5512685179710388,93.16381072998048,35.97,2
-0.2859318852424621,-0.8674019575119019,0.2399631291627884,-52.7138900756836,0.5512579679489136,93.15528106689452,35.97,2
-0.3010478913784027,-0.8085485100746155,0.1316034346818924,-49.26605987548828,0.5512511730194092,93.1498031616211,35.97,2
-0.3667262196540832,-0.781975269317627,0.0452710874378681,-44.88598251342773,0.5512468218803406,93.14629364013672,35.97,2
-0.352897047996521,-0.7705199122428894,-0.0101320417597889,-39.348758697509766,0.5512440204620361,93.14403533935548,35.97,2
-0.344022274017334,-0.7799618244171143,-0.0400888063013553,-32.24137496948242,0.5512422323226929,93.14258575439452,35.97,2
-0.3383269608020782,-0.7972166538238525,-0.036922238767147,-25.047069549560547,0.5512410998344421,93.14166259765624,35.97,2
-0.3402698040008545,-0.8082898259162903,-0.0404878892004489,-20.229555130004883,0.5512403249740601,93.1410675048828,35.97,2
-0.3415166139602661,-0.8545803427696228,-0.0427761189639568,-18.699954986572266,0.5512398481369019,93.14068603515624,35.97,2
-0.3255234062671661,-0.8674936294555664,-0.0106579260900616,-18.91492462158203,0.551239550113678,93.14044189453124,35.97,2
-0.3040643632411957,-0.8589872717857361,0.0267470031976699,-18.79493522644043,0.5512393712997437,93.1402816772461,35.97,2
-0.2511087357997894,-0.8871150612831116,0.0675446540117263,-17.661073684692383,0.5512392520904541,93.1401824951172,35.97,2
-0.2227226495742797,-0.916361391544342,0.1049217879772186,-15.82999324798584,0.5512391924858093,93.1401138305664,35.97,2
-0.2436905205249786,-0.92953222990036,0.1345060616731643,-13.773597717285156,0.5512391328811646,93.14007568359376,35.97,2
-0.2851353585720062,-0.993962287902832,0.1590893119573593,-12.489747047424316,0.5512390732765198,93.14004516601562,35.97,2
-0.3173300325870514,-1.080091953277588,0.1972565203905105,-12.90541648864746,0.5452715754508972,93.14002990722656,35.97,2
-0.3659796118736267,-1.2081360816955566,0.2441411465406417,-13.709555625915527,0.5414419770240784,93.14002227783205,35.97,2
-0.4083956480026245,-1.2791118621826172,0.2686312198638916,-11.85752296447754,0.5389843583106995,93.1400146484375,35.97,2
-0.4188224971294403,-1.184715747833252,0.222772017121315,-6.369904518127441,0.5374071598052979,93.14000701904295,35.97,2
-0.4087205231189728,-1.1521265506744385,0.1597555875778198,0.1575145274400711,0.5363950133323669,93.14000701904295,35.97,2
-0.3910421133041382,-1.136810541152954,0.1249130368232727,4.529147148132324,0.5357455015182495,93.14000701904295,35.97,2
-0.3908926844596863,-1.126981496810913,0.1081508696079254,5.622138023376465,0.5353286862373352,93.14000701904295,35.97,2
-0.3907967805862427,-1.109478235244751,0.0917961001396179,3.9160661697387695,0.5350611805915833,93.14000701904295,35.97,2
-0.3683441281318664,-1.0702568292617798,0.075702778995037,0.4459598958492279,0.5399391651153564,92.47006225585938,35.97,2
-0.3259464502334595,-1.028293490409851,0.0541794598102569,-3.28921890258789,0.5430695414543152,92.04013061523438,35.97,2
-0.2931402921676636,-0.9957660436630248,0.0347692593932151,-5.886866092681885,0.545078456401825,91.76422119140624,35.97,2
-0.2944782674312591,-0.997282862663269,0.0335084572434425,-7.063073635101318,0.5463676452636719,91.587158203125,35.97,2
-0.306532472372055,-1.0150495767593384,0.0326993465423584,-7.441725254058838,0.5471950173377991,91.4735336303711,35.97,2
-0.3310614824295044,-1.054440140724182,0.0265823323279619,-7.204657077789307,0.5477259755134583,91.4006118774414,35.97,2
-0.3188139200210571,-1.0517299175262451,-0.0109298601746559,-5.612325191497803,0.5480666756629944,91.35382080078124,35.97,2
-0.2885630428791046,-1.0387951135635376,-0.0406008027493953,-2.0145862102508545,0.5482853651046753,91.32379150390624,35.97,2
-0.241160899400711,-1.0416897535324097,-0.0484463572502136,3.360920190811157,0.5484256744384766,91.30451965332033,35.97,2
-0.2163387089967727,-1.0379496812820437,-0.0422856323421001,9.816391944885254,0.5485157370567322,91.29215240478516,35.97,2
-0.2172025740146637,-1.0131583213806152,-0.0271364841610193,16.803707122802734,0.5485734939575195,91.28421783447266,35.97,2
-0.2457458227872848,-0.9804553985595704,-0.0230124071240425,23.852888107299805,0.5486105680465698,91.27912139892578,35.97,2
-0.2752587795257568,-0.9594685435295104,-0.0371591374278068,29.927902221679688,0.5486343502998352,91.2758560180664,35.97,2
-0.2997962832450866,-0.9739892482757568,-0.0630310177803039,33.33926773071289,0.5486496686935425,91.27375793457033,35.97,2
-0.3155430257320404,-0.972112238407135,-0.0740363225340843,32.848716735839844,0.5486594438552856,91.27240753173828,35.97,2
-0.3368439376354217,-0.9429188370704652,-0.0587077997624874,28.879682540893555,0.5486657619476318,91.27154541015624,35.97,2
-0.3561114072799682,-0.957770824432373,-0.020881962031126,23.169170379638672,0.5486698150634766,91.27098846435548,35.97,2
-0.3740739226341247,-0.9840952754020692,0.0089902579784393,17.39077377319336,0.5486723780632019,91.2706298828125,35.97,2
-0.3688079118728637,-1.0569665431976318,0.0337583012878894,12.281744003295898,0.5486740469932556,91.27040100097656,35.97,2
-0.3542329370975494,-1.1317200660705566,0.0496530048549175,7.78498649597168,0.5486751198768616,91.27025604248048,35.97,2
-0.316890686750412,-1.1908880472183228,0.0710488632321357,3.99641752243042,0.5486757755279541,91.2701644897461,35.97,2
-0.3097199201583862,-1.2176631689071655,0.0959750413894653,1.8302428722381592,0.5486762523651123,91.27010345458984,35.97,2
-0.3051181435585022,-1.2348458766937256,0.1455578804016113,2.063023328781128,0.5486765503883362,91.2700653076172,35.97,2
-0.2070028036832809,-1.161906123161316,0.2501483559608459,3.806654453277588,0.5486767292022705,91.2700424194336,35.97,2
-0.060071412473917,-1.0871087312698364,0.3564529120922088,4.818139553070068,0.5463814735412598,91.27002716064452,35.97,2
0.0957962125539779,-0.9663369655609132,0.4694552719593048,3.321289300918579,0.5449085235595703,91.27001953125,35.97,2
0.1006609126925468,-0.8664414882659912,0.4580070674419403,-0.8385428190231323,0.5439632534980774,91.27001190185548,35.97,2
0.0478050522506237,-0.8359209895133972,0.4282691478729248,-6.413552284240723,0.5433566570281982,91.27000427246094,35.97,2
-0.1260591447353363,-0.8443235754966736,0.3420117795467376,-11.775395393371582,0.5429673790931702,91.27000427246094,35.97,2
-0.2096463143825531,-0.8217269778251648,0.3034500777721405,-15.943580627441406,0.5427175164222717,91.27000427246094,35.97,2
-0.3304610550403595,-0.8128235936164856,0.2451167553663253,-18.45368385314941,0.5425571799278259,91.27000427246094,35.97,2
-0.3128308355808258,-0.8183054327964783,0.2580617666244507,-18.617162704467773,0.5424543023109436,91.27000427246094,35.97,2
-0.2343434691429138,-0.8330188989639282,0.3223468661308288,-15.96349048614502,0.5433064699172974,90.67887878417967,35.99,2
-0.2623436450958252,-0.8760477900505066,0.2964280545711517,-11.43744659423828,0.5438533425331116,90.29953002929688,35.99,2
-0.3194969594478607,-0.90366131067276,0.2070237845182418,-6.960142135620117,0.5442042946815491,90.05608367919922,35.99,2
-0.3841635286808014,-1.022141933441162,0.1440514922142028,-3.775181293487549,0.5444295406341553,89.89985656738281,35.99,2
-0.4928361177444458,-1.154153823852539,0.0924439579248428,-1.9354636669158936,0.5445740818977356,89.79959869384766,35.99,2
-0.5625759363174438,-1.2500669956207275,0.0649229884147644,-0.9626283049583436,0.5446668267250061,89.73526000976562,35.99,2
-0.4617888033390045,-1.143685221672058,0.0584571585059165,-0.3132405281066894,0.5447263717651367,89.6939697265625,35.99,2
-0.3523272275924682,-1.0138400793075562,0.0599055364727973,0.3005408346652984,0.5447645783424377,89.66747283935547,35.99,2
-0.2764832973480224,-1.0088818073272705,0.1000194400548935,0.5762054324150085,0.544329822063446,89.65046691894531,35.99,2
-0.2893865406513214,-1.0336886644363403,0.1593488901853561,0.0974997133016586,0.5440508127212524,89.6395492553711,35.99,2
-0.3480470776557922,-1.0608038902282717,0.1918253302574157,-0.7900832891464233,0.5438717603683472,89.6325454711914,35.99,2
-0.4136809110641479,-1.0502159595489502,0.1734824180603027,-1.2127974033355713,0.5437568426132202,89.6280517578125,35.99,2
-0.4334098398685455,-1.00983464717865,0.14491768181324,-1.036249041557312,0.5436831116676331,89.62516784667969,35.99,2
-0.3900929689407348,-0.9447357654571532,0.1321842521429062,-1.38152015209198,0.5436357855796814,89.6233139038086,35.99,2
-0.3455013632774353,-0.9253501892089844,0.1408059895038604,-3.5663466453552246,0.5436054468154907,89.62213134765625,35.99,2
-0.3112872838973999,-0.9297029376029968,0.1519366949796676,-7.619548797607422,0.5435859560966492,89.62136840820312,35.99,2
-0.2725373208522796,-0.9660829305648804,0.1590797454118728,-11.890140533447266,0.5444916486740112,89.62088012695312,35.99,2
-0.2364742904901504,-1.0006251335144043,0.1580659747123718,-14.229512214660645,0.5450728535652161,89.62056732177734,35.99,2
-0.1965377777814865,-1.005998969078064,0.135024294257164,-13.79261302947998,0.5454458594322205,89.620361328125,35.99,2
-0.1709088236093521,-0.9870564937591552,0.1202374696731567,-11.341195106506348,0.5456852316856384,89.62023162841797,35.99,2
-0.1600594073534011,-0.9860958456993104,0.1499325484037399,-7.858503341674805,0.5458388328552246,89.62014770507812,35.99,2
0.031629666686058,-0.99667489528656,0.2025757879018783,-3.692503929138184,0.5459374189376831,89.6200942993164,35.99,2
0.1882313191890716,-0.975475013256073,0.1803814470767974,0.8188557028770447,0.5460007190704346,89.62006378173828,35.99,2
0.1151982545852661,-0.9954568147659302,0.0821717828512191,5.021626949310303,0.5460413098335266,89.62004089355469,35.99,2
-0.0100390072911977,-1.1034421920776367,0.0415375716984272,8.47464656829834,0.5446901917457581,89.62002563476562,35.99,2
-0.118397943675518,-1.1783387660980225,0.0210586488246917,11.113340377807615,0.5438231229782104,89.6200180053711,35.99,2
-0.2215231209993362,-1.1816208362579346,0.0191120039671659,12.989413261413574,0.5432667136192322,89.62001037597656,35.99,2
-0.2821051478385925,-1.1557382345199585,0.0290583074092865,14.257855415344238,0.5429096221923828,89.62001037597656,35.99,2
-0.2370165884494781,-1.0495638847351074,0.0354412719607353,15.086198806762695,0.5426805019378662,89.62001037597656,35.99,2
-0.1465058326721191,-0.9982206225395204,0.0619285888969898,15.331175804138184,0.5425334572792053,89.62001037597656,35.99,2
-0.0772256851196289,-0.9932603240013124,0.0957199484109878,14.571249008178713,0.5424391031265259,89.62001037597656,35.99,2
-0.0383634492754936,-1.001272678375244,0.1453941762447357,12.600384712219238,0.5423785448074341,89.62001037597656,35.99,2
-0.0302172284573316,-0.98402339220047,0.1828700006008148,9.662534713745115,0.5437167882919312,89.1256103515625,35.97,2
-0.0473805479705333,-0.9449649453163148,0.2125176042318344,6.5268731117248535,0.5445756316184998,88.80833435058594,35.97,2
-0.0863838493824005,-0.9198994636535645,0.2371415048837661,4.962408065795898,0.5451267957687378,88.60472106933594,35.97,2
-0.1170117035508155,-0.9094116687774658,0.2585414946079254,7.433522224426269,0.545480489730835,88.47405242919922,35.97,2
-0.1702535450458526,-0.8970834016799927,0.2778725326061249,14.429030418395996,0.5457074642181396,88.39019775390625,35.97,2
-0.2212144136428833,-0.889171838760376,0.2958758473396301,22.19998359680176,0.5458531379699707,88.33638763427734,35.97,2
-0.2595159411430359,-0.8728991150856018,0.3186249136924743,25.392065048217773,0.5459465980529785,88.3018569946289,35.97,2
-0.3064867556095123,-0.8736518025398254,0.3332239389419555,22.42853546142578,0.5460065603256226,88.27969360351562,35.97,2
-0.3366299271583557,-0.8965259194374084,0.3369949758052826,16.743513107299805,0.5469632744789124,88.26547241210938,35.97,2
-0.3503763079643249,-0.9279985427856444,0.3338172435760498,12.751265525817873,0.5475772619247437,88.25634765625,35.97,2
-0.3424046039581299,-0.9370002746582032,0.3093868494033813,12.12744426727295,0.547971248626709,88.25048828125,35.97,2
-0.2981044054031372,-0.9539726376533508,0.2713177502155304,13.256871223449709,0.5482240915298462,88.2467269897461,35.97,2
-0.2640773057937622,-0.9704622626304626,0.2636805176734924,12.308609008789062,0.5483863353729248,88.24431610107422,35.97,2
-0.2534362375736236,-0.9978377223014832,0.2755726873874664,6.00377368927002,0.5484904646873474,88.24276733398438,35.97,2
-0.2745962738990783,-1.088176727294922,0.3335843682289123,-4.777547836303711,0.5485572814941406,88.24177551269531,35.97,2
-0.293773353099823,-1.1573467254638672,0.3708129227161407,-15.157148361206056,0.5486001968383789,88.24114227294922,35.97,2
-0.3228734135627746,-1.1625516414642334,0.3219330012798309,-20.85446548461914,0.5490866303443909,88.24073028564453,35.97,2
-0.2967659533023834,-1.2050762176513672,0.2737713754177093,-21.20395851135254,0.5493987798690796,88.24047088623047,35.97,2
-0.2296317219734192,-1.265952706336975,0.2484617829322815,-17.79909324645996,0.5495991110801697,88.24030303955078,35.97,2
-0.1529621928930282,-1.2938241958618164,0.2266217619180679,-12.85904598236084,0.5497276782989502,88.24019622802734,35.97,2
-0.1149556562304496,-1.2781238555908203,0.2070083171129226,-9.28756046295166,0.5498101711273193,88.24012756347656,35.97,2
-0.1409452110528946,-1.1896793842315674,0.2000193148851394,-9.517719268798828,0.5498631000518799,88.24008178710938,35.97,2
-0.191210463643074,-1.0937364101409912,0.1955341696739196,-12.900486946105955,0.5498970746994019,88.24005126953125,35.97,2
-0.2122722566127777,-1.0209702253341677,0.2206447422504425,-15.87385082244873,0.5499188899993896,88.24002838134766,35.97,2
-0.2313862740993499,-0.95747971534729,0.2031726092100143,-15.704090118408203,0.551768958568573,88.24002075195312,35.97,2
-0.2380547821521759,-0.8887463212013245,0.135982260107994,-12.92254638671875,0.552956223487854,88.2400131225586,35.97,2
-0.2199431508779525,-0.8278438448905945,0.081667810678482,-9.69731616973877,0.5537181496620178,88.24000549316406,35.97,2
-0.1971246004104614,-0.7495757341384888,0.0188230536878108,-7.351690769195557,0.5542070865631104,88.24000549316406,35.97,2
-0.1824809610843658,-0.6825544238090515,-0.0159093216061592,-5.946715354919434,0.5545209050178528,88.24000549316406,35.97,2
-0.1730835139751434,-0.6451417803764343,-0.0158074609935283,-4.70832109451294,0.554722249507904,88.24000549316406,35.97,2
-0.1726505607366562,-0.6379258632659912,-0.0045465440489351,-1.9575046300888064,0.5548514723777771,88.24000549316406,35.97,2
-0.1723727136850357,-0.672479510307312,0.0082778390496969,3.848956346511841,0.5549343824386597,88.24000549316406,35.97,2
-0.1945855021476745,-0.7730228900909424,0.0388988852500915,11.64143180847168,0.5563647747039795,87.73486328125,35.95,2
-0.1976448446512222,-0.8991213440895081,0.0585497133433818,17.903261184692383,0.5572826862335205,87.41069030761719,35.95,2
-0.1660215109586715,-1.1591728925704956,0.020780511200428,20.728744506835938,0.5578717589378357,87.20265197753906,35.95,2
-0.1905096620321273,-1.3764389753341677,-0.0314464569091796,21.83262825012207,0.558249831199646,87.06914520263672,35.95,2
-0.2678002715110779,-1.353532314300537,-0.0089849773794412,23.35786437988281,0.5584924221038818,86.98346710205078,35.95,2
-0.3118031620979309,-1.2996478080749512,0.0949938967823982,24.89197158813477,0.5586481094360352,86.9284896850586,35.95,2
-0.3064550459384918,-1.2986544370651243,0.1841126531362533,24.73721504211425,0.5587480068206787,86.89320373535156,35.95,2
-0.280631810426712,-1.286821365356445,0.1965217441320419,22.02262115478516,0.558812141418457,86.87055969238281,35.95,2
-0.2640599608421325,-1.2344454526901243,0.1541052162647247,16.96666717529297,0.5547218322753906,86.85603332519531,35.95,2
-0.2478273212909698,-1.1280624866485596,0.0765047594904899,11.156923294067385,0.552096962928772,86.84671020507812,35.95,2
-0.2486056983470916,-1.0094120502471924,0.0379008017480373,7.639936447143555,0.5504124164581299,86.8407211303711,35.95,2
-0.2491052150726318,-0.922073483467102,0.0243225526064634,8.431708335876465,0.5493314266204834,86.83688354492188,35.95,2
-0.2774146497249603,-0.8660246133804321,0.0156088145449757,11.694823265075684,0.5486376881599426,86.83441925048828,35.95,2
-0.3235708773136139,-0.8468490242958069,0.0044190646149218,13.348244667053224,0.5481925010681152,86.83283996582031,35.95,2
-0.3979735076427459,-0.8737276196479797,-0.0083596482872962,11.28172779083252,0.5479068160057068,86.83182525634766,35.95,2
-0.4345252811908722,-0.8965745568275452,-0.0109625151380896,6.476874828338623,0.5477234721183777,86.83116912841797,35.95,2
-0.441188782453537,-0.9224319458007812,0.0097582126036286,0.8103595972061157,0.5457697510719299,86.83074951171875,35.95,2
-0.4006828367710113,-0.9726123809814452,0.0566422268748283,-4.556467533111572,0.5445159673690796,86.83048248291016,35.95,2
-0.3578951060771942,-1.0048153400421145,0.0867296904325485,-9.304645538330078,0.5437113046646118,86.83030700683594,35.95,2
-0.3304364085197449,-1.064665675163269,0.1452225148677826,-13.83493995666504,0.5431949496269226,86.8302001953125,35.95,2
-0.1056973561644554,-1.1702475547790527,0.3059108853340149,-18.630239486694336,0.5428636074066162,86.83013153076172,35.95,2
0.083309419453144,-1.16523277759552,0.3362603485584259,-23.516786575317383,0.5426509380340576,86.83008575439453,35.95,2
-0.3159899115562439,-1.139623522758484,0.3389435708522796,-28.06064414978028,0.542514443397522,86.8300552368164,35.95,2
-0.7457682490348816,-1.0952000617980957,0.4918054342269897,-32.456233978271484,0.5424268841743469,86.83003234863281,35.95,2
-0.7920665144920349,-1.0722894668579102,0.6794677376747131,-37.30839157104492,0.5428296327590942,86.83002471923828,35.95,2
-0.6426492929458618,-1.1079667806625366,0.6431609392166138,-42.46429443359375,0.5430880784988403,86.83001708984375,35.95,2
-0.496381938457489,-1.153253436088562,0.5862746834754944,-46.5146484375,0.5432539582252502,86.83000946044922,35.95,2
-0.3633315563201904,-1.2103047370910645,0.521779477596283,-47.44086837768555,0.5433604121208191,86.83000946044922,35.95,2
-0.305936336517334,-1.2189280986785889,0.4356079697608948,-43.8221549987793,0.5434287190437317,86.83000946044922,35.95,2
-0.2467122972011566,-1.15169095993042,0.3635147511959076,-35.96479415893555,0.5434725284576416,86.83000946044922,35.95,2
-0.2254990488290786,-1.0749554634094238,0.2948583662509918,-25.960525512695312,0.5435006618499756,86.83000946044922,35.95,2
-0.2062878310680389,-1.0313087701797483,0.2507986426353454,-16.3876953125,0.5435187220573425,86.83000946044922,35.95,2
-0.2107525020837783,-0.9865055084228516,0.1889370083808899,-8.943928718566895,0.5439895987510681,86.49324035644531,35.99,2
-0.2248132079839706,-0.952155590057373,0.1436399966478347,-4.116791725158691,0.5442917346954346,86.2771224975586,35.99,2
-0.2338365614414215,-0.9021229147911072,0.1033754274249076,-1.5492342710494995,0.5444856286048889,86.13843536376953,35.99,2
-0.2172361314296722,-0.8196348547935486,0.0719381719827652,-0.4066669940948486,0.5446100831031799,86.04943084716797,35.99,2
-0.1953873932361602,-0.7443076968193054,0.0517635531723499,0.1796813458204269,0.544689953327179,85.9923095703125,35.99,2
-0.1701705753803253,-0.6791737079620361,0.0388166420161724,0.8855629563331604,0.5447412133216858,85.95565795898438,35.99,2
-0.1595856547355651,-0.6485700011253357,0.0249102860689163,2.338095664978028,0.5447741150856018,85.93213653564453,35.99,2
-0.1639884114265442,-0.6513214111328125,0.0103882132098078,5.219168663024902,0.5447952151298523,85.91703796386719,35.99,2
-0.1892049461603164,-0.7146626114845276,0.0122643318027257,10.313889503479004,0.5434315800666809,85.9073486328125,35.99,2
-0.1997896879911422,-0.8000935912132263,0.0190660916268825,18.222824096679688,0.5425565242767334,85.90113067626953,35.99,2
-0.2345712333917617,-1.0116559267044067,0.034626618027687,28.12046813964844,0.5419949293136597,85.89714050292969,35.99,2
-0.3184675574302673,-1.2481844425201416,0.0334169194102287,36.81163024902344,0.5416345596313477,85.89458465576172,35.99,2
-0.4786650836467743,-1.4391591548919678,0.0550317019224166,40.59424591064453,0.5414032936096191,85.8929443359375,35.99,2
-0.6654372215270996,-1.3657937049865725,0.0968916937708854,38.15657424926758,0.5412548780441284,85.89189147949219,35.99,2
-0.6901347041130066,-1.1955609321594238,0.134950578212738,30.46601104736328,0.5411596298217773,85.8912124633789,35.99,2
-0.5772353410720825,-1.0807175636291504,0.1985590010881424,19.24323081970215,0.5410984754562378,85.89077758789062,35.99,2
-0.4600008130073547,-1.0350065231323242,0.2393792271614074,7.365836143493652,0.5405999422073364,85.89049530029297,35.99,2
-0.3623753488063812,-0.994476318359375,0.2263908833265304,-1.628519058227539,0.5402800440788269,85.89031982421875,35.99,2
-0.3165182471275329,-0.9516730308532716,0.2348490208387375,-6.698393821716309,0.5400747656822205,85.89020538330078,35.99,2
-0.2591009438037872,-0.9130088090896606,0.2290814220905304,-9.923287391662598,0.5399430394172668,85.89012908935547,35.99,2
-0.2446449100971222,-0.8825985193252563,0.1917934715747833,-13.024620056152344,0.5398584604263306,85.89008331298828,35.99,2
-0.2577589750289917,-0.8798763155937195,0.2126463949680328,-15.38029956817627,0.539804220199585,85.89005279541016,35.99,2
-0.3053592443466186,-0.8781293630599976,0.2372241616249084,-15.92474365234375,0.5397694110870361,85.89002990722656,35.99,2
-0.3750907778739929,-0.8882037997245789,0.2585945129394531,-15.063225746154783,0.5397470593452454,85.89002227783203,35.99,2
-0.4254382252693176,-0.9114623069763184,0.2835043370723724,-13.972967147827148,0.5397326946258545,85.8900146484375,35.99,2
-0.4185639023780823,-0.9375838041305542,0.3106855750083923,-12.986696243286133,0.5397235155105591,85.89000701904297,35.99,2
-0.3861634731292724,-0.948749303817749,0.3169333934783935,-11.268243789672852,0.5397176146507263,85.89000701904297,35.99,2
-0.3653707504272461,-0.9503169059753418,0.3097473084926605,-7.700627326965332,0.5397137999534607,85.89000701904297,35.99,2
-0.3576249480247497,-0.9401273727416992,0.3499178886413574,-2.0685935020446777,0.5397113561630249,85.89000701904297,35.99,2
-0.3358608186244964,-0.9335883259773254,0.4148814976215362,3.168627977371216,0.5397098064422607,85.89000701904297,35.99,2
-0.3274916410446167,-0.9965652227401732,0.4565714001655578,3.398404359817505,0.5397087931632996,85.89000701904297,35.99,2
-0.3501096367835998,-1.0425779819488523,0.4721300303936004,-2.970843315124512,0.539708137512207,85.89000701904297,35.99,2
-0.3814179003238678,-1.0385196208953855,0.4317346811294555,-11.6976957321167,0.541084885597229,85.57115173339844,35.99,2
-0.3343364298343658,-1.0303174257278442,0.3666268587112427,-17.727996826171875,0.5419684052467346,85.36653137207031,35.99,2
-0.2761333882808685,-1.030651569366455,0.3304421901702881,-19.767200469970703,0.5425353646278381,85.23522186279297,35.99,2
-0.2443798035383224,-1.0420615673065186,0.324014276266098,-18.005577087402344,0.5428992509841919,85.15095520019531,35.99,2
-0.2240021824836731,-1.0549815893173218,0.3142914175987243,-12.350275039672852,0.5431327819824219,85.09687805175781,35.99,2
-0.2109249979257583,-1.080066204071045,0.2912585437297821,-4.683464050292969,0.5432826280593872,85.06217193603516,35.99,2
-0.2193261384963989,-1.0737730264663696,0.2820751368999481,1.8273167610168457,0.5433787703514099,85.03990173339844,35.99,2
-0.2303152829408645,-1.052941083908081,0.2593884170055389,6.557277679443359,0.5434404611587524,85.02560424804688,35.99,2
-0.2093786150217056,-1.01158344745636,0.2000471949577331,11.111706733703612,0.5425621867179871,85.01643371582031,35.99,2
-0.2071382105350494,-0.973846971988678,0.1619654148817062,15.617975234985352,0.541998565196991,85.01054382324219,35.99,2
-0.2057004421949386,-0.949629843235016,0.1543200463056564,18.241146087646484,0.5416368842124939,85.00676727294922,35.99,2
-0.2103755474090576,-0.928490936756134,0.1494136899709701,18.13325881958008,0.5414047837257385,85.00434112548828,35.99,2
-0.2245713025331497,-0.9037296175956726,0.1350695192813873,16.785043716430664,0.5412558317184448,85.0027847290039,35.99,2
-0.2560724318027496,-0.8486548066139221,0.1146687120199203,16.134790420532227,0.5411602258682251,85.00178527832031,35.99,2
-0.2594947218894958,-0.7965176701545715,0.1239677518606185,16.527156829833984,0.5410988926887512,85.00114440917969,35.99,2
-0.2560931742191314,-0.7518634796142578,0.1299353390932083,17.144378662109375,0.5410594940185547,85.000732421875,35.99,2
-0.2483124732971191,-0.7008159160614014,0.1337649971246719,17.991880416870117,0.5419521331787109,85.00047302246094,35.99,2
-0.2489170432090759,-0.6680564880371094,0.1530159711837768,21.115211486816406,0.5425249338150024,85.00030517578125,35.99,2
-0.2381094694137573,-0.6918156147003174,0.1709679067134857,29.485822677612305,0.5428925156593323,85.00019836425781,35.99,2
-0.2423693388700485,-0.7742361426353455,0.1600973308086395,42.900482177734375,0.5431284308433533,85.00012969970703,35.99,2
-0.2507008612155914,-0.8775088787078857,0.1643167734146118,54.47202682495117,0.5432798266410828,85.00008392333984,35.99,2
-0.2896341979503631,-1.0837277173995972,0.2006112188100814,54.78298568725586,0.5433769822120667,85.00005340576172,35.99,2
-0.3258149027824402,-1.2608492374420166,0.2406962215900421,41.28277206420898,0.5434393286705017,85.00003051757812,35.99,2
-0.421804666519165,-1.3745156526565552,0.3000071048736572,20.4276065826416,0.543479323387146,85.0000228881836,35.99,2
-0.533785343170166,-1.2571358680725098,0.3548627495765686,0.387535959482193,0.5439642667770386,85.00001525878906,35.99,2
-0.5776592493057251,-1.1426239013671875,0.367674857378006,-14.393287658691406,0.5442755222320557,85.00000762939453,35.99,2
-0.4266861975193023,-1.0859299898147583,0.3479080498218536,-22.581876754760746,0.544475257396698,85.00000762939453,35.99,2
-0.2682248651981354,-1.0495471954345703,0.3408206105232239,-25.114086151123047,0.5446034073829651,85.00000762939453,35.99,2
-0.1273490786552429,-0.9870143532752992,0.3418700993061065,-24.90841484069824,0.5446856617927551,85.00000762939453,35.99,2
-0.0873230844736099,-0.9076999425888062,0.2977613806724548,-24.29277992248535,0.5447384715080261,85.00000762939453,35.99,2
-0.078430026769638,-0.8456049561500549,0.2414660900831222,-23.202680587768555,0.5447723269462585,85.00000762939453,35.99,2
-0.1622873693704605,-0.8057559728622437,0.1381657123565673,-20.844385147094727,0.5447940826416016,85.00000762939453,35.99,2
-0.3000687956809997,-0.7857809662818909,0.0606779307126998,-17.611330032348633,0.5457258820533752,84.74564361572266,35.99,2
-0.461260050535202,-0.8009510636329651,0.0445373766124248,-14.451022148132324,0.546323835849762,84.58240509033203,35.99,2
-0.5479099750518799,-0.8162841200828552,0.0453748479485511,-11.487865447998049,0.5467075705528259,84.47764587402344,35.99,2
-0.575528085231781,-0.8205261826515198,0.0571078360080719,-8.153252601623535,0.5469538569450378,84.4104232788086,35.99,2
-0.5540673732757568,-0.8176507353782654,0.059039618819952,-4.214836597442627,0.5471118688583374,84.36727905273438,35.99,2
-0.5179039835929871,-0.8270009756088257,0.0658771023154258,-0.3546699285507202,0.5472133159637451,84.33959197998047,35.99,2
-0.4667075574398041,-0.9057725071907043,0.0702650025486946,2.0903196334838867,0.5472784042358398,84.32182312011719,35.99,2
-0.3554838001728058,-1.012301325798035,0.1682430803775787,2.154691457748413,0.5473201870918274,84.3104248046875,35.99,2
-0.1833468526601791,-1.0806653499603271,0.2982930541038513,-0.1290898025035858,0.5455109477043152,84.30310821533203,35.99,2
-0.0001081883965525,-1.1357330083847046,0.3481650054454803,-4.141900539398193,0.5443498492240906,84.29841613769531,35.99,2
0.0727016329765319,-1.171072244644165,0.3129966557025909,-9.002774238586426,0.5436047315597534,84.29540252685547,35.99,2
0.0802423730492591,-1.1657620668411257,0.3184165060520172,-13.175480842590332,0.5431265830993652,84.29346466064453,35.99,2
0.0123105179518461,-1.07838773727417,0.361079066991806,-14.950474739074709,0.5428196787834167,84.29222106933594,35.99,2
-0.0424797870218753,-0.9719358682632446,0.3548707962036133,-13.825376510620115,0.5426227450370789,84.29142761230469,35.99,2
-0.1056299284100532,-0.9707944989204408,0.2725178599357605,-10.810503959655762,0.542496383190155,84.2909164428711,35.99,2
-0.2077315747737884,-1.020442008972168,0.1860818266868591,-7.457032680511475,0.5424152612686157,84.29058837890625,35.99,2
-0.3684166967868805,-1.0634984970092771,0.085829958319664,-4.953875541687012,0.5419042706489563,84.29037475585938,35.99,2
-0.4435462951660156,-1.0127607583999634,-0.0064947973005473,-3.609021186828613,0.5415763854980469,84.29023742675781,35.99,2
-0.4301846027374267,-0.9690046906471252,-0.0489501804113388,-2.706562757492065,0.541365921497345,84.29015350341797,35.99,2
-0.3768276572227478,-0.9353268146514891,-0.0426089577376842,-1.1314610242843628,0.5412308573722839,84.29010009765625,35.99,2
-0.3481840193271637,-0.9137142896652222,-0.0329417511820793,1.4735949039459229,0.5411441922187805,84.2900619506836,35.99,2
-0.3409977257251739,-0.8998445868492126,-0.0379334427416324,4.331202507019043,0.5410885810852051,84.2900390625,35.99,2
-0.347581535577774,-0.907737135887146,-0.0411368235945701,6.820661544799805,0.5410528779029846,84.29002380371094,35.99,2
-0.3462088704109192,-0.9183999300003052,-0.0431925691664218,9.625580787658691,0.5410299897193909,84.2900161743164,35.99,2
-0.3397301733493805,-0.9364382028579712,-0.044511828571558,13.560832023620604,0.5414742231369019,84.29000854492188,35.99,2
-0.3299747705459595,-0.9480141401290894,-0.0397606790065765,17.959936141967773,0.5417593121528625,84.29000854492188,35.99,2
-0.306920975446701,-0.9498451352119446,-0.031113889068365,21.7968978881836,0.541942298412323,84.29000854492188,35.99,2
-0.286528617143631,-0.9790090322494508,0.0024239958729594,26.07918739318848,0.5420597195625305,84.29000854492188,35.99,2
-0.2790397405624389,-0.9977247714996338,0.0295444540679454,33.71036529541016,0.5421350598335266,84.29000854492188,35.99,2
-0.2910271286964416,-1.004137635231018,0.0525465756654739,46.16326904296875,0.5421833992004395,84.29000854492188,35.99,2
-0.2931221723556518,-1.0250463485717771,0.0673080161213874,59.40687942504883,0.5422144532203674,84.29000854492188,35.99,2
-0.2944666445255279,-1.0384644269943235,0.0767810568213462,64.00802612304688,0.5422343611717224,84.29000854492188,35.99,2
-0.3233183324337005,-1.069466471672058,0.1052514091134071,52.46925735473633,0.5413289070129395,84.08938598632812,35.99,2
-0.3530292212963104,-1.055775165557861,0.140315368771553,27.223114013671875,0.5407478213310242,83.96063232421875,35.99,2
-0.355302631855011,-1.046988844871521,0.14042629301548,-1.1125904321670532,0.5403749346733093,83.87800598144531,35.99,2
-0.3791526854038238,-1.069339156150818,0.2412574291229248,-23.180328369140625,0.5401356220245361,83.82498168945312,35.99,2
-0.299296110868454,-1.0500956773757937,0.4067249894142151,-36.17779541015625,0.5399820804595947,83.79095458984375,35.99,2
-0.2424509823322296,-0.9817685484886168,0.4065548181533813,-41.72441101074219,0.539883553981781,83.76911926269531,35.99,2
-0.2115688323974609,-0.9155290126800536,0.3616634309291839,-42.65071868896485,0.5398203134536743,83.7551040649414,35.99,2
-0.2477281838655471,-0.8730202913284302,0.2656814157962799,-41.53986358642578,0.5397797226905823,83.74610900878906,35.99,2
-0.3101176023483276,-0.8513384461402893,0.1760968118906021,-39.5157585144043,0.5392947196960449,83.74034118652344,35.99,2
-0.3501555323600769,-0.8318265080451965,0.079422153532505,-35.87738037109375,0.5389834642410278,83.73664093017578,35.99,2
-0.3422629237174988,-0.8249026536941528,0.0061863739974796,-29.784358978271484,0.5387837290763855,83.73426055908203,35.99,2
-0.3316001296043396,-0.8260570764541626,-0.0352143608033657,-22.20206642150879,0.5386555790901184,83.73273468017578,35.99,2
-0.3359529078006744,-0.8547868132591248,-0.0337940976023674,-15.767020225524902,0.5385733246803284,83.73175811767578,35.99,2
-0.3443440496921539,-0.8844194412231445,-0.0160893313586711,-12.719315528869627,0.5385205149650574,83.73113250732422,35.99,2
-0.3497290015220642,-0.914631485939026,0.0064681177027523,-12.905854225158691,0.538486659526825,83.73072814941406,35.99,2
-0.336391419172287,-0.93961763381958,0.0265419632196426,-14.06809425354004,0.5384649038314819,83.73046875,35.99,2
-0.3222343623638153,-0.9556522965431212,0.0394242033362388,-14.312392234802246,0.5393691658973694,83.73030090332031,35.99,2
-0.318746954202652,-0.9771379828453064,0.064484603703022,-13.91386890411377,0.5399494767189026,83.73019409179688,35.99,2
-0.3109111487865448,-0.9797307252883912,0.091762475669384,-14.31014919281006,0.5403218865394592,83.7301254272461,35.99,2
-0.2666981816291809,-0.9757968187332152,0.1204633936285972,-16.122879028320312,0.5405609011650085,83.7300796508789,35.99,2
-0.238324835896492,-1.0460432767868042,0.1556753069162368,-18.54366874694824,0.5407142639160156,83.73004913330078,35.99,2
-0.2369097769260406,-1.1247100830078125,0.1950656175613403,-19.7568473815918,0.5408126711845398,83.73003387451172,35.99,2
-0.3031749725341797,-1.1472049951553345,0.2315395921468734,-17.920116424560547,0.5408758521080017,83.73002624511719,35.99,2
-0.351297914981842,-1.0944676399230957,0.232555404305458,-12.900886535644531,0.540916383266449,83.73001861572266,35.99,2
-0.3485938310623169,-1.032634973526001,0.1716317683458328,-6.964241027832031,0.5404831171035767,83.73001098632812,35.99,2
-0.3020763099193573,-1.0937143564224243,0.1101433858275413,-2.8785853385925293,0.5402050614356995,83.73001098632812,35.99,2
-0.2666262686252594,-1.15530264377594,0.0594881325960159,-1.6466861963272097,0.5400266051292419,83.73001098632812,35.99,2
-0.2606697678565979,-1.1332509517669678,-0.0289972331374883,-2.375136137008667,0.5399121046066284,83.73001098632812,35.99,2
-0.2400539219379425,-1.068719506263733,-0.1137709245085716,-3.5555460453033447,0.5398386120796204,83.73001098632812,35.99,2
-0.1876394301652908,-1.0049158334732056,-0.1457826942205429,-4.144683837890625,0.539791464805603,83.73001098632812,35.99,2
-0.148405060172081,-0.9695680737495422,-0.0991527140140533,-3.895808219909668,0.5397611856460571,83.73001098632812,35.99,2
-0.1624111235141754,-0.9468839168548584,-0.0804238244891166,-3.101978063583374,0.5397417545318604,83.73001098632812,35.99,2
-0.1993882805109024,-0.9379242658615112,-0.0907958000898361,-1.9369323253631592,0.5392703413963318,83.5938720703125,36.0,2
-0.2175203114748001,-0.9321745038032532,-0.1086474880576133,-0.2148124277591705,0.5389678478240967,83.50650024414062,36.0,2
-0.2067653089761734,-0.9452779293060304,-0.1424947679042816,2.1764895915985107,0.5387737154960632,83.45043182373047,36.0,2
-0.1662767231464386,-0.9648825526237488,-0.158618226647377,4.875426769256592,0.5386491417884827,83.4144515991211,36.0,2
-0.1458912491798401,-0.9886592030525208,-0.1633675694465637,7.467267036437988,0.5385692119598389,83.391357421875,36.0,2
-0.1496023535728454,-1.0486998558044434,-0.1384265422821045,10.216081619262695,0.5385178923606873,83.37654113769531,36.0,2
-0.1631794720888137,-1.0928282737731934,-0.1112252846360206,14.018598556518556,0.5384849905967712,83.36703491210938,36.0,2
-0.188685804605484,-1.121147394180298,-0.0825735330581665,19.174427032470703,0.538463830947876,83.36093139648438,36.0,2
-0.1994565278291702,-1.1113320589065552,-0.0529909394681453,24.134708404541016,0.5375320315361023,83.35701751708984,36.0,2
-0.2175641059875488,-1.0770442485809326,-0.0116154355928301,26.03178596496582,0.5369340777397156,83.35449981689453,36.0,2
-0.2123911827802658,-0.9654759764671326,0.0821102708578109,23.233154296875,0.5365503430366516,83.35289001464844,36.0,2
-0.1978759467601776,-0.9106711745262146,0.215029090642929,17.098655700683594,0.5363041162490845,83.35185241699219,36.0,2
-0.1325831711292266,-0.9594672322273254,0.4290775656700134,10.707822799682615,0.5361461043357849,83.35118865966797,36.0,2
-0.297799676656723,-0.9907817244529724,0.3033461570739746,6.190975189208984,0.5360446572303772,83.35076141357422,36.0,2
-0.3982283473014831,-1.0164753198623655,0.1666812300682068,3.6147539615631104,0.5359795689582825,83.3504867553711,36.0,2
-0.4011021554470062,-0.9937795996665956,0.0174020286649465,1.9471532106399536,0.5359377861022949,83.35031127929688,36.0,2
-0.3469686508178711,-0.9736170172691344,-0.0783967673778534,0.5617163181304932,0.535910964012146,83.3501968383789,36.0,2
-0.2338600605726242,-0.9662755727767944,-0.1174838244915008,-0.1589962840080261,0.5358937978744507,83.35012817382812,36.0,2
-0.1332845985889434,-0.9839553833007812,-0.1033832281827926,0.6001501679420471,0.5358827710151672,83.35008239746094,36.0,2
-0.0855343863368034,-0.9897034764289856,-0.0775409564375877,3.2297070026397705,0.535875678062439,83.35005187988281,36.0,2
-0.1220643371343612,-0.9598056077957152,-0.0329679995775222,7.22080135345459,0.535871148109436,83.35002899169922,36.0,2
-0.1734960228204727,-0.9294233322143556,0.0068319076672196,11.404962539672852,0.535868227481842,83.35002136230469,36.0,2
-0.251284122467041,-0.8931324481964111,0.032373197376728,14.785136222839355,0.5358663201332092,83.35001373291016,36.0,2
-0.3291929066181183,-0.8810386061668396,0.0319708026945591,16.914928436279297,0.5358651280403137,83.35000610351562,36.0,2
-0.3735925257205963,-0.8788752555847168,0.0205170214176177,16.995561599731445,0.5335693359375,83.35000610351562,36.0,2
-0.3796945512294769,-0.916671335697174,0.0019710946362465,13.633113861083984,0.5320960283279419,83.35000610351562,36.0,2
-0.3668171465396881,-0.9577199816703796,-0.0043328390456736,6.796443939208984,0.5311505794525146,83.35000610351562,36.0,2
-0.313770979642868,-1.0008560419082642,0.008414982818067,-0.8582460880279541,0.5305438041687012,83.35000610351562,36.0,2
-0.2293490320444107,-1.073320388793945,0.0501824468374252,-6.311554431915283,0.5301544666290283,83.35000610351562,36.0,2
-0.1695741117000579,-1.1310194730758667,0.0993774980306625,-9.438586235046388,0.5299046039581299,83.35000610351562,36.0,2
-0.1592028737068176,-1.1848406791687012,0.1477413773536682,-12.563098907470703,0.5297442078590393,83.35000610351562,36.0,2
-0.1749383062124252,-1.2137823104858398,0.1787785291671753,-16.89690589904785,0.529641330242157,83.35000610351562,36.0,2
-0.2242208272218704,-1.120399832725525,0.1595119684934616,-20.674049377441406,0.5291160345077515,83.22461700439453,35.97,2
-0.2782385945320129,-1.0380812883377075,0.0855722799897193,-21.313879013061523,0.5287789106369019,83.14414978027344,35.97,2
-0.3296974301338196,-1.0132428407669067,0.0493175908923149,-18.575401306152344,0.5285625457763672,83.0925064086914,35.97,2
-0.3179385364055633,-1.0029007196426392,0.0428447388112545,-14.689953804016112,0.5284237265586853,83.05936431884766,35.97,2
-0.2880012691020965,-0.9850682020187378,0.0610819347202777,-11.85257053375244,0.5283346176147461,83.03809356689453,35.97,2
-0.2352026104927063,-0.9848198294639589,0.1287632584571838,-10.655069351196287,0.5282774567604065,83.02444458007812,35.97,2
-0.1789283752441406,-0.9846604466438292,0.1833927929401397,-10.624592781066896,0.5282407402992249,83.01568603515625,35.97,2
-0.1540103554725647,-0.9733626246452332,0.207255333662033,-10.895223617553713,0.5282171964645386,83.01006317138672,35.97,2
-0.1548127233982086,-0.9381234645843506,0.183384507894516,-10.395374298095703,0.5309563279151917,83.00645446777344,35.97,2
-0.160925418138504,-0.9043134450912476,0.156870037317276,-8.530509948730469,0.5327141880989075,83.00414276123047,35.97,2
-0.1816415190696716,-0.8770183324813843,0.1174634844064712,-5.771743774414063,0.5338422656059265,83.00265502929688,35.97,2
-0.2005336880683899,-0.8818930387496948,0.0865768492221832,-2.8728153705596924,0.5345662236213684,83.00170135498047,35.97,2
-0.2126576006412506,-0.868228018283844,0.0667555853724479,0.2701121866703033,0.5350307822227478,83.00109100341797,35.97,2
-0.2484268993139267,-0.8706541061401367,0.037242118269205,4.243148326873779,0.5353289246559143,83.00070190429688,35.97,2
-0.2881748974323272,-0.9337865710258484,0.0238998476415872,8.974602699279785,0.5355202555656433,83.00045013427734,35.97,2
-0.31368288397789,-1.0078879594802856,0.0489241927862167,13.88108253479004,0.5356430411338806,83.00028991699219,35.97,2
-0.2796724736690521,-1.0106598138809204,0.0537878274917602,18.45206069946289,0.5348039865493774,83.00018310546875,35.97,2
-0.2354554384946823,-1.0572208166122437,0.0457134805619716,21.904926300048828,0.5342655181884766,83.00011444091797,35.97,2
-0.1734928488731384,-1.1374809741973877,0.0237385053187608,23.314695358276367,0.5339199900627136,83.00007629394531,35.97,2
-0.1617176979780197,-1.2057806253433228,0.0040384582243859,22.256153106689453,0.5336982011795044,83.00004577636719,35.97,2
-0.254921019077301,-1.1096670627593994,0.0137871988117694,18.29878616333008,0.5335559248924255,83.00003051757812,35.97,2
-0.2811468839645386,-1.04798686504364,0.0480322539806366,11.359771728515623,0.5334646105766296,83.0000228881836,35.97,2
-0.2643904983997345,-1.0363929271697998,0.0700087547302246,3.603576898574829,0.5334060192108154,83.00001525878906,35.97,2
-0.2088550180196762,-1.0457459688186646,0.1232964321970939,-1.7393248081207275,0.5333684086799622,83.00000762939453,35.97,2
-0.1676177680492401,-1.0461504459381104,0.1854822635650634,-4.132727146148682,0.532884955406189,83.00000762939453,35.97,2
0.1667235195636749,-0.9848344922065736,0.5612559914588928,-5.238765716552734,0.5325747132301331,83.00000762939453,35.97,2
0.1013957858085632,-0.9622787833213806,0.4833328127861023,-5.357432842254639,0.5323756337165833,83.00000762939453,35.97,2
0.009092235006392,-0.9366082549095154,0.3325662612915039,-3.584977626800537,0.5322479009628296,83.00000762939453,35.97,2
-0.1788916736841201,-0.8921455144882202,0.1798352301120758,-0.1510867476463318,0.5321658849716187,83.00000762939453,35.97,2
-0.3443111479282379,-0.8748074769973755,0.0874190255999565,3.722066879272461,0.532113254070282,83.00000762939453,35.97,2
-0.3832945227622986,-0.8692786693572998,0.078491598367691,6.956392288208008,0.5320795178413391,83.00000762939453,35.97,2
-0.3299429714679718,-0.8769261240959167,0.0839580371975898,8.462366104125977,0.5320578217506409,83.00000762939453,35.97,2
-0.2677161395549774,-0.8874316215515137,0.0762705355882644,7.161043643951416,0.5315849781036377,82.85670471191406,36.0,2
-0.2109892219305038,-0.905368983745575,0.0825326889753341,3.0263772010803223,0.5312815308570862,82.76473999023438,36.0,2
-0.1857807040214538,-0.9112823605537416,0.0977469235658645,-2.360518455505371,0.531086802482605,82.70571899414062,36.0,2
-0.1919944286346435,-0.9374683499336244,0.0963149964809417,-6.770483493804932,0.530961811542511,82.6678466796875,36.0,2
-0.2295686900615692,-0.954272985458374,0.0842005163431167,-8.962846755981445,0.5308816432952881,82.64353942871094,36.0,2
-0.2760727703571319,-0.9930461049079896,0.0820239186286926,-9.287840843200684,0.5308302044868469,82.62793731689453,36.0,2
-0.3786875009536743,-1.0962973833084106,0.1701914966106414,-8.966182708740234,0.5307971835136414,82.61792755126953,36.0,2
-0.4557352662086487,-1.1345691680908203,0.2603590190410614,-9.250574111938477,0.5307759642601013,82.61150360107422,36.0,2
-0.4156157076358795,-1.0751632452011108,0.2790389060974121,-10.654738426208496,0.5321395397186279,82.60738372802734,36.0,2
-0.3338915407657623,-1.0650287866592407,0.2742332816123962,-12.13622760772705,0.5330145955085754,82.604736328125,36.0,2
-0.2758478820323944,-1.0753183364868164,0.2767470777034759,-11.557202339172363,0.5335761308670044,82.60304260253906,36.0,2
-0.2330010384321212,-1.1211060285568235,0.2671647369861603,-7.767839908599853,0.5339365005493164,82.6019515991211,36.0,2
-0.1943088471889495,-1.1560877561569214,0.2498197853565216,-1.8430336713790887,0.5341677665710449,82.60124969482422,36.0,2
-0.2366517186164856,-1.139352560043335,0.2274932563304901,4.097963333129883,0.5343161821365356,82.60079956054688,36.0,2
-0.2806182503700256,-1.0782328844070437,0.2635453343391418,8.66647720336914,0.5344114303588867,82.60050964355469,36.0,2
-0.3928000628948211,-1.0502053499221802,0.2642903923988342,11.458565711975098,0.5344725251197815,82.60032653808594,36.0,2
-0.2128920406103134,-1.00423002243042,0.3095507323741913,12.283072471618652,0.5349706411361694,82.60021209716797,36.0,2
-0.1254263073205948,-0.9467368125915528,0.2938140034675598,10.92059326171875,0.5352903008460999,82.60013580322266,36.0,2
-0.0469047389924526,-0.9210365414619446,0.2725195288658142,7.703227996826172,0.5354954600334167,82.60009002685547,36.0,2
-0.0804807320237159,-0.9157391786575316,0.1860828995704651,3.818559408187866,0.5356271266937256,82.60005950927734,36.0,2
-0.1356145143508911,-0.8899484872817993,0.0858306437730789,0.8168772459030151,0.5357116460800171,82.60003662109375,36.0,2
-0.1765939742326736,-0.8286153078079224,-0.0008965774322859,-0.2496115267276764,0.5357658863067627,82.60002136230469,36.0,2
-0.2028922438621521,-0.7668641209602356,-0.0453575663268566,0.4846773147583008,0.5358006954193115,82.60001373291016,36.0,2
-0.2029756307601928,-0.7384313344955444,-0.0626945197582244,1.9554402828216555,0.5358229875564575,82.60000610351562,36.0,2
-0.2142246961593628,-0.7481736540794373,-0.0682226046919822,3.7017879486083984,0.5353783965110779,82.60000610351562,36.0,2
-0.2382370233535766,-0.7768168449401855,-0.0717702135443687,6.946960926055908,0.5350930690765381,82.60000610351562,36.0,2
-0.2648423016071319,-0.8847627639770508,-0.0572535395622253,12.930951118469238,0.5349099636077881,82.60000610351562,36.0,2
-0.2707204818725586,-1.1443605422973633,-0.0591331236064434,19.88797187805176,0.5347924828529358,82.60000610351562,36.0,2
-0.2800905406475067,-1.361335515975952,-0.0771326571702957,23.36021423339844,0.5347170829772949,82.60000610351562,36.0,2
-0.3532769978046417,-1.3830242156982422,-0.0494992993772029,20.612302780151367,0.5346686840057373,82.60000610351562,36.0,2
-0.4114393889904022,-1.3409650325775146,0.0018208466935902,13.543055534362791,0.5346376299858093,82.60000610351562,36.0,2
-0.3592002689838409,-1.2244094610214231,0.0515484847128391,6.376809597015381,0.5346177220344543,82.60000610351562,36.0,2
-0.2696984708309173,-1.16080641746521,0.0778630450367927,1.6668657064437866,0.5350638628005981,82.75763702392578,35.99,2
-0.1786747276782989,-1.0975985527038574,0.083554670214653,-0.6427727937698364,0.5353501439094543,82.85879516601562,35.99,2
-0.1370542496442794,-1.0122531652450562,0.0704139024019241,-1.5302581787109375,0.5355338454246521,82.92371368408203,35.99,2
-0.1383334994316101,-0.9406901001930236,0.0507853627204895,-1.8776755332946773,0.5356517434120178,82.96537780761719,35.99,2
-0.1559477746486663,-0.8947650194168091,0.0213955733925104,-2.630849123001098,0.5357274413108826,82.99211120605469,35.99,2
-0.1784471422433853,-0.8652929663658142,-0.0030628750100731,-4.393172264099121,0.5357760190963745,83.00926971435547,35.99,2
-0.2208748161792755,-0.8687705993652344,-0.0355522222816944,-6.76370096206665,0.535807192325592,83.02027893066406,35.99,2
-0.2760913372039795,-0.8598067760467529,-0.0619997903704643,-8.94416332244873,0.5358271598815918,83.02734375,35.99,2
-0.3283194303512573,-0.8596521019935608,-0.0677767693996429,-10.54050064086914,0.5349221229553223,83.03187561035156,35.99,2
-0.3618364334106445,-0.881943941116333,-0.0322996787726879,-11.027551651000977,0.5343413352966309,83.0347900390625,35.99,2
-0.3777479231357574,-0.9130428433418274,0.01285857334733,-9.44493007659912,0.5339686274528503,83.03665924072266,35.99,2
-0.3767634630203247,-0.9385981559753418,0.0474363155663013,-5.2264723777771,0.5337294340133667,83.03785705566406,35.99,2
-0.3817294538021087,-0.9605958461761476,0.0696263164281845,1.1850743293762207,0.5335759520530701,83.03862762451172,35.99,2
-0.3849163651466369,-0.9747126698493958,0.089464358985424,8.194356918334961,0.5334774255752563,83.03911590576172,35.99,2
-0.3869615197181701,-0.983772039413452,0.130184143781662,13.083011627197266,0.5334142446517944,83.03943634033203,35.99,2
-0.3882739841938019,-1.0567591190338137,0.2290868312120437,13.493928909301758,0.5333736538887024,83.03964233398438,35.99,2
-0.4115073382854461,-1.1315869092941284,0.3429368436336517,9.447793006896973,0.5333476066589355,83.0397720336914,35.99,2
-0.4544060528278351,-1.1628137826919556,0.449585884809494,2.9999475479125977,0.5333309173583984,83.03985595703125,35.99,2
-0.4147626757621765,-1.1716578006744385,0.5124292969703674,-3.960977792739868,0.5333201885223389,83.03990936279297,35.99,2
-0.2325841635465622,-1.210919976234436,0.519171953201294,-10.384185791015623,0.5333133339881897,83.0399398803711,35.99,2
-0.0932813808321952,-1.2585073709487915,0.4451301693916321,-15.129598617553713,0.5333089232444763,83.03996276855469,35.99,2
-0.0038848740514367,-1.272252917289734,0.3920166194438934,-17.103740692138672,0.5333060622215271,83.03997802734375,35.99,2
-0.0416775085031986,-1.2642806768417358,0.3075514435768127,-16.3321475982666,0.5333042740821838,83.03998565673828,35.99,2
-0.0771261975169181,-1.231175661087036,0.2421510070562362,-13.88089656829834,0.5333030819892883,83.03999328613281,35.99,2
-0.1054728999733924,-1.2099307775497437,0.2057785540819168,-10.838969230651855,0.5328430533409119,83.03999328613281,35.99,2
-0.0173064693808555,-1.1459170579910278,0.2160234451293945,-8.009103775024414,0.5325478315353394,83.03999328613281,35.99,2
0.011284802109003,-1.076847791671753,0.1946091502904892,-6.135737895965576,0.5323584079742432,83.03999328613281,35.99,2
0.0296330340206623,-0.9989365339279176,0.1416822671890258,-5.585547924041748,0.5322368144989014,83.03999328613281,35.99,2
0.0358100980520248,-0.9433397650718688,0.1245101690292358,-6.060042858123779,0.5321587920188904,83.03999328613281,35.99,2
-0.0329968854784965,-0.907660961151123,0.0799034610390663,-6.980749607086182,0.532108724117279,83.03999328613281,35.99,2
-0.1499243080615997,-0.8567755222320557,0.0120930233970284,-7.736404418945312,0.5320765972137451,83.03999328613281,35.99,2
-0.2249616086483001,-0.8185223937034607,-0.0258260406553745,-7.633797645568848,0.5320559740066528,83.03999328613281,35.99,2
-0.2619206607341766,-0.7715826034545898,-0.0389647632837295,-6.002365112304688,0.5343380570411682,83.14389038085938,35.99,2
-0.2744433283805847,-0.735861599445343,-0.0417986661195755,-2.3472907543182373,0.5358026027679443,83.21056365966797,35.99,2
-0.2712841033935547,-0.7521223425865173,-0.0268239770084619,3.906915664672852,0.5367424488067627,83.25335693359375,35.99,2
-0.286050021648407,-0.8073397278785706,-0.0004207618476357,13.197639465332031,0.5373455882072449,83.28081512451172,35.99,2
-0.301123708486557,-0.8707639575004578,0.0277188513427972,24.401199340820312,0.5377326607704163,83.2984390258789,35.99,2
-0.3051993548870086,-0.9674437046051024,0.0569727830588817,33.8265266418457,0.5379810333251953,83.30974578857422,35.99,2
-0.2966193258762359,-1.0854649543762207,0.0645507276058197,37.05208969116211,0.5381404161453247,83.31700134277344,35.99,2
-0.2911131381988525,-1.2843552827835083,0.0526204891502857,32.12529754638672,0.5382426977157593,83.3216552734375,35.99,2
-0.2987751364707947,-1.2048739194869995,0.0617576725780963,20.566011428833008,0.5369312167167664,83.32464599609375,35.99,2
-0.2980943918228149,-1.1034873723983765,0.0844147130846977,6.136826992034912,0.5360895991325378,83.3265609741211,35.99,2
-0.2472775727510452,-1.1335855722427368,0.1437368988990783,-6.809463977813721,0.535549521446228,83.32779693603516,35.99,2
-0.2258618026971817,-1.1361074447631836,0.1930020004510879,-15.1248140335083,0.5352029204368591,83.3285903930664,35.99,2
-0.2065206170082092,-1.0649548768997192,0.2302152812480926,-18.261425018310547,0.5349804759025574,83.32909393310547,35.99,2
-0.1885107904672622,-0.9577176570892334,0.1925211101770401,-17.89907455444336,0.5348377227783203,83.32942199707031,35.99,2
-0.1937464475631714,-0.8833012580871582,0.1347445100545883,-16.28366470336914,0.5347461104393005,83.32962799072266,35.99,2
-0.2362908124923706,-0.8243495225906372,0.0808734968304634,-14.766921997070312,0.534687340259552,83.32976531982422,35.99,2
-0.2803866565227508,-0.7865176796913147,0.0518999546766281,-13.367237091064451,0.5332724452018738,83.32984924316406,35.99,2
-0.342271476984024,-0.7846304774284363,0.0500997267663478,-11.516035079956056,0.5323644876480103,83.32990264892578,35.99,2
-0.3987789154052734,-0.8170060515403748,0.076933316886425,-8.816193580627441,0.531781792640686,83.32994079589844,35.99,2
-0.4294443726539612,-0.8489784002304077,0.1109468936920166,-4.887471675872803,0.5314078330993652,83.32996368408203,35.99,2
-0.4211347997188568,-0.8806919455528259,0.1439704000949859,0.8509085178375244,0.5311678647994995,83.3299789428711,35.99,2
-0.4102044403553009,-0.9010438323020936,0.1763585358858108,8.470722198486328,0.5310138463973999,83.32998657226562,35.99,2
-0.3863966464996338,-0.9253000617027284,0.2083389163017273,16.627988815307617,0.5309150218963623,83.32999420166016,35.99,2
-0.3599226176738739,-0.9632574319839478,0.2288620918989181,22.110050201416016,0.5308516025543213,83.32999420166016,35.99,2
-0.3541286587715149,-0.9988118410110474,0.2420326769351959,21.239465713500977,0.53310626745224,83.32999420166016,35.99,2
-0.3672037422657013,-1.060813069343567,0.2672781348228454,13.146618843078612,0.5345531702041626,83.32999420166016,35.99,2
-0.3532034754753113,-1.1117974519729614,0.3170658648014068,1.0136464834213257,0.5354816913604736,83.32999420166016,35.99,2
-0.4057944416999817,-1.1669073104858398,0.4049944877624511,-10.964208602905272,0.536077618598938,83.32999420166016,35.99,2
-0.3891643285751343,-1.1630892753601074,0.383053183555603,-20.585498809814453,0.5364600419998169,83.32999420166016,35.99,2
-0.3672965168952942,-1.1550413370132446,0.3409836590290069,-27.18979835510254,0.5367054343223572,83.32999420166016,35.99,2
-0.3196763694286346,-1.1106921434402466,0.3419747352600097,-30.35686683654785,0.5368629097938538,83.32999420166016,35.99,2
-0.2611276507377624,-1.0878291130065918,0.3370129764080047,-29.999731063842773,0.5369639992713928,83.32999420166016,35.99,2
-0.2515433132648468,-1.0563637018203735,0.3114376962184906,-26.7146053314209,0.535651683807373,83.43030548095703,36.03,2
-0.2509904205799103,-1.0585620403289795,0.2222538888454437,-21.58629035949707,0.5348095297813416,83.49468231201172,36.03,2
-0.2114511728286743,-1.1719282865524292,0.0922497808933258,-15.866246223449709,0.5342690944671631,83.53599548339844,36.03,2
-0.0405350252985954,-1.1607136726379397,0.1655583083629608,-10.647778511047363,0.5339222550392151,83.56250762939453,36.03,2
0.0019758259877562,-1.1535167694091797,0.1902124136686325,-6.585933685302734,0.5336996912956238,83.57952117919922,36.03,2
0.0012679713545367,-1.0985182523727417,0.2004362195730209,-3.724912405014038,0.5335568785667419,83.59043884277344,36.03,2
-0.0271751601248979,-1.0240389108657837,0.1454217582941055,-1.6022677421569824,0.5334652066230774,83.59745025634766,36.03,2
-0.0678194239735603,-0.9482535123825072,0.0989210903644561,0.2435710281133651,0.5334063768386841,83.60194396972656,36.03,2
-0.105098120868206,-0.8940210342407227,0.0746774077415466,1.951180458068848,0.5342864990234375,83.60482788085938,36.03,2
-0.1234236657619476,-0.8592177033424377,0.0479236617684364,3.656063556671143,0.5348513126373291,83.60668182373047,36.03,2
-0.2023572474718094,-0.8256874084472656,0.013961324468255,5.857175350189209,0.5352137684822083,83.60787200927734,36.03,2
-0.2810011506080627,-0.792974054813385,0.008959574624896,9.064592361450195,0.5354463458061218,83.60863494873047,36.03,2
-0.3258725106716156,-0.7663827538490295,0.0057497392408549,13.29396915435791,0.5355955958366394,83.60912322998047,36.03,2
-0.3098861575126648,-0.7493179440498352,0.0204831752926111,18.20425796508789,0.5356913805007935,83.60943603515625,36.03,2
-0.2940292656421661,-0.7383667230606079,0.0411337949335575,23.31865119934082,0.5357528328895569,83.6096420288086,36.03,2
-0.2614621222019195,-0.75932776927948,0.0879728198051452,27.295793533325195,0.5357922911643982,83.60977172851562,36.03,2
-0.2181713134050369,-0.8455504179000854,0.1124336346983909,27.909921646118164,0.5358176231384277,83.60985565185547,36.03,2
-0.1903897672891616,-0.9624586701393129,0.1225334033370018,24.158992767333984,0.5358338952064514,83.60990905761719,36.03,2
-0.2341366857290268,-1.138243556022644,0.1234170794486999,17.434858322143555,0.5358443260192871,83.60993957519531,36.03,2
-0.3573730885982513,-1.279041051864624,0.1575708240270614,9.7055025100708,0.535851001739502,83.6099624633789,36.03,2
-0.6155878901481628,-1.2126591205596924,0.2186731547117233,2.32700777053833,0.5358552932739258,83.60997772216797,36.03,2
-0.8204797506332397,-1.1196790933609009,0.1403318494558334,-2.988462448120117,0.5358580350875854,83.6099853515625,36.03,2
-0.7392520904541016,-1.082400918006897,0.1684257388114929,-4.715814590454102,0.5358598232269287,83.60999298095703,36.03,2
-0.4856050014495849,-1.0752712488174438,0.2088458836078643,-3.4920730590820312,0.5358609557151794,83.60999298095703,36.03,2
-0.2892422378063202,-1.070695877075195,0.2403829842805862,-1.3346199989318848,0.5349438190460205,83.60999298095703,36.03,2
-0.096054621040821,-0.9949885606765748,0.2886105477809906,0.9419706463813782,0.5343552827835083,83.60999298095703,36.03,2
-0.1064245253801345,-0.9575995206832886,0.2355936020612716,3.904054641723633,0.5339775681495667,83.60999298095703,36.03,2
-0.1746548414230346,-0.9336053729057312,0.1735815107822418,7.696549415588379,0.5337351560592651,83.60999298095703,36.03,2
-0.380776584148407,-0.918207347393036,0.1113946214318275,11.506063461303713,0.5335795879364014,83.60999298095703,36.03,2
-0.5410425662994385,-0.9027279615402222,0.071486659348011,14.56699275970459,0.5334798097610474,83.60999298095703,36.03,2
-0.6326964497566223,-0.8648053407669067,0.0682671219110488,16.595808029174805,0.5334157347679138,83.60999298095703,36.03,2
-0.6187435984611511,-0.8292732238769531,0.0885921046137809,17.489370346069336,0.5333746075630188,83.60999298095703,36.03,2
-0.5818005800247192,-0.812068521976471,0.1072332859039306,17.5540828704834,0.5324299931526184,83.6995620727539,36.0,2
-0.5189082622528076,-0.851407527923584,0.1080005690455436,17.574115753173828,0.5318238139152527,83.75704193115234,36.0,2
-0.4785475730895996,-0.9214352369308472,0.1084929704666137,17.558311462402344,0.5314348340034485,83.79393005371094,36.0,2
-0.3798753619194031,-1.0055594444274902,0.1367978304624557,16.01124382019043,0.5311852097511292,83.8176040649414,36.0,2
-0.3165532052516937,-1.076338768005371,0.1437667161226272,11.364197731018066,0.5310249924659729,83.83279418945312,36.0,2
-0.3206988871097564,-1.1329563856124878,0.1538367271423339,3.5347659587860107,0.5309221744537354,83.84254455566406,36.0,2
-0.3905326426029205,-1.214072585105896,0.1882879436016082,-6.225876808166504,0.530856192111969,83.84880065917969,36.0,2
-0.4353479146957397,-1.2101504802703855,0.1936034262180328,-16.502182006835938,0.5308138728141785,83.85281372070312,36.0,2
-0.4417167007923126,-1.106873631477356,0.1354390829801559,-26.77264404296875,0.5307866930961609,83.85538482666016,36.0,2
-0.4514015913009643,-1.1133675575256348,0.0421348065137863,-37.12892150878906,0.5307692289352417,83.85704040527344,36.0,2
-0.4520190060138702,-1.156719446182251,-0.0233402755111455,-46.32219696044922,0.5307580232620239,83.85810089111328,36.0,2
-0.4244263768196106,-1.1453557014465332,-0.076553963124752,-51.2367057800293,0.5307508707046509,83.85877990722656,36.0,2
-0.3787301182746887,-1.115671992301941,-0.1107034459710121,-49.83351516723633,0.5307462811470032,83.85921478271484,36.0,2
-0.3046227097511291,-1.0462427139282229,-0.1158252954483032,-43.51259231567383,0.5307433009147644,83.8594970703125,36.0,2
-0.2570648491382599,-0.9736981391906738,-0.1135144308209419,-35.22158432006836,0.5307413935661316,83.85968017578125,36.0,2
-0.248936042189598,-0.9215454459190368,-0.1120314449071884,-26.50819206237793,0.5307402014732361,83.85979461669922,36.0,2
-0.2605127692222595,-0.8824790716171265,-0.1054819822311401,-17.566730499267578,0.5311983227729797,83.85987091064453,36.0,2
-0.2679420411586761,-0.8518107533454895,-0.0956811383366584,-8.747600555419922,0.5314923524856567,83.85991668701172,36.0,2
-0.2671119570732116,-0.8377273678779602,-0.0781959667801857,-0.4619623720645904,0.5316810607910156,83.85994720458984,36.0,2
-0.2665792405605316,-0.8342872262001038,-0.0389861203730106,7.721343040466309,0.5318021178245544,83.85997009277344,36.0,2
-0.2606396079063415,-0.8320795893669128,-0.0138235008344054,16.430103302001953,0.5318798422813416,83.85997772216797,36.0,2
-0.2288390100002288,-0.8418583869934082,-0.020066674798727,25.06407356262207,0.5319297313690186,83.8599853515625,36.0,2
-0.2084312289953231,-0.8649271726608276,-0.0296709593385458,32.24567794799805,0.5319617390632629,83.85999298095703,36.0,2
-0.2345191091299057,-0.924513578414917,-0.0134433386847376,37.9184455871582,0.5319822430610657,83.85999298095703,36.0,2
-0.2680541276931762,-1.0243282318115234,0.0249594841152429,44.43928909301758,0.5315364599227905,83.85999298095703,36.0,2
-0.2951727509498596,-1.1163723468780518,0.0831908509135246,55.29833221435547,0.5312504172325134,83.85999298095703,36.0,2
-0.3965425193309784,-1.1586476564407349,0.1597448140382766,71.27721405029297,0.5310668349266052,83.85999298095703,36.0,2
-0.495182454586029,-1.0962131023406982,0.1808838695287704,86.1315689086914,0.5309489965438843,83.85999298095703,36.0,2
-0.5248972773551941,-1.022559642791748,0.0880919769406318,88.3414535522461,0.5308734178543091,83.85999298095703,36.0,2
-0.4320110380649566,-1.048064112663269,0.0957167819142341,70.84721374511719,0.5308248996734619,83.85999298095703,36.0,2
-0.092513270676136,-1.1148114204406738,0.5428341031074524,38.26110458374024,0.5307937860488892,83.85999298095703,36.0,2
-0.3224650919437408,-1.09047269821167,0.6450417041778564,2.6212449073791504,0.5307738184928894,83.85999298095703,36.0,2
-0.4588393867015838,-1.030071258544922,0.6098727583885193,-25.99323272705078,0.5307610034942627,83.94597625732422,36.0,2
-0.4903787970542907,-0.9297336339950562,0.4025767743587494,-43.71149063110352,0.5307527780532837,84.00115966796875,36.0,2
-0.5162167549133301,-0.8933315873146057,0.2079706192016601,-51.58187484741211,0.5307474732398987,84.03656768798828,36.0,2
-0.5327980518341064,-0.8867641687393188,0.0606925040483474,-53.100215911865234,0.5307440757751465,84.05929565429688,36.0,2
-0.4930590391159057,-0.8993428945541382,-0.0394198819994926,-52.06119155883789,0.5307418704032898,84.0738754272461,36.0,2
-0.4283723831176758,-0.907415211200714,-0.0924706980586052,-50.65997695922852,0.53074049949646,84.08323669433594,36.0,2
-0.3476758003234863,-0.9069977402687072,-0.1041245684027671,-48.89019393920898,0.5307396054267883,84.08924102783203,36.0,2
-0.2958893775939941,-0.901132106781006,-0.0836144760251045,-45.93091583251953,0.5307390093803406,84.09309387207031,36.0,2
-0.2514602839946747,-0.8805745244026184,-0.0368656367063522,-42.01124954223633,0.5302796959877014,84.09556579589844,36.0,2
-0.2565349042415619,-0.8729796409606934,-0.0012671459699049,-38.019813537597656,0.5299849510192871,84.09715270996094,36.0,2
-0.2765848338603973,-0.8793012499809265,0.0271756891161203,-33.9285774230957,0.5297958254814148,84.09817504882812,36.0,2
-0.2950494885444641,-0.8945536017417908,0.0566242150962352,-29.08186149597168,0.5296744108200073,84.09883117675781,36.0,2
-0.3068990409374237,-0.9211350083351136,0.0811203569173812,-23.53178596496582,0.5295965075492859,84.09925079345703,36.0,2
-0.3089056313037872,-0.9493889808654784,0.0912427976727485,-18.11787414550781,0.5295464992523193,84.09951782226562,36.0,2
-0.3157911300659179,-1.0570851564407349,0.1145321205258369,-13.873283386230469,0.5295144319534302,84.09969329833984,36.0,2
-0.3370031416416168,-1.1485894918441772,0.1406734138727188,-12.02349853515625,0.5294938683509827,84.09980010986328,36.0,2
-0.3674091398715973,-1.1177473068237305,0.1574493944644928,-13.161503791809082,0.5303985476493835,84.09986877441406,36.0,2
-0.3477375209331512,-1.0139878988265991,0.1514219343662262,-16.009113311767578,0.5309790968894958,84.09991455078125,36.0,2
-0.3127223253250122,-0.9809877276420592,0.1419560760259628,-17.94760513305664,0.5313516855239868,84.09994506835938,36.0,2
-0.2902515828609466,-1.071765661239624,0.1638703048229217,-17.314348220825195,0.5315907597541809,84.09996795654297,36.0,2
-0.2926244735717773,-1.124423861503601,0.1947269141674041,-14.450312614440918,0.5317441821098328,84.0999755859375,36.0,2
-0.3277339041233063,-1.1078369617462158,0.1977355927228927,-10.186935424804688,0.5318426489830017,84.09998321533203,36.0,2
-0.3166784644126892,-1.074801325798035,0.1772752851247787,-4.961055755615234,0.5319058299064636,84.09999084472656,36.0,2
-0.2871926128864288,-1.036807656288147,0.1585472673177719,0.8144343495368958,0.5319463610649109,84.09999084472656,36.0,2
-0.2570747435092926,-0.9900344014167786,0.129735380411148,6.036241054534912,0.5315134525299072,84.09999084472656,36.0,2
-0.2433446198701858,-0.9656158089637756,0.0944522470235824,10.454903602600098,0.5312356352806091,84.09999084472656,36.0,2
-0.2401311844587326,-0.9611408710479736,0.0830051153898239,15.08183479309082,0.5310573577880859,84.09999084472656,36.0,2
-0.226873442530632,-0.9974535703659058,0.0756589993834495,20.4478759765625,0.5309429168701172,84.09999084472656,36.0,2
-0.2127676159143448,-1.0319525003433228,0.0541513636708259,25.464242935180664,0.5308694839477539,84.09999084472656,36.0,2
-0.203715294599533,-1.0484941005706787,0.0235556792467832,28.96289825439453,0.5308223962783813,84.09999084472656,36.0,2
-0.2091015875339508,-1.0479140281677246,-0.0016766448970884,32.49786376953125,0.5307921767234802,84.09999084472656,36.0,2
-0.22935152053833,-1.036346197128296,-0.0234670713543891,38.66782379150391,0.5307727456092834,84.09999084472656,36.0,2
-0.2423467636108398,-1.0065315961837769,-0.0374509133398532,48.81445693969727,0.52938312292099,84.16806030273438,36.03,2
-0.250686377286911,-0.9873982667922974,-0.0296316146850585,60.29859924316406,0.5284913778305054,84.21174621582031,36.03,2
-0.2336471527814865,-0.9807173609733582,-0.035809189081192,66.69041442871094,0.5279191136360168,84.23978424072266,36.03,2
-0.2395056784152984,-0.9932233095169068,-0.0565669238567352,60.82200622558594,0.5275518298149109,84.25777435302734,36.03,2
-0.2992430925369262,-1.001248836517334,-0.0922791361808776,41.59718704223633,0.527316153049469,84.26931762695312,36.03,2
-0.3487746715545654,-0.9728125333786012,-0.0648172125220298,20.99838638305664,0.527164876461029,84.27672576904297,36.03,2
-0.3861589729785919,-0.9209771156311036,-0.0304004065692424,6.220839977264404,0.5270678400993347,84.28147888183594,36.03,2
-0.4213456213474273,-0.932494342327118,0.0028818678110837,-6.006791591644287,0.5270055532455444,84.28453063964844,36.03,2
-0.4439263641834259,-0.9846675992012024,0.0186427403241395,-20.18777656555176,0.5274245142936707,84.28649139404297,36.03,2
-0.3688530027866363,-1.1468982696533203,0.1631037443876266,-35.44676208496094,0.5276933908462524,84.28775024414062,36.03,2
-0.1191553771495819,-1.167041897773743,0.5636880993843079,-48.10874557495117,0.5278659462928772,84.28855895996094,36.03,2
-0.0148915434256196,-1.129588961601257,0.6976090669631958,-55.17403411865234,0.5279766917228699,84.28907775878906,36.03,2
-0.0487409569323062,-1.0215872526168823,0.5820319056510925,-55.70281219482422,0.5280477404594421,84.2894058227539,36.03,2
-0.0984524339437484,-0.9522779583930968,0.4518834054470062,-50.96922302246094,0.5280933380126953,84.28961944580078,36.03,2
-0.1919299066066742,-0.9189947843551636,0.3011883199214935,-43.7506103515625,0.52812260389328,84.28975677490234,36.03,2
-0.2519183754920959,-0.8976355195045471,0.1708942353725433,-36.61389923095703,0.5281413793563843,84.28984069824219,36.03,2
-0.2848177552223205,-0.878330647945404,0.0760834366083145,-29.36137008666992,0.5276944637298584,84.28990173339844,36.03,2
-0.272344022989273,-0.8603441119194031,0.0096415495499968,-20.590734481811523,0.527407705783844,84.2899398803711,36.03,2
-0.2475457787513733,-0.8488013744354248,-0.0218014810234308,-10.211750030517578,0.5272236466407776,84.28996276855469,36.03,2
-0.220436155796051,-0.8413938879966736,-0.0139909358695149,-0.6671414971351624,0.5271055102348328,84.28997802734375,36.03,2
-0.1974409818649292,-0.8422380089759827,0.0246080700308084,5.712401390075684,0.5270297527313232,84.28998565673828,36.03,2
-0.188281774520874,-0.853975236415863,0.1277475357055664,8.749565124511719,0.5269811153411865,84.28999328613281,36.03,2
-0.3335438370704651,-0.8783008456230164,0.1547520756721496,9.4160795211792,0.5269498825073242,84.28999328613281,36.03,2
-0.4939379692077636,-0.8771182894706726,0.1161042973399162,8.231651306152344,0.5269298553466797,84.28999328613281,36.03,2
-0.5129030346870422,-0.9043482542037964,0.119291253387928,5.275434494018555,0.5259987711906433,84.28999328613281,36.03,2
-0.4746937751770019,-1.0113872289657593,0.1549230962991714,1.4759573936462402,0.5254012942314148,84.28999328613281,36.03,2
-0.4669665992259979,-1.0912742614746094,0.1721917986869812,-1.8973805904388428,0.5250178575515747,84.28999328613281,36.03,2
-0.4508121907711029,-1.0921611785888672,0.1440894305706024,-4.477773666381836,0.5247717499732971,84.28999328613281,36.03,2
-0.3956630229949951,-1.0479482412338257,0.1428482681512832,-6.800080299377441,0.5246138572692871,84.28999328613281,36.03,2
-0.2875004112720489,-1.008379340171814,0.1588450819253921,-8.78121566772461,0.524512529373169,84.28999328613281,36.03,2
-0.2348811775445938,-1.0221706628799438,0.2026975750923156,-9.38265323638916,0.524447500705719,84.28999328613281,36.03,2
-0.2514931559562683,-1.0478144884109497,0.2308395802974701,-7.898516178131103,0.5244057774543762,84.28999328613281,36.03,2
-0.3293270766735077,-1.0754667520523071,0.2209106236696243,-4.699807643890381,0.5252971649169922,84.36522674560547,36.03,2
-0.3736786246299743,-1.0764191150665283,0.2145387828350067,-0.7339655756950378,0.5258692502975464,84.41351318359375,36.03,2
-0.3405653834342956,-1.0322480201721191,0.1992541551589965,2.9431777000427246,0.526236355304718,84.44449615478516,36.03,2
-0.2633374631404876,-0.992706060409546,0.1782498210668563,5.288626194000244,0.5264719724655151,84.4643783569336,36.03,2
-0.1857881546020507,-0.989721417427063,0.1815637648105621,5.790678977966309,0.5266231298446655,84.47714233398438,36.03,2
-0.1472170203924179,-0.982208251953125,0.1724949181079864,5.1169114112854,0.5267201662063599,84.4853286743164,36.03,2
-0.1448553800582885,-0.977386713027954,0.1498817354440689,4.64153528213501,0.5267824530601501,84.49058532714844,36.03,2
-0.1601331382989883,-0.9686947464942932,0.1241743415594101,4.952669620513916,0.5268223881721497,84.49395751953125,36.03,2
-0.1867308467626571,-0.9463234543800354,0.0796879455447197,5.349379062652588,0.5268480181694031,84.49612426757812,36.03,2
-0.2093974947929382,-0.9375646114349364,0.0455413609743118,5.424835681915283,0.5268644690513611,84.49751281738281,36.03,2
-0.2295414209365844,-0.954334795475006,0.0292258244007825,6.401146411895752,0.5268750190734863,84.49840545654297,36.03,2
-0.2480664104223251,-1.0098791122436523,0.0187554527074098,9.897329330444336,0.5268818140029907,84.49897766113281,36.03,2
-0.2823457717895508,-1.079110860824585,0.0064383964054286,15.727136611938477,0.5268861651420593,84.49934387207031,36.03,2
-0.3379309475421905,-1.028377652168274,0.0153273409232497,21.52118682861328,0.5268889665603638,84.49958038330078,36.03,2
-0.3736023008823395,-0.9510378241539,0.0378250777721405,24.22560691833496,0.526890754699707,84.4997329711914,36.03,2
-0.3741030395030975,-0.8790144920349121,0.0634583756327629,22.33916282653809,0.5268918871879578,84.49983215332031,36.03,2
-0.3464355170726776,-0.9055651426315308,0.0911039039492607,17.345352172851562,0.5273515582084656,84.49989318847656,36.03,2
-0.334277868270874,-0.9505926966667176,0.1144429817795753,11.872841835021973,0.527646541595459,84.49993133544922,36.03,2
-0.3264757692813873,-0.9459021687507628,0.1126273423433303,6.45138692855835,0.5278358459472656,84.49995422363281,36.03,2
-0.2934799790382385,-0.9316964745521544,0.1338532567024231,0.2852771580219269,0.5279573202133179,84.49996948242188,36.03,2
-0.2107296586036682,-0.9337756037712096,0.2370392233133316,-5.38424825668335,0.5280352830886841,84.4999771118164,36.03,2
