acc_x,acc_y,acc_z,bvp,eda,hr,temp,label
0.0,0.0,0.0,0.0,0.0,0.0,24.63,1
-0.0494791641831398,-0.1484374850988388,0.0364583320915699,-1.0899999141693115,0.1149371564388275,10.999999046325684,24.63,1
-0.1116615906357765,-0.3517530560493469,0.085365854203701,-2.426097631454468,0.2691211700439453,25.7560977935791,24.63,1
-0.1408326476812362,-0.5136524438858032,0.1229235902428627,-3.980564832687378,0.4032347202301025,38.59136199951172,24.63,1
-0.2154965102672577,-0.6264285445213318,0.1663385927677154,-5.989243030548096,0.5010777711868286,47.955379486083984,24.63,1
-0.2385984808206558,-0.7137621641159058,0.1902426481246948,-8.241612434387207,0.5673216581344604,54.29521560668945,24.63,1
-0.2648628354072571,-0.8321494460105896,0.1615025401115417,-10.47293186187744,0.6107871532440186,58.45505905151367,24.63,1
-0.3209283053874969,-0.8976644277572632,0.1094129830598831,-12.707188606262209,0.6389376521110535,61.14918518066406,24.63,1
-0.3458637595176697,-0.923096776008606,0.0926288738846778,-15.162504196166992,0.656154453754425,62.88466644287109,24.65,1
-0.3339176177978515,-0.9058753848075868,0.0818410143256187,-18.029645919799805,0.667220413684845,64.00013732910156,24.65,1
-0.3374393284320831,-0.9116060733795166,0.0749135464429855,-21.457508087158203,0.674326479434967,64.71643829345703,24.65,1
-0.3341027200222015,-0.9152846336364746,0.0536749921739101,-25.76424789428711,0.6788879036903381,65.17623901367188,24.65,1
-0.3207661211490631,-0.9064504504203796,0.0568364933133125,-31.268930435180664,0.681815505027771,65.47134399414062,24.65,1
-0.3122070729732513,-0.9231716990470886,0.0588654540479183,-37.56021499633789,0.6836943626403809,65.66073608398438,24.65,1
-0.3011165559291839,-0.9227071404457092,0.0657652840018272,-43.797359466552734,0.6849001049995422,65.78227996826172,24.65,1
-0.2995969951152801,-0.9280067682266236,0.0701932311058044,-50.51203536987305,0.6856738924980164,65.86028289794922,24.65,1
-0.3042196035385132,-0.9314078092575072,0.0730348452925682,-59.81882858276367,0.6912201046943665,65.91033935546875,24.65,1
-0.3071861267089844,-0.9335903525352478,0.07485843449831,-72.72367858886719,0.6947793364524841,65.94245910644531,24.65,1
-0.3146876394748688,-0.9349910020828248,0.0704309344291687,-87.54705810546875,0.6970634460449219,65.96307373046875,24.65,1
-0.319501668214798,-0.9358898401260376,0.0675896182656288,-102.21159362792967,0.6985293030738831,65.97630310058594,24.65,1
-0.3225910365581512,-0.9364666938781738,0.0601684488356113,-116.46967315673828,0.6994699835777283,65.98479461669922,24.65,1
-0.3245736062526703,-0.931239128112793,0.0554059706628322,-131.2694091796875,0.7000736594200134,65.99024200439453,24.65,1
-0.3258459270000458,-0.9334821105003356,0.0523496866226196,-148.2259521484375,0.7004610896110535,65.99373626708984,24.65,1
-0.3210646510124206,-0.9349215626716614,0.055986113846302,-167.54823303222656,0.7007097005844116,65.99597930908203,24.65,1
-0.3179962933063507,-0.9358453154563904,0.0583197623491287,-182.5204467773437,0.702246367931366,65.99742126464844,24.65,1
-0.3160271942615509,-0.9364381432533264,0.0598173625767231,-180.266845703125,0.7032325267791748,65.99834442138672,24.65,1
-0.3091657757759094,-0.936818540096283,0.0663762092590332,-152.32029724121094,0.7038654088973999,65.99893951416016,24.65,1
-0.3047625124454498,-0.937062680721283,0.0649875253438949,-99.7709732055664,0.7042715549468994,65.99932098388672,24.65,1
-0.3019367456436157,-0.9372193813323976,0.0640963539481163,-29.788593292236328,0.7045322060585022,65.99956512451172,24.65,1
-0.3001233339309692,-0.9373199343681335,0.0635244473814964,44.04778289794922,0.7046994566917419,65.99971771240234,24.65,1
-0.2989595830440521,-0.9373844265937804,0.0631574317812919,103.7951889038086,0.7048068046569824,65.99981689453125,24.65,1
-0.3038105368614197,-0.9374258518218994,0.062921904027462,140.23887634277344,0.704875648021698,65.99988555908203,24.65,1
-0.3069235980510711,-0.9374524354934692,0.0571729801595211,159.09437561035156,0.7035427093505859,67.57626342773438,24.65,1
-0.3089213967323303,-0.9430672526359558,0.0534836500883102,170.19520568847656,0.7026873230934143,68.587890625,24.65,1
-0.3046056926250458,-0.92987722158432,0.0455182753503322,178.6804656982422,0.702138364315033,69.23709106445312,24.65,1
-0.2962383329868316,-0.9158148169517516,0.0348087847232818,187.5901641845703,0.7017860412597656,69.6537094116211,24.65,1
-0.2964664101600647,-0.9179859161376952,0.0223382748663425,199.4985809326172,0.7015599608421326,69.92107391357422,24.65,1
-0.296612799167633,-0.9249770045280457,0.0143354190513491,213.53204345703125,0.7014148831367493,70.0926513671875,24.65,1
-0.2967067360877991,-0.93506121635437,0.0091996472328901,226.11331176757807,0.7013217806816101,70.2027587890625,24.65,1
-0.2911692559719085,-0.9415327310562134,0.0170993525534868,235.8961334228516,0.7012620568275452,70.27342224121094,24.65,1
-0.2820178270339966,-0.9512835144996644,0.0333644784986972,245.4952392578125,0.7016826272010803,70.31877136230469,24.63,1
-0.2705472111701965,-0.9519432187080384,0.0605958253145217,257.5809631347656,0.7019525170326233,70.34786987304688,24.63,1
-0.2631860077381134,-0.952366590499878,0.0724735558032989,270.72149658203125,0.7021257281303406,70.36654663085938,24.63,1
-0.2696575820446014,-0.9582360982894896,0.0800960063934326,278.5058898925781,0.7022368907928467,70.37853240966797,24.63,1
-0.2850061953067779,-0.9620027542114258,0.0849876552820205,272.0049743652344,0.7023082375526428,70.38622283935547,24.63,1
-0.2948560714721679,-0.9588222503662108,0.0825290605425834,245.2019500732422,0.7023540139198303,70.39115905761719,24.63,1
-0.2955793738365173,-0.9287922978401184,0.0809512734413147,198.72450256347656,0.7023833990097046,70.39432525634766,24.63,1
-0.2960435450077057,-0.8983252644538879,0.0743409618735313,136.1997833251953,0.7024022340774536,70.3963623046875,24.63,1
-0.2851458787918091,-0.9459465742111206,0.0645010769367218,59.908912658691406,0.7010371685028076,70.39766693115234,24.63,1
-0.2501634955406189,-0.9988982677459716,0.0749797224998474,-23.55754470825196,0.7001611590385437,70.39850616455078,24.63,1
-0.2165182828903198,-1.0216840505599976,0.0928998664021492,-98.00076293945312,0.699599027633667,70.39904022216797,24.63,1
-0.2005244940519333,-0.9915244579315186,0.1323888599872589,-148.02757263183594,0.6992382407188416,70.39938354492188,24.63,1
-0.1958583742380142,-0.9441809058189392,0.1633283942937851,-172.06752014160156,0.6990067362785339,70.39960479736328,24.63,1
-0.2544394433498382,-0.8690163493156433,0.1439991891384124,-178.42031860351562,0.6988581418991089,70.39974975585938,24.63,1
-0.3144244849681854,-0.8151822686195374,0.0980081632733345,-173.9169158935547,0.6987627744674683,70.39984130859375,24.63,1
-0.3585172295570373,-0.8086235523223877,0.0572982244193553,-162.71888732910156,0.6987016201019287,70.39990234375,24.63,1
-0.3868134021759033,-0.8268056511878967,0.0367707014083862,-149.3670196533203,0.7000395059585571,70.39994049072266,24.63,1
-0.3881789445877075,-0.8496693968772888,0.0347928665578365,-136.3167724609375,0.7008980512619019,70.39996337890625,24.63,1
-0.3890552520751953,-0.8587442636489868,0.0279258340597152,-122.474853515625,0.7014490365982056,70.39997863769531,24.63,1
-0.3784220814704895,-0.8757635354995728,0.0403122901916503,-107.0537109375,0.7018026113510132,70.39998626708984,24.63,1
-0.3660005331039428,-0.8866855502128601,0.0650545284152031,-91.88733673095705,0.7020295262336731,70.39999389648438,24.63,1
-0.3412357866764068,-0.9328790903091432,0.0865304470062255,-78.82621765136719,0.7021751403808594,70.39999389648438,24.63,1
-0.3141476511955261,-0.9849145412445068,0.1059102267026901,-67.38841247558594,0.7022686004638672,70.39999389648438,24.63,1
-0.2911662757396698,-1.0351011753082275,0.1071515083312988,-56.25791931152344,0.7023285627365112,70.39999389648438,24.63,1
-0.2988092303276062,-1.1120903491973877,0.1023503169417381,-45.64349365234375,0.7009899020195007,69.83753204345703,24.63,1
-0.3093118369579315,-1.122313141822815,0.099269188940525,-36.80402755737305,0.700130820274353,69.47657775878906,24.63,1
-0.3552362024784088,-1.162460207939148,0.0749007984995842,-29.99569129943848,0.6995795369148254,69.24493408203125,24.63,1
-0.4015011489391327,-1.1490398645401,0.0648603439331054,-24.15405464172364,0.6992257237434387,69.09628295898438,24.63,1
-0.4535824358463287,-1.073254108428955,0.0472214110195636,-18.50646209716797,0.6989986896514893,69.00088500976562,24.63,1
-0.487005203962326,-1.0414124727249146,0.01910843513906,-13.520784378051758,0.6988530158996582,68.93966674804688,24.63,1
-0.4860629141330719,-1.0433694124221802,-0.0101284049451351,-9.869858741760254,0.6987594962120056,68.90037536621094,24.63,1
-0.4294804632663727,-1.0782119035720823,-0.0344886966049671,-7.376436710357666,0.6986994743347168,68.87516021728516,24.63,1
-0.3259958028793335,-1.0949740409851074,-0.0333284102380275,-5.428791999816895,0.6986609697341919,68.85897827148438,24.63,1
-0.2092053443193435,-1.0553511381149292,0.0177961662411689,-3.8313961029052734,0.6986362338066101,68.84859466552734,24.63,1
-0.0782782062888145,-0.973945677280426,0.106582723557949,-2.7274625301361084,0.6986203789710999,68.84193420410156,24.63,1
-0.0558322221040725,-0.8657265901565552,0.1467674970626831,-2.14799427986145,0.6986101865768433,68.83766174316406,24.63,1
-0.1086009740829467,-0.807473361492157,0.1277735829353332,-1.9158453941345213,0.6986036896705627,68.83491516113281,24.63,1
-0.1816493421792984,-0.7812853455543518,0.0875955075025558,-1.7919436693191528,0.6985995173454285,68.8331527709961,24.63,1
-0.2789075672626495,-0.7644793391227722,0.0282248817384243,-1.6228662729263306,0.6985968351364136,68.83202362060547,24.63,1
-0.3077356219291687,-0.7704875469207764,0.0013197798980399,-1.439128041267395,0.6985951066017151,68.831298828125,24.63,1
-0.3094424903392792,-0.7967343926429749,-0.0103485900908708,-1.2710593938827517,0.6985939741134644,68.8308334350586,24.63,1
-0.2769512236118316,-0.8583602905273438,0.0045544188469648,-1.0019866228103638,0.698593258857727,68.83053588867188,24.63,1
-0.2449046522378921,-0.9147015810012816,0.0197160858660936,-0.617939293384552,0.6985927820205688,68.8303451538086,24.63,1
-0.2299367785453796,-1.0068359375,0.0406415201723575,-0.3643147051334381,0.698592483997345,68.8302230834961,24.63,1
-0.2259290367364883,-1.1331356763839722,0.0428747124969959,-0.3985946774482727,0.6985923051834106,68.83014678955078,24.63,1
-0.2345526367425918,-1.2029920816421509,0.0443078465759754,-0.639130711555481,0.6985921859741211,68.83009338378906,24.63,1
-0.2624778747558594,-1.19184410572052,0.0732164233922958,-0.9905345439910888,0.6985921263694763,68.83006286621094,24.63,1
-0.2859964668750763,-1.1231144666671753,0.1197571530938148,-1.3199399709701538,0.6985920667648315,68.83003997802734,24.63,1
-0.3234804272651672,-1.0230300426483154,0.1720154136419296,-1.3486220836639404,0.6967560052871704,68.83002471923828,24.63,1
-0.2747644186019897,-1.0259748697280884,0.1551717817783355,-0.9442846775054932,0.6955776810646057,68.83001708984375,24.63,1
-0.2043168544769287,-1.0334625244140625,0.1219714134931564,-0.2584777176380157,0.6948215365409851,68.83000946044922,24.63,1
-0.1311187893152237,-1.0382676124572754,0.1062631011009216,0.5327261090278625,0.6943362951278687,68.83000946044922,24.63,1
-0.0953400433063507,-0.9965690970420836,0.1017801910638809,1.287672996520996,0.6940248608589172,68.83000946044922,24.63,1
-0.1339548230171203,-0.8970382809638977,0.0877077654004097,1.6610945463180542,0.6938250064849854,68.83000946044922,24.63,1
-0.1923222094774246,-0.8163718581199646,0.0450902469456195,1.2702016830444336,0.6936967372894287,68.83000946044922,24.63,1
-0.2465723603963852,-0.7590069770812988,0.006545228883624,0.2347651124000549,0.6936144232749939,68.83000946044922,24.63,1
-0.2925825417041778,-0.7389868497848511,-0.023788521066308,-0.7808108925819397,0.6944798231124878,72.1653823852539,24.63,1
-0.3165114521980285,-0.7373346090316772,-0.0376572012901306,-1.2892462015151978,0.6950352191925049,74.30583190917969,24.63,1
-0.3374654054641723,-0.730676531791687,-0.0241662245243787,-1.400576114654541,0.6953915953636169,75.67945098876953,24.63,1
-0.3677057921886444,-0.7711859345436096,0.0068826065398752,-1.2821447849273682,0.6956202983856201,76.56095886230469,24.63,1
-0.4039056301116943,-0.8699536323547363,0.0268079582601785,-0.8156415820121765,0.6957671046257019,77.12666320800781,24.63,1
-0.4383321702480316,-1.056488037109375,0.0228015780448913,-0.0182886887341737,0.695861279964447,77.48970031738281,24.63,1
-0.4660229086875915,-1.1426085233688354,0.0202305149286985,0.8265860080718994,0.6959217190742493,77.72267150878906,24.63,1
-0.4558043479919433,-1.203473448753357,0.0409716516733169,1.5658197402954102,0.695960521697998,77.87218475341797,24.63,1
-0.4716377854347229,-1.1921530961990356,0.071075439453125,2.129781723022461,0.6950672268867493,77.96813201904297,24.65,1
-0.5041898488998413,-1.1568994522094729,0.079198770225048,2.355562210083008,0.6944939494132996,78.02970123291016,24.65,1
-0.5586665272712708,-1.2070467472076416,0.0508252121508121,2.296248435974121,0.6941260695457458,78.0692138671875,24.65,1
-0.5936265587806702,-1.2224351167678833,0.0214211475104093,2.1793675422668457,0.6938899755477905,78.09457397460938,24.65,1
-0.5992685556411743,-1.176332712173462,-0.0198397878557443,1.9252312183380127,0.6937384605407715,78.11084747314453,24.65,1
-0.502129316329956,-1.1523445844650269,-0.0295253563672304,1.2605806589126587,0.693641185760498,78.12129211425781,24.65,1
-0.3782154321670532,-1.0977660417556765,-0.0077521260827779,0.2608340084552765,0.6935787796974182,78.12799072265625,24.65,1
-0.237119123339653,-1.0011651515960691,0.0677962005138397,-0.5921177268028259,0.6935387253761292,78.13229370117188,24.65,1
-0.0905938819050788,-0.9223788976669312,0.1442676335573196,-0.6343499422073364,0.6916769742965698,78.13505554199219,24.65,1
-0.0525401644408702,-0.7766562104225159,0.1709515005350113,0.6246924996376038,0.6904821991920471,78.13682556152344,24.65,1
-0.084097221493721,-0.7391175627708435,0.137695699930191,2.715235471725464,0.6897154450416565,78.1379623413086,24.65,1
-0.1547286957502365,-0.7206251621246338,0.0939629450440406,4.0783209800720215,0.6892234086990356,78.1386947631836,24.65,1
-0.2448381036520004,-0.7423444390296936,0.0491044633090496,3.52720594406128,0.6889076232910156,78.13916015625,24.65,1
-0.2858718037605285,-0.7954670786857605,0.0203168671578168,1.4897212982177734,0.6887049674987793,78.13945770263672,24.65,1
-0.2618249058723449,-0.9303180575370787,0.0018426463939249,-0.7815317511558533,0.6885749101638794,78.1396484375,24.65,1
-0.1960130184888839,-1.0224554538726809,0.0123780537396669,-2.4934539794921875,0.6884914636611938,78.1397705078125,24.65,1
-0.1537787467241287,-1.0983772277832031,0.0191390719264745,-3.3305392265319824,0.6898150444030762,78.13985443115234,24.65,1
-0.1490663141012191,-1.1359039545059204,0.0178801286965608,-3.126139163970948,0.6906644701957703,78.13990783691406,24.65,1
-0.1684332489967346,-1.1263997554779053,0.0114744370803236,-2.160227060317993,0.6912095546722412,78.13993835449219,24.65,1
-0.2368395775556564,-1.0307360887527466,0.0297547299414873,-1.146276831626892,0.691559374332428,78.13996124267578,24.65,1
-0.3255210220813751,-0.9637469053268432,0.069474846124649,-0.4776690304279327,0.6917838454246521,78.13997650146484,24.65,1
-0.3936271965503692,-0.9823326468467712,0.0949649289250373,0.1162034049630165,0.6919279098510742,78.13998413085938,24.65,1
-0.3645627796649933,-1.0502376556396484,0.077736347913742,0.9558863043785096,0.6920203566551208,78.1399917602539,24.65,1
-0.2843353748321533,-1.0938152074813845,0.0442889407277107,1.8601690530776973,0.6920797228813171,78.1399917602539,24.65,1
-0.1376878768205642,-1.0769984722137451,0.050813190639019,2.508554697036743,0.6907406449317932,80.59764099121094,24.65,1
-0.0771646052598953,-0.9486532211303712,0.0997822731733322,3.003468036651612,0.6898813247680664,82.17481994628906,24.65,1
-0.0831064507365226,-0.8382998108863831,0.1200122609734535,3.618428468704224,0.6893298625946045,83.18695831298828,24.65,1
-0.1372995525598526,-0.7954701781272888,0.0938102826476097,4.077561378479004,0.6889759302139282,83.83649444580078,24.65,1
-0.2056642174720764,-0.7791801691055298,0.0602020397782325,3.6055350303649902,0.688748836517334,84.25332641601562,24.65,1
-0.2943189144134521,-0.763128399848938,0.0274386554956436,1.7585257291793823,0.6886031031608582,84.52082824707031,24.65,1
-0.3568101823329925,-0.7920116782188416,0.0120107755064964,-0.9386255741119384,0.6885095238685608,84.69249725341797,24.65,1
-0.396913468837738,-0.8217428922653198,0.0133055988699197,-3.407512664794922,0.688449501991272,84.80266571044922,24.65,1
-0.4394427835941314,-0.9359847903251648,0.0309298653155565,-5.038475513458252,0.6893288493156433,84.87335968017578,24.65,1
-0.4779312014579773,-1.04848313331604,0.0534356534481048,-6.067220687866211,0.6898931860923767,84.91873168945312,24.65,1
-0.5138263702392578,-1.165460228919983,0.0678785741329193,-6.659341335296631,0.690255343914032,84.94784545898438,24.65,1
-0.4864818751811981,-1.2517249584197998,0.0939405336976051,-6.355058193206787,0.6904877424240112,84.9665298461914,24.65,1
-0.4465426504611969,-1.245509147644043,0.1162633746862411,-4.866477489471436,0.6906368732452393,84.97852325439453,24.65,1
-0.4041186273097992,-1.1519558429718018,0.1249911114573478,-2.65370774269104,0.6907325983047485,84.98621368408203,24.65,1
-0.3936866521835327,-1.1255053281784058,0.1137987449765205,-0.3452008068561554,0.6907939910888672,84.99114990234375,24.65,1
-0.3981875777244568,-1.1868997812271118,0.0674317106604576,1.7202260494232178,0.6908333897590637,84.99432373046875,24.65,1
-0.4234670996665954,-1.1759192943572998,0.0040893671102821,3.3645472526550293,0.6903997659683228,84.9963607788086,24.65,1
-0.3949078321456909,-1.1856659650802612,-0.0309623274952173,4.480681896209717,0.6901214718818665,84.99766540527344,24.65,1
-0.2702224254608154,-1.119149684906006,0.0081190317869186,4.989163398742676,0.6899428963661194,84.99850463867188,24.65,1
-0.2014020681381225,-1.0708656311035156,0.0331991985440254,4.69569206237793,0.6898282766342163,84.99903869628906,24.65,1
-0.0788682848215103,-0.9615108370780944,0.0828808546066284,3.471994638442993,0.6897547245025635,84.99938201904297,24.65,1
-0.0394175760447979,-0.8409532904624939,0.0923725813627243,1.7767218351364136,0.6897075176239014,84.99960327148438,24.65,1
-0.0700781270861625,-0.7803797125816345,0.0816705003380775,0.7461144924163818,0.6896772384643555,84.99974822998047,24.65,1
-0.1681231409311294,-0.7303115129470825,0.0468136519193649,1.263397455215454,0.6896578073501587,84.99983978271484,24.65,1
-0.2422383427619934,-0.6925828456878662,0.0132489837706089,2.6880452632904053,0.6878092885017395,84.9999008178711,24.65,1
-0.2618123292922973,-0.7075551748275757,-0.0082908878102898,3.247627258300781,0.6866229772567749,84.99993896484375,24.65,1
-0.2407871484756469,-0.806727945804596,-0.0053206146694719,1.9300894737243648,0.6858617067337036,84.99996185302734,24.65,1
-0.1993055343627929,-0.9207513332366944,0.0077810850925743,-0.566997766494751,0.6853731274604797,84.9999771118164,24.65,1
-0.1390983611345291,-1.0499026775360107,0.0217867754399776,-2.7856879234313965,0.6850596070289612,84.99998474121094,24.65,1
-0.1004608720541,-1.1719690561294556,0.0251770466566085,-3.754528045654297,0.6848583817481995,84.99999237060547,24.65,1
-0.1092521995306015,-1.1775331497192385,0.0217549540102481,-3.416143655776977,0.684729278087616,84.99999237060547,24.65,1
-0.1708717048168182,-1.1251261234283447,0.0307544004172086,-2.3570828437805176,0.6846464276313782,84.99999237060547,24.65,1
-0.2495999783277511,-1.041114330291748,0.0533230490982532,-1.4159106016159058,0.6855111122131348,86.94891357421875,24.65,1
-0.384089857339859,-1.065569281578064,0.0845996364951133,-1.2131688594818115,0.6860660314559937,88.19962310791016,24.65,1
-0.4536044001579284,-1.103654146194458,0.0878778249025344,-1.5667085647583008,0.6864221096038818,89.00225830078125,24.65,1
-0.3806615769863128,-1.1057037115097046,0.0396016053855419,-1.6395392417907717,0.6866506338119507,89.51734161376953,24.65,1
-0.2162978202104568,-1.0902256965637207,0.0422073528170585,-1.044996738433838,0.6867973208427429,89.84789276123047,24.65,1
-0.0940252989530563,-1.0187172889709473,0.0830639898777008,-0.1618929952383041,0.6868914365768433,90.06002044677734,24.65,1
-0.0771333500742912,-0.8832628726959229,0.120478980243206,0.7380115985870361,0.6869518160820007,90.19615173339844,24.65,1
-0.0998797118663787,-0.7963359951972961,0.1220986694097518,1.7525928020477295,0.6869905591011047,90.28351593017578,24.65,1
-0.1704547703266143,-0.7741379737854004,0.0783559009432792,2.6688032150268555,0.6874747276306152,90.3395767211914,24.65,1
-0.2437346428632736,-0.7822836637496948,0.022295432165265,2.826865196228028,0.6877854466438293,90.37555694580078,24.65,1
-0.2907614409923553,-0.7987066507339478,-0.0192787200212478,1.7424678802490234,0.687984824180603,90.39864349365234,24.65,1
-0.3209405541419983,-0.8092460036277771,-0.0291652958840131,-0.3363100886344909,0.6881127953529358,90.41345977783205,24.65,1
-0.3459055423736572,-0.8272051215171814,-0.0243143830448389,-2.5444986820220947,0.6881949305534363,90.42296600341795,24.65,1
-0.3843177258968353,-0.928294599056244,-0.0044080233201384,-4.083394527435303,0.6882476210594177,90.42906951904295,24.65,1
-0.4761417508125305,-1.0827324390411377,0.0027689591515809,-4.727042198181152,0.6882814168930054,90.4329833984375,24.65,1
-0.5294713377952576,-1.1930372714996338,0.0017769585829228,-4.627789497375488,0.6883031129837036,90.4355010986328,24.65,1
-0.496521919965744,-1.219042420387268,0.0123358983546495,-3.833249568939209,0.6860216856002808,90.4371109008789,24.65,1
-0.4473879933357239,-1.2525242567062378,0.0359053425490856,-2.1733527183532715,0.6845576167106628,90.43814849853516,24.65,1
-0.3990633487701416,-1.2012399435043335,0.0734219476580619,0.3499816060066223,0.6836180686950684,90.43881225585938,24.65,1
-0.3904424607753753,-1.1739263534545898,0.0639113038778305,3.241126775741577,0.6830151081085205,90.43923950195312,24.65,1
-0.3961056172847748,-1.1619958877563477,0.0466123707592487,5.834507465362549,0.6826281547546387,90.43951416015624,24.65,1
-0.4445221126079559,-1.1599373817443848,-0.014869057573378,7.649258136749268,0.6823798418045044,90.43968963623048,24.65,1
-0.4084197282791137,-1.1754096746444702,-0.0543242990970611,8.21198844909668,0.682220458984375,90.43980407714844,24.65,1
-0.2844913601875305,-1.1629477739334106,-0.0460577569901943,7.132920742034912,0.6821181774139404,90.43987274169922,24.65,1
-0.1545813083648681,-1.1045705080032349,0.0096272053197026,4.706470489501953,0.6838886141777039,90.4399185180664,24.65,1
-0.0208325441926717,-1.044716238975525,0.0565581545233726,2.0064730644226074,0.6850247979164124,90.43994903564452,24.65,1
0.0202175192534923,-0.8831541538238525,0.0810779631137847,0.137632131576538,0.6857539415359497,90.43997192382812,24.65,1
0.0073766657151281,-0.7906684875488281,0.0800200402736663,-0.4884702861309051,0.6862218379974365,90.43997955322266,24.65,1
-0.0904282480478286,-0.7257187366485596,0.0345589332282543,-0.2776463627815246,0.6865221261978149,90.4399871826172,24.65,1
-0.2091715633869171,-0.6896355152130127,-0.0170064885169267,0.0116990441456437,0.6867148280143738,90.43999481201172,24.65,1
-0.279776394367218,-0.6888704299926758,-0.0500982068479061,-0.2683505415916443,0.6868385076522827,90.43999481201172,24.65,1
-0.2914998829364776,-0.7611505389213562,-0.0601390190422534,-1.4332785606384275,0.6869178414344788,90.43999481201172,24.65,1
-0.282230019569397,-0.8579156994819641,-0.0609848573803901,-3.230556964874268,0.6851326823234558,92.0019989013672,24.65,1
-0.220303401350975,-0.9312095642089844,-0.0391365699470043,-4.738621711730957,0.6839870810508728,93.00440216064452,24.65,1
-0.1917580068111419,-1.0062341690063477,-0.0195178240537643,-4.979147911071777,0.6832519173622131,93.64768981933594,24.65,1
-0.1958303153514862,-1.059978485107422,0.0098656816408038,-3.868854761123657,0.6827801465988159,94.06051635742188,24.65,1
-0.2656169831752777,-1.0664795637130735,0.0399178750813007,-2.2714364528656006,0.6824773550033569,94.325439453125,24.65,1
-0.343988686800003,-1.0034782886505127,0.0927902907133102,-1.124497652053833,0.6822830438613892,94.49545288085938,24.65,1
-0.4390653371810913,-0.9966343641281128,0.1491118520498275,-0.7108901739120483,0.682158350944519,94.60456085205078,24.65,1
-0.4608956277370453,-1.087404489517212,0.1460713744163513,-0.6783280968666077,0.6820783615112305,94.67457580566406,24.65,1
-0.4357206523418426,-1.117666721343994,0.1273268461227417,-0.5535369515419006,0.6838630437850952,94.71951293945312,24.63,1
-0.3020115196704864,-1.1090984344482422,0.1376887857913971,-0.1725168228149414,0.6850084066390991,94.74835205078124,24.63,1
-0.1826180666685104,-1.0644153356552124,0.1667295843362808,0.48399618268013,0.6857433915138245,94.76685333251952,24.63,1
-0.1563781797885894,-0.9517736434936525,0.2021596133708953,1.582415223121643,0.6862151026725769,94.77873229980467,24.63,1
-0.1787233501672744,-0.8794867396354675,0.2081032395362854,3.0539886951446533,0.6865177750587463,94.7863540649414,24.63,1
-0.2602365016937256,-0.8666837811470032,0.1559397727251052,4.181070804595947,0.6867120265960693,94.79124450683594,24.63,1
-0.3685247004032135,-0.8752608895301819,0.0832798480987548,4.069627285003662,0.6868367195129395,94.79438018798828,24.63,1
-0.443615585565567,-0.8527763485908508,0.0366508886218071,2.536418437957764,0.686916708946228,94.79639434814452,24.63,1
-0.4582179486751556,-0.8047603964805603,0.0347159802913665,0.2520184218883514,0.6874273419380188,94.79768371582033,24.63,1
-0.4619911313056946,-0.7627509832382202,0.0558653660118579,-1.9125803709030151,0.6877549886703491,94.79851531982422,24.63,1
-0.486803650856018,-0.7749761939048767,0.0918289199471473,-3.4808239936828613,0.6879652738571167,94.7990493774414,24.63,1
-0.536313533782959,-0.7996149063110352,0.114908255636692,-4.293773651123047,0.6881002187728882,94.79939270019533,24.63,1
-0.5680861473083496,-0.8098288774490356,0.1297192424535751,-4.245848178863525,0.6881868243217468,94.79961395263672,24.63,1
-0.5716826319694519,-0.8555680513381958,0.1280285418033599,-3.416177988052368,0.6882424354553223,94.79975128173828,24.63,1
-0.5683928728103638,-0.9297029972076416,0.1269435435533523,-2.156480550765991,0.688278079032898,94.79984283447266,24.63,1
-0.549488365650177,-1.0052673816680908,0.120649479329586,-0.7605369091033936,0.6883009672164917,94.7999038696289,24.63,1
-0.5037699341773987,-1.0929447412490845,0.1054147630929946,0.6870160102844238,0.6873974204063416,94.79994201660156,24.63,1
-0.4576371312141418,-1.1100265979766846,0.0900402218103408,2.063794136047364,0.6868175864219666,94.79996490478516,24.63,1
-0.4056406617164612,-1.0314242839813232,0.0745759531855583,3.044060707092285,0.6864454746246338,94.79998016357422,24.63,1
-0.3498812317848205,-1.014568567276001,0.0422607809305191,3.271890878677368,0.6862066984176636,94.79998779296876,24.63,1
-0.3140980303287506,-1.0261425971984863,0.0103272134438157,2.601271867752075,0.686053454875946,94.79999542236328,24.63,1
-0.2855366468429565,-1.1063412427902222,-0.0269592348486185,1.253767728805542,0.6859551072120667,94.79999542236328,24.63,1
-0.2560120522975921,-1.141014814376831,-0.0508875325322151,-0.1841949075460434,0.6858919858932495,94.79999542236328,24.63,1
-0.2146737724542617,-1.090495228767395,-0.0550477877259254,-1.042510151863098,0.685851514339447,94.79999542236328,24.63,1
-0.1881452351808548,-0.9853035807609558,-0.0409242771565914,-0.9807071089744568,0.6867437362670898,96.17570495605467,24.63,1
-0.1823163032531738,-0.8954065442085266,-0.0206650719046592,-0.3535030484199524,0.6873162984848022,97.05855560302734,24.63,1
-0.1841734051704406,-0.8321179747581482,0.0091294441372156,-0.0298162456601858,0.6876837611198425,97.6251220703125,24.63,1
-0.196560725569725,-0.797100841999054,0.0282498504966497,-0.6389199495315552,0.687919557094574,97.98870849609376,24.63,1
-0.2213035225868225,-0.7634332776069641,0.0461179986596107,-2.029346227645874,0.6880708932876587,98.22203826904295,24.63,1
-0.248377576470375,-0.7418273687362671,0.0575847476720809,-3.5199320316314697,0.6881679892539978,98.37177276611328,24.63,1
-0.2937410175800323,-0.7895374894142151,0.0817367732524871,-4.573233604431152,0.6882303357124329,98.46786499023438,24.63,1
-0.3508415222167969,-0.8145573139190674,0.114029474556446,-5.102296352386475,0.6882703304290771,98.52953338623048,24.63,1
-0.3930831253528595,-0.8250158429145813,0.1459486186504364,-5.137299537658691,0.6882960200309753,98.56910705566406,24.67,1
-0.4201913475990295,-0.8317275047302246,0.2000191360712051,-4.622375965118408,0.6883124709129333,98.5945053100586,24.67,1
-0.4487833976745605,-0.8304368853569031,0.2179251611232757,-3.790367126464844,0.6883230209350586,98.61080169677734,24.67,1
-0.4895232319831848,-0.8352063894271851,0.1846340149641037,-3.174032688140869,0.688329815864563,98.62126159667967,24.67,1
-0.4932766258716583,-0.8606582880020142,0.1408785879611969,-2.7426788806915283,0.6883341670036316,98.6279754638672,24.67,1
-0.4900875389575958,-0.8825896382331848,0.1127988696098327,-1.5809646844863892,0.688336968421936,98.63228607177734,24.67,1
-0.4824432134628296,-0.9022616744041444,0.117170013487339,0.8806102871894836,0.6883387565612793,98.63504791259766,24.67,1
-0.4887330532073974,-0.9092882871627808,0.1199751645326614,3.918415546417236,0.68833988904953,98.63682556152344,24.67,1
-0.5263561606407166,-0.8914064764976501,0.1161775738000869,6.383795261383057,0.6874223947525024,98.6379623413086,24.67,1
-0.578489363193512,-0.8407465219497681,0.0969471782445907,7.84770917892456,0.6868336200714111,98.6386947631836,24.67,1
-0.6231410503387451,-0.7970403432846069,0.0790084451436996,8.314264297485352,0.6864557862281799,98.63916015625,24.67,1
-0.6853825449943542,-0.7242100238800049,0.0618986226618289,7.556813240051269,0.6862133145332336,98.63945770263672,24.67,1
-0.758912205696106,-0.6606783866882324,0.0621140711009502,5.619781494140625,0.6860576868057251,98.6396484375,24.67,1
-0.8340882062911987,-0.5639297366142273,0.1070345267653465,3.233864545822144,0.6859578490257263,98.6397705078125,24.67,1
-0.9830917716026306,-0.3786909580230713,0.1246663406491279,1.193994402885437,0.6858937740325928,98.63985443115234,24.67,1
-1.0899091958999634,-0.1926420927047729,0.2143502682447433,-0.1759805977344513,0.6858526468276978,98.63990783691406,24.67,1
-1.175251841545105,-0.0452577657997608,0.2327198237180709,-0.8401970863342285,0.6862851977348328,98.6399383544922,24.67,1
-1.2580087184906006,-0.0346416048705577,0.2445083558559417,-0.872369647026062,0.6865627765655518,98.63996124267578,24.67,1
-1.27193284034729,-0.106197603046894,0.2800624370574951,-0.5240108370780945,0.6867409348487854,98.63997650146484,24.67,1
-1.2080974578857422,-0.2696713805198669,0.3140745460987091,-0.117742896080017,0.6868552565574646,98.63998413085938,24.67,1
-1.0831650495529177,-0.4193616509437561,0.3303037881851196,0.1573067903518676,0.6869286298751831,98.6399917602539,24.67,1
-0.8910350799560547,-0.610586404800415,0.2511543929576874,0.3696436285972595,0.6869757175445557,98.6399917602539,24.67,1
-0.6613793969154358,-0.8340634107589722,0.217154175043106,0.7101160287857056,0.6870059370994568,98.6399917602539,24.67,1
-0.4020441174507141,-0.8543270230293274,0.3072902858257293,1.1758092641830444,0.6870253086090088,98.6399917602539,24.67,1
-0.2468132227659225,-0.6602134108543396,0.241983413696289,1.5212379693984983,0.6865788102149963,99.84374237060548,24.67,1
-0.040837250649929,-0.6252068281173706,0.2224643230438232,1.52079439163208,0.686292290687561,100.61624145507812,24.67,1
0.1865084171295166,-0.6867082715034485,0.1483625769615173,1.1443393230438232,0.686108410358429,101.11198425292967,24.67,1
0.3380035758018493,-0.7373718619346619,-0.1231026425957679,0.5337468981742859,0.6859903931617737,101.43012237548828,24.67,1
0.0041958112269639,-1.1897178888320925,-0.023022448644042,-0.0945462211966514,0.6859146356582642,101.63428497314452,24.67,1
0.1706258654594421,-1.480007529258728,-0.3506409525871277,-0.6876250505447388,0.6858660578727722,101.76530456542967,24.67,1
-0.0472398251295089,-1.666298747062683,-0.124261237680912,-1.4336516857147217,0.6858348846435547,101.8493881225586,24.67,1
-0.612484335899353,-1.6067209243774414,0.3176982700824737,-2.453377485275269,0.6858148574829102,101.9033432006836,24.67,1
-0.6001748442649841,-1.014307737350464,0.276651531457901,-3.612921953201294,0.6876381039619446,101.93797302246094,24.63,1
-0.810588538646698,-0.8132597804069519,0.5525899529457092,-4.783377647399902,0.6888081431388855,101.96019744873048,24.63,1
-0.8560555577278137,-0.6170654892921448,0.5897269248962402,-5.942922115325928,0.6895589828491211,101.97445678710938,24.63,1
-0.7284959554672241,-0.563930332660675,0.4176372289657593,-6.973657131195068,0.6900408267974854,101.98360443115234,24.63,1
-0.7026132941246033,-0.675373375415802,0.5143176317214966,-7.696027278900146,0.6903500556945801,101.9894790649414,24.63,1
-0.7251877188682556,-0.6909133791923523,0.6211436986923218,-8.10228157043457,0.6905485391616821,101.99324798583984,24.63,1
-0.6780991554260254,-0.6728971600532532,0.5721452832221985,-8.348661422729492,0.6906759142875671,101.99566650390624,24.63,1
-0.7094559669494629,-0.7229109406471252,0.5127120614051819,-8.546182632446289,0.6907576322555542,101.9972152709961,24.63,1
-0.7519700527191162,-0.7550069093704224,0.4353868067264557,-8.71593189239502,0.8652477860450745,101.99821472167967,24.63,1
-0.7680575847625732,-0.7308220267295837,0.3521772623062134,-8.95025634765625,0.9772255420684814,101.99885559082033,24.63,1
-0.7895771861076355,-0.6985082626342773,0.3099737167358398,-9.580698013305664,1.0490864515304563,101.999267578125,24.63,1
-0.76980060338974,-0.6441844701766968,0.2996832132339477,-11.167529106140137,1.0952025651931765,101.99952697753906,24.63,1
-0.7515113353729248,-0.592529296875,0.3210682570934295,-14.055970191955566,1.1247973442077637,101.99969482421876,24.63,1
-0.7509698867797852,-0.5537822246551514,0.3347919285297394,-17.840614318847656,1.143789529800415,101.9998016357422,24.63,1
-0.7730135321617126,-0.506525456905365,0.3324034512042999,-21.66658592224121,1.1559776067733765,101.99987030029295,24.63,1
-0.7983554005622864,-0.4706010222434997,0.3196751177310943,-25.497583389282227,1.1637991666793823,101.99991607666016,24.63,1
-0.8090205788612366,-0.4419490098953247,0.2947134673595428,-30.52838516235352,1.1564490795135498,101.99994659423828,24.63,1
-0.8270604014396667,-0.4067684710025787,0.2730967700481415,-37.68695068359375,1.1517322063446045,101.99996948242188,24.63,1
-0.8554306626319885,-0.3785938620567322,0.2536266148090362,-46.17874526977539,1.148705244064331,101.9999771118164,24.63,1
-0.8792348504066467,-0.3661107718944549,0.2635228931903839,-54.52301406860352,1.146762728691101,101.99998474121094,24.63,1
-0.8945109844207764,-0.3636976182460785,0.2810693085193634,-62.56840133666992,1.145516037940979,101.99999237060548,24.63,1
-0.8875210285186768,-0.350953459739685,0.3147206902503967,-71.42510223388672,1.1447160243988037,101.99999237060548,24.63,1
-0.871839702129364,-0.3371772170066833,0.3475117683410644,-81.73392486572266,1.1442025899887085,101.99999237060548,24.63,1
-0.8617763519287109,-0.3283364176750183,0.3629574179649353,-92.72027587890624,1.14387309551239,101.99999237060548,24.63,1
-0.8497204780578613,-0.322662889957428,0.36727175116539,-102.83737182617188,1.0619513988494873,102.93862915039062,24.63,1
-0.8475815057754517,-0.3246197402477264,0.35884490609169,-111.96672058105467,1.0093787908554075,103.5409927368164,24.63,1
-0.8574044108390808,-0.3370710611343384,0.3478392660617828,-123.56111145019533,0.9756406545639038,103.92755889892578,24.63,1
-0.8693059086799622,-0.3618549406528473,0.3351787030696869,-140.0441436767578,0.9539895057678224,104.17562866210938,24.63,1
-0.8769436478614807,-0.3777598142623901,0.3270538747310638,-153.5847930908203,0.9400950074195862,104.33483123779295,24.63,1
-0.8874428868293762,-0.3823688626289367,0.3162420690059662,-148.58538818359375,0.931178331375122,104.43699645996094,24.63,1
-0.899778425693512,-0.3853266835212707,0.3149014413356781,-116.23280334472656,0.9254561066627502,104.5025634765625,24.63,1
-0.8964991569519043,-0.381627082824707,0.3140411078929901,-60.329288482666016,0.9217839241027832,104.54463958740234,24.63,1
-0.8943946957588196,-0.3736551105976105,0.3190867602825165,8.660116195678711,0.8969341516494751,104.57164001464844,24.63,1
-0.8930441737174988,-0.3685391545295715,0.3223247826099396,78.00440979003906,0.8809869885444641,104.5889663696289,24.63,1
-0.8753841519355774,-0.3932448923587799,0.2908160984516144,135.54615783691406,0.8707529902458191,104.60008239746094,24.63,1
-0.8584532141685486,-0.3755129873752594,0.3153778314590454,175.05259704589844,0.8641853928565979,104.60721588134766,24.63,1
-0.8923701047897339,-0.3529381155967712,0.3255423605442047,197.9765625,0.8599706888198853,104.6117935180664,24.63,1
-0.9029404520988464,-0.3496463894844055,0.3208698332309723,209.6605682373047,0.8572659492492676,104.61473083496094,24.63,1
-0.9097238779067992,-0.3475339710712433,0.3290668129920959,213.5402984619141,0.8555302023887634,104.61662292480467,24.63,1
-0.91407710313797,-0.3461783230304718,0.3175338506698608,204.9276733398437,0.8544163107872009,104.61783599853516,24.63,1
-0.8664907813072205,-0.3676994442939758,0.3157304227352142,170.80088806152344,0.8527832627296448,104.61861419677734,24.63,1
-0.863941490650177,-0.3591193854808807,0.3369641900062561,100.8686981201172,0.8517352342605591,104.61911010742188,24.63,1
-0.834316611289978,-0.3480153977870941,0.3337974846363067,3.8888418674468994,0.8510627150535583,104.6194305419922,24.63,1
-0.8544895052909851,-0.346487283706665,0.3149719536304474,-87.9106674194336,0.8506311178207397,104.61963653564452,24.63,1
-0.8562397956848145,-0.3343110680580139,0.3308796882629394,-138.26710510253906,0.8503541350364685,104.61976623535156,24.63,1
-0.8685585260391235,-0.3432904183864593,0.3354905843734741,-132.9981689453125,0.8501763939857483,104.6198501586914,24.63,1
-0.8876595497131348,-0.3602483868598938,0.3328517973423004,-85.49028778076172,0.8500623106956482,104.61990356445312,24.63,1
-0.8719286322593689,-0.3655332624912262,0.3423539400100708,-23.053056716918945,0.849989116191864,104.61994171142578,24.63,1
-0.8674312233924866,-0.3577292561531067,0.3484518527984619,28.59086799621582,0.8559100031852722,104.61996459960938,24.63,1
-0.8533494472503662,-0.3639166355133056,0.3691584765911102,57.00754928588867,0.8597096800804138,104.61997985839844,24.63,1
-0.8443126082420349,-0.373485118150711,0.3600556850433349,66.2693862915039,0.862148106098175,104.61998748779295,24.63,1
-0.8720999360084534,-0.3572345077991485,0.3654096126556396,67.1186752319336,0.8637129068374634,104.6199951171875,24.63,1
