acc_x,acc_y,acc_z,bvp,eda,hr,temp,label
0.0,0.0,0.0,0.0,0.0,0.0,25.09,2
-0.0572916641831398,-0.1458333283662796,0.0598958283662796,-0.93833327293396,0.1194261610507965,11.499999046325684,25.09,2
-0.1215701252222061,-0.3246951401233673,0.1444359868764877,-2.612926959991455,0.279632031917572,26.92682838439941,25.09,2
-0.1774813085794448,-0.470307320356369,0.1980378031730651,-4.678704738616943,0.418983519077301,40.345516204833984,25.09,2
-0.239624336361885,-0.5712010860443115,0.2691724300384521,-6.455700397491455,0.5206479430198669,50.13516998291016,25.09,2
-0.2762080729007721,-0.7053870558738708,0.3063541054725647,-7.739609718322754,0.5894790887832642,56.763179779052734,25.09,2
-0.2668938040733337,-0.7656669616699219,0.3196444809436798,-9.246630668640137,0.6346421837806702,61.11210632324219,25.09,2
-0.2943374216556549,-0.8437626361846924,0.2780380249023437,-11.765228271484377,0.6638920903205872,63.92869567871094,25.09,2
-0.3120158016681671,-0.8772991299629211,0.262416660785675,-15.30886936187744,0.680442214012146,65.7430648803711,25.09,2
-0.3121891617774963,-0.8708812594413757,0.257970780134201,-19.448415756225582,0.6910796761512756,66.90923309326172,25.09,2
-0.3067040145397186,-0.8723564743995667,0.2607123255729675,-24.191219329833984,0.6979105472564697,67.65809631347656,25.09,2
-0.3143775165081024,-0.8677061796188354,0.2680694162845611,-30.04415512084961,0.7022953629493713,68.13880157470703,25.09,2
-0.3193024694919586,-0.8759167194366455,0.2615961730480194,-36.97467803955078,0.7051095962524414,68.44731903076172,25.09,2
-0.3112677931785583,-0.8699906468391418,0.2742348611354828,-43.94099807739258,0.7069156765937805,68.64531707763672,25.09,2
-0.2893182933330536,-0.8941762447357178,0.2879435420036316,-50.450138092041016,0.7080747485160828,68.77238464355469,25.09,2
-0.3088188171386719,-0.9152950048446656,0.2799477875232696,-57.8839111328125,0.7088186144828796,68.85392761230469,25.09,2
-0.3381264805793762,-0.9232500791549684,0.269218772649765,-67.71308898925781,0.7033284902572632,68.90625762939453,25.09,2
-0.3513366878032684,-0.9171596765518188,0.2679312825202942,-79.3553466796875,0.6998052000999451,68.9398422241211,25.09,2
-0.3598142564296722,-0.8964579105377197,0.2727028131484985,-91.83512115478516,0.6975441575050354,68.96139526367188,25.09,2
-0.3596569001674652,-0.8887704610824585,0.275764912366867,-106.2137451171875,0.6960931420326233,68.97522735595703,25.09,2
-0.3595559000968933,-0.883837103843689,0.2777299880981445,-124.41547393798828,0.6951619982719421,68.98410034179688,25.09,2
-0.3538933098316192,-0.8806711435317993,0.2733932733535766,-147.27392578125,0.6945644617080688,68.98979949951172,25.09,2
-0.350259393453598,-0.8786394000053406,0.2706102430820465,-172.86643981933594,0.694180965423584,68.99345397949219,25.09,2
-0.3535251319408417,-0.8717377781867981,0.2688242495059967,-193.06985473632807,0.6939348578453064,68.99579620361328,25.09,2
-0.3500231206417084,-0.872906506061554,0.2676780819892883,-195.0618133544922,0.6992851495742798,68.99729919433594,25.09,2
-0.3477757275104522,-0.8680587410926819,0.26694256067276,-171.40899658203125,0.7027186155319214,68.9982681274414,25.09,2
-0.3463334739208221,-0.8649477362632751,0.2664705216884613,-124.77854919433594,0.7049220204353333,68.99888610839844,25.09,2
-0.3454079329967499,-0.8685490489006042,0.2661676108837127,-60.6939582824707,0.7063360214233398,68.99928283691406,25.09,2
-0.3448139727115631,-0.8652623891830444,0.260375440120697,14.83173370361328,0.7072435021400452,68.99954223632812,25.09,2
-0.3388350307941437,-0.8687509894371033,0.2566583454608917,88.51036071777344,0.7078258395195007,68.99970245361328,25.09,2
-0.3238025307655334,-0.8709897398948669,0.2486751675605774,143.63174438476562,0.7081995606422424,68.99980926513672,25.09,2
-0.3141555488109588,-0.872426450252533,0.243552029132843,174.49142456054688,0.7084394097328186,68.9998779296875,25.09,2
-0.3023668825626373,-0.8789462447166443,0.2346665114164352,188.2659149169922,0.7095115184783936,69.92064666748047,25.07,2
-0.2948015928268432,-0.8831302523612976,0.2289642989635467,193.38330078125,0.7101995348930359,70.51154327392578,25.07,2
-0.2899466454982757,-0.8858153223991394,0.2253049463033676,194.1846160888672,0.710641086101532,70.8907470703125,25.07,2
-0.2980265617370605,-0.8707451224327087,0.228554368019104,193.9966735839844,0.7109244465827942,71.13409423828125,25.07,2
-0.3032117784023285,-0.8554761409759521,0.2306396514177322,195.25534057617188,0.7111063003540039,71.2902603149414,25.07,2
-0.3009415864944458,-0.8512751460075378,0.2319778650999069,197.8579559326172,0.7112230062484741,71.3904800415039,25.07,2
-0.2882891595363617,-0.9101547002792358,0.2328366637229919,200.9647827148437,0.711297869682312,71.45479583740234,25.07,2
-0.2801695466041565,-0.947940230369568,0.2389855533838272,204.7355194091797,0.711345911026001,71.4960708618164,25.07,2
-0.2861543893814087,-0.9386021494865416,0.2541271150112152,209.61659240722656,0.7099996209144592,71.5225601196289,25.07,2
-0.2843973636627197,-0.932609498500824,0.2638441026210785,215.73684692382807,0.7091356515884399,71.53955841064453,25.07,2
-0.2832697927951813,-0.9119704365730286,0.2644821107387543,222.6129302978516,0.7085812091827393,71.55046081542969,25.07,2
-0.2769484221935272,-0.8819321990013123,0.2536960244178772,229.3471221923828,0.7082253694534302,71.55745697021484,25.07,2
-0.2784895002841949,-0.8626553416252136,0.2467741221189499,235.54959106445312,0.7079970240592957,71.56195068359375,25.07,2
-0.2794784605503082,-0.8726756572723389,0.2311365008354187,238.93527221679688,0.7078505158424377,71.56483459472656,25.07,2
-0.2857109010219574,-0.8903017044067383,0.22110116481781,232.0154266357422,0.7077564597129822,71.56668853759766,25.07,2
-0.3009060621261596,-0.9072108268737792,0.2202588468790054,206.7957305908203,0.7076961398124695,71.56787109375,25.07,2
-0.3218530118465423,-0.9068666100502014,0.230913832783699,162.6957550048828,0.7094934582710266,71.56863403320312,25.07,2
-0.335295557975769,-0.9066457152366638,0.2433493733406067,104.0218505859375,0.7106468677520752,71.56912231445312,25.07,2
-0.3439221978187561,-0.9176995158195496,0.2401342391967773,32.62404251098633,0.7113870978355408,71.5694351196289,25.07,2
-0.3494582772254944,-0.9415864944458008,0.2324731796979904,-47.422889709472656,0.7118620872497559,71.56964111328125,25.07,2
-0.3530110120773315,-0.984904646873474,0.2107634246349334,-121.33039093017578,0.7121669054031372,71.56977081298828,25.07,2
-0.355290949344635,-1.0798770189285278,0.180038034915924,-171.7406768798828,0.71236252784729,71.56985473632812,25.07,2
-0.3567540943622589,-1.1632159948349,0.1603202372789383,-194.4862060546875,0.7124881148338318,71.56990814208984,25.07,2
-0.3912796974182129,-1.171915888786316,0.1252754032611847,-198.0164031982422,0.7125687003135681,71.56993865966797,25.07,2
-0.4134362339973449,-1.2334767580032349,0.0915900915861129,-190.7558135986328,0.7126203775405884,71.56996154785156,25.07,2
-0.4444483518600464,-1.1274408102035522,0.0867661237716674,-177.2115936279297,0.7126535773277283,71.56997680664062,25.07,2
-0.4699479341506958,-1.00341534614563,0.072474829852581,-161.6339874267578,0.7126748561859131,71.56998443603516,25.07,2
-0.4863120913505554,-0.9630073308944702,0.0521079488098621,-146.86160278320312,0.7126885056495667,71.56999206542969,25.07,2
-0.4912158846855163,-1.0210424661636353,0.0222443342208862,-131.9431915283203,0.7126972675323486,71.56999206542969,25.07,2
-0.4775695502758026,-1.080677151679993,0.0030795845668762,-115.43354034423828,0.7127029299736023,71.56999206542969,25.07,2
-0.4128343760967254,-1.046176195144653,0.0131718488410115,-98.8162841796875,0.7127065658569336,71.56999206542969,25.07,2
-0.315313309431076,-0.9736554622650146,0.0644306764006614,-84.44074249267578,0.7127088904380798,71.56999206542969,25.07,2
-0.2415343523025512,-0.8991269469261169,0.1141189634799957,-72.23822784423828,0.7127103805541992,73.02094268798828,25.11,2
-0.2501650154590606,-0.8457010984420776,0.1460060477256775,-60.56324768066406,0.7127113342285156,73.95207214355469,25.11,2
-0.2668992280960083,-0.8058176636695862,0.1608715653419494,-49.16591262817383,0.7127119302749634,74.54962158203125,25.11,2
-0.3000293672084808,-0.7914183139801025,0.136824756860733,-39.44426727294922,0.712712287902832,74.93309020996094,25.11,2
-0.3044970631599426,-0.815764307975769,0.1101973503828048,-32.076961517333984,0.7127125263214111,75.17918395996094,25.11,2
-0.2849730849266052,-0.8257904052734375,0.098707191646099,-26.06290626525879,0.7127127051353455,75.33711242675781,25.11,2
-0.2500526010990143,-0.8490179181098938,0.1025290116667747,-20.35482215881348,0.712712824344635,75.43846130371094,25.11,2
-0.2220448851585388,-0.8919128179550171,0.1049816384911537,-15.165525436401367,0.7127128839492798,75.50350189208984,25.11,2
-0.1984733641147613,-0.9810158610343932,0.1065555959939956,-11.183304786682127,0.7108768820762634,75.54524230957031,25.11,2
-0.2001398503780365,-1.13335919380188,0.0851745679974556,-8.416372299194336,0.7096986174583435,75.57202911376953,25.11,2
-0.2124048471450805,-1.1919399499893188,0.0658556818962097,-6.282456874847412,0.7089424729347229,75.58921813964844,25.11,2
-0.2538624703884125,-1.1455670595169067,0.0646534860134124,-4.418637275695801,0.7084572315216064,75.60025024414062,25.11,2
-0.2860653698444366,-1.0878187417984009,0.0918708518147468,-2.910861253738404,0.7081458568572998,75.60733032226562,25.11,2
-0.3459157347679138,-0.994781494140625,0.1485218107700348,-1.903848886489868,0.7079460024833679,75.61186981201172,25.11,2
-0.3339442908763885,-1.0190421342849731,0.1680838167667389,-1.2361109256744385,0.7078177332878113,75.61478424072266,25.11,2
-0.2814795076847076,-1.0402090549468994,0.1526487171649933,-0.5890580415725708,0.7077354192733765,75.61665344238281,25.11,2
-0.1694417893886566,-1.0425971746444702,0.1259500384330749,0.0984590277075767,0.7081415057182312,75.61785125732422,25.11,2
-0.0975424349308013,-1.0217386484146118,0.1200119033455848,0.6113194227218628,0.708402156829834,75.61862182617188,25.11,2
-0.1073793172836303,-0.924386203289032,0.1329944729804992,0.8186361193656921,0.7085694074630737,75.6191177368164,25.11,2
-0.1752675771713256,-0.8451176881790161,0.1189348474144935,0.7725512385368347,0.7086767554283142,75.61943817138672,25.11,2
-0.2468232214450836,-0.7998455166816711,0.0875210911035537,0.5925084948539734,0.7087455987930298,75.61964416503906,25.11,2
-0.3151346147060394,-0.7651946544647217,0.0561659969389438,0.4232287406921386,0.7087898254394531,75.6197738647461,25.11,2
-0.3645707070827484,-0.7485554814338684,0.0416418798267841,0.3289250433444977,0.7088181972503662,75.61985778808594,25.11,2
-0.385100394487381,-0.7770618796348572,0.0603100061416626,0.2540760636329651,0.7088363766670227,75.61991119384766,25.11,2
-0.403872936964035,-0.8009533882141113,0.1002790108323097,0.2633635103702545,0.7102252244949341,75.61994171142578,25.11,2
-0.415920078754425,-0.8498722314834595,0.1203310415148735,0.5559297204017639,0.7111164927482605,75.61996459960938,25.11,2
-0.423651248216629,-1.004416584968567,0.110808178782463,1.0661137104034424,0.7116884589195251,75.61997985839844,25.11,2
-0.4342104494571686,-1.1259853839874268,0.0990991815924644,1.4902498722076416,0.712055504322052,75.61998748779297,25.11,2
-0.4297911822795868,-1.21519672870636,0.0971827954053878,1.758853554725647,0.7122910618782043,75.6199951171875,25.11,2
-0.4269551634788513,-1.205274224281311,0.0903551951050758,2.0064620971679688,0.7124422192573547,75.6199951171875,25.11,2
-0.4251351654529571,-1.210102081298828,0.085973635315895,2.172528028488159,0.7125392556190491,75.6199951171875,25.11,2
-0.463151603937149,-1.1516247987747192,0.071966253221035,2.07131028175354,0.7126014828681946,75.6199951171875,25.11,2
-0.4987439215183258,-1.1644773483276367,0.0517815724015235,1.6839226484298706,0.7117235660552979,77.07093811035156,25.09,2
-0.5215850472450256,-1.105552077293396,0.0332304313778877,1.0519839525222778,0.7111601829528809,78.00206756591797,25.09,2
-0.4970587193965912,-1.112519383430481,0.0157276038080453,0.1520467400550842,0.7107986211776733,78.59961700439453,25.09,2
-0.4477324783802032,-1.1169906854629517,0.0156908445060253,-0.7873213291168213,0.7105666399002075,78.98308563232422,25.09,2
-0.3601000010967254,-1.0414912700653076,0.0548516735434532,-1.279093861579895,0.7104177474975586,79.22917938232422,25.09,2
-0.2702758610248565,-0.9706489443778992,0.0967761650681495,-1.2185146808624268,0.7103222012519836,79.3871078491211,25.09,2
-0.2070341408252716,-0.9083930850028992,0.1236808896064758,-1.0220052003860474,0.7102608680725098,79.48845672607422,25.09,2
-0.2056336551904678,-0.8460497856140137,0.1297512501478195,-0.8744012117385864,0.710221529006958,79.55349731445312,25.09,2
-0.2271260023117065,-0.7948458790779114,0.1280490756034851,-0.618461549282074,0.71157306432724,79.5952377319336,25.09,2
-0.2521141171455383,-0.767583966255188,0.1101633980870246,-0.4040581583976745,0.7124403715133667,79.62202453613281,25.09,2
-0.262552261352539,-0.7668821811676025,0.0930876284837722,-0.5172467231750488,0.7129969596862793,79.63921356201172,25.09,2
-0.2468597739934921,-0.7944206595420837,0.0933249294757843,-0.8764906525611877,0.7133541703224182,79.6502456665039,25.09,2
-0.2088003605604171,-0.8736687898635864,0.104672759771347,-1.2431706190109253,0.7135834097862244,79.6573257446289,25.09,2
-0.1731804758310318,-0.9469167590141296,0.1175529211759567,-1.4820672273635864,0.71373051404953,79.661865234375,25.09,2
-0.155919462442398,-1.010716438293457,0.1314164400100708,-1.4204227924346924,0.7138249278068542,79.66477966308594,25.09,2
-0.1504401117563247,-1.0908437967300415,0.1347154825925827,-0.9724493622779846,0.713885486125946,79.6666488647461,25.09,2
-0.152521550655365,-1.1198738813400269,0.1032459661364555,-0.3553688824176788,0.7116293907165527,79.6678466796875,25.09,2
-0.221030592918396,-1.110514760017395,0.0998439639806747,0.1087068244814872,0.7101815342903137,79.66861724853516,25.09,2
-0.3153757154941559,-1.04853093624115,0.1368451714515686,0.2488905638456344,0.7092523574829102,79.66911315917969,25.09,2
-0.3983120918273926,-1.036742091178894,0.1661881953477859,0.1919668167829513,0.7086560726165771,79.66943359375,25.09,2
-0.3899603486061096,-1.04597008228302,0.1570299863815307,0.3345651924610138,0.7082734107971191,79.66963958740234,25.09,2
-0.2670474350452423,-1.046294331550598,0.117566131055355,0.8989766240119934,0.7080278396606445,79.66976928710938,25.09,2
-0.1657778918743133,-1.0129157304763794,0.1370226889848709,1.6230236291885376,0.7078702449798584,79.66985321044922,25.09,2
-0.128777801990509,-0.9467130303382874,0.1551065742969513,2.2094829082489014,0.7077691555023193,79.66990661621094,25.09,2
-0.1722065657377243,-0.8706413507461548,0.1443206667900085,2.6037514209747314,0.7086224555969238,79.66993713378906,25.09,2
-0.2504566311836242,-0.8218228816986084,0.1038122475147247,2.634650707244873,0.7091701030731201,79.66996002197266,25.09,2
-0.3230641186237335,-0.7904940247535706,0.0610229521989822,2.027529239654541,0.7095215320587158,79.66997528076172,25.09,2
-0.3528660833835602,-0.7927800416946411,0.033563245087862,0.838999330997467,0.7097470760345459,79.66998291015625,25.09,2
-0.3831868171691894,-0.816638171672821,0.0271367337554693,-0.6294982433319092,0.7098917961120605,79.66999053955078,25.09,2
-0.4082427024841308,-0.8263511657714844,0.0621969886124134,-2.130777359008789,0.7099846601486206,79.66999053955078,25.09,2
-0.4187243580818176,-0.8549755215644836,0.0902944207191467,-3.2948360443115234,0.710044264793396,79.66999053955078,25.09,2
-0.4310486614704132,-0.9964960217475892,0.0915324091911315,-3.640613317489624,0.7100825309753418,79.66999053955078,25.09,2
-0.4501532316207886,-1.120902419090271,0.0867291018366813,-3.1065897941589355,0.7087299227714539,81.07794189453125,25.07,2
-0.4512178897857666,-1.217532515525818,0.0892443880438804,-2.126185655593872,0.7078619003295898,81.98149108886719,25.07,2
-0.4183144867420196,-1.184382081031799,0.1188474297523498,-1.077857494354248,0.707304835319519,82.56133270263672,25.07,2
-0.3971989750862121,-1.163107991218567,0.1322471797466278,-0.0575910173356533,0.7069473266601562,82.93344116210938,25.07,2
-0.4116371273994446,-1.1326621770858765,0.1128574982285499,0.8300247192382812,0.7067179083824158,83.1722412109375,25.07,2
-0.4488915801048279,-1.1914926767349243,0.0612298995256423,1.3459067344665527,0.7065706849098206,83.32548522949219,25.07,2
-0.4839948713779449,-1.184464454650879,0.0225005019456148,1.4369375705718994,0.7064762115478516,83.423828125,25.07,2
-0.4785332679748535,-1.179954171180725,-0.0135493446141481,1.3663831949234009,0.706415593624115,83.48694610595703,25.07,2
-0.4358439147472381,-1.1938530206680298,-0.0310862883925437,1.296027421951294,0.7054584622383118,83.52745056152344,25.07,2
-0.3468728363513946,-1.1467947959899902,-0.0087538417428731,1.0610005855560305,0.7048442363739014,83.5534439086914,25.07,2
-0.2393963485956192,-1.0606178045272827,0.0335667096078395,0.5698292851448059,0.7044500708580017,83.57012176513672,25.07,2
-0.1704241186380386,-0.9885210394859314,0.0607256032526493,0.0826601535081863,0.704197108745575,83.58082580566406,25.07,2
-0.1653461307287216,-0.925460159778595,0.0669590681791305,-0.2228117883205413,0.7040348052978516,83.58769226074219,25.07,2
-0.1676851511001587,-0.8626002073287964,0.0653615742921829,-0.4582544267177582,0.7039306163787842,83.59210205078125,25.07,2
-0.197175070643425,-0.8110647797584534,0.0531408451497554,-0.6344259977340698,0.7038637399673462,83.59493255615234,25.07,2
-0.1993066817522049,-0.8059811592102051,0.0452982857823371,-0.6758312582969666,0.7038208246231079,83.59674835205078,25.07,2
-0.1894790679216385,-0.8139143586158752,0.0402653813362121,-0.8062974214553833,0.7051704525947571,83.59791564941406,25.07,2
-0.1775745004415512,-0.8805809617042542,0.053828876465559,-1.3306798934936523,0.7060365676879883,83.59866333007812,25.07,2
-0.153141513466835,-0.9401570558547974,0.0569353736937046,-1.9932128190994265,0.7065923810005188,83.5991439819336,25.07,2
-0.1262662857770919,-1.0119762420654297,0.0477333925664424,-2.142529964447021,0.7069490551948547,83.59944915771484,25.07,2
-0.1426059454679489,-1.0356745719909668,0.0474258661270141,-1.5325857400894165,0.707177996635437,83.59964752197266,25.07,2
-0.1866784542798996,-1.0172960758209229,0.0528262890875339,-0.5142079591751099,0.7073248624801636,83.59976959228516,25.07,2
-0.276537150144577,-1.0222951173782349,0.0898786187171936,0.4008562862873077,0.7074191570281982,83.599853515625,25.07,2
-0.3789854943752289,-1.0031121969223022,0.1584388613700866,0.834041178226471,0.7074796557426453,83.59990692138672,25.07,2
-0.4559265077114105,-1.024388313293457,0.2304257452487945,0.7752721905708313,0.7061413526535034,83.59993743896484,25.07,2
-0.3597606718540191,-1.0212488174438477,0.2150472700595855,0.6300803422927856,0.7052825093269348,83.59996032714844,25.07,2
-0.2476670145988464,-1.0304296016693115,0.1939827054738998,0.766189455986023,0.7047313451766968,83.5999755859375,25.07,2
-0.1197540163993835,-1.0139302015304563,0.2084535509347915,1.1043167114257812,0.7043775916099548,83.59998321533203,25.07,2
-0.0600579120218753,-0.9641574025154114,0.2289356589317321,1.46102774143219,0.7041506171226501,83.59999084472656,25.07,2
-0.1113127768039703,-0.9098249673843384,0.2084932476282119,1.8798209428787231,0.7040049433708191,83.59999084472656,25.07,2
-0.2113784998655319,-0.8917508721351624,0.1449945122003555,2.2847161293029785,0.7039114832878113,83.59999084472656,25.07,2
-0.3203771114349365,-0.8801519870758057,0.0818535834550857,2.286609172821045,0.7038514614105225,83.59999084472656,25.07,2
-0.4183150231838226,-0.8335240483283997,0.0357355959713459,1.5784739255905151,0.7047311663627625,84.75358581542969,25.09,2
-0.4699703752994537,-0.8091986775398254,0.0229330491274595,0.1925638616085052,0.705295741558075,85.493896484375,25.09,2
-0.5031198263168335,-0.7879903316497803,0.059499304741621,-1.4957478046417236,0.7056580185890198,85.96898651123047,25.09,2
-0.4796110391616821,-0.7687822580337524,0.1109542921185493,-2.8443195819854736,0.7058905363082886,86.27386474609375,25.09,2
-0.4645244479179382,-0.8180311322212219,0.1439751386642456,-3.337167501449585,0.7060397267341614,86.46952056884766,25.09,2
-0.4492449462413788,-0.9951783418655396,0.1371771544218063,-3.037245988845825,0.7061354517936707,86.59508514404297,25.09,2
-0.439439445734024,-1.1256545782089231,0.1328146010637283,-2.400534152984619,0.7061969041824341,86.6756591796875,25.09,2
-0.40515798330307,-1.2037888765335083,0.1412105113267898,-1.5978459119796753,0.7062363624572754,86.72737121582031,25.09,2
-0.4055491983890533,-1.231539964675903,0.1354029774665832,-0.4951843023300171,0.7048845291137695,86.76055908203125,25.09,2
-0.4169958233833313,-1.2101645469665527,0.1372738033533096,0.8608866333961487,0.7040169835090637,86.78185272216797,25.09,2
-0.452330470085144,-1.129273772239685,0.1104855239391326,2.128800868988037,0.7034602761268616,86.79551696777344,25.09,2
-0.4862017631530761,-1.1109493970870972,0.0820987969636917,2.8815712928771973,0.7031030058860779,86.80429077148438,25.09,2
-0.4855473041534424,-1.076798677444458,0.0582840554416179,2.8523478507995605,0.702873706817627,86.80992126464844,25.09,2
-0.4235517978668213,-1.1052627563476562,0.0374033525586128,2.1349916458129883,0.7027265429496765,86.81352996826172,25.09,2
-0.355777770280838,-1.1459203958511353,0.0296010933816432,1.1336647272109983,0.7026321291923523,86.81584930419922,25.09,2
-0.2898932099342346,-1.0768499374389648,0.052582923322916,0.2044647485017776,0.7025715112686157,86.81733703613281,25.09,2
-0.2364167422056198,-1.004535675048828,0.0673313364386558,-0.4599112868309021,0.7043687105178833,86.81829071044922,25.09,2
-0.2132941782474517,-0.9413352012634276,0.0656004771590232,-0.760879397392273,0.7055220603942871,86.81890106201172,25.09,2
-0.2264443188905716,-0.8783857226371765,0.0588919334113597,-0.8322158455848694,0.7062622308731079,86.81929779052734,25.09,2
-0.2516766488552093,-0.8211950063705444,0.048989001661539,-1.0033856630325315,0.706737220287323,86.81954956054688,25.09,2
-0.2734670639038086,-0.7788955569267273,0.0538294203579425,-1.3604302406311035,0.7070420384407043,86.81970977783203,25.09,2
-0.2762553691864013,-0.7573479413986206,0.0625334978103637,-1.643299579620361,0.7072376608848572,86.81981658935547,25.09,2
-0.2556536495685577,-0.7491177320480347,0.0793148204684257,-1.6994386911392212,0.7073631882667542,86.81988525390625,25.09,2
-0.2200415432453155,-0.7550315856933594,0.0956818833947181,-1.6494836807250977,0.7074437141418457,86.8199234008789,25.09,2
-0.1971877366304397,-0.7980111837387085,0.1117830947041511,-1.5959299802780151,0.7061182856559753,86.81995391845703,25.09,2
-0.1825214773416519,-0.8703752160072327,0.138909250497818,-1.6260486841201782,0.7052676677703857,86.8199691772461,25.09,2
-0.1899028420448303,-0.9727920293807985,0.150719478726387,-1.9033225774765008,0.7047218084335327,86.81997680664062,25.09,2
-0.2170308828353881,-1.11128830909729,0.1359075009822845,-2.489674568176269,0.7043715119361877,86.81998443603516,25.09,2
-0.3240044713020324,-1.2225583791732788,0.1935753226280212,-3.1346547603607178,0.704146683216095,86.81999206542969,25.09,2
-0.4598272740840912,-1.1932051181793213,0.314549833536148,-3.423175811767578,0.7040024399757385,86.81999206542969,25.09,2
-0.4854150116443634,-1.028825759887695,0.3697932064533233,-2.952720642089844,0.7039098739624023,86.81999206542969,25.09,2
-0.4066735804080963,-0.962520956993103,0.3492674827575683,-1.4936376810073853,0.7038504481315613,86.81999206542969,25.09,2
-0.2329908162355423,-1.003937005996704,0.2857152819633484,0.8005138635635376,0.7042716145515442,87.84102630615234,25.09,2
-0.1103356778621673,-0.9969287514686584,0.2225400358438491,3.4872615337371826,0.7045418620109558,88.49626922607422,25.09,2
-0.0540137626230716,-0.9868335127830504,0.1652044802904129,5.9673848152160645,0.7047153115272522,88.91676330566406,25.09,2
-0.1074339896440506,-0.974757194519043,0.1396053731441497,7.47658634185791,0.7048265933990479,89.18661499023438,25.09,2
-0.1920959800481796,-0.9614095091819764,0.1231773421168327,7.352419376373291,0.7048979997634888,89.35978698730469,25.09,2
-0.3080026805400848,-0.8744748830795288,0.090243674814701,5.538769245147705,0.704943835735321,89.4709243774414,25.09,2
-0.3376027643680572,-0.8186852931976318,0.0467176474630832,2.551342248916626,0.7049732804298401,89.54224395751953,25.09,2
-0.3510006070137024,-0.7884805202484131,0.0243829227983951,-0.7271953821182251,0.7049921751022339,89.5880126953125,25.09,2
-0.3540008068084717,-0.7802923321723938,0.0268431045114994,-3.2109251022338867,0.7045450210571289,89.61738586425781,25.09,2
-0.3447306156158447,-0.7470487952232361,0.0452152304351329,-4.174306392669678,0.7042580246925354,89.63623809814453,25.09,2
-0.3107926547527313,-0.7313127517700195,0.1017875969409942,-3.681950807571411,0.7040738463401794,89.64833068847656,25.09,2
-0.2218399345874786,-0.9283319115638732,0.1045058444142341,-2.205230712890625,0.7039556503295898,89.65608978271484,25.09,2
-0.0975819081068039,-1.1611251831054688,0.0726636126637458,-0.3153395354747772,0.7038798332214355,89.66107177734375,25.09,2
0.0325397178530693,-1.282529592514038,0.0354357734322547,1.2736543416976929,0.7038311958312988,89.66426849365234,25.09,2
0.0992509573698043,-1.2876689434051514,0.0283384136855602,2.2253103256225586,0.7037999629974365,89.66632080078125,25.09,2
0.0972801968455314,-1.0838494300842283,0.0629681572318077,2.8575236797332764,0.703779935836792,89.66764068603516,25.09,2
0.1128088012337684,-0.8522898554801941,0.0628004372119903,3.2847373485565186,0.7046852707862854,89.66848754882812,25.09,2
0.1507630348205566,-0.8604259490966797,0.0179106071591377,3.1540675163269043,0.7052662372589111,89.66902923583984,25.09,2
0.1639243364334106,-1.15113365650177,-0.1172548085451126,2.4575905799865723,0.705639123916626,89.66937255859375,25.09,2
0.1611749529838562,-1.1641621589660645,-0.2039961963891983,1.605800747871399,0.7058783769607544,89.66959381103516,25.09,2
0.1929972022771835,-1.11654531955719,-0.2092818617820739,0.7940605282783508,0.7060319185256958,89.66973876953125,25.09,2
0.2022233307361602,-1.1587586402893066,-0.1846850216388702,-0.0063085490837693,0.7061304450035095,89.66983032226562,25.09,2
0.2137419134378433,-1.1242733001708984,-0.163302406668663,-0.7169809937477112,0.7061936855316162,89.66989135742188,25.09,2
0.1875472217798233,-1.102142572402954,-0.199960246682167,-1.2948572635650637,0.7062342762947083,89.66992950439453,25.09,2
0.1707369834184646,-1.0935380458831787,-0.2234851419925689,-1.8018428087234497,0.7071781754493713,89.66995239257812,25.09,2
0.1711446791887283,-1.088016152381897,-0.2441798448562622,-2.274082660675049,0.7077839374542236,89.66996765136719,25.09,2
0.1658085435628891,-1.0676792860031128,-0.2630582749843597,-2.702529191970825,0.7081726789474487,89.66997528076172,25.09,2
0.1567863523960113,-1.0658237934112549,-0.2919667065143585,-3.1279497146606445,0.7084221243858337,89.66998291015625,25.09,2
0.1286053210496902,-1.131806254386902,-0.3497028946876526,-3.6159143447875977,0.7085822224617004,89.66999053955078,25.09,2
0.082531489431858,-1.1965411901474,-0.4035479724407196,-4.136851787567139,0.7086849808692932,89.66999053955078,25.09,2
0.0249750893563032,-1.2268887758255005,-0.4325048625469208,-4.578636646270752,0.7087509036064148,89.66999053955078,25.09,2
-0.0343523956835269,-1.179190754890442,-0.4342944025993347,-4.822740077972412,0.7087932229042053,89.66999053955078,25.09,2
-0.0948164612054824,-1.1205921173095703,-0.4186494946479797,-4.760854721069336,0.7074435949325562,90.47607421875,25.07,2
-0.1336188167333603,-1.1053779125213623,-0.4030117392539978,-4.40587329864502,0.706577479839325,90.99337005615234,25.07,2
-0.1641177088022232,-1.095614314079285,-0.3985740840435028,-4.01326847076416,0.7060216665267944,91.3253402709961,25.07,2
-0.178092360496521,-1.08375084400177,-0.3957262635231018,-3.485458850860596,0.7056649327278137,91.53838348388672,25.07,2
-0.1870604902505874,-1.0761375427246094,-0.3827031552791595,-1.867761492729187,0.7054359912872314,91.67510223388672,25.07,2
-0.1928157210350036,-1.060056209564209,-0.3631501197814941,1.6280301809310913,0.7052891254425049,91.7628402709961,25.07,2
-0.2021068781614303,-1.038540601730347,-0.3394065499305725,6.415057182312012,0.7051948308944702,91.81914520263672,25.07,2
-0.2136671841144561,-1.0303308963775637,-0.3241693079471588,11.024020195007324,0.7051343321800232,91.85527801513672,25.07,2
-0.2322814613580703,-1.0586490631103516,-0.3199886977672577,14.13225555419922,0.7069315910339355,91.8784637451172,25.07,2
-0.2498248070478439,-1.0600286722183228,-0.3061102628707886,14.926779747009276,0.7080850005149841,91.89334106445312,25.07,2
-0.266680896282196,-1.0553163290023804,-0.2916060984134674,13.423251152038574,0.7088251709938049,91.90289306640624,25.07,2
-0.266302615404129,-1.0466943979263306,-0.271102637052536,10.480792045593262,0.70930016040802,91.90901947021484,25.07,2
-0.2716576159000397,-0.9963791370391846,-0.241151362657547,6.976749420166016,0.7096049785614014,91.91295623779295,25.07,2
-0.291887491941452,-0.9193074703216552,-0.177148163318634,3.312939167022705,0.7098006010055542,91.9154815673828,25.07,2
-0.3104676306247711,-0.8586518168449402,-0.1136834919452667,-0.0664827525615692,0.7099261283874512,91.91709899902344,25.07,2
-0.3167935311794281,-0.8701064586639404,-0.0953466221690177,-2.5289723873138428,0.7100067138671875,91.91813659667967,25.07,2
-0.3600375354290008,-1.0901727676391602,-0.0835790708661079,-3.858475923538208,0.7082223296165466,91.9188003540039,25.07,2
-0.4213756918907165,-1.080258846282959,-0.0536362379789352,-4.3605828285217285,0.7070772051811218,91.91922760009766,25.07,2
-0.4999234080314636,-0.9955277442932128,0.0327526442706584,-4.252896785736084,0.706342339515686,91.91950225830078,25.07,2
-0.5727218985557556,-1.008325457572937,0.1273764818906784,-3.6034128665924072,0.7058707475662231,91.919677734375,25.07,2
-0.6362330913543701,-1.0333316326141355,0.19369837641716,-2.749537229537964,0.7055680751800537,91.91979217529295,25.07,2
-0.6210132241249084,-1.0157926082611084,0.2474555075168609,-2.108422040939331,0.7053738832473755,91.91986846923828,25.07,2
-0.5664637684822083,-0.9989392161369324,0.2931492924690246,-1.8187986612319944,0.7052492499351501,91.91991424560548,25.07,2
-0.4810771048069,-0.9993192553520204,0.3504618108272552,-1.8908805847167969,0.7051692605018616,91.9199447631836,25.07,2
-0.4206830859184265,-1.0163564682006836,0.3872416615486145,-2.170006036758423,0.7060357928276062,91.9199676513672,25.07,2
-0.3875234425067901,-1.066474437713623,0.3940515518188476,-2.255985736846924,0.7065919041633606,91.91997528076172,25.07,2
-0.3830368220806122,-1.0986372232437134,0.3648350834846496,-2.1105382442474365,0.7069487571716309,91.91998291015624,25.07,2
-0.385755330324173,-1.130473017692566,0.3404878675937652,-2.0530242919921875,0.7071777582168579,91.91999053955078,25.07,2
-0.3763043880462646,-1.0893278121948242,0.3304609954357147,-1.9695415496826167,0.707324743270874,91.91999053955078,25.07,2
-0.3254571259021759,-1.0069454908370972,0.3184285461902618,-1.5827876329421997,0.7074190378189087,91.91999053955078,25.07,2
-0.2816307246685028,-0.9372839331626892,0.2939135134220123,-1.202035903930664,0.7074795961380005,91.91999053955078,25.07,2
-0.2367121279239654,-0.8757858276367188,0.2613878548145294,-1.151150465011597,0.707518458366394,91.91999053955078,25.07,2
-0.1966904103755951,-0.8307220935821533,0.2237214297056198,-1.2188072204589844,0.7098383903503418,92.51111602783205,25.09,2
-0.1542134582996368,-0.8018028140068054,0.1827559620141983,-1.2514777183532717,0.7113271951675415,92.89047241210938,25.09,2
-0.1325519680976867,-0.8672106862068176,0.1172822564840316,-1.3512604236602783,0.7122825980186462,93.13391876220705,25.09,2
-0.1074553206562995,-1.1834766864776611,0.0696672275662422,-1.4296255111694336,0.7128957509994507,93.29014587402344,25.09,2
-0.119338609278202,-1.358449101448059,0.0503061898052692,-1.232717990875244,0.713289201259613,93.3904037475586,25.09,2
-0.1269646137952804,-1.414758563041687,0.0490769408643245,-0.7337662577629089,0.7135416865348816,93.45474243164062,25.09,2
-0.115065224468708,-1.2829614877700806,0.0650814026594162,-0.2021957486867904,0.7137037515640259,93.49603271484376,25.09,2
-0.1186244338750839,-1.1368062496185305,0.0865476951003074,0.0422060266137123,0.7138077616691589,93.52252960205078,25.09,2
-0.1936796009540558,-0.9590455889701844,0.1339101642370224,-0.0911395996809005,0.7115795016288757,93.53953552246094,25.09,2
-0.2418456822633743,-0.7666001915931702,0.1755002290010452,-0.4382411241531372,0.7101495265960693,93.55045318603516,25.09,2
-0.2559625804424286,-0.6039153933525085,0.2189836651086807,-0.7863810658454895,0.7092318534851074,93.55745697021484,25.09,2
-0.2930108606815338,-0.4323403239250183,0.2412910461425781,-0.9345632195472716,0.7086429595947266,93.56195068359376,25.09,2
-0.3391773998737335,-0.3222333192825317,0.2276177704334259,-0.7824602127075195,0.7082650065422058,93.56483459472656,25.09,2
-0.3855977654457092,-0.4978750646114349,0.1796586364507675,-0.6239454746246338,0.7080224752426147,93.56668853759766,25.09,2
-0.4321810007095337,-0.7953183650970459,0.283227801322937,-0.9163032174110411,0.7078668475151062,93.56787109375,25.09,2
-0.5572376251220703,-0.7231049537658691,0.4056702852249145,-1.5947344303131104,0.7077669501304626,93.56863403320312,25.09,2
-0.6151006817817688,-0.7551314234733582,0.4674534797668457,-2.080268621444702,0.7090799808502197,93.56912231445312,25.09,2
-0.5850605368614197,-0.9436174035072328,0.4903090596199035,-2.1554064750671387,0.7099226117134094,93.5694351196289,25.09,2
-0.6105647087097168,-1.00300133228302,0.510574221611023,-2.167799949645996,0.7104633450508118,93.56964111328124,25.09,2
-0.5653563141822815,-0.9123616814613342,0.5067859292030334,-2.3083086013793945,0.7108103632926941,93.56977081298828,25.09,2
-0.5139530301094055,-0.775825560092926,0.4819637238979339,-2.434304714202881,0.711033046245575,93.56985473632812,25.09,2
-0.4641720652580261,-0.6602156162261963,0.432447612285614,-2.5653178691864014,0.7111759781837463,93.56990814208984,25.09,2
-0.4378232657909393,-0.5916216373443604,0.3670843839645386,-2.8141930103302,0.7112677097320557,93.56993865966795,25.09,2
-0.4265119135379791,-0.6091774702072144,0.2915513813495636,-3.0634710788726807,0.711326539516449,93.56996154785156,25.09,2
-0.4192529320716858,-0.7995725870132446,0.1982964426279068,-3.191200256347656,0.7177903652191162,93.56997680664062,25.09,2
-0.4145945310592651,-1.100885987281799,0.132853016257286,-3.162109613418579,0.7219384908676147,93.56998443603516,25.09,2
-0.4451916813850403,-1.294251561164856,0.1076485142111778,-2.709949254989624,0.7246004939079285,93.56999206542967,25.09,2
-0.4704249501228332,-1.3623647689819336,0.074680395424366,-1.6710205078125,0.7263088226318359,93.56999206542967,25.09,2
-0.4250426888465881,-1.417271375656128,0.0255344845354557,-0.3665973544120788,0.7274051308631897,93.56999206542967,25.09,2
-0.3679300844669342,-1.3461495637893677,0.0051910136826336,1.0222229957580566,0.7281087040901184,93.56999206542967,25.09,2
-0.3368763029575348,-1.2445299625396729,-0.0078642545267939,2.9452695846557617,0.728560209274292,93.56999206542967,25.09,2
-0.328143298625946,-1.106545329093933,0.0005509488401003,5.512088298797607,0.7288499474525452,93.56999206542967,25.09,2
-0.3225389719009399,-0.995603621006012,0.0227446649223566,7.754032611846924,0.7345440983772278,94.08230590820312,25.05,2
-0.3245401978492737,-0.851636528968811,0.0705739557743072,8.615988731384277,0.7381982803344727,94.41107940673828,25.05,2
-0.3370200395584106,-0.7704423069953918,0.0788769498467445,8.051379203796387,0.7405433058738708,94.62206268310548,25.05,2
-0.3338333368301391,-0.779911994934082,0.0786075592041015,6.707419395446777,0.7420482635498047,94.75746154785156,25.05,2
-0.3149949610233307,-0.8307713270187378,0.140010192990303,5.106932640075684,0.7430140376091003,94.84435272216795,25.05,2
-0.3085033595561981,-0.8354210257530212,0.2074037492275238,3.4851248264312744,0.7436338067054749,94.90011596679688,25.05,2
-0.3323262929916382,-0.9223715662956238,0.267446368932724,1.874712347984314,0.744031548500061,94.93589782714844,25.05,2
-0.3476144671440124,-0.8270314931869507,0.3955426514148712,0.2214567959308624,0.7442867755889893,94.9588623046875,25.05,2
-0.3574255406856537,-0.7098699808120728,0.494540810585022,-1.394806742668152,0.7504180669784546,94.97360229492188,25.05,2
-0.3637217283248901,-0.6906602382659912,0.5188876986503601,-2.62907338142395,0.7543528079986572,94.98306274414062,25.05,2
-0.328577846288681,-0.7455058097839355,0.5289143323898315,-3.1596264839172363,0.7568778991699219,94.98912811279295,25.05,2
-0.1940690279006958,-0.8142891526222229,0.5185555815696716,-3.1096041202545166,0.7584983110427856,94.99302673339844,25.05,2
-0.0461734905838966,-0.9144080877304076,0.4951145946979522,-2.901956558227539,0.7595382332801819,94.99552154541016,25.05,2
0.0823239982128143,-0.9842564463615416,0.5136581659317017,-2.800943374633789,0.7602055668830872,94.99712371826172,25.05,2
0.1144063249230384,-0.9395167231559752,0.5479494333267212,-2.9009175300598145,0.7606338262557983,94.99815368652344,25.05,2
0.1070060431957244,-0.8940120339393616,0.5475645065307617,-3.4093146324157715,0.7609086632728577,94.99881744384766,25.05,2
0.0630725473165512,-0.8536142110824585,0.5137308239936829,-4.394768238067627,0.7771507501602173,94.9992446899414,25.05,2
0.0292807817459106,-0.8164936304092407,0.4976161122322082,-5.4463372230529785,0.7875739932060242,94.99951171875,25.05,2
0.0187907200306653,-0.7758784890174866,0.4928723871707916,-6.225068092346191,0.7942630052566528,94.99968719482422,25.05,2
0.04004767537117,-0.7442162036895752,0.5010237097740173,-6.857367992401123,0.7985556721687317,94.9998016357422,25.05,2
0.0536891631782054,-0.7350927591323853,0.5006569623947144,-7.435105800628662,0.8013104200363159,94.99987030029295,25.05,2
0.0680412575602531,-0.7908133864402771,0.4836282730102539,-7.766456127166748,0.803078293800354,94.99991607666016,25.05,2
0.0940449312329292,-0.8041805624961853,0.5062869191169739,-7.4273810386657715,0.8042128086090088,94.99994659423828,25.05,2
0.1051348149776458,-0.8743343353271484,0.515230119228363,-5.343260288238525,0.8049408793449402,94.99996948242188,25.05,2
0.10105612128973,-0.9025616645812988,0.5321649312973022,-0.6345876455307007,0.8200966715812683,94.9999771118164,25.05,2
0.0816453248262405,-0.8926874995231628,0.5206416249275208,5.2962188720703125,0.8298227787017822,94.99998474121094,25.05,2
0.0691885948181152,-0.8919485807418823,0.4964532852172851,9.274231910705566,0.8360643982887268,94.99999237060548,25.05,2
0.0723901316523552,-0.8802788257598877,0.4753328263759613,9.623807907104492,0.8400699496269226,94.99999237060548,25.05,2
0.0856402367353439,-0.8503987789154053,0.4561811685562134,7.311682224273682,0.8426404595375061,94.99999237060548,25.05,2
0.1109367161989212,-0.9039945602416992,0.4382929503917694,3.90405011177063,0.8442900776863098,94.99999237060548,25.05,2
0.0823883488774299,-0.888009250164032,0.4380088746547699,0.0907388404011726,0.8453487157821655,94.99999237060548,25.05,2
0.0416765511035919,-0.8889463543891907,0.449022114276886,-3.7858726978302,0.8460280895233154,94.99999237060548,25.05,2
-0.0068410350941121,-0.8503633141517639,0.4672853350639343,-7.1764678955078125,0.8606936931610107,95.42632293701172,25.07,2
-0.0043901824392378,-0.8088096380233765,0.4902011454105377,-9.821674346923828,0.8701052665710449,95.69992065429688,25.07,2
0.0027804078999906,-0.8101317286491394,0.5049071907997131,-12.371868133544922,0.87614506483078,95.87549591064452,25.07,2
0.0353709533810615,-0.8053824305534363,0.5199424624443054,-15.917948722839355,0.8800210356712341,95.98816680908205,25.07,2
0.0618834644556045,-0.8359212279319763,0.518395721912384,-20.80889892578125,0.882508397102356,96.06047821044922,25.07,2
0.0956909880042076,-0.8219326138496399,0.5341964364051819,-26.036272048950195,0.8841046690940857,96.10688018798828,25.07,2
0.1229844838380813,-0.7961621880531311,0.5443363785743713,-30.2937068939209,0.8851290345191956,96.13665771484376,25.07,2
0.1404998749494552,-0.8020153045654297,0.5340502858161926,-34.09349060058594,0.8857864141464233,96.15576934814452,25.07,2
0.1573380231857299,-0.8113692998886108,0.5274493098258972,-39.77062225341797,0.8912572264671326,96.16803741455078,25.07,2
0.1401549130678177,-0.8341654539108276,0.5232131481170654,-48.13571166992188,0.8947680592536926,96.1759033203125,25.07,2
0.1515188813209533,-0.8264036178588867,0.5037013292312622,-56.69243621826172,0.8970211148262024,96.1809539794922,25.07,2
0.1644093841314315,-0.765444815158844,0.5191686153411865,-62.92524337768555,0.8984670042991638,96.18419647216795,25.07,2
0.1782795488834381,-0.7599115967750549,0.5346924066543579,-67.77059173583984,0.8993948698043823,96.186279296875,25.07,2
0.1871806234121322,-0.7563607096672058,0.5390568971633911,-74.69908142089844,0.8999903202056885,96.18761444091795,25.07,2
0.2040883600711822,-0.7540819644927979,0.5530533194541931,-85.6119384765625,0.9003724455833435,96.18846893310548,25.07,2
0.1869499087333679,-0.7470217943191528,0.578828752040863,-94.23450469970705,0.9006177186965942,96.18901824951172,25.07,2
0.1759514361619949,-0.7424910068511963,0.6009677052497864,-84.97193145751953,0.9228082895278932,96.18936920166016,25.07,2
0.1800888031721115,-0.7283878326416016,0.6207730174064636,-48.69049835205078,0.9370489120483398,96.1895980834961,25.07,2
0.1883416920900344,-0.7193372249603271,0.6334829330444336,1.2328699827194214,0.9461877346038818,96.1897430419922,25.07,2
0.1600512713193893,-0.71912682056427,0.6472371816635132,40.629425048828125,0.9520524740219116,96.18983459472656,25.07,2
0.1474938839673996,-0.7077962756156921,0.6616616249084473,59.362918853759766,0.9558161497116088,96.1898956298828,25.07,2
