acc_x,acc_y,acc_z,bvp,eda,hr,temp,label
0.0,0.0,0.0,0.0,0.0,0.0,35.97,2
-0.0312499981373548,-0.1614583283662796,0.0286458320915699,-0.111666664481163,0.2873374819755554,14.361665725708008,35.97,2
-0.0773628056049346,-0.3780487775802612,0.0712652429938316,-0.897317111492157,0.6727902293205261,33.627315521240234,35.97,2
-0.1075062304735183,-0.5664451718330383,0.1133201792836189,-1.928338885307312,1.0080677270889282,50.38511657714844,35.97,2
-0.1241592839360237,-0.7092286944389343,0.1333251297473907,-2.926509141921997,1.2526707649230957,62.610836029052734,35.97,2
-0.1519032716751098,-0.7949197292327881,0.1523590385913849,-4.160946369171143,1.418277382850647,70.8881607055664,35.97,2
-0.1812134683132171,-0.8678045868873596,0.1537418812513351,-5.784773349761963,1.5269391536712646,76.31927490234375,35.97,2
-0.1722995787858963,-0.9038498997688292,0.1657961457967758,-7.000702381134033,1.5973140001296997,79.83674621582031,35.97,2
-0.2056887149810791,-0.9158889055252076,0.173561155796051,-6.352885246276856,1.6362295150756836,82.10260009765625,35.97,2
-0.2159600406885147,-0.9627894163131714,0.1505788415670395,-3.107854127883911,1.661242127418518,83.5589599609375,35.97,2
-0.261731207370758,-1.0096962451934814,0.1134347170591354,1.8413562774658203,1.6773041486740112,84.49417114257812,35.97,2
-0.2743205428123474,-0.989431083202362,0.1175776720046997,6.5479278564453125,1.6876144409179688,85.09449005126953,35.97,2
-0.282400518655777,-0.9764246344566344,0.1258342266082763,9.34296989440918,1.6942317485809326,85.47978210449219,35.97,2
-0.2763906717300415,-0.9680774807929992,0.1311330497264862,9.452963829040527,1.6984785795211792,85.72705078125,35.97,2
-0.2669360637664795,-0.9627206921577454,0.1401313245296478,7.169816493988037,1.7012039422988892,85.8857421875,35.97,2
-0.2552708387374878,-0.9592829942703248,0.1459059417247772,3.741366863250733,1.7029529809951782,85.98757934570312,35.97,2
-0.247784748673439,-0.9570768475532532,0.1552095413208007,0.5380582809448242,1.7169286012649536,86.05293273925781,35.99,2
-0.2429805994033813,-0.9556610584259032,0.1611800640821457,-1.8866487741470337,1.7258973121643066,86.0948715209961,35.99,2
-0.2454953491687774,-0.9603502750396729,0.1650115996599197,-3.639728784561157,1.7316529750823977,86.12178802490234,35.99,2
-0.2527069449424743,-0.963359534740448,0.1618726849555969,-4.574878215789795,1.7353466749191284,86.1390609741211,35.99,2
-0.2573349475860595,-0.9596929550170898,0.1598583161830902,-4.254281520843506,1.7377170324325562,86.150146484375,35.99,2
-0.2603049278259277,-0.9573399424552916,0.1585656106472015,-2.7874741554260254,1.739238142967224,86.15725708007812,35.99,2
-0.262210875749588,-0.9502321481704712,0.1577360183000564,-1.3625138998031616,1.7402143478393557,86.16181945800781,35.99,2
-0.2634340226650238,-0.9512685537338256,0.1628014147281646,-1.2720489501953125,1.7408407926559448,86.16474914550781,35.99,2
-0.2586211860179901,-0.9519336223602296,0.1716498732566833,-2.3711657524108887,1.738947868347168,86.1666259765625,35.99,2
-0.2499348074197769,-0.952360451221466,0.1829260736703872,-3.4132776260375977,1.737733006477356,86.16783142089844,35.99,2
-0.2499581575393676,-0.952634334564209,0.1957602649927139,-2.863969326019287,1.7369533777236938,86.16860961914062,35.99,2
-0.2555709183216095,-0.9528101086616516,0.1983987390995025,-0.3583268821239471,1.7364530563354492,86.16910552978516,35.99,2
-0.2703684270381927,-0.9417273998260498,0.2000919580459594,2.489221334457397,1.736132025718689,86.16942596435547,35.99,2
-0.2910601496696472,-0.9346151351928712,0.201178565621376,3.754149436950684,1.7359260320663452,86.16963195800781,35.99,2
-0.3043389022350311,-0.9356486797332764,0.2074736654758453,3.0755560398101807,1.7357938289642334,86.16976165771484,35.99,2
-0.3128604590892792,-0.936311900615692,0.2115135043859481,1.185548186302185,1.7357089519500732,86.16984558105469,35.99,2
-0.3239268660545349,-0.9255419969558716,0.219703808426857,-1.066296935081482,1.7365723848342896,86.18423461914062,35.99,2
-0.3422242105007171,-0.8962393999099731,0.2249598801136016,-3.256577253341675,1.7371264696121216,86.19346618652344,35.99,2
-0.3707596957683563,-0.9110212922096252,0.2171373665332794,-5.848005294799805,1.7374820709228516,86.19938659667969,35.99,2
-0.4058654606342315,-0.926105260848999,0.2009217888116836,-8.85091781616211,1.7377102375030518,86.20318603515625,35.99,2
-0.4004054367542267,-0.9133942127227784,0.1905155628919601,-10.79951000213623,1.73785662651062,86.20562744140625,35.99,2
-0.3745104372501373,-0.9276280403137208,0.1838374435901641,-10.93224048614502,1.7379506826400757,86.20719146728516,35.99,2
-0.3466969430446625,-0.964751362800598,0.1907473504543304,-11.096236228942873,1.7380110025405884,86.20819854736328,35.99,2
-0.3176523149013519,-0.9605861306190492,0.2007795125246048,-13.132488250732422,1.7380497455596924,86.20884704589844,35.99,2
-0.3046109080314636,-0.9523153305053712,0.201619803905487,-15.811363220214844,1.7362384796142578,86.20925903320312,35.99,2
-0.3186327815055847,-0.947007656097412,0.1797679513692855,-16.33393096923828,1.735076069831848,86.20952606201172,35.99,2
-0.3332289755344391,-0.9436014890670776,0.1545491516590118,-13.76023292541504,1.734330177307129,86.2096939086914,35.99,2
-0.3258026540279388,-0.9358178377151488,0.1327673941850662,-9.461058616638184,1.733851432800293,86.20980072021484,35.99,2
-0.3098413348197937,-0.9364205002784728,0.1187891140580177,-4.939468860626221,1.7335442304611206,86.20986938476562,35.99,2
-0.2995982766151428,-0.9424049854278564,0.109818659722805,-0.4901002049446106,1.7333470582962036,86.20991516113281,35.99,2
-0.293024867773056,-0.9630388617515564,0.1096597164869308,5.105918884277344,1.7332205772399902,86.20994567871094,35.99,2
-0.2944042086601257,-0.9818782210350036,0.1151554882526397,14.182044982910156,1.7331393957138062,86.20996856689453,35.99,2
-0.2784960567951202,-1.0163593292236328,0.118682362139225,25.677797317504883,1.7307919263839722,86.20997619628906,35.97,2
-0.2458960264921188,-1.077671766281128,0.1153479292988777,32.80432891845703,1.729285478591919,86.2099838256836,35.97,2
-0.2305729836225509,-1.1282141208648682,0.1132080852985382,30.38453865051269,1.728318691253662,86.20999145507812,35.97,2
-0.2431306391954422,-1.1718448400497437,0.1286281794309616,21.723827362060547,1.7276983261108398,86.20999145507812,35.97,2
-0.2623849511146545,-1.1606601476669312,0.1385239064693451,13.066953659057615,1.7273001670837402,86.20999145507812,35.97,2
-0.2579479515552521,-1.0583202838897705,0.1224833130836486,6.36146354675293,1.727044701576233,86.20999145507812,35.97,2
-0.2047205716371536,-0.998242199420929,0.1121893897652626,1.3381682634353638,1.7268807888031006,86.20999145507812,35.97,2
-0.1481712013483047,-0.9820786118507384,0.1223766654729843,-1.5344011783599854,1.7267755270004272,86.20999145507812,35.97,2
-0.0894899740815162,-0.9717057347297668,0.1457075923681259,-2.8727076053619385,1.7285444736480713,86.20999145507812,35.97,2
-0.0630272850394249,-0.9426579475402832,0.1606800407171249,-4.451653480529785,1.7296795845031738,86.20999145507812,35.97,2
-0.057240605354309,-0.8960278630256653,0.1590929478406906,-6.532537460327148,1.7304080724716189,86.20999145507812,35.97,2
-0.0703203752636909,-0.849310040473938,0.1468788981437683,-7.81060791015625,1.7308756113052368,86.20999145507812,35.97,2
-0.0899097621440887,-0.8193292617797852,0.1390406191349029,-7.806807518005371,1.731175661087036,86.20999145507812,35.97,2
-0.1248722001910209,-0.8056870698928833,0.1340104639530182,-7.528510570526123,1.7313681840896606,86.20999145507812,35.97,2
-0.1529068648815155,-0.8081278800964355,0.1363801658153534,-7.81206750869751,1.7314916849136353,86.20999145507812,35.97,2
-0.1876912117004394,-0.8208897709846497,0.1434986889362335,-8.388121604919434,1.7315709590911863,86.20999145507812,35.97,2
-0.2156115770339965,-0.8402751684188843,0.1536647230386734,-8.704061508178711,1.7279493808746338,86.17058563232422,35.97,2
-0.2503225803375244,-0.875106692314148,0.1657864600419998,-8.430330276489258,1.7256252765655518,86.14529418945312,35.97,2
-0.289391428232193,-0.953437328338623,0.2015543729066848,-7.294535636901855,1.7241337299346924,86.12906646728516,35.97,2
-0.3032680153846741,-1.020498752593994,0.2245081663131714,-5.455049514770508,1.7231765985488892,86.11865234375,35.97,2
-0.3177709877490997,-1.0523393154144287,0.2392385900020599,-3.833916187286377,1.722562313079834,86.11196899414062,35.97,2
-0.3326759338378906,-1.123152732849121,0.2542895078659057,-3.3058745861053467,1.7221680879592896,86.10768127441406,35.97,2
-0.3534366190433502,-1.1797922849655151,0.2751438617706299,-3.833991289138794,1.7219151258468628,86.10492706298828,35.97,2
-0.4227373898029327,-1.1825536489486694,0.2773314416408539,-4.663719177246094,1.7217527627944946,86.10316467285156,35.97,2
-0.4672106206417084,-1.150739073753357,0.2675397396087646,-4.880923748016357,1.7211896181106567,86.1020278930664,35.97,2
-0.4733598828315735,-1.1359200477600098,0.2388648986816406,-3.895384550094605,1.7208282947540283,86.10130310058594,35.97,2
-0.4213283956050873,-1.1488012075424194,0.2204630374908447,-1.9230389595031736,1.720596432685852,86.10083770751953,35.97,2
-0.3711442649364471,-1.1682630777359009,0.2086537778377533,0.1881867349147796,1.7204475402832031,86.10054016113281,35.97,2
-0.3109501004219055,-1.1415681838989258,0.2122708261013031,1.7651697397232056,1.720352053642273,86.10034942626953,35.97,2
-0.2667231559753418,-1.0908503532409668,0.2089942693710327,2.612388134002685,1.7202907800674438,86.10022735595703,35.97,2
-0.2495364099740982,-1.0023248195648191,0.1733049154281616,2.754835605621338,1.720251441001892,86.10014343261719,35.97,2
-0.2273114025592804,-0.9343186616897584,0.1224126666784286,2.3196115493774414,1.720226168632507,86.10009002685547,35.97,2
-0.2018531113862991,-0.8682851195335388,0.1121440529823303,1.4026113748550415,1.7197507619857788,86.10005950927734,35.97,2
-0.1799176782369613,-0.8427019119262695,0.1167497932910919,0.0725403353571891,1.7194455862045288,86.10003662109375,35.97,2
-0.1994274258613586,-0.8430774211883545,0.0917166173458099,-1.2933310270309448,1.7192497253417969,86.10002136230469,35.97,2
-0.2119476646184921,-0.8601117134094238,0.0644562169909477,-2.0838868618011475,1.7191240787506104,86.10001373291016,35.97,2
-0.2143846601247787,-0.87104332447052,0.0357665158808231,-2.010842800140381,1.719043493270874,86.10000610351562,35.97,2
-0.2159485816955566,-0.8948519229888916,0.017355116084218,-0.9787591099739076,1.718991756439209,86.10000610351562,35.97,2
-0.1889633387327194,-0.9325219988822936,0.0223330631852149,1.188254714012146,1.7189584970474243,86.10000610351562,35.97,2
-0.1604502201080322,-0.9622942805290222,0.0311253983527421,4.119426727294922,1.7189371585845947,86.10000610351562,35.97,2
-0.1365543603897094,-1.042975902557373,0.0479633621871471,6.584444046020508,1.7166284322738647,86.10000610351562,35.97,2
-0.1268171519041061,-1.1115460395812988,0.0643667727708816,7.510738849639893,1.7151468992233276,86.10000610351562,35.97,2
-0.1541550159454345,-1.1275615692138672,0.0748935341835022,6.557508945465088,1.7141960859298706,86.10000610351562,35.97,2
-0.2276766300201416,-1.059470534324646,0.0872467830777168,3.717418909072876,1.7135859727859497,86.10000610351562,35.97,2
-0.2748585641384125,-1.0213714838027954,0.1063699349761009,-0.5556690096855164,1.7131943702697754,86.10000610351562,35.97,2
-0.237963929772377,-1.0417038202285769,0.129837617278099,-4.748834133148193,1.7129430770874023,86.10000610351562,35.97,2
-0.1918959766626358,-1.054751992225647,0.1225067302584648,-7.2104811668396,1.71278178691864,86.10000610351562,35.97,2
-0.1511366665363311,-1.0407344102859497,0.1457910537719726,-7.851589679718018,1.71267831325531,86.10000610351562,35.97,2
-0.1305774599313736,-0.97576105594635,0.1719291508197784,-8.00865364074707,1.7144479751586914,86.06417846679688,35.97,2
-0.1173837408423423,-0.9228693246841432,0.1943008452653885,-8.718485832214355,1.7155836820602417,86.04118347167969,35.97,2
-0.1592967510223388,-0.8889264464378357,0.2254510372877121,-9.879782676696776,1.7163125276565552,86.02642822265625,35.97,2
-0.2253785282373428,-0.8671438694000244,0.2454414367675781,-10.943885803222656,1.716780185699463,86.01696014404297,35.97,2
-0.284579336643219,-0.8475672602653503,0.2526723444461822,-11.551531791687012,1.7170803546905518,86.0108871459961,35.97,2
-0.3449620902538299,-0.8238086104393005,0.2517149448394775,-11.558148384094238,1.7172729969024658,86.00698852539062,35.97,2
-0.3781144917011261,-0.8085616827011108,0.256698340177536,-10.903200149536133,1.71739661693573,86.00448608398438,35.97,2
-0.3993898034095764,-0.8155704140663147,0.2710919380187988,-9.676813125610352,1.7174758911132812,86.00287628173828,35.97,2
-0.4018475115299225,-0.8872414827346802,0.2971222400665283,-8.141030311584473,1.7156907320022583,86.00184631347656,35.97,2
-0.3978269696235657,-0.9724202752113342,0.3138269782066345,-5.854978084564209,1.7145451307296753,86.00118255615234,35.97,2
-0.3728557229042053,-1.066267490386963,0.3077538013458252,-1.5218605995178225,1.7138099670410156,86.0007553100586,35.97,2
-0.3512328267097473,-1.1432865858078003,0.2926608324050903,5.740686416625977,1.7133381366729736,86.00048828125,35.97,2
-0.370943158864975,-1.2039085626602173,0.2941705882549286,14.944077491760254,1.7130353450775146,86.00031280517578,35.97,2
-0.4059832096099853,-1.1980301141738892,0.3007372319698334,23.35092163085937,1.7128410339355469,86.00019836425781,35.97,2
-0.4172743260860443,-1.1494754552841189,0.2825602293014526,27.961366653442383,1.7127163410186768,86.00012969970703,35.97,2
-0.3965314626693725,-1.118315815925598,0.2373086363077163,27.359004974365234,1.7126363515853882,86.00008392333984,35.97,2
-0.3776220977306366,-1.1151126623153689,0.2026709914207458,22.551544189453125,1.7112078666687012,86.00005340576172,35.97,2
-0.3710849285125732,-1.1466437578201294,0.1748447716236114,16.002042770385742,1.7102911472320557,86.00003051757812,35.97,2
-0.3556942045688629,-1.161280870437622,0.1569875031709671,9.764046669006348,1.7097028493881226,86.0000228881836,35.97,2
-0.334621787071228,-1.1370874643325806,0.1343321949243545,4.471132755279541,1.7093253135681152,86.00001525878906,35.97,2
-0.2875120639801025,-1.099170446395874,0.0806088969111442,-0.3263416588306427,1.709083080291748,86.00000762939453,35.97,2
-0.2068997919559478,-1.0020663738250732,0.0629256963729858,-5.275189399719238,1.7089276313781738,86.00000762939453,35.97,2
-0.093591958284378,-0.9061639308929444,0.096359834074974,-10.525385856628418,1.7088278532028198,86.00000762939453,35.97,2
-0.093648575246334,-0.8446192741394043,0.084229290485382,-15.718191146850586,1.708763837814331,86.00000762939453,35.97,2
-0.1216737851500511,-0.8051234483718872,0.0652490556240081,-20.236467361450195,1.7082633972167969,86.00000762939453,35.97,2
-0.1900387108325958,-0.8021683692932129,0.0474708639085292,-23.386817932128903,1.707942247390747,86.00000762939453,35.97,2
-0.2451069355010986,-0.7946742177009583,0.0248662922531366,-24.846065521240234,1.7077361345291138,86.00000762939453,35.97,2
-0.2580554485321045,-0.8178537487983704,0.0047622066922485,-25.155576705932617,1.7076038122177124,86.00000762939453,35.97,2
-0.2327784299850464,-0.871913492679596,0.0142516586929559,-25.23597717285156,1.7075189352035522,86.00000762939453,35.97,2
-0.1997637599706649,-0.906605899333954,0.0315369926393032,-25.13352394104004,1.7074644565582275,86.00000762939453,35.97,2
-0.1561857610940933,-0.9624561667442322,0.0538252741098403,-23.3481388092041,1.7074295282363892,86.00000762939453,35.97,2
-0.145013228058815,-1.0486775636672974,0.0793241560459137,-17.914037704467773,1.7074071168899536,86.00000762939453,35.97,2
-0.1882233023643493,-1.1487916707992554,0.1012856438755989,-8.6444673538208,1.707392692565918,86.08240509033203,35.97,2
-0.2887241244316101,-1.1178770065307615,0.1209770366549491,1.9723049402236936,1.7073835134506226,86.13528442382812,35.97,2
-0.3588175177574157,-1.0812444686889648,0.1448093950748443,10.562495231628418,1.707377552986145,86.16921997070312,35.97,2
-0.3254306018352508,-1.1137135028839111,0.1712991744279861,15.570042610168455,1.7073737382888794,86.19099426269531,35.97,2
-0.248027041554451,-1.145745873451233,0.1715054661035537,17.96318817138672,1.7073713541030884,86.20497131347656,35.97,2
-0.1311806142330169,-1.1271179914474487,0.2332133799791336,19.610031127929688,1.7073698043823242,86.21393585205078,35.97,2
-0.1457596868276596,-1.0311970710754397,0.2168362140655517,21.394142150878903,1.7073687314987185,86.21968841552734,35.97,2
-0.1327245980501175,-0.9360538721084596,0.2231196165084839,23.05497360229492,1.7073681354522705,86.22338104248047,35.97,2
-0.1523482948541641,-0.8526053428649902,0.2327497154474258,24.210363388061523,1.7069088220596311,86.22575378417969,35.97,2
-0.1929305344820022,-0.8046506643295288,0.2277342081069946,24.765533447265625,1.7066140174865725,86.22727966308594,35.97,2
-0.2525605261325836,-0.7906694412231445,0.2133200019598007,24.58083915710449,1.7064248323440552,86.22825622558594,35.97,2
-0.3188164830207824,-0.8040881752967834,0.1984720230102539,23.26931571960449,1.7063034772872925,86.2288818359375,35.97,2
-0.366933524608612,-0.8294928669929504,0.1945412158966064,20.23153686523437,1.7062256336212158,86.22928619384766,35.97,2
-0.3978122770786285,-0.8681872487068176,0.2088119685649871,14.996843338012695,1.7061755657196045,86.22954559326172,35.97,2
-0.4120306968688965,-0.9433990120887756,0.2459589838981628,8.054943084716797,1.706143498420715,86.22970581054688,35.97,2
-0.4155575037002563,-0.9972633719444276,0.2921889126300812,1.1316359043121338,1.706122875213623,86.22981262207031,35.97,2
-0.3842341601848602,-1.0374282598495483,0.3162588477134704,-3.970537662506104,1.706109642982483,86.2298812866211,35.97,2
-0.341741532087326,-1.0855947732925415,0.3205099999904632,-6.449487686157227,1.7061011791229248,86.22992706298828,35.97,2
-0.3368633091449737,-1.1444941759109497,0.3232381343841553,-6.349359035491943,1.706095814704895,86.2299575805664,35.97,2
-0.3673194050788879,-1.1934880018234253,0.3249889016151428,-4.164217472076416,1.706092357635498,86.22997283935547,35.97,2
-0.4092554450035095,-1.1577560901641846,0.3037213385105133,-1.045865535736084,1.7060900926589966,86.22998046875,35.97,2
-0.4249720573425293,-1.1684120893478394,0.2564863860607147,1.4103001356124878,1.706088662147522,86.22998809814453,35.97,2
-0.4238625168800354,-1.1864460706710815,0.2317714989185333,2.477800130844116,1.7060877084732056,86.22999572753906,35.97,2
-0.3895638287067413,-1.2204103469848633,0.2215086668729782,2.92999267578125,1.7060871124267578,86.22999572753906,35.97,2
-0.3507595658302307,-1.2310110330581665,0.2149225771427154,3.5963542461395264,1.702873468399048,86.22999572753906,35.97,2
-0.3034661412239074,-1.1706407070159912,0.1995004564523697,3.9236748218536377,1.7008111476898191,86.22999572753906,35.97,2
-0.2619203925132751,-1.087116241455078,0.1728101074695587,2.793846845626831,1.6994876861572266,86.22999572753906,35.97,2
-0.2296609431505203,-1.0167217254638672,0.1444862186908722,0.0338854268193244,1.6986383199691772,86.22999572753906,35.97,2
-0.2145564705133438,-0.9491555094718932,0.1207118108868599,-3.800862312316896,1.698093295097351,86.22999572753906,35.97,2
-0.2104610651731491,-0.905795395374298,0.1110525354743003,-8.411328315734863,1.697743535041809,86.22999572753906,35.97,2
-0.207832857966423,-0.889164924621582,0.1328426450490951,-13.54826545715332,1.697519063949585,86.22999572753906,35.97,2
-0.1949506849050521,-0.88409024477005,0.141228511929512,-18.43552017211914,1.6973750591278076,86.22999572753906,35.97,2
-0.1698903292417526,-0.8752357959747314,0.1186212003231048,-22.12359619140625,1.6982004642486572,86.28731536865234,35.97,2
-0.1314169317483902,-0.8695535659790039,0.0873198062181472,-24.103471755981445,1.6987301111221311,86.32410430908203,35.97,2
-0.1067269220948219,-0.8603092432022095,0.0672323778271675,-24.50705909729004,1.6990700960159302,86.34770965576172,35.97,2
-0.1188711673021316,-0.8655723333358765,0.0823302939534187,-23.838171005249023,1.699288249015808,86.36286163330078,35.97,2
-0.1938379406929016,-0.941720962524414,0.1088125854730606,-22.240997314453125,1.6994282007217407,86.3725814819336,35.97,2
-0.2699361741542816,-1.0185775756835938,0.1314051747322082,-18.378623962402344,1.699518084526062,86.37882232666016,35.97,2
-0.357956051826477,-1.0734975337982178,0.2074793130159378,-9.71286678314209,1.6995757818222046,86.38282775878906,35.97,2
-0.408844381570816,-1.03597092628479,0.2674948573112488,4.582636833190918,1.699612736701965,86.3853988647461,35.97,2
-0.3911215960979461,-1.0342795848846436,0.2780205011367798,20.96481132507324,1.699636459350586,86.38704681396484,35.97,2
-0.2621948719024658,-1.0779764652252195,0.2959708273410797,33.46269226074219,1.6996517181396484,86.38810729980469,35.97,2
-0.1458704769611358,-1.1060185432434082,0.3354791700839996,38.84275436401367,1.6996614933013916,86.38878631591797,35.97,2
-0.0768179520964622,-1.0848299264907837,0.3552355766296386,38.78086471557617,1.6996678113937378,86.38922119140625,35.97,2
-0.0884817615151405,-1.00965678691864,0.3343274593353271,36.97135543823242,1.6996718645095823,86.3895034790039,35.97,2
-0.1351513415575027,-0.9390238523483276,0.3041165173053741,35.45185852050781,1.699674367904663,86.38967895507812,35.97,2
-0.2322744876146316,-0.882500171661377,0.2623377740383148,33.56675720214844,1.6996760368347168,86.3897933959961,35.97,2
-0.3169936239719391,-0.8518242835998535,0.2299288064241409,29.36555862426757,1.6996771097183228,86.3898696899414,35.97,2
-0.3993503749370575,-0.848931610584259,0.209130585193634,21.99420928955078,1.69830060005188,86.3899154663086,35.97,2
-0.463397741317749,-0.8358796834945679,0.2013812661170959,12.83205509185791,1.6974172592163086,86.38994598388672,35.97,2
-0.5156952142715454,-0.8331015110015869,0.2020059674978256,4.111329555511475,1.6968504190444946,86.38996887207031,35.97,2
-0.5548544526100159,-0.8872963786125183,0.2303957343101501,-2.7676920890808105,1.6964865922927856,86.38997650146484,35.97,2
-0.5519957542419434,-0.9388688802719116,0.2654079794883728,-7.397206783294678,1.6962531805038452,86.38998413085938,35.97,2
-0.4997812211513519,-0.9495739936828612,0.2990723848342895,-10.246355056762695,1.69610333442688,86.3899917602539,35.97,2
-0.4438818693161011,-0.9508461952209472,0.3206762671470642,-12.558422088623049,1.696007251739502,86.3899917602539,35.97,2
-0.3800199925899505,-0.974053680896759,0.3065515160560608,-14.98439121246338,1.6959455013275146,86.3899917602539,35.97,2
-0.4174059629440307,-1.0225335359573364,0.2806937396526336,-16.53049087524414,1.6959059238433838,86.3899917602539,35.97,2
-0.508571445941925,-1.0760362148284912,0.2640996873378753,-15.921277046203612,1.6958805322647097,86.3899917602539,35.97,2
-0.5726739764213562,-1.0767844915390017,0.225461721420288,-13.398686408996582,1.695864200592041,86.3899917602539,35.97,2
-0.5690290927886963,-1.122046947479248,0.1950683295726776,-10.164091110229492,1.6958537101745603,86.3899917602539,35.97,2
-0.5163100361824036,-1.1678870916366575,0.1867591440677642,-6.830830097198486,1.6958470344543457,86.3899917602539,35.97,2
-0.4824779629707336,-1.225293517112732,0.2094156593084335,-3.509485006332397,1.695842742919922,86.3899917602539,35.97,2
-0.4551687240600586,-1.2509381771087646,0.2239553034305572,-0.8693113327026367,1.6958400011062622,86.3899917602539,35.97,2
-0.4264476597309112,-1.2338087558746338,0.2164926826953888,0.0260858926922082,1.695838212966919,86.3899917602539,35.97,2
-0.3632339537143707,-1.211620569229126,0.1949102878570556,-1.018623948097229,1.6935421228408811,86.45806121826172,35.97,2
-0.3058737218379974,-1.1917836666107178,0.1754621714353561,-3.104176044464112,1.692068576812744,86.50174713134766,35.97,2
-0.246672123670578,-1.15106463432312,0.1741770356893539,-5.456432342529297,1.6911228895187378,86.52978515625,35.97,2
-0.191886618733406,-1.1081401109695437,0.178950086236,-8.090903282165527,1.6905161142349243,86.54777526855469,35.97,2
-0.1567284315824508,-1.030213713645935,0.1876109391450882,-10.996048927307127,1.690126657485962,86.55931854248047,35.97,2
-0.1509592533111572,-0.9354227781295776,0.1875711977481842,-13.36913013458252,1.689876675605774,86.56672668457031,35.97,2
-0.147256925702095,-0.8522003293037415,0.1763501465320587,-14.29732894897461,1.689716339111328,86.57147979736328,35.97,2
-0.1392832100391388,-0.7987929582595825,0.1523557901382446,-13.889872550964355,1.6896134614944458,86.57453155517578,35.97,2
-0.1397639214992523,-0.7813125252723694,0.142555370926857,-13.019351959228516,1.7010234594345093,86.57649230957031,35.97,2
-0.1400724053382873,-0.775692343711853,0.1418638080358505,-12.01646327972412,1.7083457708358765,86.57775115966797,35.97,2
-0.1346725970506668,-0.8000745177268982,0.1582133173942566,-10.097469329833984,1.7130447626113892,86.57855987548828,35.97,2
-0.1424028575420379,-0.8493082523345947,0.174303263425827,-5.88884973526001,1.7160602807998655,86.5790786743164,35.97,2
-0.1865481287240982,-0.9368813633918762,0.1790310889482498,1.4156097173690796,1.717995524406433,86.57940673828125,35.97,2
-0.2540624439716339,-1.0042762756347656,0.1932606846094131,10.395116806030272,1.7192374467849731,86.57962036132812,35.97,2
-0.3141825497150421,-1.0363309383392334,0.2415768504142761,17.45812225341797,1.72003436088562,86.57975769042969,35.97,2
-0.330373078584671,-1.11847722530365,0.2501922845840454,20.48248863220215,1.720545768737793,86.57984161376953,35.97,2
-0.3239699006080627,-1.1879873275756836,0.2445256263017654,21.284093856811523,1.7107750177383425,86.57990264892578,35.95,2
-0.3030673861503601,-1.226997137069702,0.2800734937191009,22.515033721923828,1.7045047283172607,86.57994079589844,35.95,2
-0.2784578204154968,-1.2072491645812988,0.2804949879646301,24.017911911010746,1.700480818748474,86.57996368408203,35.95,2
-0.2570670545101166,-1.166587233543396,0.3031565845012665,24.058067321777344,1.697898507118225,86.5799789428711,35.95,2
-0.3105129599571228,-1.129297137260437,0.2673195004463196,21.87338829040528,1.6962413787841797,86.57998657226562,35.95,2
-0.3336159288883209,-1.110964298248291,0.2779079675674438,17.913427352905273,1.6951779127120972,86.57999420166016,35.95,2
-0.3708331882953644,-1.071210503578186,0.2735075056552887,13.491300582885742,1.694495439529419,86.57999420166016,35.95,2
-0.4059126377105713,-1.0177099704742432,0.2594879865646362,10.24143886566162,1.6940574645996094,86.57999420166016,35.95,2
-0.4508157074451446,-0.932996392250061,0.261686623096466,8.481878280639648,1.6905628442764282,86.57999420166016,35.95,2
-0.5412074327468872,-0.8954254388809204,0.2630975842475891,6.593187808990479,1.688320279121399,86.57999420166016,35.95,2
-0.6272044777870178,-0.9049012064933776,0.2751986086368561,2.5186572074890137,1.6868810653686523,86.57999420166016,35.95,2
-0.6432080268859863,-0.9165799617767334,0.2717687785625458,-4.226851463317871,1.685957431793213,86.57999420166016,35.95,2
-0.5863049030303955,-0.918476939201355,0.2583721876144409,-11.719144821166992,1.6853647232055664,86.57999420166016,35.95,2
-0.4546255767345428,-0.9476832151412964,0.2441772371530532,-17.09331512451172,1.68498432636261,86.57999420166016,35.95,2
-0.3813169300556183,-1.089577078819275,0.2462632805109024,-19.367063522338867,1.6847403049468994,86.57999420166016,35.95,2
-0.345467209815979,-1.236614227294922,0.2643953263759613,-20.009395599365234,1.6845836639404297,86.57999420166016,35.95,2
-0.2944720387458801,-1.263800859451294,0.2424447685480117,-20.84435272216797,1.6835652589797974,86.64448547363281,35.95,2
-0.267344057559967,-1.264454364776611,0.2059670686721801,-22.6304988861084,1.68291175365448,86.68586730957031,35.95,2
-0.233141541481018,-1.231287121772766,0.1377755850553512,-24.930334091186523,1.6824923753738403,86.7124252319336,35.95,2
-0.1999967843294143,-1.2156000137329102,0.0716231167316436,-26.008569717407227,1.682223200798035,86.7294692993164,35.95,2
-0.178726390004158,-1.2055330276489258,0.0235724952071905,-23.920440673828125,1.6820504665374756,86.74040985107422,35.95,2
-0.2042607069015503,-1.2438547611236572,-0.0464480444788932,-18.714799880981445,1.6819396018981934,86.74742889404297,35.95,2
-0.2374404817819595,-1.2684473991394043,-0.1361653953790664,-12.479398727416992,1.6818684339523315,86.7519302368164,35.95,2
-0.269928902387619,-1.261838436126709,-0.2441208064556121,-7.059177398681641,1.6818227767944336,86.75482177734375,35.95,2
-0.3131691813468933,-1.2296082973480225,-0.3134003579616546,-3.0290744304656982,1.6813342571258545,86.75667572021484,35.95,2
-0.3521138727664947,-1.186533808708191,-0.3690555393695831,-0.5502636432647705,1.681020736694336,86.75786590576172,35.95,2
-0.3547152280807495,-1.1029133796691897,-0.3767829537391662,0.1448504775762558,1.6808195114135742,86.75862884521484,35.95,2
-0.3507868647575378,-1.0156638622283936,-0.37054643034935,-0.8026872277259827,1.6806904077529907,86.75911712646484,35.95,2
-0.3538636267185211,-0.959672212600708,-0.3553486466407776,-2.6969070434570312,1.680607557296753,86.75943756103516,35.95,2
-0.3446425795555115,-0.929337739944458,-0.3455955684185028,-4.725752830505371,1.6805543899536133,86.7596435546875,35.95,2
-0.3443228006362915,-0.9490552544593812,-0.3337388336658478,-6.29644250869751,1.6805201768875122,86.75977325439453,35.95,2
-0.3161287307739258,-0.9952954649925232,-0.3093365430831909,-7.003484725952148,1.6804982423782349,86.75985717773438,35.95,2
-0.2924376130104065,-1.0305675268173218,-0.2880787849426269,-6.454102039337158,1.6763527393341064,86.7599105834961,35.95,2
-0.2660384774208069,-1.0643986463546753,-0.257643461227417,-4.1275410652160645,1.6736923456192017,86.75994110107422,35.95,2
-0.2043148279190063,-1.2260539531707764,-0.2101229429244995,0.7295504808425903,1.671985149383545,86.75996398925781,35.95,2
-0.1591063737869262,-1.3913705348968506,-0.1684314608573913,8.650786399841309,1.6708894968032837,86.75997924804688,35.95,2
-0.1244964078068733,-1.4806678295135498,-0.1416762620210647,18.448848724365234,1.6701864004135132,86.7599868774414,35.95,2
-0.0966879501938819,-1.5491693019866943,-0.1189085394144058,26.982955932617188,1.6697351932525637,86.75999450683594,35.95,2
-0.0900376364588737,-1.5483473539352417,-0.0931019783020019,31.88286018371582,1.6694456338882446,86.75999450683594,35.95,2
-0.124954268336296,-1.4862443208694458,-0.0653452649712562,33.730445861816406,1.669259786605835,86.75999450683594,35.95,2
-0.1641550660133361,-1.4128035306930542,-0.0363370552659034,34.41814041137695,1.6695998907089231,86.75999450683594,35.95,2
-0.1949096620082855,-1.270511269569397,-0.0121234813705086,34.87379455566406,1.6698181629180908,86.75999450683594,35.95,2
-0.2314395159482956,-1.1288163661956787,0.00901317037642,35.24860382080078,1.669958233833313,86.75999450683594,35.95,2
-0.2716755867004394,-0.9595158696174622,0.0393707826733589,35.69334411621094,1.6700481176376345,86.75999450683594,35.95,2
-0.375865638256073,-0.7780975103378296,0.0812436491250991,36.354923248291016,1.6701058149337769,86.75999450683594,35.95,2
-0.4707176685333252,-0.6504781246185303,0.1137130185961723,37.29179382324219,1.6701427698135376,86.75999450683594,35.95,2
-0.5315882563591003,-0.5405904650688171,0.1121588870882988,37.9181022644043,1.6701664924621582,86.75999450683594,35.95,2
-0.6042381525039673,-0.4756686687469482,0.0943682119250297,36.532325744628906,1.6701817512512207,86.75999450683594,35.95,2
-0.6172739863395691,-0.5179721713066101,0.0997445061802864,31.21495056152344,1.6697322130203247,86.83164978027344,35.95,2
-0.6592262983322144,-0.6290867924690247,0.1199880242347717,21.07806968688965,1.6694437265396118,86.87763214111328,35.95,2
-0.6973444223403931,-0.7115892767906189,0.1161858290433883,6.615902423858643,1.6692585945129397,86.90714263916016,35.95,2
-0.6826220154762268,-0.7757301926612854,0.0913546979427337,-9.88397216796875,1.669139742851257,86.92607879638672,35.95,2
-0.6451851725578308,-0.8000987768173218,0.075419507920742,-24.413475036621094,1.6690635681152344,86.938232421875,35.95,2
-0.5875737071037292,-0.8045415878295898,0.1043776422739029,-33.48689651489258,1.669014573097229,86.94602966308594,35.95,2
-0.5282108783721924,-0.8185883164405823,0.162145733833313,-36.70516204833984,1.6689832210540771,86.95103454589844,35.95,2
-0.4845174849033355,-0.8387982249259949,0.2104135155677795,-36.42745590209961,1.668963074684143,86.9542465209961,35.95,2
-0.4844664335250854,-0.9077455401420592,0.21340012550354,-35.32135009765625,1.6698683500289917,86.95630645751953,35.95,2
-0.5628024935722351,-1.0247629880905151,0.2097189873456955,-34.99843215942383,1.6704492568969729,86.95762634277344,35.95,2
-0.7138340473175049,-1.18382465839386,0.2577366232872009,-36.21348571777344,1.6708221435546875,86.9584732055664,35.95,2
-0.665215253829956,-1.1683480739593506,0.2941493391990661,-39.06755065917969,1.671061396598816,86.95902252197266,35.95,2
-0.5724390149116516,-1.1080361604690552,0.3119191527366638,-42.92686080932617,1.671214938163757,86.9593734741211,35.95,2
-0.5296938419342041,-1.018951416015625,0.2729428112506866,-46.564300537109375,1.6713135242462158,86.9595947265625,35.95,2
-0.4742735922336578,-0.9225975275039672,0.2367345094680786,-48.49018478393555,1.6713767051696775,86.9597396850586,35.95,2
-0.4946858286857605,-0.8663609027862549,0.2246936559677124,-47.62313461303711,1.671417236328125,86.95983123779297,35.95,2
-0.6029474139213562,-0.7519026398658752,0.1777821034193039,-44.10392379760742,1.6723614931106567,86.95989227294922,35.95,2
-0.6444345712661743,-0.6392655372619629,0.1476769596338272,-39.21588516235352,1.6729674339294434,86.95993041992188,35.95,2
-0.6094831228256226,-0.656545877456665,0.1787371933460235,-34.19816970825195,1.673356294631958,86.95995330810547,35.95,2
-0.5702599883079529,-0.7739931344985962,0.2322565019130706,-29.677614212036133,1.6736059188842771,86.95996856689453,35.95,2
-0.5898709893226624,-1.0452861785888672,0.3393731713294983,-26.13888359069824,1.673766016960144,86.95997619628906,35.95,2
-0.4905007481575012,-1.348135232925415,0.4640922546386719,-23.824939727783203,1.6738687753677368,86.9599838256836,35.95,2
-0.3595573306083679,-1.4753129482269287,0.4545653760433197,-22.26116752624512,1.673934817314148,86.95999145507812,35.95,2
-0.4042741954326629,-1.4897550344467163,0.3141050040721893,-20.713077545166016,1.6739771366119385,86.95999145507812,35.95,2
-0.4553620219230652,-1.4318498373031616,0.2295633852481842,-18.59467315673828,1.6707907915115356,86.95999145507812,35.95,2
-0.3593984246253967,-1.3275163173675537,0.1529183387756347,-14.942354202270508,1.668745994567871,86.95999145507812,35.95,2
-0.2642278671264648,-1.1709966659545898,0.1317208409309387,-8.589604377746582,1.667433738708496,86.95999145507812,35.95,2
-0.1751640141010284,-1.042562484741211,0.1237152740359306,0.7536113858222961,1.6665916442871094,86.95999145507812,35.95,2
-0.2019745707511901,-0.9713364243507384,0.0681977868080139,12.166403770446776,1.666051149368286,86.95999145507812,35.95,2
-0.1520067453384399,-0.897638738155365,0.01017876714468,24.12632942199707,1.665704369544983,86.95999145507812,35.95,2
-0.4837956130504608,-0.8503438234329224,-0.0382500514388084,35.08674240112305,1.6654818058013916,86.95999145507812,35.95,2
-0.3328632712364197,-0.7920038104057312,0.1433865427970886,43.9476203918457,1.6653389930725098,86.95999145507812,35.95,2
-0.0792658999562263,-0.7433689832687378,0.3327215313911438,50.364864349365234,1.6601979732513428,87.04239654541016,35.95,2
0.0386960953474044,-0.7177557349205017,0.4822146892547607,54.27171325683594,1.656898856163025,87.09527587890625,35.95,2
0.0024418288376182,-0.6901230812072754,0.600541889667511,54.64010620117188,1.6547815799713137,87.12921142578125,35.95,2
-0.1271817833185196,-0.7787477374076843,0.6484886407852173,49.16947555541992,1.6534228324890137,87.15099334716797,35.95,2
-0.1040090471506118,-0.8132308125495911,0.6456714272499084,36.59840393066406,1.6525509357452393,87.16497039794922,35.95,2
-0.0723447948694229,-0.857751190662384,0.5878857374191284,19.57099342346192,1.651991367340088,87.17393493652344,35.95,2
-0.0128400782123208,-0.8639307022094727,0.5564000010490417,4.018675804138184,1.651632308959961,87.1796875,35.95,2
-0.0530222170054912,-0.8567008376121521,0.5305964946746826,-4.736664295196533,1.6514018774032593,87.18338012695312,35.95,2
-0.2243509441614151,-0.9024410843849182,0.4132773578166961,-5.110447406768799,1.6540082693099976,87.18575286865234,35.95,2
-0.3175065219402313,-0.9485878348350524,0.3603797852993011,0.5394344329833984,1.6556808948516846,87.1872787475586,35.95,2
-0.3269084393978119,-0.9670066237449646,0.404801994562149,7.934073448181152,1.6567542552947998,87.1882553100586,35.95,2
-0.3329420685768127,-0.9564356803894044,0.382929652929306,13.679065704345703,1.6574430465698242,87.18888092041016,35.95,2
-0.3368141055107116,-0.9384562969207764,0.31851327419281,16.699512481689453,1.6578850746154783,87.18928527832031,35.95,2
-0.3560922741889953,-0.9381136894226074,0.265978991985321,17.598913192749023,1.6581687927246094,87.18954467773438,35.95,2
-0.3516705632209778,-0.909904956817627,0.3386232256889343,17.739023208618164,1.6583508253097534,87.18970489501953,35.95,2
-0.382419615983963,-0.8750088810920715,0.379644364118576,18.914457321166992,1.6584676504135132,87.18981170654297,35.95,2
-0.5029125213623047,-0.8973968029022217,0.3947738111019134,22.158674240112305,1.6732319593429563,87.18988037109375,35.97,2
-0.5130646228790283,-0.917361855506897,0.4100807905197143,26.2432861328125,1.6827068328857422,87.18992614746094,35.97,2
-0.4076241850852966,-0.9301742911338806,0.4870772361755371,28.76066017150879,1.6887872219085691,87.18995666503906,35.97,2
-0.3399585783481598,-0.921603262424469,0.5308913588523865,29.10076713562012,1.692689299583435,87.18997192382812,35.97,2
-0.2909369170665741,-0.9217005968093872,0.5478131771087646,29.25454330444336,1.6951934099197388,87.18997955322266,35.97,2
-0.2482820898294448,-0.916165292263031,0.5362815260887146,31.287818908691406,1.6968004703521729,87.18998718261719,35.97,2
-0.2321042269468307,-0.9070152640342712,0.5120878219604492,34.21198272705078,1.6978317499160769,87.18999481201172,35.97,2
-0.2329177558422088,-0.9123388528823853,0.4685728549957275,33.5055046081543,1.6984935998916626,87.18999481201172,35.97,2
-0.1998531818389892,-0.8933641314506531,0.4070608019828796,24.78354263305664,1.7122308015823364,87.18999481201172,35.97,2
-0.2905897200107574,-0.8811872601509094,0.3284014761447906,8.929377555847168,1.7210465669631958,87.18999481201172,35.97,2
-0.3712103068828583,-0.9069594740867616,0.2947157919406891,-7.3388752937316895,1.7267040014266968,87.18999481201172,35.97,2
-0.428545743227005,-0.9067053198814392,0.2786960303783417,-16.621732711791992,1.7303345203399658,87.18999481201172,35.97,2
-0.4597425460815429,-0.8673577904701233,0.2740132212638855,-15.718302726745604,1.7326644659042358,87.18999481201172,35.97,2
-0.4573717713356018,-0.8365090489387512,0.3045947253704071,-6.192842483520508,1.7341597080230713,87.18999481201172,35.97,2
-0.4446547925472259,-0.8167120814323425,0.3354157209396362,7.475700855255127,1.7351192235946655,87.18999481201172,35.97,2
-0.4588848650455475,-0.8096053004264832,0.3495970964431762,20.209714889526367,1.735734939575195,87.18999481201172,35.97,2
-0.4904080033302307,-0.8330334424972534,0.3195134699344635,28.650365829467773,1.754951238632202,87.30105590820312,35.97,2
-0.4938444197177887,-0.7920905351638794,0.3225986063480377,31.98919486999512,1.7672830820083618,87.37232971191406,35.97,2
-0.4792563915252685,-0.7826090455055237,0.3525673449039459,30.87171936035156,1.7751970291137695,87.4180679321289,35.97,2
-0.4642968475818634,-0.7765243649482727,0.3773973286151886,26.410797119140625,1.7802757024765017,87.44741821289062,35.97,2
-0.437903344631195,-0.7670218348503113,0.3877340257167816,19.94754409790039,1.7835348844528198,87.46625518798828,35.97,2
-0.4265632927417755,-0.7777169346809387,0.4055630564689636,13.184520721435549,1.7856264114379885,87.47834777832031,35.97,2
-0.4584703147411346,-0.7677871584892273,0.3834180533885956,8.353589057922363,1.78696870803833,87.4861068725586,35.97,2
-0.4733486473560333,-0.7670125365257263,0.3748044371604919,6.969429016113281,1.787830114364624,87.49108123779297,35.97,2
-0.4605056047439575,-0.7665154337882996,0.386070042848587,7.478359222412109,1.8205161094665527,87.49427795410156,35.97,2
-0.5026436448097229,-0.7997830510139465,0.3709085583686828,5.8882832527160645,1.8414920568466189,87.49633026123047,35.97,2
-0.4960987567901611,-0.8043389916419983,0.3555810153484344,-0.1047506034374237,1.8549531698226929,87.49764251708984,35.97,2
-0.5030941963195801,-0.7960671782493591,0.3569402396678924,-9.16696548461914,1.86359179019928,87.49848937988281,35.97,2
-0.4963878989219665,-0.8411387801170349,0.3298236429691314,-18.80159950256348,1.869135499000549,87.49903106689453,35.97,2
-0.5200730562210083,-0.8588675856590271,0.3124217689037323,-28.16946220397949,1.8726931810379028,87.49937438964844,35.97,2
-0.4904906451702118,-0.8422560691833496,0.3292431235313415,-38.12205123901367,1.87497627735138,87.49959564208984,35.97,2
-0.4827018976211548,-0.859584629535675,0.3400380909442901,-49.216552734375,1.876441478729248,87.49974060058594,35.97,2
-0.4888990819454193,-0.8203251361846924,0.3413679003715515,-60.21629333496094,1.930172085762024,87.49983215332031,35.97,2
-0.4928760826587677,-0.8119239211082458,0.3366235196590423,-68.60443115234375,1.9646532535552976,87.49989318847656,35.97,2
-0.4842327237129211,-0.812130331993103,0.3503721952438354,-72.55084228515625,1.9867812395095823,87.49993133544922,35.97,2
-0.4562948346138,-0.812262773513794,0.3591952919960022,-72.25318908691406,2.00098180770874,87.49995422363281,35.97,2
