acc_x,acc_y,acc_z,bvp,eda,hr,temp,label
0.0,0.0,0.0,0.0,0.0,0.0,33.83,2
-0.0390624962747097,-0.1510416567325592,0.0520833283662796,9.678332328796388,1.1660877466201782,11.133333206176758,33.83,2
-0.0956554859876632,-0.3536585569381714,0.1219512224197387,26.516830444335938,2.73035216331482,26.068294525146484,33.83,2
-0.1448816508054733,-0.5299003720283508,0.147840529680252,38.22601318359375,4.0909929275512695,39.05913925170898,33.83,2
-0.1861329823732376,-0.6531400680541992,0.1934191733598709,33.423851013183594,5.083653450012207,48.536659240722656,33.83,2
-0.2030824422836303,-0.7310888171195984,0.2187881171703338,12.847902297973633,5.75572681427002,54.95334243774414,33.83,2
-0.2142037153244018,-0.8044466972351074,0.2243276536464691,-10.536466598510742,6.196703433990479,59.16360855102539,33.83,2
-0.2214064300060272,-0.8519570231437683,0.2390739917755127,-23.46392822265625,6.482302188873291,61.8903923034668,33.83,2
-0.2260462045669555,-0.8769716620445251,0.2429829984903335,-24.299707412719727,6.538835048675537,63.64690780639648,33.84,2
-0.2234337478876114,-0.909833550453186,0.2454954832792282,-23.08599853515625,6.575170993804932,64.77589416503906,33.84,2
-0.2273526340723037,-0.9365324378013612,0.2471088916063308,-31.680051803588867,6.598504543304443,65.5008773803711,33.84,2
-0.2242709696292877,-0.9200873374938964,0.2537418007850647,-54.3985710144043,6.613482475280762,65.96625518798828,33.84,2
-0.2222931236028671,-0.9319228529930116,0.2524013221263885,-77.469970703125,6.623095512390137,66.26493835449219,33.84,2
-0.2266214787960052,-0.9339208602905272,0.2403456717729568,-84.73174285888672,6.629264831542969,66.45662689208984,33.84,2
-0.2014105319976806,-0.9352031350135804,0.2438043802976608,-77.55168914794922,6.633224010467529,66.57964324951172,33.84,2
-0.2356113046407699,-0.9304282665252686,0.2348284870386123,-62.88405990600586,6.635764598846436,66.6585922241211,33.84,2
-0.2687549889087677,-0.9273639917373656,0.2010794132947921,-45.53221130371094,6.836621284484863,66.7092514038086,33.84,2
-0.2508403360843658,-0.925397515296936,0.2130078077316284,-30.656572341918945,6.965519905090332,66.74176025390625,33.84,2
-0.2393437325954437,-0.9297333359718324,0.215064987540245,-21.91990089416504,7.048239231109619,66.76262664794922,33.84,2
-0.2375636398792266,-0.9325157999992372,0.2163851708173751,-17.434551239013672,7.101324081420898,66.77601623535156,33.84,2
-0.2364212870597839,-0.9287036657333374,0.2172323912382125,-13.273550033569336,7.135390758514404,66.78460693359375,33.84,2
-0.2300904095172882,-0.9318550229072572,0.2233738601207733,-8.099039077758789,7.157252788543701,66.79012298583984,33.84,2
-0.2260276228189468,-0.9338773488998412,0.2273150980472564,-3.753718852996826,7.171282768249512,66.79366302490234,33.84,2
-0.2234203666448593,-0.9351751804351808,0.2298443615436554,-0.6104677319526672,7.180286407470703,66.79593658447266,33.84,2
-0.2217471748590469,-0.9360080361366272,0.2258697152137756,2.993770837783813,7.126388072967529,66.79739379882812,33.84,2
-0.2206734120845794,-0.9309447407722472,0.2233190238475799,7.660516262054443,7.091799259185791,66.79833221435547,33.84,2
-0.2199843376874923,-0.9332932233810424,0.2216821312904358,11.536677360534668,7.069602012634277,66.7989273071289,33.84,2
-0.2195421308279037,-0.9348003268241882,0.2206316739320755,12.630553245544434,7.055357456207275,66.79931640625,33.84,2
-0.2192583382129669,-0.9301697015762328,0.214359775185585,11.451687812805176,7.046216011047363,66.799560546875,33.84,2
-0.2190762162208557,-0.9327958226203918,0.210334837436676,9.67054271697998,7.04034948348999,66.79972076416016,33.84,2
-0.2189593464136123,-0.934481143951416,0.2077518552541732,7.979372501373291,7.036584854125977,66.79981994628906,33.84,2
-0.2188843488693237,-0.9299649000167848,0.2060942500829696,6.048588752746582,7.034168720245361,66.79988861083984,33.84,2
-0.2188362181186676,-0.932664394378662,0.2050305008888244,4.644724845886231,7.001403331756592,66.87158203125,33.84,2
-0.2188053280115127,-0.9343968033790588,0.2043478339910507,5.302226066589356,6.980376243591309,66.91758728027344,33.84,2
-0.2243832796812057,-0.9355085492134094,0.2039097398519516,8.790857315063477,6.966882228851318,66.94711303710938,33.84,2
-0.2279628962278366,-0.9362220168113708,0.209226369857788,14.443854331970217,6.95822286605835,66.96605682373047,33.84,2
-0.2246623039245605,-0.9422776103019714,0.2126382887363433,20.654659271240234,6.95266580581665,66.97821807861328,33.84,2
-0.222544178366661,-0.946163773536682,0.2148278504610061,26.94757652282715,6.949099540710449,66.98602294921875,33.84,2
-0.2211848795413971,-0.9486576914787292,0.2162329852581024,32.207664489746094,6.946810722351074,66.99102783203125,33.84,2
-0.2203125655651092,-0.9446603655815125,0.2171347290277481,33.43732452392578,6.945342063903809,66.9942398071289,33.84,2
-0.2197527587413787,-0.9420951008796692,0.2121156305074691,28.39043426513672,6.900331020355225,66.99629974365234,33.84,2
-0.2193935066461563,-0.9404488801956176,0.208894670009613,18.287416458129883,6.871445655822754,66.99762725830078,33.84,2
-0.2191629707813263,-0.9393924474716188,0.2068276405334472,5.770823001861572,6.852908611297607,66.99847412109375,33.84,2
-0.2190150171518325,-0.9387144446372986,0.1999033689498901,-8.832051277160645,6.841012477874756,66.9990234375,33.84,2
-0.2189200669527053,-0.938279390335083,0.1954597681760788,-24.87409019470215,6.833378314971924,66.99937438964844,33.84,2
-0.2188591361045837,-0.9380001425743104,0.1926081180572509,-40.57505035400391,6.828479290008545,66.99959564208984,33.84,2
-0.218820035457611,-0.9378209710121156,0.1907780915498733,-52.09480667114258,6.8253350257873535,66.99974060058594,33.84,2
-0.2187949419021606,-0.9377059936523438,0.1896036863327026,-58.0616569519043,6.823317527770996,66.99983215332031,33.84,2
-0.2243766188621521,-0.9376322031021118,0.1944478005170822,-61.27104949951172,6.7816267013549805,66.99989318847656,33.84,2
-0.2279586195945739,-0.9375848174095154,0.1975564658641815,-65.69157409667969,6.754871845245361,66.99993133544922,33.84,2
-0.2302573323249817,-0.93755441904068,0.1995514333248138,-73.11052703857422,6.737701892852783,66.99995422363281,33.84,2
-0.2317325174808502,-0.9375349283218384,0.2008316963911056,-78.80304718017578,6.726683139801025,66.99996948242188,33.84,2
-0.2270814329385757,-0.9375224113464355,0.2016532868146896,-71.12808227539062,6.719612121582031,66.9999771118164,33.84,2
-0.2296944111585617,-0.9375143647193908,0.2021805346012115,-46.219120025634766,6.71507453918457,66.99998474121094,33.84,2
-0.2313712686300277,-0.9375092387199402,0.1969211250543594,-18.22518920898437,6.712162494659424,66.99999237060547,33.84,2
-0.2324473708868026,-0.9375059008598328,0.1935459375381469,-2.223546504974365,6.710293769836426,66.99999237060547,33.84,2
-0.2331379652023315,-0.9375038146972656,0.1913799345493316,3.0190322399139404,6.702667713165283,66.99999237060547,33.84,2
-0.2335811406373977,-0.9375024437904358,0.1899899244308471,4.893065929412842,6.697773456573486,66.99999237060547,33.84,2
-0.2338655441999435,-0.9375015497207642,0.1890978962182998,4.0428972244262695,6.694632530212402,66.99999237060547,33.84,2
-0.2340480536222458,-0.9375010132789612,0.1885254383087158,0.5990038514137268,6.692616939544678,66.99999237060547,33.84,2
-0.2341651916503906,-0.9375006556510924,0.1881580650806427,-1.3853861093521118,6.691323757171631,66.99999237060547,33.84,2
-0.2342403531074524,-0.9375004172325134,0.1823245286941528,-0.5057254433631897,6.690493583679199,66.99999237060547,33.84,2
-0.2342885881662368,-0.9319024682044984,0.1785809099674224,0.6391673684120178,6.689960956573486,66.99999237060547,33.84,2
-0.2343195527791977,-0.9283100366592408,0.1761784702539444,1.531527042388916,6.689619064331055,66.99999237060547,33.84,2
-0.2343394160270691,-0.931602418422699,0.1746367216110229,4.590499401092529,6.71556568145752,67.11821746826172,33.84,2
-0.2399499416351318,-0.933715283870697,0.1736473143100738,10.100321769714355,6.732216358184815,67.194091796875,33.84,2
-0.2435504496097564,-0.9350711703300476,0.173012375831604,15.463321685791016,6.742901802062988,67.24278259277344,33.84,2
-0.2514588236808777,-0.9359413385391236,0.1726049035787582,19.320566177368164,6.749759197235107,67.27403259277344,33.84,2
-0.2565339505672455,-0.9364997148513794,0.1667456328868866,22.75247001647949,6.754159927368164,67.29408264160156,33.84,2
-0.2597908973693847,-0.9312602877616882,0.1685832738876342,26.04039001464844,6.756984233856201,67.30695343017578,33.84,2
-0.2562832236289978,-0.9278979301452636,0.1697625666856765,27.43387222290039,6.758796691894531,67.3152084350586,33.84,2
-0.2540322244167328,-0.9257401823997498,0.1705193668603897,25.641197204589844,6.759959697723389,67.32051086425781,33.84,2
-0.2525876462459564,-0.9187576770782472,0.1766028106212616,21.621118545532227,6.772641658782959,67.32391357421875,33.83,2
-0.2404650598764419,-0.9254722595214844,0.1805068105459213,17.203401565551758,6.780779838562012,67.32609558105469,33.83,2
-0.2270877063274383,-0.9577701687812804,0.1942077279090881,13.182533264160156,6.7860026359558105,67.3274917602539,33.83,2
-0.2129051089286804,-0.9673015475273132,0.2030001878738403,9.126150131225586,6.78935432434082,67.3283920288086,33.83,2
-0.1982057690620422,-0.9510271549224854,0.2198382318019867,4.591988563537598,6.791505336761475,67.32897186279297,33.83,2
-0.1943703442811966,-0.9405831694602966,0.2418394684791565,0.0915610715746879,6.792885780334473,67.32933807373047,33.83,2
-0.2087023109197616,-0.9282830357551576,0.2503608167171478,-3.7566843032836914,6.793771743774414,67.32957458496094,33.83,2
-0.2290952950716018,-0.909193992614746,0.2390360087156295,-7.1649017333984375,6.794340133666992,67.32972717285156,33.83,2
-0.2477801144123077,-0.9025415182113647,0.226170614361763,-10.806625366210938,6.801131248474121,67.32982635498047,33.83,2
-0.2597709596157074,-0.909467875957489,0.217914342880249,-15.106925010681152,6.805489540100098,67.32988739013672,33.83,2
-0.2618682086467743,-0.913912832736969,0.2238114923238754,-20.234691619873047,6.808286190032959,67.32992553710938,33.83,2
-0.263214111328125,-0.911167562007904,0.2275959551334381,-25.94363594055176,6.810081005096436,67.3299560546875,33.83,2
-0.2640778422355652,-0.9094058275222778,0.235622376203537,-31.506072998046875,6.811232566833496,67.32997131347656,33.83,2
-0.2646321356296539,-0.913873016834259,0.2407732754945755,-36.59832000732422,6.811971664428711,67.3299789428711,33.83,2
-0.2649878263473511,-0.9223375916481018,0.2440788149833679,-41.55362319946289,6.812446117401123,67.32998657226562,33.83,2
-0.2540205419063568,-0.9389652013778688,0.2517978847026825,-46.70406723022461,6.812750339508057,67.32999420166016,33.83,2
-0.2469823807477951,-0.955233633518219,0.2511537671089172,-51.395782470703125,6.802846908569336,67.32999420166016,33.83,2
-0.2424656897783279,-0.9656737446784972,0.2563382089138031,-54.21319580078125,6.796491622924805,67.32999420166016,33.83,2
-0.239567145705223,-0.9667758345603944,0.2540675103664398,-55.40863037109375,6.792413234710693,67.32999420166016,33.83,2
-0.2600981295108795,-1.0010697841644287,0.2470125257968902,-56.319095611572266,6.789795875549316,67.32999420166016,33.83,2
-0.2676759362220764,-1.0118820667266846,0.2424850314855575,-58.17519378662109,6.788115978240967,67.32999420166016,33.83,2
-0.272538959980011,-1.030016303062439,0.2395795583724975,-60.42319107055664,6.7870378494262695,67.32999420166016,33.83,2
-0.2812575399875641,-1.0416538715362549,0.2321172058582306,-60.314571380615234,6.786345958709717,67.32999420166016,33.83,2
-0.2812548279762268,-1.021133303642273,0.2217305302619934,-54.69903564453125,6.78590202331543,67.32999420166016,33.83,2
-0.2812530994415283,-0.9855732917785645,0.1926738619804382,-43.29962539672852,6.763582706451416,67.43389129638672,33.83,2
-0.2812519967556,-0.9683506488800048,0.1684291958808899,-29.377870559692383,6.749259471893311,67.50056457519531,33.83,2
-0.2756535112857818,-0.9572981595993042,0.1416748166084289,-16.85753059387207,6.740067958831787,67.5433578491211,33.83,2
-0.2664629518985748,-0.9502053260803224,0.1133098378777504,-7.353842258453369,6.734169006347656,67.57081604003906,33.83,2
-0.2493694275617599,-0.9512513279914856,0.0951068326830864,-0.4022687971591949,6.730383396148682,67.58843994140625,33.83,2
-0.2272042334079742,-0.9575203657150269,0.083425186574459,4.872095108032227,6.727954387664795,67.59974670410156,33.83,2
-0.2017843425273895,-0.9391523599624634,0.0815263539552688,9.170435905456545,6.726395606994629,67.60700225830078,33.83,2
-0.191069096326828,-0.91057151556015,0.0747100189328193,12.982139587402344,6.725395202636719,67.61165618896484,33.83,2
-0.1897904425859451,-0.8698388934135437,0.0815312340855598,16.47796630859375,6.70134162902832,67.6146469116211,33.83,2
-0.1889698803424835,-0.843699038028717,0.0915064737200737,19.61703109741211,6.685905456542969,67.61656188964844,33.83,2
-0.1716499626636505,-0.8269239664077759,0.1091035604476928,22.47698974609375,6.675999641418457,67.6177978515625,33.83,2
-0.1549372673034668,-0.8161587119102478,0.1315919011831283,24.953628540039062,6.669642448425293,67.61859130859375,33.83,2
-0.149809792637825,-0.8260434865951538,0.151621401309967,26.20981216430664,6.665562629699707,67.61909484863281,33.83,2
-0.1577148139476776,-0.8659736514091492,0.1700729578733444,24.82700538635254,6.662944793701172,67.61942291259766,33.83,2
-0.1683855801820755,-0.902794063091278,0.1819141060113906,20.06325340270996,6.661264896392822,67.61962890625,33.83,2
-0.1752334684133529,-0.9879987835884094,0.2007086127996444,13.36983585357666,6.660186767578125,67.61976623535156,33.83,2
-0.207616925239563,-1.109851598739624,0.2127698510885238,7.437149524688721,6.632411003112793,67.6198501586914,33.83,2
-0.2339965254068374,-1.1936475038528442,0.2261078357696533,3.1856534481048584,6.614586353302002,67.61990356445312,33.83,2
-0.2397298961877823,-1.2138361930847168,0.2514607012271881,-0.7321271896362305,6.603147506713867,67.61994171142578,33.83,2
-0.260202556848526,-1.1652166843414309,0.267730712890625,-5.367218017578125,6.59580659866333,67.61996459960938,33.83,2
-0.2789385020732879,-1.0332554578781128,0.233389675617218,-10.509210586547852,6.591095447540283,67.61997985839844,33.83,2
-0.274168848991394,-0.9765592217445374,0.200156033039093,-15.836783409118652,6.588072299957275,67.61998748779297,33.83,2
-0.2487168461084365,-0.9681637287139891,0.1788285970687866,-21.043418884277344,6.586132049560547,67.6199951171875,33.83,2
-0.2043943554162979,-0.9963626265525818,0.1539463251829147,-25.58489990234375,6.584887027740479,67.6199951171875,33.83,2
-0.1759507209062576,-1.0032634735107422,0.1379783153533935,-29.12272834777832,6.544610023498535,67.6199951171875,33.83,2
-0.1744905561208725,-0.9405187964439392,0.116535410284996,-30.79481315612793,6.518762588500977,67.6199951171875,33.83,2
-0.1847490668296814,-0.8554706573486328,0.0915790423750877,-28.346189498901367,6.502175331115723,67.6199951171875,33.83,2
-0.1913323849439621,-0.7840983271598816,0.0867590308189392,-20.154203414916992,6.491530418395996,67.6199951171875,33.83,2
-0.1787638515233993,-0.7215023636817932,0.1172524690628051,-7.610100746154785,6.484699249267578,67.6199951171875,33.83,2
-0.1651003211736679,-0.6701363325119019,0.153614729642868,6.150607585906982,6.480315208435059,67.6199951171875,33.83,2
-0.1731251776218414,-0.6539658904075623,0.1993410289287567,18.75030899047852,6.47750186920166,67.6199951171875,33.83,2
-0.1894706189632415,-0.6939685940742493,0.2454788535833358,28.87813949584961,6.475696563720703,67.6199951171875,33.83,2
-0.2055579572916031,-0.7700200080871582,0.2806852459907532,35.93648147583008,6.458930015563965,67.78121185302734,33.83,2
-0.2382729798555374,-0.975563108921051,0.3144742250442505,40.512691497802734,6.4481706619262695,67.88467407226562,33.83,2
-0.2704631388187408,-1.141055464744568,0.3529513776302337,43.9151725769043,6.44126558303833,67.95106506347656,33.83,2
-0.2855231761932373,-1.2864433526992798,0.3832415640354156,46.97283935546875,6.436834335327148,67.9936752319336,33.83,2
-0.3343722522258758,-1.262191653251648,0.3299089968204498,49.83788299560547,6.433990478515625,68.0210189819336,33.83,2
-0.3713185489177704,-1.1626617908477783,0.2844876646995544,52.32853317260742,6.432165622711182,68.03856658935547,33.83,2
-0.3894307911396026,-1.0819958448410034,0.2217522263526916,53.9161376953125,6.430994510650635,68.0498275756836,33.83,2
-0.401054173707962,-1.0470224618911743,0.1758944541215896,53.79212951660156,6.430243015289307,68.05705261230469,33.83,2
-0.4085133969783783,-1.0357741117477417,0.1576611250638961,51.075775146484375,6.40012264251709,68.06169128417969,33.84,2
-0.3741158843040466,-1.0005667209625244,0.1459600329399109,45.0621452331543,6.38079309463501,68.06466674804688,33.84,2
-0.335248202085495,-0.961179256439209,0.132853165268898,35.93297576904297,6.368388175964356,68.06657409667969,33.84,2
-0.2991096079349518,-0.9359026551246644,0.113246388733387,25.15910530090332,6.3604278564453125,68.06780242919922,33.84,2
-0.2759179472923279,-0.9084860682487488,0.0950661078095436,14.311386108398438,6.355319023132324,68.06858825683594,33.84,2
-0.2498393207788467,-0.8740983605384827,0.083399049937725,3.459268093109131,6.352040767669678,68.069091796875,33.84,2
-0.2163102328777313,-0.8688235878944397,0.0815095826983451,-8.051285743713379,6.3499369621276855,68.06941986083984,33.84,2
-0.1891954243183136,-0.8766341209411621,0.0802970305085182,-19.221296310424805,6.348586559295654,68.06962585449219,33.84,2
-0.1661969274282455,-0.9096353054046632,0.0795188844203949,-27.56106758117676,6.333030223846436,68.06976318359375,33.84,2
-0.145840048789978,-0.9420091509819032,0.0790195167064666,-32.185791015625,6.323047161102295,68.0698471069336,33.84,2
-0.1327761709690094,-0.9963714480400084,0.0786990523338317,-35.110679626464844,6.316640853881836,68.06990051269531,33.84,2
-0.1075991988182067,-1.042453646659851,0.1064822673797607,-38.82198333740234,6.312529563903809,68.06993865966797,33.84,2
-0.1082353964447975,-1.105613112449646,0.1467030346393585,-43.18126678466797,6.309891223907471,68.06996154785156,33.84,2
-0.1422303169965744,-1.067776441574097,0.2508832514286041,-44.72490310668945,6.308197975158691,68.06997680664062,33.84,2
-0.1640463024377823,-0.9931150674819946,0.3233378827571869,-39.04118347167969,6.3071112632751465,68.06998443603516,33.84,2
-0.1780465394258499,-0.9396039247512816,0.2802706956863403,-24.73911666870117,6.3064141273498535,68.06999206542969,33.84,2
-0.1310533434152603,-0.9836323857307434,0.2302415668964386,-5.235891342163086,6.296785831451416,68.06999206542969,33.84,2
-0.0952980443835258,-1.0118873119354248,0.2149290740489959,14.011815071105955,6.290606498718262,68.06999206542969,33.84,2
-0.0947434455156326,-0.9908352494239808,0.1995046287775039,29.14754676818848,6.2866411209106445,68.06999206542969,33.84,2
-0.1055830866098404,-0.938140869140625,0.195203885436058,38.55268859863281,6.2840962409973145,68.06999206542969,33.84,2
-0.1629193127155304,-0.8651401996612549,0.1588572710752487,42.02324295043945,6.282463073730469,68.06999206542969,33.84,2
-0.2165077179670334,-0.8070970177650452,0.1187387779355049,40.664283752441406,6.281414985656738,68.06999206542969,33.84,2
-0.2452999055385589,-0.7698482275009155,0.0985908135771751,35.68296813964844,6.280742645263672,68.06999206542969,33.84,2
-0.2637770771980285,-0.7739329934120178,0.1192476525902748,26.90817642211914,6.280311107635498,68.06999206542969,33.84,2
-0.2756346464157104,-0.7877498865127563,0.1548951268196106,14.355484008789062,6.263508319854736,68.21329498291016,33.84,2
-0.3000374734401703,-0.8190078735351562,0.2001627087593078,0.8328791260719299,6.252725124359131,68.30525970458984,33.84,2
-0.3212955892086029,-0.9118385314941406,0.2460061609745025,-9.296093940734863,6.245805263519287,68.3642807006836,33.84,2
-0.3405356109142303,-1.0161941051483154,0.2866213917732239,-13.754217147827148,6.241364479064941,68.40215301513672,33.84,2
-0.3360894024372101,-1.1055545806884766,0.3238814771175384,-13.706132888793944,6.23851490020752,68.42646026611328,33.84,2
-0.3164427578449249,-1.18529212474823,0.353390634059906,-11.737101554870604,6.236685752868652,68.44206237792969,33.84,2
-0.3150302469730377,-1.2084741592407229,0.3555345833301544,-8.649959564208984,6.2355122566223145,68.45207214355469,33.84,2
-0.330917090177536,-1.116993427276611,0.3009327054023742,-2.437788486480713,6.2347588539123535,68.45849609375,33.84,2
-0.3523078858852386,-1.0694818496704102,0.2435012608766555,8.893105506896973,6.231062412261963,68.46261596679688,33.81,2
-0.3772308230400085,-1.0781761407852173,0.1898517459630966,24.128686904907227,6.228690147399902,68.46526336669922,33.81,2
-0.3820293843746185,-1.0725600719451904,0.155422568321228,39.68828201293945,6.227168083190918,68.46695709228516,33.81,2
-0.334728866815567,-1.063358187675476,0.1501212269067764,52.58258819580078,6.22619104385376,68.46804809570312,33.81,2
-0.2651896774768829,-1.018268585205078,0.1355235874652862,61.46644592285156,6.225564002990723,68.46875,33.81,2
-0.2261612117290496,-0.9781370759010316,0.1149601116776466,66.56214141845703,6.225161552429199,68.46920013427734,33.81,2
-0.2123105376958847,-0.9243941307067872,0.0905681028962135,69.89317321777344,6.224903583526611,68.46949005126953,33.81,2
-0.2090197503566742,-0.8787094354629517,0.0693169459700584,73.1844253540039,6.224737644195557,68.46967315673828,33.81,2
-0.1901145875453949,-0.8549894094467163,0.0556791760027408,74.63378143310547,6.223254203796387,68.46978759765625,33.81,2
-0.1611890196800232,-0.8509628176689148,0.0525250136852264,70.40140533447266,6.222301959991455,68.46986389160156,33.81,2
-0.1426262557506561,-0.8483787775039673,0.0560986287891864,59.74274063110352,6.221691131591797,68.46990966796875,33.81,2
-0.1251159608364105,-0.8691115975379944,0.0639897435903549,45.83778381347656,6.221299171447754,68.46994018554688,33.81,2
-0.1082810908555984,-0.8992100358009338,0.0690538063645362,31.20375633239746,6.221047401428223,68.46996307373047,33.81,2
-0.091879665851593,-0.9353188276290894,0.1002925038337707,15.070072174072266,6.220885753631592,68.46997833251953,33.81,2
-0.126136377453804,-1.00887131690979,0.1651218980550766,-3.85670018196106,6.220782279968262,68.46998596191406,33.81,2
-0.1593159139156341,-1.0392796993255615,0.2459100931882858,-24.01703643798828,6.220715999603272,68.4699935913086,33.81,2
-0.1974019408226013,-1.0028163194656372,0.3257441818714142,-41.440162658691406,6.228017807006836,68.4699935913086,33.81,2
-0.2274411469697952,-0.9962095618247986,0.3209993541240692,-52.3562126159668,6.232703685760498,68.4699935913086,33.81,2
-0.2075341492891311,-1.014360785484314,0.2451833337545395,-55.080326080322266,6.235711097717285,68.4699935913086,33.81,2
-0.1555745750665664,-1.0428025722503662,0.2189200669527053,-50.98890686035156,6.237640857696533,68.4699935913086,33.81,2
-0.1110343560576438,-1.061054825782776,0.2132613658905029,-43.68084335327149,6.238879203796387,68.4699935913086,33.81,2
-0.1160376518964767,-1.0055948495864868,0.1928366124629974,-35.70572662353516,6.239674091339111,68.4699935913086,33.81,2
-0.1416395753622055,-0.9420149326324464,0.1629358530044555,-26.82246971130371,6.240184307098389,68.4699935913086,33.81,2
-0.2084493935108184,-0.8564308285713196,0.1157583966851234,-16.965919494628906,6.240511417388916,68.4699935913086,33.81,2
-0.2513240873813629,-0.7903122901916504,0.0854826271533966,-9.031976699829102,6.237049102783203,68.57030487060547,33.81,2
-0.2676430344581604,-0.7590767741203308,0.0828467011451721,-6.423153400421143,6.234827041625977,68.63468170166016,33.81,2
-0.2893111705780029,-0.772618293762207,0.120339535176754,-9.098207473754885,6.233401298522949,68.67599487304688,33.81,2
-0.3144120573997497,-0.7925040125846863,0.1667913794517517,-14.057134628295898,6.232486248016357,68.70250701904297,33.81,2
-0.3473137021064758,-0.8668410181999207,0.213394820690155,-18.62594413757324,6.231898784637451,68.71952056884766,33.81,2
-0.385221391916275,-1.0153061151504517,0.2824866473674774,-21.138782501220703,6.231522083282471,68.73043823242188,33.81,2
-0.3983528316020965,-1.127375841140747,0.3380213677883148,-19.326435089111328,6.231280326843262,68.7374496459961,33.81,2
-0.3675954043865204,-1.2608712911605835,0.3736603260040283,-10.518158912658691,6.231124877929688,68.741943359375,33.81,2
-0.3310637474060058,-1.2905632257461548,0.3965313732624054,6.40885066986084,6.229189395904541,68.74482727050781,33.81,2
-0.3356086909770965,-1.1864666938781738,0.3496331870555877,30.208311080932617,6.227947235107422,68.7466812133789,33.81,2
-0.3497209250926971,-1.153250217437744,0.2691566348075866,57.72309875488281,6.227149963378906,68.74787139892578,33.81,2
-0.3699728846549988,-1.1487271785736084,0.2063158750534057,83.98226928710938,6.226638317108154,68.7486343383789,33.81,2
-0.3549805581569671,-1.1458245515823364,0.1827816218137741,103.13390350341795,6.226309776306152,68.7491226196289,33.81,2
-0.3173704743385315,-1.121570706367493,0.1732764691114425,112.08535766601562,6.226099014282227,68.74943542480469,33.81,2
-0.2428545206785202,-1.0500282049179075,0.1503832787275314,112.99341583251952,6.225964069366455,68.74964141845703,33.81,2
-0.2118277996778488,-0.9929208159446716,0.1021051034331321,109.04777526855467,6.225877285003662,68.74977111816406,33.81,2
-0.1975143998861313,-0.9506747722625732,0.0599274039268493,101.02360534667967,6.223067283630371,68.7498550415039,33.81,2
-0.1995244324207306,-0.9179659485816956,0.0216646343469619,87.87784576416016,6.221263885498047,68.74990844726562,33.81,2
-0.1952165812253952,-0.8913775086402893,-0.0028902080375701,70.36698913574219,6.220106601715088,68.74993896484375,33.81,2
-0.1700609624385833,-0.868716835975647,-0.0130503177642822,50.56000900268555,6.219364166259766,68.74996185302734,33.81,2
-0.1427219808101654,-0.8485767245292664,-0.0083749424666166,29.76673698425293,6.2188873291015625,68.7499771118164,33.81,2
-0.1251773983240127,-0.8468475341796875,0.0058209933340549,8.63071060180664,6.218581676483154,68.74998474121094,33.81,2
-0.1195160672068595,-0.8625311255455017,0.0205289013683795,-11.915616035461426,6.218385219573975,68.74999237060547,33.81,2
-0.1102851778268814,-0.8669981956481934,0.0411631390452384,-30.05218505859375,6.218259334564209,68.74999237060547,33.81,2
-0.1155568733811378,-0.914647102355957,0.0935894250869751,-46.25539016723633,6.206243515014648,68.74999237060547,33.81,2
-0.1637221425771713,-0.950823187828064,0.2000046670436859,-60.85245513916016,6.198532581329346,68.74999237060547,33.81,2
-0.2226207107305526,-0.9740388989448548,0.3074802756309509,-73.08607482910156,6.193583965301514,68.74999237060547,33.81,2
-0.2548206448554992,-0.9945352077484132,0.3372674882411957,-78.12458038330078,6.190408229827881,68.74999237060547,33.81,2
-0.2754847109317779,-1.035677433013916,0.3004054725170135,-72.62010192871094,6.188370227813721,68.74999237060547,33.81,2
-0.2383657544851303,-1.090069055557251,0.2655540108680725,-56.42324066162109,6.187062740325928,68.74999237060547,33.81,2
-0.1473716348409652,-1.1193766593933103,0.2767750024795532,-30.69202041625977,6.18622350692749,68.74999237060547,33.81,2
-0.0833790823817253,-1.087804675102234,0.2839759886264801,1.945967197418213,6.185684680938721,68.74999237060547,33.81,2
-0.1150834113359451,-1.0115658044815063,0.2270216345787048,42.02926635742188,6.169272422790527,68.925537109375,33.81,2
-0.1690160781145095,-0.9458467364311218,0.1680805087089538,80.585205078125,6.158740043640137,69.03819274902344,33.81,2
-0.2540069222450256,-0.8700853586196899,0.1302554905414581,112.42527770996094,6.151980876922607,69.11048889160156,33.81,2
-0.297353595495224,-0.8102705478668213,0.1451659947633743,135.28379821777344,6.147643089294434,69.1568832397461,33.81,2
-0.3195732235908508,-0.7718848586082458,0.1715280264616012,157.6197967529297,6.144859313964844,69.18666076660156,33.81,2
-0.3450280725955963,-0.7752400040626526,0.2164345234632492,182.9056854248047,6.143073081970215,69.20577239990234,33.81,2
-0.3613635301589966,-0.8053820133209229,0.2396551519632339,207.48370361328125,6.141926765441895,69.21803283691406,33.81,2
-0.3438577950000763,-0.8807031512260437,0.2489590495824813,230.10633850097656,6.141191005706787,69.22589874267578,33.81,2
-0.3214280903339386,-0.99621319770813,0.271723061800003,252.5453186035156,6.136587619781494,69.23094940185547,33.81,2
-0.2958384454250335,-1.0591453313827517,0.2919294834136963,288.42291259765625,6.133633136749268,69.23419189453125,33.81,2
-0.2906120121479034,-1.1723026037216189,0.3160923421382904,332.15435791015625,6.131737232208252,69.23627471923828,33.81,2
-0.309649109840393,-1.2337249517440796,0.320403128862381,380.7969970703125,6.130520343780518,69.23760986328125,33.81,2
-0.3498548865318298,-1.1891756057739258,0.2783873379230499,409.5016784667969,6.129739761352539,69.23846435546875,33.81,2
-0.3644610941410064,-1.13259756565094,0.2346307188272476,339.01031494140625,6.129238605499268,69.239013671875,33.81,2
-0.3682367503643036,-1.0906912088394165,0.1953546851873397,220.89268493652344,6.128917217254639,69.23936462402344,33.81,2
-0.3314753174781799,-1.0917870998382568,0.1589540392160415,82.3642807006836,6.128710746765137,69.23959350585938,33.81,2
-0.2854928374290466,-1.0980881452560425,0.1299964189529419,-52.89381408691406,6.124446868896484,69.23973846435547,33.81,2
-0.2223972976207733,-1.06854510307312,0.1114130914211273,-162.07501220703125,6.121710300445557,69.23983001708984,33.81,2
-0.1763084232807159,-1.015999436378479,0.0938896089792251,-225.8323211669922,6.119954109191895,69.2398910522461,33.81,2
-0.1579267978668213,-0.9822786450386048,0.0658507198095321,-259.7405700683594,6.1188273429870605,69.23992919921875,33.81,2
-0.1685216277837753,-0.9382475018501282,0.0422592014074325,-278.6671142578125,6.118103981018066,69.23995208740234,33.81,2
-0.1753207743167877,-0.9043930768966676,0.0271195229142904,-290.8238220214844,6.117640018463135,69.2399673461914,33.81,2
-0.1628907471895218,-0.8658739328384399,0.0118059739470481,-291.4852294921875,6.117342472076416,69.23997497558594,33.81,2
-0.1493161022663116,-0.8243612051010132,0.0131741687655448,-281.0723876953125,6.117151260375977,69.23998260498047,33.81,2
-0.1406046748161316,-0.797720730304718,0.0196499712765216,-267.16754150390625,6.112438201904297,69.239990234375,33.81,2
-0.1238186359405517,-0.7806243896484375,0.0461968667805194,-253.8233337402344,6.109413623809815,69.239990234375,33.81,2
-0.1074485480785369,-0.7864462733268738,0.0800264626741409,-242.18592834472656,6.1074724197387695,69.239990234375,33.81,2
-0.1025409400463104,-0.8181713223457336,0.1353229880332946,-226.2270050048828,6.106226921081543,69.239990234375,33.81,2
-0.1217826157808303,-0.9113016724586488,0.1764068901538849,-208.2363739013672,6.1054277420043945,69.239990234375,33.81,2
-0.1565219163894653,-0.9878607392311096,0.2139677256345749,-188.4116973876953,6.104914665222168,69.239990234375,33.81,2
-0.2291955649852752,-1.0761762857437134,0.2828543186187744,-166.8511505126953,6.104585647583008,69.239990234375,33.81,2
-0.2646377980709076,-1.09366774559021,0.3326595425605774,-141.42161560058594,6.104374408721924,69.239990234375,33.81,2
-0.2929803431034088,-1.093697190284729,0.2750572562217712,-110.93331909179688,6.092762470245361,69.37255096435547,33.81,2
-0.2831800878047943,-1.1105093955993652,0.2212981134653091,-75.96977233886719,6.085310459136963,69.4576187133789,33.81,2
-0.2600975334644317,-1.1268962621688845,0.197994127869606,-39.900482177734375,6.080528259277344,69.51220703125,33.81,2
-0.2005022764205932,-1.1094236373901367,0.1998323053121566,-11.286277770996094,6.077459335327148,69.5472412109375,33.81,2
-0.179050788283348,-1.0758196115493774,0.1954141706228256,3.171663761138916,6.0754899978637695,69.5697250366211,33.81,2
-0.2156644314527511,-0.9870811700820924,0.1757855415344238,3.733531951904297,6.074225902557373,69.58415222167969,33.81,2
-0.2895409166812897,-0.9021450281143188,0.1463956832885742,-1.8458037376403809,6.0734148025512695,69.59341430664062,33.81,2
-0.3425483703613281,-0.8308445811271667,0.1387305110692978,-6.59421968460083,6.072894096374512,69.59935760498047,33.81,2
-0.3429788649082184,-0.7906858325004578,0.1673980951309204,-8.477143287658691,6.074855804443359,69.6031723022461,33.83,2
-0.3376573622226715,-0.7817075848579407,0.2025886327028274,-8.1736478805542,6.076114654541016,69.60562133789062,33.83,2
-0.3286445438861847,-0.8151302933692932,0.2363674342632293,-6.24849796295166,6.076922416687012,69.60719299316406,33.83,2
-0.3004695475101471,-0.8533723950386047,0.2524469494819641,-2.1899778842926025,6.0774407386779785,69.60820007324219,33.83,2
-0.2711929082870483,-0.9003050923347473,0.2627658545970917,5.65943717956543,6.077773571014404,69.60884857177734,33.83,2
-0.2524048388004303,-0.9919992685317992,0.2749857008457184,18.22731590270996,6.077986717224121,69.60926055908203,33.83,2
-0.2459455132484436,-1.0452455282211304,0.2828277051448822,32.54425048828125,6.078123569488525,69.60952758789062,33.83,2
-0.2418002933263778,-1.1018069982528689,0.287860244512558,42.39480972290039,6.078211784362793,69.60969543457031,33.83,2
-0.2671290040016174,-1.1604959964752195,0.2798942923545837,44.34558868408203,6.07735013961792,69.60980224609375,33.83,2
-0.2777857184410095,-1.130985975265503,0.2635866701602936,41.69964599609375,6.0767974853515625,69.60987091064453,33.83,2
-0.2734290361404419,-1.0448747873306274,0.2195347249507904,40.32048034667969,6.076442718505859,69.60991668701172,33.83,2
-0.2762309610843658,-1.0008091926574707,0.180069163441658,41.69960021972656,6.076214790344238,69.60994720458984,33.83,2
-0.2724312841892242,-1.028508186340332,0.132351353764534,42.35893630981445,6.076068878173828,69.60997009277344,33.83,2
-0.2364062368869781,-1.068674921989441,0.1073265746235847,39.07767868041992,6.075974941253662,69.60997772216797,33.83,2
-0.1964941173791885,-1.0552672147750854,0.0968648865818977,31.544353485107425,6.0759148597717285,69.6099853515625,33.83,2
-0.1596852540969848,-1.0074784755706787,0.0957489535212516,20.257680892944336,6.075876235961914,69.60999298095703,33.83,2
-0.1528567671775818,-0.9768103957176208,0.0838372632861137,5.4553093910217285,6.071260929107666,69.60999298095703,33.83,2
-0.1708657443523407,-0.9627271294593812,0.0649974793195724,-11.212735176086426,6.068298816680908,69.60999298095703,33.83,2
-0.1544339954853058,-0.9536893367767334,0.0585049651563167,-26.89985466003418,6.066398143768311,69.60999298095703,33.83,2
-0.1438890397548675,-0.9422916173934937,0.0543384440243244,-40.316650390625,6.065178394317627,69.60999298095703,33.83,2
-0.1371219009160995,-0.9237816333770752,0.0684579312801361,-52.20841979980469,6.064395427703857,69.60999298095703,33.83,2
-0.1215835884213447,-0.900707483291626,0.0887145549058914,-62.899391174316406,6.063892841339111,69.60999298095703,33.83,2
-0.0948186740279197,-0.8747042417526245,0.1185074150562286,-71.18252563476562,6.063570499420166,69.60999298095703,33.83,2
-0.0888380408287048,-0.8524190783500671,0.1320289820432663,-75.6061019897461,6.063363552093506,69.60999298095703,33.83,2
-0.096195563673973,-0.8437155485153198,0.1407063454389572,-75.68989562988281,6.064608097076416,69.7103042602539,33.83,2
-0.112112745642662,-0.8717167377471924,0.1350794285535812,-71.4839859008789,6.065406322479248,69.7746810913086,33.83,2
-0.139120802283287,-0.9456640481948853,0.1202728450298309,-62.27533721923828,6.065918922424316,69.81599426269531,33.83,2
-0.1844418942928314,-1.0379014015197754,0.1163686066865921,-46.41336441040039,6.066247940063477,69.8425064086914,33.83,2
-0.2079285830259323,-1.057909607887268,0.1250586360692978,-23.175573348999023,6.066458702087402,69.8595199584961,33.83,2
-0.2230009883642196,-1.065151929855347,0.1362331807613372,4.294031143188477,6.066594123840332,69.87043762207031,33.83,2
-0.2326735854148864,-1.0697996616363523,0.1210132613778114,27.99132537841797,6.066680908203125,69.87744903564453,33.83,2
-0.2276853621006012,-1.072782278060913,0.088854894042015,39.58406448364258,6.066736698150635,69.88194274902344,33.83,2
-0.2244842052459716,-1.0690985918045044,0.0682175084948539,37.66234970092773,6.0612640380859375,69.88482666015625,33.83,2
-0.228027656674385,-1.0499413013458252,0.0605713948607444,28.676408767700195,6.057752132415772,69.88668060302734,33.83,2
-0.235899418592453,-1.0264517068862915,0.0612623319029808,20.118921279907227,6.055498600006104,69.88787078857422,33.83,2
-0.2409510612487793,-0.988986313343048,0.0617057345807552,15.522863388061523,6.054052352905273,69.88863372802734,33.83,2
-0.2441929131746292,-0.9537476301193236,0.0619902871549129,15.192240715026855,6.053123950958252,69.88912200927734,33.83,2
-0.2350777983665466,-0.936731219291687,0.0565751194953918,17.373226165771484,6.052528381347656,69.88943481445312,33.83,2
-0.2236304730176925,-0.9537999629974364,0.0586977526545524,18.89824676513672,6.052145957946777,69.88964080810547,33.83,2
-0.216284230351448,-0.9703514575958252,0.0600599348545074,18.35790634155273,6.051900863647461,69.8897705078125,33.83,2
-0.2115698307752609,-0.9697777032852172,0.0665318816900253,17.957406997680664,6.052202224731445,69.88985443115234,33.83,2
-0.2141421735286712,-0.958213984966278,0.0762829780578613,19.5561637878418,6.052395820617676,69.88990783691406,33.83,2
-0.2213907390832901,-0.9451952576637268,0.0881384462118148,20.772031784057617,6.052519798278809,69.88993835449219,33.83,2
-0.2372380048036575,-0.9200472831726074,0.1069421544671058,18.482038497924805,6.0525994300842285,69.88996124267578,33.83,2
-0.247407853603363,-0.8983109593391418,0.1190092861652374,14.192965507507324,6.052650451660156,69.88997650146484,33.83,2
-0.2595320641994476,-0.8731663227081299,0.1267532855272293,12.354042053222656,6.052683353424072,69.88998413085938,33.83,2
-0.2729104459285736,-0.8850188255310059,0.126125156879425,14.842483520507812,6.052704334259033,69.8899917602539,33.83,2
-0.2926914691925049,-0.982189416885376,0.1033309623599052,19.928852081298828,6.052717685699463,69.8899917602539,33.83,2
-0.3445702195167541,-1.0669389963150024,0.0663118660449981,24.97711181640625,6.048136234283447,69.8899917602539,33.83,2
-0.3834607899188995,-1.0877398252487185,0.0425551384687423,27.858537673950195,6.045196056365967,69.8899917602539,33.83,2
-0.374831885099411,-1.0395129919052124,0.0552983097732067,27.15329360961914,6.043309211730957,69.8899917602539,33.83,2
-0.3525010049343109,-0.9917705059051514,0.0634761452674865,22.713302612304688,6.042098045349121,69.8899917602539,33.83,2
-0.3437681198120117,-0.9835232496261596,0.0351375602185726,15.457403182983398,6.04132080078125,69.8899917602539,33.83,2
-0.360554963350296,-1.006219506263733,0.0057559390552341,6.243948936462402,6.0408220291137695,69.8899917602539,33.83,2
-0.3657300174236297,-0.9816002249717712,-0.0075017181225121,-4.250829696655273,6.040502071380615,69.8899917602539,33.83,2
-0.3634532988071441,-0.9266165494918824,0.0119791524484753,-14.890782356262209,6.04029655456543,69.8899917602539,33.83,2
-0.3843833208084106,-0.8969289660453796,0.0356764011085033,-24.36283302307129,6.033738136291504,69.98313903808594,33.83,2
-0.392217218875885,-0.844290554523468,0.0676772519946098,-31.9604606628418,6.029529571533203,70.04291534423828,33.83,2
-0.3972445726394653,-0.8217058181762695,0.1945712715387344,-37.5240364074707,6.026828765869141,70.08128356933594,33.83,2
-0.378079742193222,-0.8575921654701233,0.3543733954429626,-41.08367156982422,6.025095462799072,70.10590362548828,33.83,2
-0.1362720876932144,-1.0093708038330078,0.6472495198249817,-42.94529342651367,6.023983001708984,70.1217041015625,33.83,2
0.1532527059316635,-1.0563936233520508,0.8463960886001587,-43.71723175048828,6.023269176483154,70.13184356689453,33.83,2
0.2886731028556824,-1.1033635139465332,0.8510459065437317,-43.70747375488281,6.022811412811279,70.13835144042969,33.83,2
0.2356337457895279,-1.2230703830718994,0.7364766001701355,-42.40073776245117,6.022517204284668,70.14252471923828,33.83,2
0.2631716728210449,-1.5014113187789917,0.5621926784515381,-39.0615119934082,6.036559104919434,70.14520263671875,33.81,2
0.3144305646419525,-1.6800345182418823,-0.1094301491975784,-33.823246002197266,6.045570373535156,70.14691925048828,33.81,2
0.3249344825744629,-1.62113356590271,-0.4900590479373932,-27.82843399047852,6.0513529777526855,70.14802551269531,33.81,2
0.9194415807724,-1.3258366584777832,-0.3928605318069458,-21.90341567993164,6.0550642013549805,70.14873504638672,33.81,2
0.9874866604804992,-1.567360758781433,-0.5991773009300232,-15.514459609985352,6.057445526123047,70.14918518066406,33.81,2
0.9807741045951844,-1.7223570346832275,-0.7763617038726807,-7.448484420776367,6.058973789215088,70.14947509765625,33.81,2
0.5958176851272583,-1.821824669837952,-0.8732751607894897,2.288413047790528,6.059954643249512,70.14966583251953,33.81,2
0.2927970886230469,-1.88565731048584,-0.767535388469696,11.92611026763916,6.06058406829834,70.14978790283203,33.81,2
-0.0472062081098556,-1.926621437072754,-0.5821244120597839,19.52972984313965,6.022887229919434,70.14986419677734,33.81,2
-0.7356138229370117,-1.8017699718475344,-0.0992829725146293,23.997299194335938,5.998695373535156,70.14990997314453,33.81,2
-1.1885896921157837,-1.5817030668258667,0.3505212068557739,24.89749336242676,5.983170509338379,70.14994049072266,33.81,2
-1.479283571243286,-1.3844990730285645,0.8127106428146362,22.93155670166016,5.973207473754883,70.14996337890625,33.81,2
-1.654638648033142,-1.2187604904174805,1.2324682474136353,20.30497169494629,5.966813564300537,70.14997863769531,33.81,2
-1.4760870933532717,-1.375494360923767,1.429073452949524,18.293365478515625,5.962710380554199,70.14998626708984,33.81,2
-0.8521055579185486,-1.5992282629013062,1.3817123174667358,15.89541721343994,5.960077285766602,70.14999389648438,33.81,2
-0.1661836206912994,-1.7428077459335327,1.2673521041870115,12.074451446533203,5.95838737487793,70.14999389648438,33.81,2
0.3411748707294464,-1.8349487781524656,0.757335901260376,8.737479209899902,5.989895820617676,70.14999389648438,33.81,2
0.8235060572624207,-1.8940796852111816,0.2956902682781219,9.311594009399414,6.010116100311279,70.14999389648438,33.81,2
0.9707029461860656,-1.6129533052444458,0.1057903692126274,13.778494834899902,6.023092269897461,70.14999389648438,33.81,2
0.8972322344779968,-1.2142293453216553,-0.0608586445450782,18.633424758911133,6.03141975402832,70.14999389648438,33.81,2
0.7381274700164795,-0.952753484249115,-0.1734021604061126,22.264928817749023,6.036763668060303,70.14999389648438,33.81,2
0.5520565509796143,-0.9528865814208984,-0.2792127430438995,28.758373260498047,6.0401930809021,70.14999389648438,33.81,2
0.399060308933258,-0.9977542161941528,-0.296735942363739,40.05123519897461,6.042393684387207,70.14999389648438,33.81,2
0.272887259721756,-1.0489387512207031,-0.1288525313138961,50.18947982788086,6.043806076049805,70.14999389648438,33.81,2
0.1247433647513389,-1.1265681982040403,-0.0043212906457483,52.009613037109375,6.070878028869629,70.23239135742188,33.81,2
0.0240753646939992,-1.1539952754974363,0.1259756535291671,48.49524688720703,6.088251113891602,70.28527069091797,33.81,2
0.0994167998433113,-1.1324119567871094,0.4614925682544708,50.52827072143555,6.099400520324707,70.31920623779297,33.81,2
0.2317332178354263,-1.068181037902832,0.7439813017845154,62.34064102172852,6.106555461883545,70.34098815917969,33.81,2
0.4733839631080627,-0.970983624458313,0.9532551765441896,77.75265502929688,6.111146926879883,70.35496520996094,33.81,2
0.466126024723053,-0.8414345979690552,0.8972308039665222,89.86438751220703,6.114093780517578,70.36392974853516,33.81,2
0.3383172750473022,-0.6687331199645996,0.7325287461280823,102.96429443359376,6.115984916687012,70.36968231201172,33.81,2
0.077168196439743,-0.3675788938999176,0.5708547234535217,125.1281509399414,6.117198467254639,70.37337493896484,33.81,2
-0.1184111386537551,-0.2246954292058944,0.4279172122478485,156.78445434570312,6.179948329925537,70.37574768066406,33.83,2
-0.3838670551776886,-0.8607116937637329,0.2410259842872619,183.480209350586,6.220217227935791,70.37727355957031,33.83,2
-0.3974836766719818,-0.843439519405365,0.2946209609508514,169.94158935546875,6.246059417724609,70.37825012207031,33.83,2
-0.3558420836925506,-0.8771374225616455,0.2618418335914612,113.38290405273438,6.262643814086914,70.37887573242188,33.83,2
-0.2395545095205307,-1.0051205158233645,0.2631971836090088,47.4983024597168,6.27328634262085,70.37928009033203,33.83,2
-0.0641679018735885,-0.9752971529960632,0.3592291176319122,-12.795839309692385,6.280116081237793,70.3795394897461,33.83,2
0.1547428369522094,-0.9953426718711852,0.5216168165206909,-75.08040618896484,6.284499168395996,70.37969970703125,33.83,2
0.300824910402298,-1.0250000953674316,0.5698501467704773,-141.97410583496094,6.287312030792236,70.37980651855469,33.83,2
0.4057675302028656,-0.9880547523498536,0.6231946349143982,-206.55572509765625,6.442439079284668,70.37987518310547,33.83,2
0.3331693112850189,-0.8971720337867737,0.6014503240585327,-245.56076049804688,6.541990756988525,70.37992095947266,33.83,2
0.2697866261005401,-0.822055459022522,0.5986916422843933,-246.0011444091797,6.605876922607422,70.37995147705078,33.83,2
0.21791572868824,-0.7514588236808777,0.5745301842689514,-222.83580017089844,6.646875381469727,70.37996673583984,33.83,2
0.1678346395492553,-0.7061539888381958,0.5590247511863708,-181.2686767578125,6.6731858253479,70.37997436523438,33.83,2
0.1133043840527534,-0.677079975605011,0.56586754322052,-121.60135650634766,6.690070629119873,70.3799819946289,33.83,2
0.0335278138518333,-0.725595235824585,0.5254766941070557,-55.31605529785156,6.700906276702881,70.37998962402344,33.83,2
-0.0456570759415626,-0.7455340027809143,0.49955615401268,1.0185359716415403,6.707859992980957,70.37998962402344,33.83,2
-0.0796800553798675,-0.7527317404747009,0.4941173791885376,37.82644271850586,6.842232704162598,70.37998962402344,33.83,2
-0.1183073669672012,-0.7965352535247803,0.479431539773941,50.55661010742188,6.928465366363525,70.37998962402344,33.83,2
-0.1486939191818237,-0.8414391875267029,0.4700070321559906,46.28739547729492,6.983804702758789,70.37998962402344,33.83,2
-0.156998723745346,-0.8310714960098267,0.4863499999046325,28.536666870117188,7.019318103790283,70.37998962402344,33.83,2
-0.1567304879426956,-0.8076248168945312,0.5024357438087463,-7.796619892120361,7.042108535766602,70.37998962402344,33.83,2
-0.1565583497285843,-0.8205669522285461,0.5295519828796387,-61.14596939086914,7.056734085083008,70.37998962402344,33.83,2
-0.1340567767620086,-0.8736546635627747,0.5413558483123779,-115.85334777832033,7.066120147705078,70.37998962402344,33.83,2
-0.1140187978744506,-0.8685388565063477,0.5545286536216736,-141.91180419921875,7.0721435546875,70.37998962402344,33.83,2
-0.1011595726013183,-0.8820491433143616,0.5405911207199097,-124.96916198730467,7.254837512969971,70.47313690185547,33.83,2
-0.0985050350427627,-0.8851215243339539,0.5316468477249146,-91.05322265625,7.372079849243164,70.53291320800781,33.83,2
-0.0688126385211944,-0.8423109650611877,0.5427002310752869,-65.30767822265625,7.447319507598877,70.57128143310547,33.83,2
-0.0833444148302078,-0.8540220856666565,0.5162069797515869,-46.84391403198242,7.495604038238525,70.59590148925781,33.83,2
-0.1094633936882019,-0.8391464948654175,0.4992051720619201,-33.73028564453125,7.526590347290039,70.61170196533203,33.83,2
-0.042258433997631,-0.8184046149253845,0.5330765843391418,-27.56098747253418,7.546475410461426,70.62184143066406,33.83,2
-0.0830967724323272,-0.8218870162963867,0.526824414730072,-23.558897018432617,7.559236526489258,70.62834930419922,33.83,2
-0.0981089174747467,-0.829719603061676,0.5340076684951782,-12.858139038085938,7.567425727844238,70.63252258300781,33.83,2
-0.1133406236767768,-0.8347461223602295,0.5386174917221069,7.321843147277832,7.751499176025391,70.63520050048828,33.83,2
-0.0951265841722488,-0.8603629469871521,0.5303802490234375,30.482534408569336,7.869626998901367,70.63691711425781,33.83,2
-0.0722423121333122,-0.8432157039642334,0.5194963216781616,49.83828353881836,7.9454345703125,70.63802337646484,33.83,2
-0.0519587323069572,-0.8098204731941223,0.5181093811988831,65.53416442871094,7.994083881378174,70.63873291015625,33.83,2
-0.0445396713912487,-0.7939870953559875,0.545208215713501,81.26734161376953,8.025303840637207,70.6391830444336,33.83,2
-0.0509740933775901,-0.7950217127799988,0.5793920159339905,95.22242736816406,8.045339584350586,70.63947296142578,33.83,2
-0.0718966573476791,-0.8068811893463135,0.6069269776344299,99.45257568359376,8.058197021484375,70.63966369628906,33.83,2
-0.1245079785585403,-0.7865030765533447,0.6469883918762207,90.33399963378906,8.066448211669922,70.63978576660156,33.83,2
-0.141477569937706,-0.7846211194992065,0.6279153227806091,72.7600326538086,8.241541862487793,70.63986206054688,33.83,2
