acc_x,acc_y,acc_z,bvp,eda,hr,temp,label
0.0,0.0,0.0,0.0,0.0,0.0,24.97,2
-0.0286458320915699,-0.1328124850988388,0.0963541641831398,-0.5949999690055847,0.3213286399841308,12.32333278656006,24.97,2
-0.0754573196172714,-0.3151676654815674,0.2298018336296081,-1.9136587381362915,0.752379298210144,28.85463523864746,24.97,2
-0.1062084734439849,-0.4688019156455993,0.3159779906272888,-3.070232629776001,1.1273192167282104,43.2340202331543,24.97,2
-0.1339813023805618,-0.5755481719970703,0.3895245492458343,-3.8217716217041016,1.4008580446243286,53.72455978393555,24.97,2
-0.1472949534654617,-0.6752684712409973,0.4502981007099151,-4.685451030731201,1.5860553979873655,60.82709503173828,24.97,2
-0.1282652467489242,-0.7462524175643921,0.4901742935180664,-5.682178974151611,1.707571506500244,65.48738098144531,24.97,2
-0.1382579654455185,-0.7922252416610718,0.4881035089492798,-6.341993808746338,1.7862714529037476,68.50562286376953,24.97,2
-0.1335146427154541,-0.8106592893600464,0.5035400986671448,-6.738406181335449,1.79020893573761,70.44989013671875,24.97,2
-0.1136819869279861,-0.8169130086898804,0.519056499004364,-7.51954174041748,1.792739748954773,71.69954681396484,24.97,2
-0.1625076979398727,-0.7649639844894409,0.5066344738006592,-9.14223861694336,1.7943649291992188,72.50202178955078,24.97,2
-0.1714605242013931,-0.7707980275154114,0.5154523253440857,-11.58810329437256,1.7954081296920776,73.01714324951172,24.97,2
-0.1716090142726898,-0.7577497363090515,0.5267093181610107,-14.18604850769043,1.7960776090621948,73.3477554321289,24.97,2
-0.1549112498760223,-0.7605710625648499,0.539531409740448,-15.731529235839844,1.7965072393417358,73.55992889404297,24.97,2
-0.1441953927278518,-0.7679793834686279,0.547760009765625,-16.103567123413086,1.7967829704284668,73.69609069824219,24.97,2
-0.1485140323638916,-0.7727336883544922,0.5474429726600647,-17.452917098999023,1.7969599962234497,73.7834701538086,24.97,2
-0.1512854993343353,-0.7757847309112549,0.5416417121887207,-21.97665977478028,1.796536922454834,73.83954620361328,24.97,2
-0.1642596125602722,-0.7721449136734009,0.532321035861969,-29.12150764465332,1.7962653636932373,73.87553405761719,24.97,2
-0.1669878810644149,-0.7754068970680237,0.5263395309448242,-36.80559158325195,1.796091079711914,73.89862823486328,24.97,2
-0.1631409525871276,-0.7775002121925354,0.5225009918212891,-44.46671676635742,1.7959792613983154,73.9134521484375,24.97,2
-0.1550744473934173,-0.784441351890564,0.5200375914573669,-53.12697982788086,1.795907497406006,73.92296600341797,24.97,2
-0.1498978286981582,-0.7832980155944824,0.5128589868545532,-63.29899215698242,1.7958614826202393,73.92906951904297,24.97,2
-0.140977993607521,-0.7881620526313782,0.48586106300354,-74.57013702392578,1.7958319187164309,73.9329833984375,24.97,2
-0.1240582093596458,-0.7800880074501038,0.4293509125709533,-86.89773559570312,1.795812964439392,73.93550109863281,24.97,2
-0.1076022908091545,-0.7693087458610535,0.3762926459312439,-100.68788146972656,1.8453779220581048,73.9371109008789,24.97,2
-0.097041830420494,-0.7679890394210815,0.3310473561286926,-115.5993194580078,1.8771858215332031,73.93814849853516,24.97,2
-0.0902647301554679,-0.767142117023468,0.3076092898845672,-131.13002014160156,1.8975982666015625,73.93881225585938,24.97,2
-0.0691222548484802,-0.7777941226959229,0.2757747769355774,-147.11187744140625,1.9106978178024288,73.93923950195312,24.97,2
-0.0723475590348243,-0.7734344601631165,0.2385518997907638,-159.41018676757812,1.9191043376922607,73.93951416015625,24.97,2
-0.0968084707856178,-0.7706366777420044,0.2202621698379516,-157.26416015625,1.924499154090881,73.93968963623047,24.97,2
-0.1292994022369384,-0.7856345176696777,0.2309159785509109,-130.318115234375,1.927961349487305,73.93980407714844,24.97,2
-0.1501502096652984,-0.8064548373222351,0.2265574187040329,-76.58016204833984,1.930183172225952,73.93987274169922,24.97,2
-0.1747266054153442,-0.8757938742637634,0.2181625813245773,-2.9760868549346924,1.9357404708862305,73.86109924316406,24.97,2
-0.2464760690927505,-0.9762694239616394,0.2463618963956833,75.84275817871094,1.939306735992432,73.810546875,24.97,2
-0.2869229614734649,-1.0575422048568726,0.2532630562782287,141.84356689453125,1.941595435142517,73.77810668945312,24.97,2
-0.3632594347000122,-1.1656761169433594,0.2688873708248138,185.5747833251953,1.9430640935897827,73.75729370117188,24.97,2
-0.4346388876438141,-1.2350702285766602,0.284511923789978,211.6148223876953,1.9440066814422607,73.74393463134766,24.97,2
-0.4580549895763397,-1.2180278301239014,0.2889410853385925,228.4798583984375,1.9446115493774407,73.73535919189453,24.97,2
-0.4562887847423553,-1.1567109823226929,0.2861856818199157,240.01937866210932,1.9449996948242188,73.7298583984375,24.97,2
-0.4551553428173065,-1.0949703454971311,0.273221880197525,248.2631072998047,1.94524884223938,73.72632598876953,24.97,2
-0.45442795753479,-1.0441532135009766,0.2481091469526291,256.1472473144531,1.9509172439575195,73.72406005859375,24.97,2
-0.4371678531169891,-1.0059438943862915,0.2263954579830169,265.5023498535156,1.9545549154281616,73.72260284423828,24.97,2
-0.3981024324893951,-0.9926189184188844,0.2012653201818466,275.9518737792969,1.9568893909454343,73.72167205810547,24.97,2
-0.3674347102642059,-0.984067678451538,0.1795404702425003,283.2274169921875,1.9583874940872192,73.72107696533203,24.97,2
-0.3365583717823028,-0.9953733086586,0.1488053798675537,277.8974609375,1.9593489170074463,73.72068786621094,24.97,2
-0.3055481910705566,-1.0250197649002075,0.112288050353527,251.007553100586,1.959965825080872,73.72044372558594,24.97,2
-0.2800498604774475,-1.0552406311035156,0.0832555592060089,201.08523559570312,1.9603617191314693,73.72028350830078,24.97,2
-0.2300998568534851,-1.1082212924957275,0.0422330759465694,131.7891845703125,1.960615873336792,73.72018432617188,24.97,2
-0.1812514960765838,-1.1646124124526978,0.0103094326332211,48.75254440307617,1.9639921188354488,73.7201156616211,24.97,2
-0.1387078762054443,-1.167214274406433,-0.0101773226633667,-35.0448112487793,1.966158747673035,73.72007751464844,24.97,2
-0.1226013749837875,-1.0961129665374756,-0.0121289938688278,-100.60421752929688,1.967549204826355,73.72004699707031,24.97,2
-0.1178629249334335,-1.005702018737793,-0.0077836900018155,-138.15525817871094,1.9684414863586424,73.72003173828125,24.97,2
-0.0924309641122818,-0.8861059546470642,0.0006026503979228,-153.58352661132812,1.9690141677856443,73.72002410888672,24.97,2
-0.0537190996110439,-0.8205516338348389,0.0003867463383357,-156.4375762939453,1.9693816900253296,73.72001647949219,24.97,2
-0.0064849527552723,-0.8400581479072571,-0.0053495829924941,-151.00726318359375,1.969617486000061,73.72000885009766,24.97,2
0.0182294286787509,-0.8973585367202759,-0.020226377993822,-140.4647216796875,1.9697688817977903,73.72000885009766,24.97,2
0.0172963719815015,-0.9453261494636536,-0.0297734476625919,-129.16717529296875,1.9730795621871948,73.72000885009766,24.97,2
-0.0112912822514772,-0.9537179470062256,-0.0191068854182958,-118.2807388305664,1.9752042293548584,73.72000885009766,24.97,2
-0.0408327430486679,-0.9367122054100036,-0.0066639240831136,-105.6733856201172,1.976567625999451,73.72000885009766,24.97,2
-0.0821818485856056,-0.9034078121185304,0.0237123500555753,-91.04093170166016,1.9774426221847528,73.72000885009766,24.97,2
-0.1087173223495483,-0.8652416467666626,0.0544016398489475,-77.19036102294922,1.9780040979385376,73.72000885009766,24.97,2
-0.125746265053749,-0.8407487869262695,0.0796940401196479,-65.99468231201172,1.9783644676208496,73.72000885009766,24.97,2
-0.1590655595064163,-0.8250306844711304,0.1071207895874977,-56.40603256225586,1.978595733642578,73.72000885009766,24.97,2
-0.1916435062885284,-0.820541501045227,0.1359172463417053,-47.07484436035156,1.9787441492080688,73.72000885009766,24.97,2
-0.2237457036972046,-0.8400516510009766,0.1599949300289154,-38.52508163452149,1.97700297832489,73.59461975097656,24.99,2
-0.2499448210000991,-0.8805610537528992,0.1810443848371505,-31.77010536193848,1.9758856296539309,73.51415252685547,24.99,2
-0.2667579054832458,-0.9289487600326538,0.1945527046918869,-26.525177001953125,1.9751684665679927,73.46250915527344,24.99,2
-0.2831453680992126,-0.993587851524353,0.1920260190963745,-21.75849723815918,1.9747083187103271,73.42936706542969,24.99,2
-0.2992596626281738,-1.0574605464935305,0.1848067641258239,-17.05511474609375,1.9744130373001096,73.40809631347656,24.99,2
-0.2984053492546081,-1.1432325839996338,0.1857716292142868,-12.81151294708252,1.974223494529724,73.39444732666016,24.99,2
-0.3146504163742065,-1.248656153678894,0.1584019660949707,-9.425436973571776,1.9741019010543823,73.38568878173828,24.99,2
-0.3474666476249695,-1.2827242612838743,0.1296421289443969,-6.743722438812256,1.9740238189697263,73.38006591796875,24.99,2
-0.3797217905521393,-1.198229432106018,0.0887946337461471,-4.456705570220947,1.9735147953033447,73.37645721435547,24.99,2
-0.3836279511451721,-1.093625545501709,0.0625810623168945,-2.569868564605713,1.973188161849976,73.3741455078125,24.99,2
-0.3749391436576843,-0.9985079765319824,0.0401609241962432,-1.0114952325820925,1.972978472709656,73.3726577758789,24.99,2
-0.335776537656784,-0.9822492003440856,0.0089796464890241,0.604781985282898,1.972843885421753,73.3717041015625,24.99,2
-0.2938508987426758,-1.0221952199935913,-0.0110307037830352,2.261801242828369,1.9727575778961184,73.37109375,24.99,2
-0.2277610152959823,-1.103808045387268,-0.0238721948117017,3.3789196014404297,1.972702145576477,73.3707046508789,24.99,2
-0.1741527765989303,-1.1337913274765017,-0.0321131236851215,3.723233938217163,1.972666621208191,73.37045288085938,24.99,2
-0.1397500932216644,-1.0970550775527954,-0.048597227782011,3.679084300994873,1.9726438522338867,73.37029266357422,24.99,2
-0.1512590795755386,-1.0230998992919922,-0.0647735521197319,3.5540220737457275,1.9740062952041624,73.37018585205078,24.99,2
-0.1698404401540756,-0.9532486796379088,-0.0695568099617958,3.323296308517456,1.9748806953430176,73.3701171875,24.99,2
-0.1873626559972763,-0.8804333209991455,-0.0558331049978733,2.963857889175415,1.975441813468933,73.37007904052734,24.99,2
-0.1930096298456192,-0.8281068205833435,-0.0358304716646671,2.611383438110352,1.975801944732666,73.37004852294922,24.99,2
-0.1854379922151565,-0.7889289259910583,-0.0062006125226616,2.3421945571899414,1.976033091545105,73.37003326416016,24.99,2
-0.1749811768531799,-0.7749823331832886,0.0184119008481502,2.054802179336548,1.9761813879013064,73.37002563476562,24.99,2
-0.1682705879211425,-0.7828255295753479,0.0286090206354856,1.608842372894287,1.976276516914368,73.3700180053711,24.99,2
-0.1639641225337982,-0.8494343757629395,0.0351529456675052,0.8748290538787842,1.9763375520706177,73.37001037597656,24.99,2
-0.1612004786729812,-0.9089733958244324,0.0449502356350421,-0.130022183060646,1.9754585027694704,73.37001037597656,24.99,2
-0.1426336020231247,-0.98636656999588,0.0456397980451583,-0.9969974756240844,1.974894404411316,73.37001037597656,24.99,2
-0.1475117802619934,-1.0976085662841797,0.046082317829132,-1.3420004844665527,1.9745323657989504,73.37001037597656,24.99,2
-0.1450445353984832,-1.168997287750244,0.0463663004338741,-1.5598208904266355,1.974300026893616,73.37001037597656,24.99,2
-0.177047848701477,-1.1644304990768433,0.0577440932393074,-2.4949374198913574,1.9741510152816768,73.37001037597656,24.99,2
-0.2143790572881698,-1.1279131174087524,0.0818390324711799,-4.216387271881104,1.9740554094314573,73.37001037597656,24.99,2
-0.2495316267013549,-1.0261095762252808,0.1084973216056823,-5.783267021179199,1.9739940166473389,73.37001037597656,24.99,2
-0.238503873348236,-0.9607778787612916,0.1032139807939529,-6.276492118835449,1.9739545583724976,73.37001037597656,24.99,2
-0.2090357989072799,-0.9412428736686708,0.0942256674170494,-5.643632888793945,1.974847435951233,73.02249908447266,24.97,2
-0.1789293438196182,-0.9510974884033204,0.0772619321942329,-4.549645900726318,1.9754204750061035,72.79948425292969,24.97,2
-0.1708042919635772,-0.9574216604232788,0.066375583410263,-3.654128789901733,1.975788235664368,72.65636444091797,24.97,2
-0.1935789734125137,-0.9390890002250672,0.0369982533156871,-3.158254146575928,1.9760242700576784,72.56452178955078,24.97,2
-0.252976655960083,-0.916128635406494,0.0069500245153903,-2.8436129093170166,1.976175665855408,72.50558471679688,24.97,2
-0.3022902309894562,-0.8901984691619873,-0.0067354231141507,-2.401661872863769,1.976272821426392,72.46775817871094,24.97,2
-0.3339368402957916,-0.8567646145820618,-0.004322406835854,-1.6952991485595703,1.9763351678848269,72.4434814453125,24.97,2
-0.3430502414703369,-0.8297109603881836,0.0084216762334108,-0.8085045218467712,1.976375222206116,72.42790222167969,24.97,2
-0.3321053981781006,-0.8179472088813782,0.0389911942183971,0.036447562277317,1.9750237464904783,72.41790771484375,24.97,2
-0.3082883059978485,-0.8271912336349487,0.0810000449419021,0.6503406763076782,1.9741564989089968,72.41149139404297,24.97,2
-0.2874060869216919,-0.8443191051483154,0.1191544607281684,1.0407193899154663,1.973599910736084,72.4073715209961,24.97,2
-0.2740050852298736,-0.9000929594039917,0.1436397731304168,1.366476058959961,1.9732427597045896,72.40473175048828,24.97,2
-0.2654050886631012,-0.9582765102386476,0.1537552624940872,1.7367438077926636,1.973013520240784,72.40303802490234,24.97,2
-0.2654838860034942,-1.0403975248336792,0.1602467894554138,2.103332996368408,1.972866415977478,72.40194702148438,24.97,2
-0.2431433498859405,-1.160271406173706,0.1588149070739746,2.349336624145508,1.9727720022201536,72.40125274658203,24.97,2
-0.2288064807653427,-1.2539929151535034,0.152298241853714,2.414060592651367,1.972711443901062,72.40080261230469,24.97,2
-0.2587903141975403,-1.2581602334976196,0.1313228905200958,2.3481194972991943,1.97542691230774,72.4005126953125,24.97,2
-0.3004233241081238,-1.2216501235961914,0.1066665723919868,2.148169040679932,1.9771695137023928,72.40032958984375,24.97,2
-0.3103476464748382,-1.13664448261261,0.0740502402186393,1.729663610458374,1.9782878160476685,72.40021514892578,24.97,2
-0.2719343304634094,-1.0820927619934082,0.0419234074652195,1.1601545810699463,1.979005455970764,72.40013885498047,24.97,2
-0.247282862663269,-1.0638779401779177,0.0101107079535722,0.6155477166175842,1.9794659614562988,72.40009307861328,24.97,2
-0.2034741044044494,-1.1137642860412598,-0.0382937230169773,0.1048344671726226,1.9797616004943848,72.40006256103516,24.97,2
-0.136175736784935,-1.1681694984436035,-0.0413680300116539,-0.391292929649353,1.97995126247406,72.40003967285156,24.97,2
-0.13217194378376,-1.163899302482605,-0.0881231352686882,-0.706096351146698,1.980072975158692,72.4000244140625,24.97,2
-0.1463958621025085,-1.1107789278030396,-0.1013345494866371,-0.7755637764930725,1.984741449356079,72.40001678466797,24.97,2
-0.1667195111513137,-1.0542981624603271,-0.1042151004076004,-0.8129788637161255,1.987737417221069,72.40000915527344,24.97,2
-0.1797620505094528,-0.9732699394226074,-0.1004659011960029,-0.9767101407051086,1.9896600246429443,72.40000915527344,24.97,2
-0.1881320029497146,-0.8988795876502991,-0.0924621075391769,-1.217921257019043,1.990893840789795,72.40000915527344,24.97,2
-0.1823078095912933,-0.8175534605979919,-0.0649346336722374,-1.6378273963928225,1.9916856288909912,72.40000915527344,24.97,2
-0.1729723960161209,-0.7429719567298889,-0.0248779878020286,-2.398111820220948,1.9921938180923464,72.40000915527344,24.97,2
-0.1613837033510208,-0.6951098442077637,0.0008280626498162,-3.1690421104431152,1.992519855499268,72.40000915527344,24.97,2
-0.1595445126295089,-0.7035791277885437,0.0173247270286083,-3.344931602478028,1.9927290678024288,72.40000915527344,24.97,2
-0.1583642214536667,-0.7481986284255981,0.0279113352298736,-2.870264768600464,1.9924044609069824,72.0847396850586,24.97,2
-0.1520090103149414,-0.8440061211585999,0.0459007620811462,-2.2396366596221924,1.992196083068848,71.88241577148438,24.97,2
-0.1255395114421844,-0.9782609343528748,0.0462497919797897,-1.6880501508712769,1.9920624494552608,71.75257873535156,24.97,2
-0.1029551327228546,-1.1147979497909546,0.0352782271802425,-0.9220775365829468,1.991976618766785,71.66925811767578,24.97,2
-0.1052550971508026,-1.2360061407089231,0.033835083246231,0.2537514865398407,1.991921544075012,71.61578369140625,24.97,2
-0.1347199529409408,-1.274606227874756,0.038506731390953,1.431074857711792,1.9918862581253047,71.58146667480469,24.97,2
-0.2096065431833267,-1.1762264966964722,0.0694935992360115,1.9788239002227783,1.9918636083602903,71.5594482421875,24.97,2
-0.2464689016342163,-1.034723162651062,0.0781836360692977,1.714134693145752,1.991849064826965,71.5453109741211,24.97,2
-0.2477339506149292,-0.9607077836990356,0.0725648552179336,0.9674777388572692,1.998725414276123,71.53623962402344,24.97,2
-0.1925680339336395,-0.946795642375946,0.068959042429924,0.1730495542287826,2.003138303756714,71.5304183959961,24.97,2
-0.1459701806306839,-0.9490631818771362,0.0666450411081314,-0.3510990142822265,2.0059702396392822,71.52668762207031,24.97,2
-0.1272619068622589,-0.9337250590324402,0.0483667254447937,-0.4008613526821136,2.007787704467773,71.5242919921875,24.97,2
-0.1768315285444259,-0.9014908075332642,0.0254412051290273,-0.0243823248893022,2.0089540481567383,71.52275085449219,24.97,2
-0.2366313338279724,-0.8696091771125793,0.0219244752079248,0.3927664458751678,2.009702444076538,71.52176666259766,24.97,2
-0.2862029671669006,-0.8491494059562683,0.0364609658718109,0.4705920219421386,2.0101826190948486,71.52113342285156,24.97,2
-0.3124173879623413,-0.8304216861724854,0.0401918739080429,0.2160170525312423,2.010490894317627,71.5207290649414,24.97,2
-0.3180447518825531,-0.8351966738700867,0.0537817031145095,-0.0870749577879905,2.015738010406494,71.52046966552734,24.97,2
-0.3272538483142853,-0.8326631784439087,0.0792961940169334,-0.2493387907743454,2.019105195999145,71.52030181884766,24.97,2
-0.344359278678894,-0.842232882976532,0.1068654805421829,-0.3355574905872345,2.021266222000122,71.52019500732422,24.97,2
-0.3665320873260498,-0.8819608092308044,0.1525467336177826,-0.4517914950847626,2.0226528644561768,71.52012634277344,24.97,2
-0.3919568657875061,-0.924249231815338,0.2098512053489685,-0.5299663543701172,2.023542881011963,71.52008056640625,24.97,2
-0.4474574625492096,-1.012963056564331,0.2802125513553619,-0.4045882523059845,2.024113893508911,71.52005004882812,24.97,2
-0.550247848033905,-1.1146767139434814,0.2581931352615356,-0.1270861625671386,2.0244803428649902,71.52002716064453,24.97,2
-0.6889838576316833,-1.2415261268615725,0.2104756832122802,0.108319915831089,2.0247156620025635,71.52001953125,24.97,2
-0.8172010779380798,-1.4460818767547607,0.2078422456979751,0.4564316570758819,2.030834436416626,71.52001190185547,24.97,2
-0.7315502762794495,-1.4989850521087646,0.1557722836732864,1.2494592666625977,2.0347611904144287,71.52000427246094,24.97,2
-0.6597911715507507,-1.4713598489761353,0.1055634617805481,2.19903564453125,2.037281036376953,71.52000427246094,24.97,2
-0.5073826313018799,-1.380860447883606,0.078940100967884,2.611377239227295,2.038898229598999,71.52000427246094,24.97,2
-0.3759889304637909,-1.4011520147323608,0.1346258372068405,2.317112684249878,2.039936065673828,71.52000427246094,24.97,2
-0.4092212915420532,-1.4533584117889404,0.0919928848743438,1.7413524389266968,2.040601968765259,71.52000427246094,24.97,2
-0.4417434632778168,-1.520448088645935,0.0478401891887187,1.3217065334320068,2.041029453277588,71.52000427246094,24.97,2
-0.277887761592865,-1.4907313585281372,-0.0028855681885033,1.2243655920028689,2.0413036346435547,71.52000427246094,24.97,2
-0.1727345883846283,-1.3541076183319092,-0.0074495659209787,1.287287950515747,2.048365354537964,71.23698425292969,24.97,2
-0.1332422196865081,-1.2104525566101074,0.0008170716464519,1.1592868566513062,2.0528972148895264,71.05535125732422,24.97,2
-0.1078982874751091,-1.0007097721099854,0.0005243495688773,0.7762067914009094,2.0558054447174072,70.93878936767578,24.97,2
-0.0860362350940704,-0.821326732635498,0.0171298198401927,0.365569531917572,2.0576717853546143,70.8639907836914,24.97,2
-0.0832019746303558,-0.6726223826408386,0.0613729022443294,-0.0770825743675232,2.0588693618774414,70.81598663330078,24.97,2
-0.098176434636116,-0.5883880257606506,0.1177544370293617,-0.8125557899475098,2.059638023376465,70.7851791381836,24.97,2
-0.1133839562535286,-0.5511245727539062,0.1651324182748794,-1.843421936035156,2.060131311416626,70.76541137695312,24.97,2
-0.1399365961551666,-0.5216132402420044,0.2235257476568222,-2.8703951835632324,2.060447931289673,70.75272369384766,24.97,2
-0.1569765508174896,-0.4970768094062805,0.2665970027446747,-3.633342266082764,2.047797441482544,70.74458312988281,24.97,2
-0.1623140275478363,-0.4757329523563385,0.3166287541389465,-4.151618480682373,2.0396790504455566,70.7393569946289,24.97,2
-0.1657393127679824,-0.5124157071113586,0.326345145702362,-4.609608173370361,2.0344691276550293,70.73600769042969,24.97,2
-0.1511441469192505,-0.5807387828826904,0.3101894557476043,-4.960841178894043,2.031125783920288,70.73385620117188,24.97,2
-0.1025933846831321,-0.6805623173713684,0.2662350237369537,-4.82440185546875,2.028980255126953,70.73247528076172,24.97,2
-0.0770340785384178,-0.7390255331993103,0.2268320620059967,-4.045405864715576,2.0276033878326416,70.7315902709961,24.97,2
-0.0886204615235328,-0.7373594641685486,0.257523238658905,-3.2517199516296387,2.026719808578491,70.73101806640625,24.97,2
-0.0680670589208602,-0.7698768973350525,0.2660235166549682,-3.455310583114624,2.026152849197388,70.73065185546875,24.97,2
-0.0268881972879171,-0.8075380325317383,0.2322940975427627,-5.083479881286621,2.0257887840271,70.73042297363281,24.97,2
0.0163313504308462,-0.904477834701538,0.1770618557929992,-7.697513580322266,2.025555372238159,70.73027038574219,24.97,2
0.0272738430649042,-1.0170682668685913,0.1360192000865936,-10.575212478637695,2.0254054069519043,70.73017120361328,24.97,2
-0.0216816402971744,-1.150897741317749,0.0872892960906028,-13.174294471740724,2.0253093242645264,70.73011016845703,24.97,2
-0.1370650678873062,-1.2759662866592407,0.044821698218584,-15.26498031616211,2.025247573852539,70.73007202148438,24.97,2
-0.2223070561885833,-1.3674236536026,0.028763985261321,-17.204952239990234,2.025207996368408,70.73004913330078,24.97,2
-0.3161948919296264,-1.4597023725509644,0.007263520732522,-19.825624465942383,2.0251824855804443,70.73003387451172,24.97,2
-0.4100333452224731,-1.5189214944839478,-0.0065342388115823,-23.58531379699707,2.025166273117065,70.73002624511719,24.97,2
-0.4142757058143616,-1.4841538667678833,0.0237955749034881,-28.219263076782227,2.028369426727295,70.73001861572266,24.97,2
-0.4393893182277679,-1.4170597791671753,0.0712483748793602,-33.47516632080078,2.030424833297729,70.73001098632812,24.97,2
-0.4778968691825866,-1.351611614227295,0.1072986274957656,-39.36665344238281,2.0317440032958984,70.73001098632812,24.97,2
-0.5585865378379822,-1.2648285627365112,0.136031374335289,-45.89530563354492,2.032590627670288,70.73001098632812,24.97,2
-0.6159663200378418,-1.203538417816162,0.1712637245655059,-53.46338653564453,2.0331339836120605,70.73001098632812,24.97,2
-0.6527893543243408,-1.1418148279190063,0.205069363117218,-62.547584533691406,2.033482551574707,70.73001098632812,24.97,2
-0.6652247309684753,-1.1189974546432495,0.215568333864212,-71.97062683105469,2.0337061882019043,70.73001098632812,24.97,2
-0.6676072478294373,-1.1379412412643433,0.2167081832885742,-79.69084930419922,2.0338497161865234,70.73001098632812,24.97,2
-0.6579406261444092,-1.250858187675476,0.2006463557481765,-85.69136047363281,2.033482551574707,70.52938079833984,24.97,2
-0.6125527620315552,-1.3401150703430176,0.1679477095603943,-91.59137725830078,2.0332469940185547,70.40062713623047,24.97,2
-0.493861049413681,-1.319026231765747,0.107779175043106,-99.1214599609375,2.0330958366394043,70.31800079345703,24.97,2
-0.3841048777103424,-1.2719060182571411,0.0523731485009193,-109.83283996582033,2.03299880027771,70.26497650146484,24.97,2
-0.3136696815490722,-1.258460283279419,0.0056212027557194,-120.26070404052734,2.0329365730285645,70.23094940185547,24.97,2
-0.26846843957901,-1.2946137189865112,-0.0467726066708564,-117.66666412353516,2.0328965187072754,70.20911407470703,24.97,2
-0.2338631153106689,-1.356999397277832,-0.0915914848446846,-88.36597442626953,2.0328710079193115,70.19509887695312,24.97,2
-0.1948620826005935,-1.3970348834991455,-0.1427447646856308,-29.59884452819824,2.032854557037353,70.18610382080078,24.97,2
-0.1362468153238296,-1.4059340953826904,-0.1699742078781128,48.873477935791016,2.0305490493774414,70.18033599853516,24.97,2
-0.0818375870585441,-1.3724606037139893,-0.1818507313728332,129.07534790039062,2.029069423675537,70.1766357421875,24.97,2
-0.0413231030106544,-1.2334259748458862,-0.1670812964439392,192.3703765869141,2.028119802474976,70.17425537109375,24.97,2
-0.032116562128067,-1.0882238149642944,-0.1520053595304489,230.99041748046875,2.027510404586792,70.1727294921875,24.97,2
-0.0374038852751255,-0.9222703576087952,-0.1311349421739578,250.83056640625,2.027119398117065,70.1717529296875,24.97,2
-0.0575903058052063,-0.7933799028396606,-0.1065459549427032,261.58526611328125,2.0268683433532715,70.17112731933594,24.97,2
-0.0705447867512703,-0.7106654047966003,-0.0851683840155601,269.4865417480469,2.026707410812378,70.17072296142578,24.97,2
-0.0732604563236236,-0.679975152015686,-0.0434606187045574,276.3770751953125,2.026604175567627,70.17046356201172,24.97,2
-0.0750032141804695,-0.6770732402801514,-0.0110971992835402,277.31317138671875,2.0224063396453857,70.17029571533203,24.97,2
-0.0817193910479545,-0.6976020336151123,0.0208673290908336,261.4269104003906,2.019712448120117,70.1701889038086,24.97,2
-0.1028227731585502,-0.7779495120048523,0.0637714192271232,220.289306640625,2.017983675003052,70.17012023925781,24.97,2
-0.1163657084107399,-0.874294102191925,0.1025003418326377,154.3450927734375,2.016874313354492,70.17007446289062,24.97,2
-0.0970679074525833,-1.0256868600845337,0.1105610132217407,73.6887435913086,2.016162395477295,70.1700439453125,24.97,2
-0.0734881460666656,-1.17881977558136,0.1045383438467979,-4.020457267761231,2.0157055854797363,70.17002868652344,24.97,2
-0.0471604615449905,-1.3442649841308594,0.1118688881397247,-62.158329010009766,2.0154123306274414,70.1700210571289,24.97,2
-0.091840386390686,-1.3720693588256836,0.14456208050251,-96.1611557006836,2.0152242183685303,70.17001342773438,24.97,2
-0.1708933562040329,-1.345130443572998,0.1599449217319488,-112.57610321044922,2.017857551574707,70.17000579833984,24.97,2
-0.2384183257818222,-1.2046915292739868,0.1362300962209701,-118.44576263427734,2.019547462463379,70.17000579833984,24.97,2
-0.2649586498737335,-1.1089681386947632,0.1098157316446304,-117.2757797241211,2.020632028579712,70.17000579833984,24.97,2
-0.2484040558338165,-1.053136110305786,0.0928645133972168,-111.88551330566406,2.0213279724121094,70.17000579833984,24.97,2
-0.2209869474172592,-1.0229041576385498,0.0819861963391304,-104.35296630859376,2.0217747688293457,70.17000579833984,24.97,2
-0.20898999273777,-1.0035029649734497,0.0694073438644409,-94.93689727783205,2.022061347961426,70.17000579833984,24.97,2
-0.2236821353435516,-0.9910524487495422,0.0557371862232685,-84.02548217773438,2.022245407104492,70.17000579833984,24.97,2
-0.2443062514066696,-0.966269075870514,0.0357689186930656,-73.28653717041016,2.0223634243011475,70.17000579833984,24.97,2
-0.2855305075645447,-0.927973449230194,0.0117588844150304,-63.93367385864258,2.021062135696411,70.15209197998047,24.97,2
-0.3287791907787323,-0.8810064196586609,0.0019484007498249,-55.52763748168945,2.0202269554138184,70.14059448242188,24.97,2
-0.3509359061717987,-0.8452679514884949,-0.0099451774731278,-47.077186584472656,2.019690990447998,70.13321685791016,24.97,2
-0.370752602815628,-0.8111374974250793,-0.000784468371421,-38.5194206237793,2.0193471908569336,70.12847900390625,24.97,2
-0.3778720498085022,-0.7948322892189026,0.0218876730650663,-30.706029891967773,2.019126415252685,70.12544250488281,24.97,2
-0.3600497841835022,-0.7955641150474548,0.0588284432888031,-24.176416397094727,2.018984794616699,70.12349700927734,24.97,2
-0.3430147171020508,-0.824022650718689,0.0881326794624328,-18.54589080810547,2.018893957138061,70.12224578857422,24.97,2
-0.332082599401474,-0.8646767735481262,0.11253622174263,-13.356210708618164,2.0188355445861816,70.12144470214844,24.97,2
-0.3026758730411529,-0.9691351056098938,0.1393925547599792,-8.947417259216309,2.024765491485596,70.12092590332031,24.97,2
-0.2614132463932037,-1.0585615634918213,0.1454318612813949,-5.842249393463135,2.028571128845215,70.12059783935547,24.97,2
-0.1957488507032394,-1.1271458864212036,0.1157208979129791,-3.9068527221679688,2.031013250350952,70.1203842163086,24.97,2
-0.1760003119707107,-1.2383326292037964,0.1078496575355529,-2.625418186187744,2.032580614089966,70.12024688720703,24.97,2
-0.1801201552152633,-1.304088115692139,0.1083961203694343,-1.7672414779663086,2.033586263656616,70.12016296386719,24.97,2
-0.1323840767145156,-1.2511240243911743,0.0863557159900665,-1.4028069972991943,2.034231662750244,70.12010192871094,24.97,2
-0.0961520299315452,-1.1667547225952148,0.0666136741638183,-1.5164438486099243,2.0346460342407227,70.12006378173828,24.97,2
-0.0952914878726005,-1.084622502326965,0.0483465977013111,-1.936879277229309,2.034911870956421,70.12004089355469,24.97,2
-0.0555548183619976,-1.0151214599609375,0.0086349667981266,-2.5040442943573,2.0433452129364014,70.12002563476562,24.97,2
-0.0132607854902744,-0.9649218916893004,-0.0224474482238292,-3.133128881454468,2.048757314682007,70.1200180053711,24.97,2
0.0138810873031616,-1.011075496673584,-0.0367965772747993,-3.7302980422973633,2.05223035812378,70.12001037597656,24.97,2
0.0368969552218914,-1.06868314743042,-0.0572005733847618,-4.213839054107666,2.0544593334198,70.12001037597656,24.97,2
0.0908516347408294,-1.1224457025527954,-0.098283551633358,-4.613712310791016,2.05588960647583,70.12001037597656,24.97,2
0.1310744136571884,-1.1121652126312256,-0.1526371091604232,-4.988552570343018,2.056807518005371,70.12001037597656,24.97,2
0.1400937587022781,-1.0887744426727295,-0.1875181049108505,-5.383154392242432,2.057396650314331,70.12001037597656,24.97,2
0.1122952103614807,-1.0401769876480105,-0.1987071633338928,-5.854924201965332,2.057774782180786,70.12001037597656,24.97,2
0.088857926428318,-1.003392219543457,-0.2002898901700973,-6.279486656188965,2.0671985149383545,70.12001037597656,24.97,2
0.0682194530963897,-0.968590259552002,-0.1845122724771499,-6.276087760925293,2.0732460021972656,70.12001037597656,24.97,2
0.0437793172895908,-0.9462563991546632,-0.1687893271446228,-5.772346019744873,2.077126979827881,70.12001037597656,24.97,2
0.0113017242401838,-0.9375215768814088,-0.1642970144748687,-5.219789028167725,2.079617500305176,70.12001037597656,24.97,2
-0.0655182749032974,-0.9319160580635072,-0.1670118868350982,-4.854441642761231,2.0812158584594727,70.12001037597656,24.97,2
-0.1372080296278,-0.922721028327942,-0.1631563603878021,-4.1864914894104,2.082241535186768,70.12001037597656,24.97,2
-0.211203247308731,-0.9336134791374208,-0.1606821119785308,-2.593502283096313,2.082899808883667,70.12001037597656,24.97,2
-0.2810802161693573,-0.957396924495697,-0.1590942740440368,-0.1525135636329651,2.083322286605835,70.12001037597656,24.97,2
-0.3315210044384002,-0.9782575964927672,-0.1580752879381179,2.313199043273926,2.0982825756073,70.10567474365234,24.97,2
-0.3526954650878906,-1.002840280532837,-0.1518235951662063,3.8597257137298575,2.1078834533691406,70.09647369384766,24.97,2
-0.3606862425804138,-1.024213790893555,-0.1478116065263748,4.085525989532471,2.114044666290283,70.090576171875,24.97,2
-0.3490209281444549,-1.0267345905303955,-0.1508347243070602,3.3419530391693115,2.1179986000061035,70.08678436279297,24.97,2
-0.3191437125205993,-1.0395478010177612,-0.163970336318016,2.363210201263428,2.1205358505249023,70.08435821533203,24.97,2
-0.2887746691703796,-1.053368330001831,-0.1724000126123428,1.692118525505066,2.122164249420166,70.08279418945312,24.97,2
-0.2524922490119934,-1.0118576288223269,-0.166614145040512,1.4369966983795166,2.123209238052368,70.08179473876953,24.97,2
-0.2124149650335312,-0.9684250950813292,-0.1573033332824707,1.4559855461120603,2.123879909515381,70.0811538696289,24.97,2
-0.1810978949069976,-0.9741392731666564,-0.1513281911611557,1.5183275938034058,2.1298186779022217,70.08074188232422,24.97,2
-0.1665981709957122,-0.9834040999412536,-0.1418959200382232,1.3397979736328125,2.13362979888916,70.08047485351562,24.97,2
-0.1349019855260849,-0.978154182434082,-0.1190495043992996,0.931456744670868,2.136075735092163,70.08030700683594,24.97,2
-0.0865723267197609,-0.9803828597068788,-0.0875946655869484,0.6335811018943787,2.1376452445983887,70.0802001953125,24.97,2
-0.044361587613821,-0.9818130731582642,-0.067408762872219,0.5534814596176147,2.1386525630950928,70.08013153076172,24.97,2
-0.0060776146128773,-0.9883286952972412,-0.0656501650810241,0.469834953546524,2.139298915863037,70.08008575439453,24.97,2
0.0128930592909455,-1.003705620765686,-0.0701193660497665,0.3982425630092621,2.139713764190674,70.0800552368164,24.97,2
0.0026762492489069,-1.0079758167266846,-0.0729874446988105,0.5135146379470825,2.1399800777435303,70.08003234863281,24.97,2
-0.0374669581651687,-1.0051183700561523,-0.0804257839918136,0.6698887944221497,2.143364191055298,70.08002471923828,24.97,2
-0.0688263326883316,-0.9920891523361206,-0.0851992815732956,0.6090248227119446,2.145535945892334,70.08001708984375,24.97,2
-0.1001465246081352,-0.983727753162384,-0.088262639939785,0.4159151017665863,2.1469295024871826,70.08000946044922,24.97,2
-0.1314415633678436,-0.9839596152305604,-0.0846307501196861,0.2275020480155944,2.1478238105773926,70.08000946044922,24.97,2
-0.1683182418346405,-0.9729129076004028,-0.0823000147938728,-0.0259658955037593,2.14839768409729,70.08000946044922,24.97,2
-0.2087768912315368,-0.9602259397506714,-0.0696087330579757,-0.1957921981811523,2.148766040802002,70.08000946044922,24.97,2
-0.2459364831447601,-0.952084183692932,-0.0614642016589641,0.0140722813084721,2.1490025520324707,70.08000946044922,24.97,2
-0.2977722287178039,-0.9244682192802428,-0.0338464118540287,0.3744534850120544,2.14915418624878,70.08000946044922,24.97,2
-0.3422329723834991,-0.8955503106117249,-0.0105251315981149,0.3441973924636841,2.1538422107696533,70.08000946044922,24.97,2
-0.3539720177650451,-0.8881880044937134,0.0156366731971502,-0.04422452673316,2.156850814819336,70.08000946044922,24.97,2
-0.355907678604126,-0.928245484828949,0.0380235873162746,-0.350812554359436,2.1587815284729004,70.08000946044922,24.97,2
-0.3571498692035675,-0.9819409251213074,0.0523902215063571,-0.5941365957260132,2.160020589828491,70.08000946044922,24.97,2
-0.3635448217391968,-0.9996062517166138,0.0616099014878273,-0.9903205633163452,2.160815715789795,70.08000946044922,24.97,2
-0.3508554100990295,-0.954965114593506,0.0731243342161178,-1.2517337799072266,2.1613259315490723,70.08000946044922,24.97,2
-0.3315165340900421,-0.926317036151886,0.0637203082442283,-1.0755664110183716,2.161653518676758,70.08000946044922,24.97,2
-0.3303014934062958,-0.9695078134536744,0.0688809007406234,-0.8371222019195557,2.1618635654449463,70.08000946044922,24.97,2
-0.3295217454433441,-0.9748340845108032,0.0777904465794563,-1.053107738494873,2.1619985103607178,70.065673828125,24.95,2
-0.3010324835777282,-0.972654402256012,0.1003013998270034,-1.6825276613235474,2.162085056304932,70.05647277832031,24.95,2
-0.299543023109436,-0.9712556004524232,0.1203454062342643,-2.3229031562805176,2.1621406078338623,70.05057525634766,24.95,2
-0.3433693647384643,-0.9535646438598632,0.2059795558452606,-2.683703184127808,2.1621761322021484,70.04678344726562,24.95,2
-0.3602990508079529,-0.925418257713318,0.2161524444818496,-2.582064390182495,2.162199020385742,70.04435729980469,24.95,2
-0.41034796833992,-0.8961600065231323,0.2282785922288894,-1.8863050937652588,2.1622138023376465,70.04279327392578,24.95,2
-0.5096397995948792,-0.8661881685256958,0.2136693596839904,-0.6803008317947388,2.1622231006622314,70.04179382324219,24.95,2
-0.5901528596878052,-0.8693450689315796,0.1763051152229309,0.6166992783546448,2.162229061126709,70.04115295410156,24.95,2
-0.5914415717124939,-0.9385442733764648,0.1411313414573669,1.5242735147476196,2.158560514450073,70.04074096679688,24.95,2
-0.5586819648742676,-1.0781145095825195,0.0793744251132011,1.938321232795716,2.1562061309814453,70.04047393798828,24.95,2
-0.4816809594631195,-1.1732804775238037,0.0285468362271785,2.0428173542022705,2.1546952724456787,70.0403060913086,24.95,2
-0.3538973033428192,-1.2119613885879517,-0.004071382805705,1.9164178371429443,2.1537256240844727,70.04019927978516,24.95,2
-0.2215131372213363,-1.1640135049819946,-0.0306016504764556,1.5988519191741943,2.1531033515930176,70.04013061523438,24.95,2
-0.0917744040489196,-0.931723415851593,-0.0140406033024191,1.269666314125061,2.1527042388916016,70.04008483886719,24.95,2
0.1594176739454269,-0.6259153485298157,-0.0258037745952606,0.983179807662964,2.1524479389190674,70.04005432128906,24.95,2
0.2926294207572937,-0.4352630972862243,-0.0277549251914024,0.6739391088485718,2.152283430099488,70.04003143310547,24.95,2
0.2829548716545105,-0.5200310945510864,0.0157751329243183,0.4539907872676849,2.148505687713623,70.04002380371094,24.95,2
0.3887017965316772,-0.7479613423347473,0.0101235723122954,0.4274830222129822,2.1460814476013184,70.0400161743164,24.95,2
0.5629218220710754,-1.1965136528015137,-0.0774698853492736,0.3531506657600403,2.1445257663726807,70.04000854492188,24.95,2
0.4004352390766144,-1.4843686819076538,-0.0497157126665115,-0.063556857407093,2.143527269363404,70.04000854492188,24.95,2
0.1842052340507507,-1.6690975427627563,-0.048698004335165,-0.768049955368042,2.1428866386413574,70.04000854492188,24.95,2
-0.0721120163798332,-1.608517050743103,-0.0648382231593132,-1.4673508405685425,2.1424753665924072,70.04000854492188,24.95,2
-0.2813838720321655,-1.4576845169067385,-0.0248161163181066,-1.8802961111068728,2.142211437225342,70.04000854492188,24.95,2
-0.4660624563694,-1.1705645322799685,0.1408121287822723,-1.9160157442092896,2.14204216003418,70.04000854492188,24.95,2
-0.6797407269477844,-1.014296293258667,0.2023206055164337,-1.781305193901062,2.133211374282837,70.04000854492188,24.95,2
-0.8672471046447754,-0.9587945938110352,0.1578265875577926,-1.7163512706756592,2.127544403076172,70.04000854492188,24.95,2
-0.9260023832321168,-0.9231767654418944,0.0844906941056251,-1.678250074386597,2.1239075660705566,70.04000854492188,24.95,2
-0.9021326303482056,-0.9842858910560608,0.0486234910786151,-1.5463216304779053,2.1215736865997314,70.04000854492188,24.95,2
-0.5957301259040833,-1.19143545627594,-0.0079806614667177,-1.3434326648712158,2.1200759410858154,70.04000854492188,24.95,2
-0.1863832175731659,-1.3859477043151855,-0.0051215291023254,-1.0305187702178955,2.119114875793457,70.04000854492188,24.95,2
0.0987031906843185,-1.493981122970581,0.0023110718466341,-0.4284602105617523,2.1184980869293213,70.04000854492188,24.95,2
0.3320351839065552,-1.619288444519043,-0.0097124362364411,0.3555721640586853,2.1181020736694336,70.04000854492188,24.95,2
0.5433497428894043,-1.6101391315460205,-0.0454173050820827,0.8623015880584717,2.1127986907958984,70.02567291259766,24.97,2
0.6005904078483582,-1.5538876056671145,-0.023548437282443,0.8901376128196716,2.109395265579224,70.01647186279297,24.97,2
0.7548774480819702,-1.4394197463989258,-0.0319053530693054,0.7252898216247559,2.107211112976074,70.01057434082031,24.97,2
0.8426944613456726,-1.3267765045166016,-0.0540616661310195,0.6481606364250183,2.105809450149536,70.00678253173828,24.97,2
0.7479104399681091,-1.433617353439331,-0.0234981160610914,0.5843332409858704,2.104910135269165,70.00435638427734,24.97,2
0.591921329498291,-1.4573994874954224,0.0856802016496658,0.3534959852695465,2.10433292388916,70.00279235839844,24.97,2
0.5030120611190796,-1.321521520614624,0.2061245292425155,-0.0669178366661071,2.1039624214172363,70.00179290771484,24.97,2
0.4403574466705322,-1.301496148109436,0.210647702217102,-0.4907659590244293,2.103724718093872,70.00115203857422,24.97,2
0.3273782432079315,-1.3110361099243164,0.2303437292575836,-0.7197763919830322,2.1122939586639404,70.00074005126953,24.97,2
0.2324836105108261,-1.1772140264511108,0.2261901944875717,-0.7628474235534668,2.117793321609497,70.00047302246094,24.97,2
0.1435968279838562,-0.9569880962371826,0.1787424981594085,-0.8693045377731323,2.1213223934173584,70.00030517578125,24.97,2
-0.0030099863652139,-0.5749554634094238,0.187477707862854,-1.1776552200317385,2.123587131500244,70.00019836425781,24.97,2
-0.0523116029798984,-0.312995582818985,0.2266701161861419,-1.4615187644958496,2.125040531158448,70.00012969970703,24.97,2
0.0447982661426067,-0.1896670013666153,0.184648260474205,-1.486052632331848,2.1259732246398926,70.00008392333984,24.97,2
-0.0216310229152441,-0.2952483892440796,0.1968654692173004,-1.3979023694992063,2.1265718936920166,70.00005340576172,24.97,2
-0.0418704152107238,-0.4525688290596008,0.1991079896688461,-1.3162546157836914,2.126955986022949,70.00003051757812,24.97,2
-0.0044789249077439,-0.8949922919273376,0.2229382097721099,-0.8661918640136719,2.1249070167541504,70.0000228881836,24.97,2
-0.1708075404167175,-1.178914189338684,0.1878511011600494,0.253790020942688,2.1235921382904053,70.00001525878906,24.97,2
-0.064832255244255,-1.2435656785964966,0.3164741396903991,1.610228419303894,2.122748374938965,70.00000762939453,24.97,2
-0.0863878056406974,-1.1227197647094729,0.4158103168010711,2.49146032333374,2.122206926345825,70.00000762939453,24.97,2
-0.195383071899414,-1.0619611740112305,0.3843963742256164,2.4085378646850586,2.121859550476074,70.00000762939453,24.97,2
-0.2821232974529266,-0.9893831610679626,0.3922255933284759,1.187403440475464,2.1216366291046143,70.00000762939453,24.97,2
-0.2818104326725006,-0.8980245590209961,0.3972499370574951,-0.4703987836837768,2.1214935779571533,70.00000762939453,24.97,2
-0.2984029650688171,-0.8282003402709961,0.406072050333023,-1.3587347269058228,2.121401786804199,70.00000762939453,24.97,2
-0.2922577857971191,-0.794586718082428,0.4061357975006103,-1.5168213844299316,2.1433770656585693,70.00000762939453,24.97,2
-0.2715208530426025,-0.7786132097244263,0.394981175661087,-1.883382797241211,2.1574795246124268,70.00000762939453,24.97,2
-0.2638108432292938,-0.7795578837394714,0.3990183174610138,-1.9502397775650024,2.166529655456543,70.00000762939453,24.97,2
-0.2196785807609558,-0.7689685225486755,0.4407935440540313,-0.4275591969490051,2.172337532043457,70.00000762939453,24.97,2
-0.1801614910364151,-0.7453795671463013,0.4340158402919769,2.1187777519226074,2.176064729690552,70.00000762939453,24.97,2
-0.2555616199970245,-0.7750237584114075,0.4184707403182983,3.967824697494507,2.178456544876098,70.00000762939453,24.97,2
-0.3207424283027649,-0.7660588026046753,0.3972992300987243,4.599137306213379,2.1799914836883545,70.00000762939453,24.97,2
-0.2394206672906875,-0.7938922643661499,0.4620814323425293,4.52421236038208,2.180976390838623,70.00000762939453,24.97,2
-0.3047863245010376,-0.7725697755813599,0.4812638163566589,4.157280445098877,2.194002866744995,69.98567199707031,24.97,2
-0.3355386853218078,-0.7700817584991455,0.4879761934280395,3.782084226608277,2.202362537384033,69.97647094726562,24.97,2
-0.3384804427623749,-0.7908762097358704,0.4978815913200378,3.4051671028137207,2.207727193832397,69.97057342529297,24.97,2
-0.3459660708904266,-0.8042208552360535,0.4986405372619629,2.529167413711548,2.211169958114624,69.96678161621094,24.97,2
-0.367563247680664,-0.7847958207130432,0.4599431455135345,0.9674626588821412,2.213379383087158,69.96435546875,24.97,2
-0.3310430943965912,-0.7723299264907837,0.4798915982246399,-0.4682410955429077,2.214797258377075,69.9627914428711,24.97,2
-0.3020088076591491,-0.7475367188453674,0.4982911348342895,-0.7303992509841919,2.2157070636749268,69.9617919921875,24.97,2
-0.339354008436203,-0.7540169954299927,0.5045011043548584,0.0614929609000682,2.2162909507751465,69.96115112304688,24.97,2
-0.3297333717346191,-0.7357845306396484,0.5252796411514282,0.4478762745857239,2.246962785720825,69.96073913574219,24.97,2
-0.3235593736171722,-0.7408773303031921,0.5330163240432739,-0.8769158720970154,2.266646146774292,69.9604721069336,24.97,2
-0.3307928144931793,-0.7273522615432739,0.5267857313156128,-3.246103048324585,2.279277801513672,69.9603042602539,24.97,2
-0.3298370540142059,-0.7410637736320496,0.5563739538192749,-4.383175849914551,2.287384033203125,69.96019744873047,24.97,2
-0.3124303817749023,-0.7666563391685486,0.5641664266586304,-3.307265520095825,2.292586326599121,69.96012878417969,24.97,2
-0.267673134803772,-0.7830801606178284,0.5579716563224792,-1.7641551494598389,2.295924663543701,69.9600830078125,24.97,2
-0.2557438313961029,-0.7712289690971375,0.5819850564002991,-1.5620423555374146,2.298067092895508,69.96005249023438,24.97,2
-0.2760771512985229,-0.7580257654190063,0.6029932498931885,-2.184678792953491,2.2994420528411865,69.96002960205078,24.97,2
-0.3003214597702026,-0.7607482671737671,0.6164751052856445,-2.5842509269714355,2.351278781890869,69.96002197265625,24.97,2
-0.2878911793231964,-0.7345065474510193,0.6251269578933716,-3.026967287063598,2.384544610977173,69.96001434326172,24.97,2
-0.2967074811458587,-0.7176660895347595,0.6362770199775696,-3.8305506706237793,2.4058926105499268,69.96000671386719,24.97,2
