acc_x,acc_y,acc_z,bvp,eda,hr,temp,label
0.0,0.0,0.0,0.0,0.0,0.0,25.53,2
-0.0390624962747097,-0.1458333283662796,0.0651041641831398,-3.9699997901916495,0.7592872977256775,9.796666145324709,25.53,2
-0.0788871943950653,-0.3372713625431061,0.1524390280246734,-11.60829257965088,1.7778435945510864,22.93853759765625,25.53,2
-0.1234946027398109,-0.493822693824768,0.2234219312667846,-20.934551239013672,2.663812160491944,34.36970138549805,25.53,2
-0.1667145192623138,-0.629388153553009,0.2912223935127258,-31.254085540771484,3.310173988342285,42.7093505859375,25.53,2
-0.1191201284527778,-0.6992127895355225,0.2986981272697449,-42.95234298706055,3.747788190841675,48.35564804077149,25.53,2
-0.22116519510746,-0.7450277805328369,0.2480725049972534,-54.84309005737305,4.034925937652588,52.060428619384766,25.53,2
-0.354206770658493,-0.7914379239082336,0.2152847796678543,-64.77587890625,4.220890998840332,54.45983505249024,25.53,2
-0.2163014709949493,-0.9499080181121826,0.1997540146112442,-72.98820495605469,4.303093910217285,56.00546646118164,25.53,2
-0.2227728217840194,-0.9678438305854796,0.1953663825988769,-82.24462127685547,4.355929374694824,56.99890899658203,25.53,2
-0.2213319540023803,-0.9401859641075134,0.19814532995224,-93.78694915771484,4.389857769012451,57.6368522644043,25.53,2
-0.2036153078079223,-0.9504182934761048,0.1943319290876388,-104.9610366821289,4.411636829376221,58.04635238647461,25.53,2
-0.2090372145175933,-0.9457904100418092,0.1862868815660476,-112.00373840332033,4.425614833831787,58.30917739868164,25.53,2
-0.1901261061429977,-0.942820370197296,0.1867214888334274,-114.52091217041016,4.434585571289063,58.47785186767578,25.53,2
-0.1835875511169433,-0.9409143328666688,0.1870003938674926,-116.5733871459961,4.440342426300049,58.58609771728516,25.53,2
-0.1793914586305618,-0.939691126346588,0.1871793866157531,-120.9644012451172,4.444036960601807,58.65556335449219,25.53,2
-0.1766986399888992,-0.9333083629608154,0.1872942447662353,-120.90550231933594,4.4514570236206055,58.70014190673828,25.53,2
-0.1749705374240875,-0.9292122721672058,0.1873679608106613,-101.88006591796876,4.456218719482422,58.72875213623047,25.53,2
-0.1738615334033966,-0.9321814179420472,0.1874152719974517,-56.76825714111328,4.459274768829346,58.74711227416992,25.53,2
-0.1731498390436172,-0.9340868592262268,0.1818478554487228,3.783803701400757,4.461236000061035,58.75889587402344,25.53,2
-0.1726931184530258,-0.935309648513794,0.178275004029274,59.7136116027832,4.462494373321533,58.76645660400391,25.53,2
-0.1779977977275848,-0.9248988032341005,0.1703843772411346,97.00334930419922,4.463302135467529,58.77130889892578,25.53,2
-0.1758042573928833,-0.9182177186012268,0.1653206348419189,113.42467498779295,4.463820457458496,58.77442169189453,25.53,2
-0.1799943447113037,-0.9251257181167604,0.156473234295845,114.551513671875,4.464153289794922,58.77642059326172,25.53,2
-0.1882810741662979,-0.9351566433906556,0.1507954895496368,107.87663269042967,4.508435249328613,58.77770233154297,25.53,2
-0.1880012452602386,-0.930398404598236,0.1471518278121948,98.68853759765624,4.536852836608887,58.77852630615234,25.53,2
-0.1934194415807724,-0.9329426288604736,0.1392157673835754,88.78324127197266,4.555089473724365,58.779052734375,25.53,2
-0.1968965381383896,-0.940173089504242,0.1397206336259842,78.27438354492188,4.566792964935303,58.77939224243164,25.53,2
-0.1991279274225235,-0.9560087323188782,0.140044629573822,68.05530548095703,4.57430362701416,58.77960968017578,25.53,2
-0.200559914112091,-0.966171145439148,0.1402525454759597,59.41939926147461,4.579123497009277,58.77975082397461,25.53,2
-0.1958810985088348,-0.9614972472190856,0.1347882002592086,52.44792175292969,4.582216739654541,58.77983856201172,25.53,2
-0.1984762847423553,-0.96969336271286,0.1312815099954605,47.35424423217773,4.584201812744141,58.7798957824707,25.53,2
-0.2001417279243469,-0.9693554043769836,0.1290311068296432,47.10552597045898,4.590066432952881,58.5721435546875,25.53,2
-0.1956127285957336,-0.969138503074646,0.1219891607761383,55.39720916748047,4.59382963180542,58.43881988525391,25.53,2
-0.192706286907196,-0.9745970964431764,0.1118722707033157,71.66668701171875,4.596244812011719,58.3532600402832,25.53,2
-0.1852433234453201,-0.9836978912353516,0.1053798273205757,91.29680633544922,4.597794532775879,58.29835510253906,25.53,2
-0.1804540157318115,-0.9895382523536682,0.0956155806779861,110.8050765991211,4.598789215087891,58.26311874389648,25.53,2
-0.1829782873392105,-0.9988840222358704,0.0837516710162162,129.81240844726562,4.599427700042725,58.24050521850586,25.53,2
-0.184598222374916,-1.0048816204071045,0.0761381015181541,148.56991577148438,4.599837303161621,58.22599411010742,25.53,2
-0.180040031671524,-1.0087305307388306,0.0656543746590614,167.07752990722656,4.600100040435791,58.21668243408203,25.53,2
-0.1827126145362854,-1.0000050067901611,0.0477309711277484,186.22010803222656,4.601186752319336,58.2107048034668,25.53,2
-0.1788299530744552,-0.9944054484367372,0.0362287648022174,206.526107788086,4.601883888244629,58.20687103271485,25.53,2
-0.1707405149936676,-0.9852141737937928,0.0232495367527008,225.54739379882807,4.602331638336182,58.20441055297852,25.53,2
-0.171146959066391,-0.9793157577514648,0.009322440251708,237.4711303710937,4.60261869430542,58.20283126831055,25.53,2
-0.1770055592060089,-0.9755305051803588,0.0003848311316687,235.1957855224609,4.6028032302856445,58.20181655883789,25.53,2
-0.1807652711868286,-0.9786990880966188,-0.0109485862776637,213.8558959960937,4.602921485900879,58.20116424560547,25.53,2
-0.183178037405014,-0.9807325005531312,-0.0182217210531234,173.11631774902344,4.602997303009033,58.20074844360352,25.53,2
-0.1847264170646667,-0.976439654827118,-0.0172914266586303,114.91152954101562,4.60304594039917,58.20048141479492,25.53,2
-0.1801223009824752,-0.9680870175361632,-0.0166944172233343,41.40011215209961,4.603077411651611,58.20030975341797,25.53,2
-0.1715698689222335,-0.9627267718315125,-0.0163112897425889,-39.247291564941406,4.603097438812256,58.20019912719727,25.53,2
-0.1716791838407516,-0.9536890983581544,-0.0104676466435194,-109.48824310302734,4.603110313415527,58.20012664794922,25.53,2
-0.1717493385076522,-0.953486979007721,-0.0067175328731536,-154.41795349121094,4.603118419647217,58.20008087158203,25.53,2
-0.1717943549156189,-0.9589550495147704,-0.0043109259568154,-174.19808959960938,4.603123664855957,58.20005035400391,25.53,2
-0.1718232482671737,-0.962464153766632,0.0028312704525887,-178.09661865234375,4.6031270027160645,58.20003128051758,25.53,2
-0.1718417853116989,-0.9591183066368104,0.0074147204868495,-172.50543212890625,4.603129386901856,58.20001983642578,25.53,2
-0.1774514615535736,-0.9569711685180664,0.0103561151772737,-160.87445068359375,4.60313081741333,58.20001220703125,25.53,2
-0.1810514330863952,-0.9555932283401488,0.0122437328100204,-147.49192810058594,4.599918365478516,58.200008392333984,25.53,2
-0.183361679315567,-0.9491111636161804,0.0134550975635647,-134.68711853027344,4.597856998443604,58.20000457763672,25.53,2
-0.1848442703485489,-0.9393535852432252,0.014232481829822,-121.10301971435548,4.59653377532959,58.20000457763672,25.53,2
-0.185795709490776,-0.9386895298957824,0.0147313615307211,-105.77926635742188,4.59568452835083,58.20000457763672,25.53,2
-0.1920040547847747,-0.9550566673278807,0.0150515139102935,-90.66464233398438,4.595139980316162,58.20000457763672,25.53,2
-0.1959882229566574,-0.9599624276161194,0.0208547431975603,-77.7298812866211,4.594790458679199,58.20000457763672,25.53,2
-0.1985450237989425,-0.9463173151016236,0.0357744731009006,-66.48063659667969,4.5945658683776855,58.20000457763672,25.53,2
-0.2001858353614807,-0.8927784562110901,0.0621424205601215,-55.657447814941406,4.594421863555908,58.20000457763672,25.53,2
-0.1956410408020019,-0.8416270017623901,0.0846616253256797,-45.483848571777344,4.591575145721436,59.658111572265625,25.53,2
-0.1983222216367721,-0.8759742379188538,0.0823198333382606,-36.90220260620117,4.589748382568359,60.593841552734375,25.53,2
-0.2000428587198257,-0.9372007250785828,0.0808169990777969,-29.85807037353516,4.588575839996338,61.19433975219727,25.53,2
-0.2011470645666122,-0.987687885761261,0.0686570182442665,-23.58925437927246,4.587823390960693,61.57970428466797,25.53,2
-0.2186489999294281,-1.0032943487167358,0.0496578961610794,-17.850234985351562,4.587340831756592,61.82700729370117,25.53,2
-0.2354785054922104,-1.0077118873596191,0.0374653525650501,-13.017256736755373,4.58703088760376,61.98571395874024,25.53,2
-0.2350831627845764,-0.9937534928321838,0.0408364310860633,-9.31385612487793,4.586832046508789,62.08756256103516,25.53,2
-0.2236339151859283,-0.9791980385780334,0.042999792844057,-6.478657245635986,4.586704254150391,62.152923583984375,25.53,2
-0.2162864357233047,-0.9586616158485411,0.0555836632847785,-4.143299102783203,4.585245132446289,62.19486618041992,25.53,2
-0.2115712463855743,-0.9398847818374634,0.0636592656373977,-2.300673246383667,4.584309101104736,62.22178268432617,25.53,2
-0.2029475420713424,-0.9278348684310912,0.0688417255878448,-1.2220767736434937,4.5837082862854,62.23905563354492,25.53,2
-0.2030111104249954,-0.9256997108459472,0.0721675306558609,-0.8738229274749756,4.583322525024414,62.25014114379883,25.53,2
-0.2030519098043441,-0.9299272298812866,0.0743018388748169,-0.7363154888153076,4.583075046539307,62.25725555419922,25.53,2
-0.2030780911445617,-0.932640254497528,0.0812692865729332,-0.3686302304267883,4.582916259765625,62.26182174682617,25.53,2
-0.2030948996543884,-0.9511746168136596,0.0913383737206459,0.1216918751597404,4.5828142166137695,62.26475143432617,25.53,2
-0.2031056880950927,-0.968666672706604,0.0978001281619072,0.404109239578247,4.582748889923096,62.266632080078125,25.53,2
-0.1863192766904831,-1.002283215522766,0.1019469127058982,0.3883067667484283,4.588215827941895,62.26783752441406,25.55,2
-0.1699489504098892,-1.035051941871643,0.0990103036165237,0.1990368664264679,4.591723918914795,62.26861190795898,25.55,2
-0.1594434231519699,-1.1008632183074951,0.0803324356675148,-0.0263203606009483,4.593975067138672,62.26910781860352,25.55,2
-0.1694948971271515,-1.2046725749969482,0.02916163764894,-0.2103499919176101,4.595419883728027,62.26942825317383,25.55,2
-0.1647498160600662,-1.3104758262634275,-0.0260679330676794,-0.2854586839675903,4.596347332000732,62.26963424682617,25.55,2
-0.1337158232927322,-1.3000054359436035,-0.0894999653100967,-0.1688606590032577,4.59694242477417,62.2697639465332,25.55,2
-0.1417888551950454,-1.259699463844299,-0.1302069872617721,0.0564334243535995,4.597324371337891,62.26984786987305,25.55,2
-0.152567446231842,-1.166660189628601,-0.1563304215669632,0.1651884466409683,4.597569465637207,62.269901275634766,25.55,2
-0.09790900349617,-1.011790752410889,-0.1507038325071334,0.1454167664051056,4.599562644958496,62.26993560791016,25.55,2
-0.0236479416489601,-0.912404477596283,-0.1358974725008011,0.1613890528678894,4.600841999053955,62.26995849609375,25.55,2
0.0352040790021419,-0.9157973527908324,-0.1207978203892707,0.1429785341024398,4.601662635803223,62.26997375488281,25.55,2
0.0561785995960235,-0.9291702508926392,-0.1055099591612815,-0.1160339936614036,4.602189540863037,62.26998519897461,25.55,2
0.0640410631895065,-0.8929700255393982,-0.0845035389065742,-0.475712388753891,4.602527618408203,62.26998901367188,25.55,2
0.0578911900520324,-0.8305543661117554,-0.0542295053601264,-0.5811431407928467,4.6027445793151855,62.26999282836914,25.55,2
0.0427490063011646,-0.7793040871620178,-0.0292036011815071,-0.3048752844333648,4.602883815765381,62.269996643066406,25.55,2
0.0218360777944326,-0.7464146018028259,-0.0131434155628085,0.1876841932535171,4.602972984313965,62.269996643066406,25.55,2
0.0028175883926451,-0.7197102308273315,0.0027608615346252,0.6005100607872009,4.595226764678955,63.09757232666016,25.55,2
-0.0149851581081748,-0.7249640226364136,0.018565084785223,0.6791439652442932,4.590255737304688,63.628662109375,25.55,2
-0.0432032570242881,-0.7563244700431824,0.0287073254585266,0.4322529435157776,4.587065696716309,63.969486236572266,25.55,2
-0.0613120086491107,-0.7988408803939819,0.0408138073980808,0.2093261182308197,4.585018157958984,64.1882095336914,25.55,2
-0.1009220406413078,-0.8877009749412537,0.048583049327135,0.2668887674808502,4.583704471588135,64.32857513427734,25.55,2
-0.1319392472505569,-0.9783129096031188,0.0591666772961616,0.3754806518554687,4.582861423492432,64.41864776611328,25.55,2
-0.1574420779943466,-1.0588535070419312,0.0771541893482208,0.1334846019744873,4.582320213317871,64.47645568847656,25.55,2
-0.1570150107145309,-1.121735453605652,0.088697537779808,-0.4230629801750183,4.581973075866699,64.5135498046875,25.55,2
-0.1623387187719345,-1.2236649990081787,0.0961053967475891,-0.8053011894226074,4.595062255859375,64.537353515625,25.55,2
-0.2049395889043808,-1.3618484735488892,0.1288482099771499,-0.6386035084724426,4.603462219238281,64.5526351928711,25.55,2
-0.2434739172458648,-1.3665601015090942,0.1610562056303024,-0.0981348678469657,4.608852863311768,64.56243896484375,25.55,2
-0.2290186136960983,-1.2240415811538696,0.1537365764379501,0.3669317960739136,4.612312316894531,64.56873321533203,25.55,2
-0.1973509341478347,-1.177363634109497,0.1154526099562645,0.5722377896308899,4.614532470703125,64.57276916503906,25.55,2
-0.1938217580318451,-1.1586039066314695,0.0908841639757156,0.5284451842308044,4.615957260131836,64.57536315917969,25.55,2
-0.1859591603279113,-1.0961850881576538,0.0863130986690521,0.2029878348112106,4.616871356964111,64.5770263671875,25.55,2
-0.1697178483009338,-1.0001505613327026,0.0945751965045929,-0.2459045052528381,4.617457866668701,64.57809448242188,25.55,2
-0.1536973416805267,-0.8881411552429199,0.0830840170383453,-0.5303952097892761,4.621506690979004,64.57878112792969,25.53,2
-0.1490140706300735,-0.8162599205970764,0.0589163154363632,-0.7165475487709045,4.624104976654053,64.57921600341797,25.53,2
-0.1572041660547256,-0.7701306939125061,0.0434068739414215,-1.0330511331558228,4.625772476196289,64.57949829101562,25.53,2
-0.1680578738451004,-0.7349298596382141,0.0334538072347641,-1.3149815797805786,4.626842498779297,64.57968139648438,25.53,2
-0.1694253832101822,-0.7179377675056458,0.0214687269181013,-1.2307976484298706,4.627529621124268,64.57979583740234,25.53,2
-0.159107431769371,-0.7462176084518433,0.0137773929163813,-0.8328459858894348,4.627970218658447,64.57987213134766,25.53,2
-0.146888181567192,-0.8035504221916199,-0.0023540114052593,-0.437743067741394,4.628252983093262,64.57991790771484,25.53,2
-0.1502421200275421,-0.879527747631073,-0.0183039922267198,-0.1985190510749817,4.628434658050537,64.57994842529297,25.53,2
-0.1579922586679458,-0.9786655902862548,-0.0285397712141275,-0.1847193092107772,4.624878883361816,64.57997131347656,25.53,2
-0.1629658490419387,-1.0422865152359009,-0.0295107308775186,-0.3191664516925812,4.622596740722656,64.5799789428711,25.53,2
-0.1605598479509353,-1.1446902751922607,-0.0525249354541301,-0.0686847940087318,4.621132373809815,64.57998657226562,25.53,2
-0.1702113598585128,-1.199211597442627,-0.0393052548170089,1.05935537815094,4.620192527770996,64.57999420166016,25.53,2
-0.2043940126895904,-1.1838202476501465,-0.0028327524196356,2.65024995803833,4.619589328765869,64.57999420166016,25.53,2
-0.1983416080474853,-1.129160761833191,0.0317687503993511,3.72493314743042,4.619202136993408,64.57999420166016,25.53,2
-0.1664686501026153,-1.1108767986297607,0.0427784547209739,3.784069538116455,4.618953704833984,64.57999420166016,25.53,2
-0.0732433497905731,-1.0823498964309692,0.0554416216909885,2.9586191177368164,4.6187944412231445,64.57999420166016,25.53,2
-0.0078189447522163,-0.9632830619812012,0.0971547588706016,1.7016297578811646,4.624660015106201,65.28218078613281,25.53,2
0.0117755746468901,-0.8420906066894531,0.1295216232538223,0.6191080212593079,4.628424167633057,65.73280334472656,25.53,2
-0.0484208539128303,-0.7419251799583435,0.1334994882345199,-0.0003580292104743,4.630839824676514,66.02198791503906,25.53,2
-0.1038447842001915,-0.6888403296470642,0.1248567104339599,-0.3692350685596466,4.632390022277832,66.20757293701172,25.53,2
-0.1674015372991562,-0.6827623844146729,0.1193102672696113,-0.7420969605445862,4.633384704589844,66.32666778564453,25.53,2
-0.1913952827453613,-0.7124485373497009,0.1325442045927047,-1.1784199476242063,4.634023189544678,66.4030990600586,25.53,2
-0.2067930847406387,-0.7594882845878601,0.1466347575187683,-1.7020421028137207,4.634432792663574,66.4521484375,25.53,2
-0.1942834109067917,-0.8456534147262573,0.1612750440835952,-2.2494444847106934,4.634696006774902,66.4836196899414,25.53,2
-0.1806576550006866,-0.9121447801589966,0.1706703305244445,-2.643726825714112,4.629815101623535,66.50382232666016,25.53,2
-0.1719134300947189,-1.0555750131607056,0.1822974681854248,-2.778529644012451,4.626682758331299,66.51678466796875,25.53,2
-0.160704106092453,-1.102838158607483,0.2009546309709549,-2.664413928985596,4.6246724128723145,66.52510070800781,25.53,2
-0.1479128450155258,-1.1499621868133545,0.201732188463211,-2.275914430618286,4.623382568359375,66.53044128417969,25.53,2
-0.1844863444566726,-1.2977570295333862,0.1966333985328674,-1.6146016120910645,4.622554779052734,66.53386688232422,25.53,2
-0.2191526591777801,-1.4037986993789673,0.2045568376779556,-0.8355341553688049,4.622023582458496,66.53606414794922,25.53,2
-0.2190084010362625,-1.2535369396209717,0.1928483247756958,0.0047711678780615,4.621682643890381,66.5374755859375,25.53,2
-0.2077202796936035,-1.1179232597351074,0.1573456078767776,1.0814170837402344,4.621463775634766,66.53838348388672,25.53,2
-0.206073984503746,-1.081274151802063,0.1289642304182052,2.306150197982788,4.6346354484558105,66.5389633178711,25.53,2
-0.2386041283607483,-1.0689504146575928,0.1163484677672386,3.006131649017334,4.643088340759277,66.53933715820312,25.53,2
-0.248284563422203,-1.038650631904602,0.1082523986697197,2.8248062133789062,4.648512840270996,66.5395736694336,25.53,2
-0.204116940498352,-0.9352393746376038,0.091861255466938,2.3931753635406494,4.651994228363037,66.53972625732422,25.53,2
-0.1645771563053131,-0.8520826697349548,0.075744591653347,2.3597946166992188,4.654228210449219,66.53982543945312,25.53,2
-0.1559961140155792,-0.8155108094215393,0.0598040670156478,2.417189359664917,4.655661582946777,66.53988647460938,25.53,2
-0.1728803962469101,-0.7976388335227966,0.0495743565261364,2.020530462265014,4.656581878662109,66.53992462158203,25.53,2
-0.1781179755926132,-0.7805718779563904,0.0374117419123649,1.2465040683746338,4.657172203063965,66.53995513916016,25.53,2
-0.1702836006879806,-0.7752170562744141,0.0184109285473823,0.3915208876132965,4.649747371673584,66.53997039794922,25.53,2
-0.1540604084730148,-0.7941717505455017,0.0062172999605536,-0.5189982652664185,4.644982814788818,66.53997802734375,25.53,2
-0.1492470651865005,-0.8343246579170227,-0.0128034185618162,-1.4544094800949097,4.64192533493042,66.53998565673828,25.53,2
-0.1461581438779831,-0.9328635334968568,-0.0250098202377557,-2.1227712631225586,4.639963150024414,66.53999328613281,25.53,2
-0.1497736275196075,-1.0016978979110718,-0.0216476377099752,-2.275829076766968,4.6387038230896,66.53999328613281,25.53,2
-0.1688871532678604,-1.0626651048660278,-0.0250877570360898,-2.030125617980957,4.637895584106445,66.53999328613281,25.53,2
-0.1867508888244629,-1.1689636707305908,-0.0440887510776519,-1.6969010829925537,4.63737678527832,66.53999328613281,25.53,2
-0.2094103544950485,-1.209191083908081,-0.0282936226576566,-1.4006575345993042,4.637043952941895,66.53999328613281,25.53,2
-0.2295496761798858,-1.1286489963531494,0.0210272036492824,-0.9526000022888184,4.644175052642822,67.1382827758789,25.53,2
-0.2200828343629837,-1.093755125999451,0.0470806956291198,-0.1599193215370178,4.648751258850098,67.52223205566406,25.53,2
-0.1356387138366699,-1.0937533378601074,0.0470070019364357,0.8575032353401184,4.651688098907471,67.76863098144531,25.53,2
-0.0422629229724407,-1.0377744436264038,0.0693508088588714,1.7217984199523926,4.653573036193848,67.9267578125,25.53,2
0.0176602862775325,-0.9458726048469543,0.1004831045866012,2.072246551513672,4.654782295227051,68.02822875976562,25.53,2
0.0001378063607262,-0.8141242265701294,0.1260597854852676,1.8708174228668213,4.6555585861206055,68.09334564208984,25.53,2
-0.0446937605738639,-0.7295756936073303,0.1312778890132904,1.4406155347824097,4.656056880950928,68.13513946533203,25.53,2
-0.13503959774971,-0.6865128874778748,0.1178332418203353,1.0498943328857422,4.656376361846924,68.16195678710938,25.53,2
-0.2154094576835632,-0.6812687516212463,0.1148030161857605,0.5017980933189392,4.654285907745361,68.17916870117188,25.53,2
-0.2501928806304931,-0.6946966648101807,0.1240539401769638,-0.4052377343177795,4.652944564819336,68.19021606445312,25.53,2
-0.2557215392589569,-0.7816827893257141,0.1411861926317215,-1.3885695934295654,4.652083873748779,68.19730377197266,25.53,2
-0.2424762099981308,-0.8710921406745911,0.1577784717082977,-2.05544114112854,4.651531219482422,68.20185089111328,25.53,2
-0.2115850150585174,-0.9676543474197388,0.1796219795942306,-2.354428291320801,4.651176929473877,68.20477294921875,25.53,2
-0.1861630529165268,-1.0911979675292969,0.2104332149028778,-2.3707547187805176,4.650949478149414,68.2066421508789,25.53,2
-0.1642509251832962,-1.164883375167847,0.2358038574457168,-2.1125388145446777,4.650803565979004,68.20784759521484,25.53,2
-0.1333956569433212,-1.2009748220443726,0.2296941876411438,-1.5993210077285769,4.650709629058838,68.2086181640625,25.53,2
-0.1359856277704239,-1.280113935470581,0.2201755791902542,-0.9081271290779114,4.6676344871521,68.20911407470703,25.53,2
-0.1768321394920349,-1.3812808990478516,0.2364581823348999,-0.1528746485710144,4.67849588394165,68.20943450927734,25.53,2
-0.1974472999572754,-1.2502819299697876,0.2189185470342636,0.6685650944709778,4.685466289520264,68.20964050292969,25.53,2
-0.1994813829660415,-1.1382254362106323,0.179673746228218,1.743851900100708,4.689939498901367,68.20977020263672,25.53,2
-0.2063845098018646,-1.1166939735412598,0.1432931423187255,2.842322587966919,4.69281005859375,68.20985412597656,25.53,2
-0.2388034164905548,-1.1196696758270264,0.1199461594223976,3.1675047874450684,4.694652080535889,68.20990753173828,25.53,2
-0.2540102303028106,-1.0711992979049685,0.0993656367063522,2.541447877883911,4.695834159851074,68.2099380493164,25.53,2
-0.2189868837594986,-0.9505294561386108,0.0805604681372642,1.8781527280807493,4.696592807769775,68.2099609375,25.53,2
-0.1853153705596923,-0.8562971353530884,0.062894620001316,1.7534244060516355,4.701670169830322,68.20997619628906,25.53,2
-0.1693047136068344,-0.8126175999641418,0.0459599196910858,1.6375551223754885,4.704928398132324,68.2099838256836,25.53,2
-0.1646277606487274,-0.7845866084098816,0.0350922048091888,1.058053731918335,4.707019329071045,68.20999145507812,25.53,2
-0.1728219091892242,-0.7498046159744263,0.0281179323792457,0.2849146127700805,4.7083611488342285,68.20999145507812,25.53,2
-0.1780804395675659,-0.7498745918273926,0.0236422456800937,-0.472769558429718,4.709222316741943,68.20999145507812,25.53,2
-0.1702595204114914,-0.7667128443717957,0.0207700058817863,-1.3602560758590698,4.709774971008301,68.20999145507812,25.53,2
-0.1540449559688568,-0.8223008513450623,0.007731219753623,-2.184156894683838,4.710129737854004,68.20999145507812,25.53,2
-0.1380416005849838,-0.8859629034996033,-0.0006363225984387,-2.530177593231201,4.710357189178467,68.20999145507812,25.53,2
-0.1389671266078949,-0.943610906600952,-0.0060061295516788,-2.465627670288086,4.714634895324707,68.75454711914062,25.53,2
-0.1563543975353241,-0.991801619529724,-0.0038543881382793,-2.309560775756836,4.717380046844482,69.10401153564453,25.53,2
-0.1731103211641311,-1.0731076002120972,-0.0080712987110018,-1.98370373249054,4.719141483306885,69.32827758789062,25.53,2
-0.1950588524341583,-1.136480689048767,0.006015854422003,-1.2730268239974976,4.720272064208984,69.47219848632812,25.53,2
-0.2091441601514816,-1.1211720705032349,0.0430450513958931,-0.2759864628314972,4.7209978103637695,69.56455993652344,25.53,2
-0.2013899832963943,-1.0777612924575806,0.0780038088560104,0.7901831865310669,4.721463203430176,69.62383270263672,25.53,2
-0.1572293639183044,-1.0890871286392212,0.0892427787184715,1.6714311838150024,4.721762180328369,69.66187286376953,25.53,2
-0.1120963022112846,-1.0907576084136963,0.0964552983641624,2.0255935192108154,4.721953868865967,69.686279296875,25.53,2
-0.0551436282694339,-1.0414496660232544,0.1122794300317764,1.8337130546569824,4.729880809783936,69.70194244384766,25.53,2
-0.0185946840792894,-0.965024471282959,0.1280322223901748,1.5565245151519775,4.734967708587647,69.71199798583984,25.53,2
-0.0007374497363343,-0.8544036746025085,0.132543683052063,1.4001363515853882,4.738232135772705,69.71844482421875,25.53,2
-0.039657674729824,-0.7778158187866211,0.124243326485157,1.0239170789718628,4.74032735824585,69.72258758544922,25.53,2
-0.0870255306363105,-0.7398617267608643,0.1077210903167724,0.2021038979291916,4.741671562194824,69.7252426147461,25.53,2
-0.1398146003484726,-0.7267005443572998,0.0859225168824195,-0.8304316401481628,4.742534637451172,69.7269515991211,25.53,2
-0.1736915856599807,-0.729449987411499,0.0719334483146667,-1.82623291015625,4.743088245391846,69.72804260253906,25.53,2
-0.1786385476589203,-0.7927899360656738,0.057358294725418,-2.7160611152648926,4.743443489074707,69.72874450683594,25.53,2
-0.1762154549360275,-0.8614267110824585,0.0480048023164272,-3.26560640335083,4.738622188568115,69.72919464111328,25.53,2
-0.1690626740455627,-0.9110716581344604,0.0420022681355476,-3.0307304859161377,4.735527992248535,69.72948455810547,25.53,2
-0.1644724309444427,-1.0045064687728882,0.0269546378403902,-1.97002637386322,4.733542442321777,69.72966766357422,25.53,2
-0.1559289097785949,-1.0868586301803589,0.0117001617327332,-0.701785147190094,4.7322678565979,69.72978973388672,25.53,2
-0.1168595254421234,-1.1005231142044067,-0.0260781552642583,0.2231589257717132,4.731450080871582,69.72986602783203,25.53,2
-0.0693959444761276,-1.2548342943191528,-0.1230931729078292,0.8919687867164612,4.7309250831604,69.72991180419922,25.53,2
-0.0837187469005584,-1.4714155197143557,-0.1741562783718109,1.600613355636597,4.730588436126709,69.72994232177734,25.53,2
-0.0985080674290657,-1.2185606956481934,-0.2181211858987808,2.4136383533477783,4.730372428894043,69.72996520996094,25.53,2
-0.0576190315186977,-1.0730863809585571,-0.2855197489261627,3.1969189643859863,4.749513626098633,69.72998046875,25.53,2
0.024598941206932,-1.2148358821868896,-0.3455655872821808,3.570610523223877,4.761797428131104,69.72998809814453,25.53,2
0.0717639252543449,-1.1602604389190674,-0.3729040026664734,3.172725915908813,4.769680500030518,69.72999572753906,25.53,2
0.0740428268909454,-1.0468682050704956,-0.3792526721954345,2.290435791015625,4.774739265441895,69.72999572753906,25.53,2
0.0363208763301372,-0.9685018062591552,-0.3777291178703308,1.6346683502197266,4.777985572814941,69.72999572753906,25.53,2
0.0009175487793982,-0.9406018257141112,-0.3879469335079193,1.360720157623291,4.780068874359131,69.72999572753906,25.53,2
-0.0441933684051036,-0.9003061652183533,-0.411297470331192,0.984291672706604,4.781405925750732,69.72999572753906,25.53,2
-0.0787407308816909,-0.8688489198684692,-0.4094891846179962,0.1910049766302108,4.782264232635498,69.72999572753906,25.53,2
-0.1233023330569267,-0.8654547929763794,-0.4083287119865417,-0.8017284870147705,4.777306079864502,70.2530517578125,25.53,2
-0.2022793740034103,-0.8632766604423523,-0.4243773221969604,-1.7110834121704102,4.7741241455078125,70.5887222290039,25.53,2
-0.2585600614547729,-0.8674766421318054,-0.4458719491958618,-2.459453582763672,4.772082328796387,70.80413818359375,25.53,2
-0.2890799939632416,-0.9261496663093568,-0.4652637243270874,-2.9182190895080566,4.7707719802856445,70.94237518310547,25.53,2
-0.3366548120975494,-1.131735920906067,-0.4777082502841949,-2.904526948928833,4.769931316375732,71.03108978271484,25.53,2
-0.4455544352531433,-1.2132893800735474,-0.4409122467041015,-2.544647455215454,4.769391536712647,71.08802032470703,25.53,2
-0.5322332382202148,-1.108888030052185,-0.266158789396286,-2.1488990783691406,4.769045352935791,71.12455749511719,25.53,2
-0.5374787449836731,-0.9803136587142944,-0.0868387669324874,-1.6692283153533936,4.768823146820068,71.14800262451172,25.53,2
-0.4232917726039886,-0.942584216594696,0.095411792397499,-0.7666956782341003,4.779697895050049,71.16304779052734,25.53,2
-0.0869177281856536,-1.0527182817459106,0.1619897335767746,0.5182651877403259,4.786676406860352,71.1727066040039,25.53,2
0.1849255114793777,-1.0338315963745115,0.1487378776073455,1.6187373399734497,4.791154861450195,71.17890167236328,25.53,2
0.2138367146253585,-1.1000800132751465,0.067462533712387,2.0276033878326416,4.7940287590026855,71.18287658691406,25.53,2
0.1652169674634933,-1.1705832481384275,0.0544891208410263,1.820672631263733,4.795873165130615,71.18543243408203,25.53,2
0.0836356431245803,-1.3389792442321775,0.0181746575981378,1.5159127712249756,4.797056674957275,71.18707275390625,25.53,2
-0.1198584586381912,-1.5757949352264404,-0.1954541951417923,1.477968692779541,4.797816276550293,71.18812561035156,25.53,2
-0.3344158828258514,-1.5990208387374878,-0.3381466865539551,1.5073570013046265,4.798303604125977,71.18879699707031,25.53,2
-0.4944975972175598,-1.373221516609192,-0.2114053070545196,1.1249682903289795,4.788058280944824,71.1892318725586,25.51,2
-0.6196199059486389,-1.0827744007110596,-0.0125167313963174,0.2777005136013031,4.781483173370361,71.18950653076172,25.51,2
-0.5207874178886414,-0.79002445936203,0.1263140738010406,-0.5490506291389465,4.777263641357422,71.18968200683594,25.51,2
-0.2390492260456085,-0.5573722124099731,0.1650277227163314,-1.079611897468567,4.7745561599731445,71.1897964477539,25.51,2
-0.1757991313934326,-0.4584493339061737,0.2514474391937256,-1.495329737663269,4.772818565368652,71.18987274169922,25.51,2
0.0439199209213256,-0.8763749003410339,0.1837555915117263,-1.8122695684432983,4.771703243255615,71.1899185180664,25.51,2
0.2744873464107513,-0.8814800977706909,0.241074800491333,-1.757717847824097,4.770987510681152,71.18994903564453,25.51,2
0.3272900879383087,-0.6272587180137634,0.3674233555793762,-1.4146082401275637,4.770528316497803,71.18997192382812,25.51,2
0.9209532737731934,-0.7775894403457642,0.0846512541174888,-1.1621769666671753,4.781250953674316,71.18997955322266,25.51,2
1.3019320964813232,-0.7229230999946594,-0.1975755393505096,-1.0288417339324951,4.788132190704346,71.18998718261719,25.51,2
1.0986005067825315,-0.6038748025894165,-0.4234746396541595,-0.825049877166748,4.792548179626465,71.18999481201172,25.51,2
0.8113762736320496,-0.5666608810424805,-0.5460525751113892,-0.5545475482940674,4.795382022857666,71.18999481201172,25.51,2
0.5710745453834534,-0.9738077521324158,-0.6974871158599854,-0.0226971395313739,4.797200679779053,71.18999481201172,25.51,2
0.1537673622369766,-1.3414489030838013,-0.7107024788856506,0.9383994340896606,4.798367500305176,71.18999481201172,25.51,2
-0.1644163429737091,-1.577379822731018,-0.5904345512390137,1.5587584972381592,4.799116611480713,71.18999481201172,25.51,2
-0.4189883172512054,-1.7287867069244385,-0.283744752407074,1.0898858308792114,4.799597263336182,71.18999481201172,25.51,2
-0.6271401643753052,-1.8203531503677368,-0.0813311114907264,0.35191610455513,4.813677310943604,71.67005920410156,25.51,2
-0.6543623208999634,-1.6943886280059814,0.1325329393148422,0.3476470708847046,4.8227128982543945,71.97814178466797,25.51,2
-0.6942230463027954,-1.4456186294555664,0.4768962264060974,0.4953756332397461,4.8285112380981445,72.17584991455078,25.51,2
-0.7701833248138428,-1.2579835653305054,0.7314754128456116,-0.0582668557763099,4.832232475280762,72.30272674560547,25.51,2
-0.7517569661140442,-1.0312124490737915,0.8836541175842285,-0.9437839388847352,4.834620475769043,72.38414764404297,25.51,2
-0.6895520091056824,-0.9584548473358154,0.8973470330238342,-1.576544165611267,4.836153030395508,72.4364013671875,25.51,2
-0.6608279943466187,-1.174858570098877,0.7605922222137451,-1.986195921897888,4.837136268615723,72.46993255615234,25.51,2
-0.7543500661849976,-1.470471739768982,0.4992998540401459,-2.295660257339477,4.837767601013184,72.491455078125,25.51,2
-0.5624672770500183,-1.6601792573928833,0.6730816960334778,-2.637559652328491,4.78997278213501,72.50526428222656,25.51,2
-0.0922659263014793,-1.7819225788116455,0.639062762260437,-3.161489963531494,4.75930118560791,72.51412200927734,25.51,2
0.3606221377849579,-1.8600504398345947,0.4660914540290832,-3.4547274112701416,4.739617824554443,72.51981353759766,25.51,2
0.3377842307090759,-1.9101884365081787,0.2431329190731048,-2.8439958095550537,4.726985931396484,72.5234603881836,25.51,2
0.3007370829582214,-1.628888726234436,0.1168442890048027,-1.563584804534912,4.718879699707031,72.52580261230469,25.51,2
0.3049512505531311,-1.3979867696762085,0.0302017405629158,-0.7812990546226501,4.713677406311035,72.52730560302734,25.51,2
0.1957001537084579,-1.1938295364379885,-0.047791551798582,-1.2071601152420044,4.710339069366455,72.52826690673828,25.51,2
0.1143935471773147,-1.0292264223098757,-0.0978431552648544,-2.179055690765381,4.708196640014648,72.52888488769531,25.51,2
0.0454223230481147,-0.9963647127151488,-0.1467567235231399,-2.3119492530822754,4.742627143859863,72.52928161621094,25.51,2
-0.0044372114352881,-0.9360915422439576,-0.178146630525589,-1.1755744218826294,4.76472282409668,72.529541015625,25.51,2
-0.0476297438144683,-0.8918139338493347,-0.1758997738361358,-0.0020751925185322,4.778902530670166,72.52970123291016,25.51,2
-0.1145326420664787,-0.8522035479545593,-0.1296756714582443,0.1527190208435058,4.788002014160156,72.5298080444336,25.51,2
-0.1574670672416687,-0.8211861252784729,-0.0832183808088302,0.4562638401985168,4.79384183883667,72.52987670898438,25.51,2
-0.1962154656648636,-0.7900853753089905,-0.0254158936440944,2.743285655975342,4.797589302062988,72.52992248535156,25.51,2
-0.226679727435112,-0.7589311599731445,0.0116784153506159,6.374840259552002,4.799994468688965,72.52995300292969,25.51,2
-0.2238388359546661,-0.727742612361908,0.0130923092365264,8.662371635437012,4.80153751373291,72.52996826171875,25.51,2
-0.2220157235860824,-0.758107602596283,0.0139996651560068,8.131300926208496,4.795642375946045,72.52997589111328,25.51,2
-0.2376390695571899,-0.8167785406112671,0.0257775038480758,5.314930438995361,4.791859149932861,72.52998352050781,25.51,2
-0.2700563371181488,-0.9327989816665648,0.0613247118890285,1.2361929416656494,4.789431095123291,72.52999114990234,25.51,2
-0.2796643376350403,-1.0240474939346311,0.1009301841259002,-2.7355196475982666,4.787872791290283,72.52999114990234,25.51,2
-0.2578413188457489,-1.0938011407852173,0.1543355733156204,-4.782775402069092,4.786872863769531,72.52999114990234,25.51,2
-0.2326410114765167,-1.1217716932296753,0.2221947312355041,-4.620564937591553,4.78623104095459,72.52999114990234,25.51,2
-0.2108711302280426,-1.1285260915756226,0.2769383788108825,-4.057898044586182,4.7858195304870605,72.52999114990234,25.51,2
-0.1969004720449447,-1.1160672903060913,0.2952763736248016,-4.499308109283447,4.785555362701416,72.52999114990234,25.51,2
-0.2047282308340072,-1.113669753074646,0.3126424252986908,-5.703301429748535,4.837258338928223,72.87750244140625,25.51,2
-0.215349406003952,-1.1009355783462524,0.3293847143650055,-7.181722164154053,4.870438098907471,73.10051727294922,25.51,2
-0.1941765993833542,-1.109556794166565,0.3289334177970886,-8.617717742919922,4.891731262207031,73.24363708496094,25.51,2
-0.1749913394451141,-1.1094917058944702,0.3230460286140442,-9.01620101928711,4.905395984649658,73.33547973632812,25.51,2
-0.1682771146297454,-1.0814610719680786,0.2744856476783752,-7.290760517120361,4.914165019989014,73.39441680908203,25.51,2
-0.1751638650894165,-1.0690703392028809,0.220931276679039,-3.639843463897705,4.919792652130127,73.43224334716797,25.51,2
-0.1907789260149002,-1.0891075134277344,0.1249876469373703,0.222116932272911,4.923404216766357,73.4565200805664,25.51,2
-0.1168331578373909,-1.0739773511886597,0.0130365788936614,2.216853141784668,4.925721645355225,73.47209930419922,25.51,2
-0.0022057308815419,-1.0362788438796997,-0.0420138426125049,1.5802820920944214,5.019258975982666,73.48209381103516,25.51,2
-0.0405999310314655,-1.0120861530303955,-0.010168744251132,-0.5012954473495483,5.079286098480225,73.48851013183594,25.51,2
-0.1044235453009605,-1.0021584033966064,-0.0009279403020627,-1.8657926321029663,5.117807865142822,73.49263000488281,25.51,2
-0.0894041210412979,-1.0013850927352903,-0.0229865964502096,-0.6563894152641296,5.142529010772705,73.49526977539062,25.51,2
-0.0797655135393142,-0.8945311307907104,-0.0539358928799629,3.376297235488892,5.158393859863281,73.49696350097656,25.51,2
0.0943532139062881,-0.887533962726593,-0.0514062754809856,8.411142349243164,5.168574810028076,73.49805450439453,25.51,2
0.1501148492097854,-0.92222797870636,-0.0553806871175766,12.505617141723633,5.175108432769775,73.49874877929688,25.51,2
0.1187261641025543,-0.9221014976501464,-0.0355401374399662,15.477142333984377,5.179301261901856,73.49919891357422,25.51,2
0.1657560020685196,-0.9220203757286072,0.0555612258613109,17.4091739654541,5.307770729064941,73.4994888305664,25.51,2
0.1455570757389068,-0.9723482728004456,0.1028292849659919,17.18735122680664,5.390215396881104,73.49967193603516,25.51,2
0.1102034747600555,-1.0214390754699707,0.1219676584005355,14.429717063903809,5.4431233406066895,73.49978637695312,25.51,2
0.065124474465847,-1.0081605911254885,0.117456242442131,10.56421947479248,5.477076530456543,73.49986267089844,25.51,2
0.0194020383059978,-1.0052369832992554,0.1089633032679557,6.83682918548584,5.498866081237793,73.49990844726562,25.51,2
0.0012555625289678,-1.0089585781097412,0.1147085726261138,3.3557016849517822,5.5128493309021,73.49993896484375,25.51,2
-0.0383786745369434,-0.994553565979004,0.1295911073684692,0.3227998912334442,5.521822929382324,73.49996185302734,25.51,2
-0.0974002927541732,-0.9797114729881288,0.1335440874099731,-1.7059409618377686,5.527581691741943,73.4999771118164,25.51,2
-0.1184836477041244,-0.9701866507530212,0.1416786462068557,-2.807245969772339,5.685381889343262,73.49998474121094,25.51,2
-0.1208181828260421,-0.9696719646453856,0.146898940205574,-3.574903726577759,5.786648750305176,73.49999237060547,25.51,2
-0.0943274796009063,-0.9637438654899596,0.1558468043804168,-4.110533237457275,5.851635932922363,73.49999237060547,25.51,2
-0.0829250440001487,-0.9655373692512512,0.15599125623703,-4.078099250793457,5.893341064453125,73.49999237060547,25.51,2
-0.0476187467575073,-0.944297194480896,0.1728772819042205,-3.72052264213562,5.92010498046875,73.49999237060547,25.51,2
-0.0641456171870231,-0.953057587146759,0.189311534166336,-3.931707382202149,5.937280654907227,73.49999237060547,25.51,2
-0.0803493857383728,-1.0090594291687012,0.1886625438928604,-5.08110237121582,5.948302745819092,73.49999237060547,25.51,2
-0.0515636093914508,-0.9890205264091492,0.2162349224090576,-6.395512580871582,5.955376148223877,73.49999237060547,25.51,2
-0.0274927839636802,-0.9537695646286012,0.2451248466968536,-6.887933254241943,6.1519951820373535,73.81168365478516,25.51,2
0.0047478112392127,-0.8751698136329651,0.2692624926567077,-6.372782707214356,6.278173923492432,74.01170349121094,25.51,2
-0.0417353212833404,-0.9534777998924256,0.2511660158634186,-5.2826828956604,6.359148025512695,74.14006805419922,25.51,2
-0.065967746078968,-0.970144748687744,0.256346046924591,-3.999159574508667,6.411112785339356,74.22244262695312,25.51,2
-0.0591276250779628,-0.8968740105628967,0.2820613980293274,-2.6989858150482178,6.444460391998291,74.27530670166016,25.51,2
-0.0883246734738349,-0.9226241111755372,0.2929662466049194,-1.4275346994400024,6.4658613204956055,74.30923461914062,25.51,2
-0.084670566022396,-0.9223557114601136,0.3055621385574341,-0.1207777559757232,6.479595184326172,74.33100891113281,25.51,2
-0.1047166660428047,-0.9613679051399232,0.3024499118328094,1.2372970581054688,6.48840856552124,74.34497833251953,25.51,2
-0.0895922258496284,-0.9024370908737184,0.3172459900379181,2.513662338256836,6.638052940368652,74.35394287109375,25.51,2
-0.085484005510807,-0.9149986505508424,0.3435345888137817,3.551297187805176,6.734086036682129,74.35969543457031,25.51,2
-0.0716520398855209,-0.8950710296630859,0.3660028576850891,4.213609218597412,6.795714378356934,74.36338806152344,25.51,2
-0.0739710256457328,-0.8934782147407532,0.3748239278793335,4.319793701171875,6.835264205932617,74.36576080322266,25.51,2
-0.0418725721538066,-0.8756626844406128,0.4028758704662323,3.692916870117188,6.860644817352295,74.36727905273438,25.51,2
-0.0156758558005094,-0.8978163599967957,0.4264757633209228,2.369901418685913,6.876932621002197,74.36825561523438,25.51,2
-0.0492442809045314,-0.8952400088310242,0.424827516078949,0.7398648262023926,6.887385368347168,74.36888122558594,25.51,2
-0.0651887878775596,-0.882391095161438,0.4181719720363617,-0.6322131752967834,6.894093036651611,74.3692855834961,25.51,2
-0.0698232799768447,-0.8797431588172913,0.4194986224174499,-1.4912384748458862,6.869936943054199,74.36954498291016,25.51,2
