acc_x,acc_y,acc_z,bvp,eda,hr,temp,label
0.0,0.0,0.0,0.0,0.0,0.0,28.49,2
-0.0598958283662796,-0.1484374850988388,0.0416666641831398,-8.34333324432373,0.1892658174037933,12.133333206176758,28.49,2
-0.1402439028024673,-0.3559451103210449,0.1017530485987663,-19.404146194458008,0.4431590139865875,28.409757614135746,28.49,2
-0.2151162773370742,-0.5364410281181335,0.1590012460947036,-28.80189323425293,0.6640023589134216,42.56744384765625,28.49,2
-0.2644015252590179,-0.6574461460113525,0.2007668912410736,-35.3539924621582,0.8251194953918457,52.896240234375,28.49,2
-0.297769695520401,-0.7503511309623718,0.2290440052747726,-39.19978713989258,0.9342026114463806,59.8892707824707,28.49,2
-0.330770194530487,-0.8113101720809937,0.2531509399414062,-40.48640060424805,1.0057767629623413,64.47770690917969,28.49,2
-0.3298256695270538,-0.8340523838996887,0.2743431329727173,-39.587852478027344,1.0521318912506104,67.44940948486328,28.49,2
-0.3459877371788025,-0.8542924523353577,0.2656338512897491,-37.4312629699707,1.0810760259628296,69.36370086669922,28.49,2
-0.3675650656223297,-0.8617069125175476,0.2600360512733459,-34.99602127075195,1.0996795892715454,70.5940933227539,28.49,2
-0.3870175182819366,-0.8776611089706421,0.2452484220266342,-32.91645050048828,1.111625909805298,71.38419342041016,28.49,2
-0.382712572813034,-0.8767078518867493,0.2357560694217682,-31.3630313873291,1.1192944049835205,71.89137268066406,28.49,2
-0.3911446928977966,-0.8816936016082764,0.2408588677644729,-29.91105842590332,1.1242161989212036,72.21688079833984,28.49,2
-0.3965561985969543,-0.8792955875396729,0.2497313767671585,-28.126585006713867,1.1273748874664309,72.42578887939453,28.49,2
-0.3888335824012756,-0.877756655216217,0.2498276084661483,-26.469087600708008,1.129401922225952,72.55985260009766,28.49,2
-0.3838776051998138,-0.8767690658569336,0.2610848844051361,-25.71707534790039,1.1307027339935305,72.64588928222656,28.49,2
-0.391892671585083,-0.8761352896690369,0.2627114057540893,-25.86859130859375,1.1232746839523315,72.70110321044922,28.49,2
-0.3970362842082977,-0.8701307773590088,0.2581574618816376,-26.7898178100586,1.1185078620910645,72.73653411865234,28.49,2
-0.3555549681186676,-0.8718752264976501,0.2552349865436554,-27.72851753234864,1.1154487133026123,72.75926971435547,28.49,2
-0.4017057120800018,-0.8953858017921448,0.2421639710664749,-27.96908187866211,1.11348557472229,72.77386474609375,28.49,2
-0.4145292937755584,-0.8992779850959778,0.2337757349014282,-27.33171272277832,1.1122257709503174,72.7832260131836,28.49,2
-0.4227587282657623,-0.8905802369117737,0.2283926457166671,-26.417543411254883,1.111417293548584,72.78923797607422,28.49,2
-0.4224421381950378,-0.8905962705612183,0.2305358648300171,-25.86670684814453,1.110898494720459,72.79309844970703,28.49,2
-0.4222389459609985,-0.8906065821647644,0.2263134866952896,-25.645767211914062,1.1105655431747437,72.79557037353516,28.49,2
-0.4221085608005523,-0.8906131982803345,0.2236038148403167,-26.07002830505371,1.070414662361145,72.79715728759766,28.49,2
-0.4220248758792877,-0.8906174302101135,0.2218648940324783,-27.624855041503903,1.0446481704711914,72.79817962646484,28.49,2
-0.4219711720943451,-0.8906201124191284,0.2207489609718322,-31.460054397583008,1.028112769126892,72.79883575439453,28.49,2
-0.4219367206096649,-0.8906218409538269,0.2200328111648559,-36.45414733886719,1.0175012350082395,72.79925537109375,28.49,2
-0.4219146072864532,-0.8906229734420776,0.2195732295513153,-41.14583587646485,1.0106914043426514,72.79952239990234,28.49,2
-0.4219004213809967,-0.8906236886978149,0.2192783057689666,-45.40700912475586,1.0063211917877195,72.79969787597656,28.49,2
-0.421891301870346,-0.8906241655349731,0.2190890312194824,-53.45096206665039,1.003516674041748,72.7998046875,28.49,2
-0.4218854606151581,-0.890624463558197,0.2189675718545913,-68.55834197998047,1.0017168521881104,72.79987335205078,28.49,2
-0.4218817055225372,-0.8906246423721313,0.2188896238803863,-86.39299774169922,1.0134150981903076,72.61003875732422,28.47,2
-0.4218792915344238,-0.8906247615814209,0.2188396006822586,-103.08673095703124,1.020922303199768,72.48821258544922,28.47,2
-0.4218777418136596,-0.8906248211860657,0.218807503581047,-120.0299072265625,1.0257400274276731,72.4100341796875,28.47,2
-0.4218767583370209,-0.8906248807907104,0.2187868952751159,-148.28213500976562,1.0288317203521729,72.35986328125,28.47,2
-0.4218761324882507,-0.8906249403953552,0.218773677945137,-184.88096618652344,1.030815839767456,72.32766723632812,28.47,2
-0.4218757152557373,-0.8906249403953552,0.2131674140691757,-218.92584228515625,1.032089114189148,72.3070068359375,28.47,2
-0.416277676820755,-0.8906249403953552,0.2095696479082107,-245.4742126464844,1.0329062938690186,72.29374694824219,28.47,2
-0.4126851856708526,-0.8906249403953552,0.2072608023881912,-277.0746154785156,1.0334306955337524,72.28524017333984,28.47,2
-0.4103797376155853,-0.8906249403953552,0.2057791203260421,-325.0579833984375,1.0406529903411863,72.27977752685547,28.47,2
-0.4089002311229706,-0.8906249403953552,0.2048282623291015,-377.7583923339844,1.045287847518921,72.27627563476562,28.47,2
-0.407950758934021,-0.8906249403953552,0.1986202746629715,-428.0081787109375,1.048262119293213,72.2740249633789,28.47,2
-0.4073414504528045,-0.8906249403953552,0.1946363449096679,-484.4881286621094,1.0501708984375,72.2725830078125,28.47,2
-0.4013526439666748,-0.896222710609436,0.1920796930789947,-571.5059814453125,1.0513958930969238,72.27165985107422,28.47,2
-0.3975093960762024,-0.8998150825500488,0.1904389858245849,-671.15673828125,1.0521819591522217,72.27106475830078,28.47,2
-0.3894452452659607,-0.8965226411819458,0.1893860697746276,-741.8851318359375,1.0526864528656006,72.27068328857422,28.47,2
-0.389867901802063,-0.9000075459480286,0.1887103766202926,-735.119384765625,1.0530102252960205,72.27043914794922,28.47,2
-0.3957369029521942,-0.902243971824646,0.1882767528295517,-534.781982421875,1.061939716339111,72.27027893066406,28.47,2
-0.3939055204391479,-0.903679132461548,0.1935962438583374,-213.1483917236328,1.0676701068878174,72.27017974853516,28.47,2
-0.3927302360534668,-0.8990023732185364,0.1970099955797195,91.09051513671876,1.0713475942611694,72.27011108398438,28.47,2
-0.3975737988948822,-0.8960011005401611,0.1992007493972778,321.0594482421875,1.0737075805664062,72.27007293701172,28.47,2
-0.4062798917293548,-0.8996728658676147,0.2118021845817566,470.5462036132813,1.075222134590149,72.2700424194336,28.47,2
-0.4230625033378601,-0.9076269268989564,0.2198890596628189,534.7186279296875,1.0761940479278564,72.27002716064453,28.47,2
-0.445028156042099,-0.912731409072876,0.2250787615776062,540.2720947265625,1.076817750930786,72.27001953125,28.47,2
-0.4703200161457062,-0.9048116207122804,0.2116158902645111,525.8013305664062,1.0772180557250977,72.27001190185547,28.47,2
-0.4865508675575256,-0.8941313624382019,0.2029761970043182,509.1562194824219,1.0783931016921997,72.27000427246094,28.47,2
-0.5081624388694763,-0.8872774243354797,0.191833958029747,481.6218872070313,1.079147219657898,72.27000427246094,28.47,2
-0.5388248562812805,-0.8772811889648438,0.1790857315063476,435.2053527832031,1.0796310901641846,72.27000427246094,28.47,2
-0.5640999674797058,-0.8708661794662476,0.165306881070137,388.17138671875,1.0799416303634644,72.27000427246094,28.47,2
-0.5691245198249817,-0.8667494058609009,0.162062183022499,356.5869140625,1.0801409482955933,72.27000427246094,28.47,2
-0.56675124168396,-0.8585097193717957,0.1599799245595932,341.197265625,1.0802688598632812,72.27000427246094,28.47,2
-0.5764237642288208,-0.8532219529151917,0.1530458778142929,324.27056884765625,1.0803509950637815,72.27000427246094,28.47,2
-0.5770332217216492,-0.8498285412788391,0.1541937738656997,294.02984619140625,1.0804036855697632,72.27000427246094,28.47,2
-0.5718265771865845,-0.8420530557632446,0.149332657456398,253.6471099853516,1.0841100215911863,72.20193481445312,28.43,2
-0.5684852600097656,-0.8314654231071472,0.1518108546733856,211.46690368652344,1.0864884853363037,72.15824890136719,28.43,2
-0.566340982913971,-0.8190731406211853,0.1534012109041214,170.0140380859375,1.088014841079712,72.13021850585938,28.43,2
-0.5537693500518799,-0.8167182803153992,0.1600195914506912,127.58773040771484,1.088994383811951,72.11222839355469,28.43,2
-0.5289083123207092,-0.8096092939376831,0.1698646545410156,89.06868743896484,1.089622974395752,72.1006851196289,28.43,2
-0.524149477481842,-0.7994493842124939,0.1761826574802398,58.91103744506836,1.0900263786315918,72.09327697753906,28.43,2
-0.5154977440834045,-0.7873315215110779,0.1802371740341186,36.70586395263672,1.090285301208496,72.0885238647461,28.43,2
-0.5043478012084961,-0.7739571928977966,0.1884369105100631,18.368141174316406,1.09045147895813,72.0854721069336,28.43,2
-0.4971923828125,-0.7821676731109619,0.2048945724964141,3.4796218872070312,1.0919352769851685,72.08351135253906,28.43,2
-0.4702093601226806,-0.8490121960639954,0.2098583877086639,-6.178866386413574,1.0928874015808103,72.0822525024414,28.43,2
-0.4249043464660644,-0.9198980331420898,0.2018483281135559,-11.413415908813477,1.093498468399048,72.0814437866211,28.43,2
-0.4014279544353485,-1.0269640684127808,0.1799146085977554,-14.69383144378662,1.09389066696167,72.08092498779297,28.43,2
-0.4031554758548736,-1.078879475593567,0.1826321333646774,-17.34714698791504,1.0941423177719116,72.08059692382812,28.43,2
-0.4210574328899383,-1.0450224876403809,0.1731805354356765,-18.6522274017334,1.094303846359253,72.08038330078125,28.43,2
-0.4045570194721222,-1.0176973342895508,0.1503217220306396,-18.09971237182617,1.0944074392318726,72.08024597167969,28.43,2
-0.3827724456787109,-0.9889660477638244,0.1468477994203567,-16.58080291748047,1.094473958015442,72.08016204833984,28.43,2
-0.3575968146324157,-0.9369413256645204,0.1558139771223068,-15.294370651245115,1.094975471496582,72.0801010131836,28.43,2
-0.3526360988616943,-0.8923592567443848,0.1671657413244247,-14.318344116210938,1.0952973365783691,72.08006286621094,28.43,2
-0.3662458956241607,-0.8525535464286804,0.1576573252677917,-13.036375045776367,1.0955039262771606,72.08003997802734,28.43,2
-0.3693821132183075,-0.8270084857940674,0.1459575891494751,-11.414767265319824,1.0956364870071411,72.08002471923828,28.43,2
-0.3601992130279541,-0.8050174117088318,0.1496449261903762,-10.044515609741213,1.0957216024398804,72.08001708984375,28.43,2
-0.354306161403656,-0.8188936710357666,0.1632067859172821,-9.297721862792969,1.0957762002944946,72.08000946044922,28.43,2
-0.3561221063137054,-0.8445919752120972,0.1719100177288055,-8.897289276123047,1.0958112478256226,72.08000946044922,28.43,2
-0.3684830367565155,-0.8666814565658569,0.1718974709510803,-8.561498641967773,1.095833659172058,72.08000946044922,28.43,2
-0.3652200102806091,-0.8752593994140625,0.1774871945381164,-8.496475219726562,1.0912576913833618,72.08000946044922,28.43,2
-0.3631259799003601,-0.8863620162010193,0.1866721361875534,-9.03870677947998,1.0883212089538574,72.08000946044922,28.43,2
-0.3617821633815765,-0.8710959553718567,0.1925664991140365,-9.97422218322754,1.086436748504639,72.08000946044922,28.43,2
-0.3665175437927246,-0.8557012677192688,0.1963491588830948,-10.359627723693848,1.085227370262146,72.08000946044922,28.43,2
-0.3863497674465179,-0.8682129383087158,0.2043744325637817,-9.302901268005373,1.0844511985778809,72.08000946044922,28.43,2
-0.4046747386455536,-0.8986333012580872,0.2095245867967605,-6.819137096405029,1.0839531421661377,72.08000946044922,28.43,2
-0.416434645652771,-0.9573397636413574,0.2072318792343139,-3.527059555053711,1.083633542060852,72.08000946044922,28.43,2
-0.4183836877346039,-1.073383092880249,0.194565013051033,0.0437150932848453,1.0834283828735352,72.08000946044922,28.43,2
-0.4532211124897003,-1.136657476425171,0.1808383762836456,3.184303045272827,1.081919550895691,71.99760437011719,28.43,2
-0.4867733120918274,-1.048514485359192,0.1888227313756942,4.956136226654053,1.0809513330459597,71.9447250366211,28.43,2
-0.4635230004787445,-0.9583627581596376,0.1939466297626495,5.240543842315674,1.0803300142288208,71.9107894897461,28.43,2
-0.4597978293895721,-0.9340952038764954,0.1860392987728119,4.921499729156494,1.0799312591552734,71.88900756835938,28.43,2
-0.4686027765274048,-0.9912927150726318,0.1921603828668594,4.637938976287842,1.079675316810608,71.87503051757812,28.43,2
-0.4630577564239502,-1.0056077241897583,0.1904907673597335,4.398644924163818,1.079511046409607,71.8660659790039,28.43,2
-0.4427059590816498,-0.9644142985343932,0.1670282036066055,4.302401065826416,1.079405665397644,71.86031341552734,28.43,2
-0.440840870141983,-0.9267832040786744,0.1407757401466369,4.294375896453857,1.0793380737304688,71.85662078857422,28.43,2
-0.4396439790725708,-0.9026337265968324,0.1127328649163246,3.454485416412353,1.0792946815490725,71.854248046875,28.43,2
-0.4388758838176727,-0.8815382122993469,0.0891387835144996,1.063300609588623,1.0792667865753174,71.85272216796875,28.43,2
-0.4271874129772186,-0.8624024987220764,0.0739974603056907,-1.9221673011779783,1.0792489051818848,71.85174560546875,28.43,2
-0.3972953259944916,-0.850122332572937,0.0586828589439392,-3.9742066860198975,1.079237461090088,71.85111999511719,28.43,2
-0.3893078565597534,-0.842241644859314,0.0600503794848918,-5.409312725067139,1.0792300701141355,71.85071563720703,28.43,2
-0.3897797465324402,-0.8427820205688477,0.0553302019834518,-8.293532371520996,1.0792254209518433,71.85045623779297,28.43,2
-0.3900825679302215,-0.8543243408203125,0.0578988380730152,-13.834511756896973,1.0792224407196045,71.85029602050781,28.43,2
-0.3790813386440277,-0.878524899482727,0.0763405635952949,-20.356765747070312,1.0792205333709717,71.85018920898438,28.43,2
-0.3608258366584778,-0.9052509665489196,0.0937731713056564,-23.403114318847656,1.078760027885437,71.8501205444336,28.43,2
-0.3491105139255523,-0.9727821946144104,0.110558196902275,-18.26458549499512,1.078464388847351,71.8500747680664,28.43,2
-0.3359945118427276,-1.0329132080078125,0.1157320812344551,-4.717225074768066,1.0782747268676758,71.85004425048828,28.43,2
-0.3555662930011749,-1.054708480834961,0.1302479356527328,11.027199745178224,1.0781530141830444,71.85002899169922,28.43,2
-0.3793219029903412,-0.9959243535995485,0.1339655965566635,21.8762435913086,1.078074932098389,71.85002136230469,28.43,2
-0.3833713233470917,-0.9134178757667542,0.1475469321012497,26.42029571533203,1.0780247449874878,71.85001373291016,28.43,2
-0.3747744560241699,-0.910849928855896,0.1562626510858535,27.588109970092773,1.077992558479309,71.85000610351562,28.43,2
-0.3692574799060821,-0.9203975200653076,0.178649216890335,27.02273941040039,1.0779719352722168,71.85000610351562,28.43,2
-0.3657169938087463,-0.8873401880264282,0.1930156201124191,24.076881408691406,1.0784180164337158,71.85000610351562,28.43,2
-0.3634449243545532,-0.8437348008155823,0.1966373771429062,18.578744888305664,1.0787042379379272,71.85000610351562,28.43,2
-0.3787801563739776,-0.8325446844100952,0.1989616155624389,11.915603637695312,1.078887939453125,71.85000610351562,28.43,2
-0.3998169898986816,-0.8533523678779602,0.2004531770944595,5.955772876739502,1.0790058374404907,71.85000610351562,28.43,2
-0.4077194333076477,-0.8779011368751526,0.2070081532001495,1.776421308517456,1.079081416130066,71.85000610351562,28.43,2
-0.4183885455131531,-0.8936551213264465,0.2224103063344955,-0.8769852519035339,1.079129934310913,71.85000610351562,28.43,2
-0.4252353608608246,-0.8925695419311523,0.2322945296764373,-2.930881261825561,1.0791611671447754,71.85000610351562,28.43,2
-0.4296292662620544,-0.8862751126289368,0.2386376410722732,-4.954720497131348,1.07918119430542,71.85000610351562,28.43,2
-0.4212534725666046,-0.8766379356384277,0.2483060657978058,-7.077496528625488,1.0782757997512815,71.77477264404297,28.41,2
-0.4158783555030823,-0.8816488981246948,0.2545107007026672,-9.478718757629396,1.0776947736740112,71.72648620605469,28.41,2
-0.4180266857147217,-0.9184513092041016,0.247296929359436,-12.431220054626465,1.0773218870162964,71.69550323486328,28.41,2
-0.4194053709506988,-0.9532645344734192,0.237069770693779,-16.167409896850586,1.077082633972168,71.67562103271484,28.41,2
-0.4258879125118255,-1.0091923475265503,0.2137132585048675,-19.944372177124023,1.0769290924072266,71.66285705566406,28.41,2
-0.4636346697807312,-1.0898656845092771,0.2099199295043945,-20.670068740844727,1.076830506324768,71.65467071533203,28.41,2
-0.5158472657203674,-1.1024528741836548,0.2018878161907196,-15.095556259155272,1.0767672061920166,71.6494140625,28.41,2
-0.5101698637008667,-1.0209661722183228,0.1799399554729461,-5.055188655853272,1.0767266750335691,71.64604187011719,28.41,2
-0.4841353297233581,-0.979868233203888,0.1714528501033783,2.989552497863769,1.0776188373565674,71.64387512207031,28.41,2
-0.4618301093578338,-1.0206671953201294,0.1772018671035766,5.587080001831055,1.0781913995742798,71.64248657226562,28.41,2
-0.4531136751174927,-1.0188608169555664,0.1585001498460769,5.6239519119262695,1.0785588026046753,71.64159393310547,28.41,2
-0.4363244175910949,-0.9841148853302002,0.1409006863832473,6.768959999084473,1.0787945985794067,71.64102172851562,28.41,2
-0.4087567031383514,-0.9394258856773376,0.1240085959434509,9.022772789001465,1.078945875167847,71.64065551757812,28.41,2
-0.3910653293132782,-0.9107470512390136,0.1019726768136024,10.927709579467772,1.0790430307388306,71.64041900634766,28.41,2
-0.3797120153903961,-0.8699515461921692,0.0822335183620452,12.211091995239258,1.0791053771972656,71.64026641845703,28.41,2
-0.3668283522129059,-0.832575798034668,0.075163833796978,12.898555755615234,1.0791453123092651,71.64016723632812,28.41,2
-0.3529625833034515,-0.791796863079071,0.0594313703477382,12.537233352661133,1.0782527923583984,71.64010620117188,28.41,2
-0.344064325094223,-0.7544317245483398,0.0605307295918464,11.53510284423828,1.077679991722107,71.64006805419922,28.41,2
-0.3495495021343231,-0.7360507249832153,0.0668340101838111,11.41863250732422,1.0773123502731323,71.64004516601562,28.41,2
-0.364265114068985,-0.75224369764328,0.0708790943026542,12.518973350524902,1.077076435089111,71.64002990722656,28.41,2
-0.3681109547615051,-0.7794287204742432,0.0958660915493965,13.081805229187012,1.0769250392913818,71.64002227783203,28.41,2
-0.3593834638595581,-0.8136678338050842,0.1119013056159019,11.74843978881836,1.076827883720398,71.6400146484375,28.41,2
-0.3481848835945129,-0.8804227709770203,0.133387342095375,9.45256805419922,1.076765537261963,71.64000701904297,28.41,2
-0.3465960621833801,-0.9568488597869872,0.1471758335828781,8.358962059020996,1.0767256021499634,71.64000701904297,28.41,2
-0.3735653162002563,-1.078665852546692,0.1504267156124115,10.319003105163574,1.07761812210083,71.64000701904297,28.41,2
-0.413263738155365,-1.0448853969573977,0.1693062782287597,15.643067359924316,1.0781909227371216,71.64000701904297,28.41,2
-0.4275443255901336,-0.978424906730652,0.1758243143558502,21.64278221130371,1.0785585641860962,71.64000701904297,28.41,2
-0.3975243866443634,-0.9749587774276732,0.1576161235570907,24.27139663696289,1.0787944793701172,71.64000701904297,28.41,2
-0.3726615309715271,-1.0119189023971558,0.1683222502470016,22.862943649291992,1.078945875167847,71.64000701904297,28.41,2
-0.3790970742702484,-1.0020511150360107,0.2031816989183426,20.594118118286133,1.0790430307388306,71.64000701904297,28.41,2
-0.3944225907325744,-0.9173496961593628,0.2031613886356353,19.48921012878418,1.0791053771972656,71.64000701904297,28.41,2
-0.4042576253414154,-0.8517976403236389,0.2087461203336715,18.32515525817871,1.0791453123092651,71.64000701904297,28.41,2
-0.4105691909790039,-0.8377189636230469,0.2235256284475326,15.894322395324709,1.0791709423065186,71.55402374267578,28.39,2
-0.420217365026474,-0.8454774022102356,0.2330102771520614,12.783098220825195,1.0791873931884766,71.49884033203125,28.39,2
-0.4264090061187744,-0.8560540676116943,0.2446947544813156,9.640069961547852,1.0791980028152466,71.46343231201172,28.39,2
-0.4191868901252746,-0.8460482954978943,0.2577909529209137,6.358405590057373,1.079204797744751,71.44070434570312,28.39,2
-0.4201499223709106,-0.8396271467208862,0.2661953270435333,3.1346588134765625,1.0792092084884644,71.4261245727539,28.39,2
-0.4375612735748291,-0.8522997498512268,0.2603932321071625,0.3815716207027435,1.079211950302124,71.41676330566406,28.39,2
-0.4487348794937134,-0.8772256374359131,0.2622675597667694,-2.6355202198028564,1.0792137384414673,71.41075897216797,28.39,2
-0.43911212682724,-0.9044171571731568,0.257872611284256,-7.444941520690918,1.0792149305343628,71.40690612792969,28.39,2
-0.4329367876052856,-0.9330626726150512,0.232661098241806,-14.121092796325684,1.0801335573196411,71.40443420410156,28.39,2
-0.4401693642139435,-0.9794345498085022,0.2052862495183944,-20.365129470825195,1.0807230472564695,71.40284729003906,28.39,2
-0.4672019183635711,-1.0427800416946411,0.1765230894088745,-23.36190795898437,1.0811012983322144,71.40182495117188,28.39,2
-0.512538731098175,-1.100224852561951,0.1580645591020584,-22.164644241333008,1.0813441276550293,71.40116882324219,28.39,2
-0.552828848361969,-1.0699163675308228,0.1518167108297348,-18.66996955871582,1.0814999341964722,71.40074920654297,28.39,2
-0.545098066329956,-1.0504660606384275,0.1534049659967422,-16.20158576965332,1.0815999507904053,71.40048217773438,28.39,2
-0.523343563079834,-1.0827661752700806,0.1600219905376434,-15.910829544067385,1.0816640853881836,71.40030670166016,28.39,2
-0.4757961332798004,-1.1202878952026367,0.1642684191465377,-15.376729011535645,1.0817052125930786,71.40019989013672,28.39,2
-0.4340873956680298,-1.1051827669143677,0.1669935286045074,-12.167913436889648,1.082649827003479,71.40013122558594,28.39,2
-0.3905277848243713,-1.0339136123657229,0.1631445735692978,-6.952430725097656,1.0832560062408447,71.40008544921875,28.39,2
-0.3625737428665161,-0.9825794100761414,0.1382834464311599,-1.477384328842163,1.0836451053619385,71.40005493164062,28.39,2
-0.3446344435214996,-0.9496360421180724,0.1111334562301635,3.9492807388305664,1.0838947296142578,71.40003204345703,28.39,2
-0.3387198150157928,-0.9117015600204468,0.0937101542949676,9.255332946777344,1.084054946899414,71.4000244140625,28.39,2
-0.3293263614177704,-0.8761618733406067,0.0825288817286491,13.20500373840332,1.0841578245162964,71.40001678466797,28.39,2
-0.3121026456356048,-0.8365612030029297,0.0641578361392021,14.779544830322266,1.0842238664627075,71.40000915527344,28.39,2
-0.30664724111557,-0.7999522089958191,0.0635639056563377,14.600579261779783,1.084266185760498,71.40000915527344,28.39,2
-0.3087440431118011,-0.7764586806297302,0.0631827563047409,13.794292449951172,1.0879658460617063,71.40000915527344,28.39,2
-0.3156874179840088,-0.7669796347618103,0.0685359314084053,12.091031074523926,1.0903401374816897,71.40000915527344,28.39,2
-0.3201432824134826,-0.7608965635299683,0.0943623855710029,8.321791648864746,1.091863751411438,71.40000915527344,28.39,2
-0.3174050152301788,-0.8017749786376953,0.1333274096250534,2.9687819480896,1.0928415060043335,71.40000915527344,28.39,2
-0.2988544404506683,-0.8895838856697083,0.1359418332576751,-1.0970048904418943,1.0934690237045288,71.40000915527344,28.39,2
-0.2869497537612915,-1.0075101852416992,0.1544129401445388,-0.7935589551925659,1.0938717126846311,71.40000915527344,28.39,2
-0.3464832901954651,-1.010417342185974,0.2110488265752792,4.689056873321533,1.0941301584243774,71.40000915527344,28.39,2
-0.4014818072319031,-0.9507074952125548,0.2361989319324493,12.43492317199707,1.0942959785461426,71.40000915527344,28.39,2
-0.414385586977005,-0.9347802400588988,0.2075566202402115,17.029603958129883,1.0879756212234497,71.34626770019531,28.39,2
-0.3946776390075683,-0.9917323589324952,0.2003711909055709,15.937060356140137,1.0839195251464844,71.31178283691406,28.39,2
-0.3764324188232422,-1.0170854330062866,0.2181510925292968,12.95741081237793,1.081316590309143,71.2896499633789,28.39,2
-0.3871147930622101,-0.9661822319030762,0.2183656543493271,12.811452865600586,1.079646110534668,71.27544403076172,28.39,2
-0.4051656723022461,-0.905526638031006,0.2017100304365158,14.51623821258545,1.0785741806030271,71.26632690429688,28.39,2
-0.4223474562168121,-0.8666013479232788,0.1798258572816848,14.349205017089844,1.0778862237930298,71.2604751586914,28.39,2
-0.4389715194702148,-0.8752080202102661,0.1713796257972717,11.949164390563965,1.0774447917938232,71.25672149658203,28.39,2
-0.4384443461894989,-0.8807312846183777,0.1715570986270904,9.07982063293457,1.077161431312561,71.25431060791016,28.39,2
-0.4381060302257538,-0.8842757940292358,0.1828665435314178,5.894975185394287,1.081570029258728,71.25276947021484,28.39,2
-0.449084460735321,-0.8809526562690735,0.1901242882013321,2.0598368644714355,1.0843992233276367,71.25177764892578,28.39,2
-0.4729230999946594,-0.8564289808273315,0.2003796696662902,-1.4152029752731323,1.0862147808074951,71.25114440917969,28.39,2
-0.4770258367061615,-0.8630821704864502,0.2125587612390518,-3.896063804626465,1.0873799324035645,71.250732421875,28.39,2
-0.4796587228775024,-0.889742910861969,0.22597236931324,-6.534249782562256,1.088127613067627,71.25047302246094,28.39,2
-0.4869461357593536,-0.923645555973053,0.2401782274246215,-10.344587326049805,1.0886074304580688,71.25030517578125,28.39,2
-0.4804272353649139,-0.9454023241996764,0.2325014024972915,-14.161969184875488,1.0889153480529783,71.25019836425781,28.39,2
-0.4818415641784668,-0.9873534440994264,0.216379314661026,-15.730432510375977,1.0891129970550537,71.25012969970703,28.39,2
-0.5219336152076721,-1.042264103889465,0.2116308510303497,-14.211265563964844,1.086944818496704,71.25008392333984,28.39,2
-0.5700534582138062,-1.083100438117981,0.2085835635662078,-10.871851921081545,1.0855534076690674,71.25005340576172,28.39,2
-0.556151807308197,-1.0421335697174072,0.2010302245616912,-7.894068241119385,1.084660530090332,71.25003051757812,28.39,2
-0.5136439204216003,-1.0046478509902954,0.1961829215288162,-6.796342372894287,1.0840874910354614,71.2500228881836,28.39,2
-0.4639737010002136,-1.0421671867370603,0.1930721998214721,-7.349369525909424,1.0837197303771973,71.25001525878906,28.39,2
-0.4432937502861023,-1.0774405002593994,0.1798803657293319,-7.99804162979126,1.0834836959838867,71.25000762939453,28.39,2
-0.4188269972801208,-1.0608924627304075,0.160219058394432,-7.679893970489502,1.0833323001861572,71.25000762939453,28.39,2
-0.3863323330879211,-0.994295060634613,0.1308082342147827,-6.286310195922852,1.0832351446151731,71.25000762939453,28.39,2
-0.3598813414573669,-0.95155668258667,0.1063362956047058,-3.400075912475586,1.0813363790512085,71.25000762939453,28.39,2
-0.3485043942928314,-0.9129341244697572,0.0794360637664794,1.300290584564209,1.0801178216934204,71.25000762939453,28.39,2
-0.3468011021614074,-0.8769528269767761,0.0621730424463748,6.4053568840026855,1.0793358087539673,71.25000762939453,28.39,2
-0.3401102423667907,-0.8426665663719177,0.0454968549311161,9.857040405273438,1.0788339376449585,71.25000762939453,28.39,2
-0.3246209025382995,-0.8038703203201294,0.0347950384020805,11.6207275390625,1.0785118341445925,71.25000762939453,28.39,2
-0.3146807253360748,-0.7845708727836609,0.033525001257658,13.254121780395508,1.0783051252365112,71.25000762939453,28.39,2
-0.3194972276687622,-0.7833811640739441,0.0383077375590801,15.022438049316406,1.0781725645065308,71.25000762939453,28.39,2
-0.3281859755516052,-0.7938132286071777,0.0413770228624343,15.286675453186035,1.0780874490737915,71.25000762939453,28.39,2
-0.3337619006633758,-0.8173012137413025,0.0545422621071338,12.9162015914917,1.079869270324707,71.20343017578125,28.39,2
-0.3485357761383056,-0.8603633642196655,0.0797842815518379,8.937320709228516,1.081012725830078,71.17353820800781,28.39,2
-0.3580167889595032,-0.9159870147705078,0.1015809252858161,6.140288829803467,1.0817465782165527,71.15435791015625,28.39,2
-0.3473078310489654,-0.996465265750885,0.1043732091784477,7.669945240020752,1.0822174549102783,71.14205169677734,28.39,2
-0.3572287559509277,-1.0872960090637207,0.1397517919540405,13.681527137756348,1.0825196504592896,71.1341552734375,28.39,2
-0.3859865367412567,-1.0616192817687988,0.1624557226896286,18.86138343811035,1.082713603973389,71.12908172607422,28.39,2
-0.4100393950939178,-0.9387837648391724,0.1602324694395065,17.60698699951172,1.0828380584716797,71.1258316040039,28.39,2
-0.4086818099021911,-0.899139404296875,0.158805713057518,11.668156623840332,1.0829179286956787,71.12374114990234,28.39,2
-0.3910172581672668,-0.9520667791366576,0.157890111207962,7.244336128234863,1.0811327695846558,71.12239837646484,28.39,2
-0.3796811699867248,-0.9860325455665588,0.168498083949089,5.816917419433594,1.0799871683120728,71.12154388427734,28.39,2
-0.3836018741130829,-0.9350587725639344,0.1865012198686599,4.198697566986084,1.079252004623413,71.1209945678711,28.39,2
-0.3917157351970672,-0.8743578195571899,0.1868590414524078,1.487154483795166,1.078780174255371,71.12063598632812,28.39,2
-0.4081183075904846,-0.8465990424156189,0.187088668346405,-0.3353570401668548,1.078477382659912,71.12040710449219,28.39,2
-0.4242422878742218,-0.8567739129066467,0.187236025929451,-0.6272090077400208,1.0782830715179443,71.1202621459961,28.39,2
-0.4289919734001159,-0.8744990825653076,0.1985261440277099,-0.2592036128044128,1.0781583786010742,71.12017059326172,28.39,2
-0.4264422655105591,-0.8746785521507263,0.2169670462608337,0.6648156046867371,1.0780783891677856,71.12010955810547,28.39,2
-0.4304037690162658,-0.8691959381103516,0.228801354765892,2.0817902088165283,1.07940411567688,71.12007141113281,28.39,2
-0.4441415965557098,-0.865677535533905,0.2307981550693512,2.439406394958496,1.0802549123764038,71.12004852294922,28.39,2
-0.4417622089385986,-0.8858106732368469,0.2320795804262161,0.2435001879930496,1.0808008909225464,71.12003326416016,28.39,2
-0.4402352273464203,-0.9155243039131165,0.2384997010231018,-3.6950042247772217,1.0811513662338257,71.12002563476562,28.39,2
-0.4280597567558288,-0.9513861536979676,0.2258264422416687,-6.964102745056152,1.0813761949539185,71.1200180053711,28.39,2
-0.4314417839050293,-1.0247801542282104,0.2009001523256302,-8.040987968444824,1.0815205574035645,71.12001037597656,28.39,2
-0.4448077380657196,-1.1054668426513672,0.1905016750097274,-7.338449001312256,1.0816131830215454,71.12001037597656,28.39,2
-0.4925696551799774,-1.1068669557571411,0.1838285326957702,-6.328718185424805,1.0816725492477417,71.12001037597656,28.39,2
-0.5064271688461304,-1.0461899042129517,0.1683505475521087,-6.397246360778809,1.0789563655853271,71.12001037597656,28.39,2
-0.4593423902988434,-0.9624687433242798,0.1640154421329498,-8.12503433227539,1.0772132873535156,71.12001037597656,28.39,2
-0.4459194242954254,-0.9759145975112916,0.1556356400251388,-10.595208168029783,1.0760947465896606,71.12001037597656,28.39,2
-0.4429031014442444,-1.0069345235824585,0.1502579599618911,-11.800670623779297,1.0753768682479858,71.12001037597656,28.39,2
-0.4297718405723572,-0.9988524317741394,0.1356113255023956,-10.926281929016112,1.074916124343872,71.12001037597656,28.39,2
-0.40455162525177,-0.9712746739387512,0.1262119561433792,-9.47667121887207,1.074620485305786,71.12001037597656,28.39,2
-0.3827689886093139,-0.9367835521697998,0.097788892686367,-8.736270904541016,1.0744308233261108,71.12001037597656,28.39,2
-0.3687901496887207,-0.897855818271637,0.0627552792429924,-7.788224220275879,1.0743091106414795,71.12001037597656,28.39,2
-0.3654170930385589,-0.8672764301300049,0.0402727276086807,-5.664392948150635,1.0737720727920532,71.07701873779297,28.41,2
-0.3632524609565735,-0.8308590650558472,0.025844719260931,-3.262493371963501,1.073427438735962,71.04942321777344,28.41,2
-0.3506677746772766,-0.7962929010391235,0.0165856536477804,-1.4953904151916504,1.0732063055038452,71.0317153930664,28.41,2
-0.342591643333435,-0.7741103172302246,0.016241492703557,0.2799156904220581,1.0730643272399902,71.02035522460938,28.41,2
-0.3430066406726837,-0.7710703611373901,0.021618403494358,2.823574542999268,1.0729732513427734,71.0130615234375,28.41,2
-0.3432729542255401,-0.7747172713279724,0.0250689964741468,5.537886142730713,1.0729148387908936,71.00838470458984,28.41,2
-0.3490416407585144,-0.7938510179519653,0.0496744848787784,7.11139440536499,1.072877287864685,71.00537872314453,28.41,2
-0.3471458852291107,-0.8453143239021301,0.0654648691415786,7.0535736083984375,1.0728532075881958,71.00344848632812,28.41,2
-0.3459292948246002,-0.90073162317276,0.0811960026621818,6.529237270355225,1.0723787546157837,71.00221252441406,28.41,2
-0.3451485335826874,-1.0146640539169312,0.0968891158699989,7.998366355895996,1.072074294090271,71.00141906738281,28.41,2
-0.3726363778114319,-1.1101704835891724,0.1237533763051033,13.129199981689451,1.0718789100646973,71.00090789794922,28.41,2
-0.4238631427288055,-1.06510329246521,0.1577866375446319,19.868310928344727,1.0717536211013794,71.00057983398438,28.41,2
-0.4399442076683044,-0.9802040457725524,0.17402945458889,22.93560028076172,1.0716731548309326,71.00037384033203,28.41,2
-0.4278730154037475,-0.9537094235420228,0.1620620489120483,19.61971092224121,1.0716215372085571,71.00023651123047,28.41,2
-0.3865397572517395,-0.998282253742218,0.1823709309101104,13.525853157043455,1.071588397026062,71.00015258789062,28.41,2
-0.3712100088596344,-1.0156909227371216,0.2065995633602142,9.650992393493652,1.071567177772522,71.0000991821289,28.41,2
-0.3781655728816986,-0.9652873277664183,0.2165503203868866,8.038477897644043,1.0678809881210327,71.00006103515625,28.41,2
-0.3994225859642029,-0.8881590366363525,0.2005450427532196,5.606454372406006,1.065515398979187,71.00003814697266,28.41,2
-0.418661892414093,-0.8442602753639221,0.1902737766504287,1.555831789970398,1.0639972686767578,71.0000228881836,28.41,2
-0.4254107773303985,-0.8552730083465576,0.1948778182268142,-2.4551596641540527,1.0630230903625488,71.00001525878906,28.41,2
-0.4185462892055511,-0.8735358715057373,0.2090279757976532,-5.222642421722412,1.062397837638855,71.00000762939453,28.41,2
-0.4029454886913299,-0.8908537030220032,0.2181087434291839,-6.461266994476318,1.0619966983795166,71.00000762939453,28.41,2
-0.4041293561458587,-0.8851739764213562,0.2183384746313095,-6.167041778564453,1.061739206314087,71.00000762939453,28.41,2
-0.4104868769645691,-0.8759313225746155,0.2184859067201614,-5.222301483154297,1.0615739822387695,71.00000762939453,28.41,2
-0.408968985080719,-0.8755976557731628,0.2185805141925811,-5.207146644592285,1.0646811723709106,71.00000762939453,28.41,2
-0.413592666387558,-0.9033724069595336,0.2186412364244461,-6.666276931762695,1.0666751861572266,71.00000762939453,28.41,2
-0.4165598750114441,-0.9547833204269408,0.2130824327468872,-8.419490814208984,1.0679547786712646,71.00000762939453,28.41,2
-0.4072685241699219,-0.9933736324310304,0.1983195543289184,-8.588054656982422,1.06877601146698,71.00000762939453,28.41,2
-0.4125013947486877,-1.0181386470794678,0.172052264213562,-6.106026649475098,1.069303035736084,71.00000762939453,28.41,2
-0.4382506608963012,-1.0956069231033323,0.1607932150363922,-2.109295606613159,1.0696412324905396,71.00000762939453,28.41,2
-0.4771661460399627,-1.1173328161239624,0.1535678058862686,0.2656995952129364,1.0698583126068115,71.00000762939453,28.41,2
-0.4741509854793548,-1.024917483329773,0.1321376264095306,-1.0511475801467896,1.0699975490570068,71.00000762939453,28.41,2
-0.4442271590232849,-0.9656106233596802,0.1239827424287796,-4.622564315795898,1.0682508945465088,71.18988037109375,28.35,2
-0.4418171048164367,-1.0003219842910769,0.1243471801280975,-7.523531913757324,1.0671299695968628,71.31172943115234,28.35,2
-0.4402704834938049,-1.0281955003738403,0.1189832836389541,-8.740342140197754,1.0664106607437134,71.38992309570312,28.35,2
-0.4168868362903595,-1.0180943012237549,0.1099432706832885,-9.019660949707031,1.0659489631652832,71.44010925292969,28.35,2
-0.373891681432724,-0.9780252575874328,0.1041419059038162,-8.883645057678223,1.0656527280807495,71.4723129272461,28.35,2
-0.3574954271316528,-0.9467134475708008,0.0948211550712585,-8.456012725830078,1.065462589263916,71.49298095703125,28.35,2
-0.3525710105895996,-0.9154238104820251,0.0664485320448875,-8.138591766357422,1.065340518951416,71.50624084472656,28.35,2
-0.355008602142334,-0.8785505890846252,0.0538383908569812,-8.099687576293945,1.0652621984481812,71.51475524902344,28.35,2
-0.3565728962421417,-0.8436919450759888,0.0457459278404712,-7.77378511428833,1.0652120113372805,71.52021789550781,28.35,2
-0.351978987455368,-0.8213216662406921,0.0405526533722877,-6.425380706787109,1.0651798248291016,71.52371978759766,28.35,2
-0.3490308821201324,-0.8125634789466858,0.0372199080884456,-3.9192326068878174,1.0651590824127195,71.52597045898438,28.35,2
-0.3527367413043976,-0.8125407099723816,0.0350811444222927,-0.960300087928772,1.0651458501815796,71.52741241455078,28.35,2
-0.3551149368286133,-0.8237216472625732,0.0393063835799694,1.2610042095184326,1.065137267112732,71.52833557128906,28.35,2
-0.3566411435604095,-0.8308969736099243,0.047615673393011,2.1706185340881348,1.0651317834854126,71.5289306640625,28.35,2
-0.3632183372974396,-0.8578927516937256,0.0697414204478263,2.8295910358428955,1.0651283264160156,71.52931213378906,28.35,2
-0.3562436699867248,-0.8864126801490784,0.0783426761627197,5.631311416625977,1.0651260614395142,71.52955627441406,28.35,2
-0.3517677187919616,-0.9774861931800842,0.0894602388143539,11.87168788909912,1.0637474060058594,71.52971649169922,28.35,2
-0.3880797326564789,-0.9911497235298156,0.1301815062761306,18.86427116394043,1.062862753868103,71.52981567382812,28.35,2
-0.4113827049732208,-0.9439404606819152,0.1675096154212951,21.17708396911621,1.0622949600219729,71.5298843383789,28.35,2
-0.4095438718795776,-0.9136442542076112,0.1634757667779922,16.79663848876953,1.0619306564331057,71.52992248535156,28.35,2
-0.3971682786941528,-0.9389840960502625,0.1608870774507522,10.116338729858398,1.0616968870162964,71.52995300292969,28.35,2
-0.4060196578502655,-0.9720390439033508,0.198410227894783,6.441927909851074,1.061546802520752,71.52996826171875,28.35,2
-0.4116999506950378,-0.9148829579353333,0.211294874548912,6.000580310821533,1.061450481414795,71.52997589111328,28.35,2
-0.409747451543808,-0.8614101409912109,0.2139657288789749,5.473733901977539,1.0613887310028076,71.52998352050781,28.35,2
-0.4084944725036621,-0.8438876867294312,0.2156797349452972,2.674404621124268,1.0618079900741575,71.52999114990234,28.35,2
-0.4132881462574005,-0.8494361042976379,0.2111819088459015,-2.1958935260772705,1.0620770454406738,71.52999114990234,28.35,2
-0.4107666909694671,-0.880985677242279,0.2138932347297668,-7.596306324005127,1.0622496604919434,71.52999114990234,28.35,2
-0.4203441143035888,-0.8956345915794373,0.2212309837341308,-11.470394134521484,1.0623605251312256,71.52999114990234,28.35,2
-0.4432836771011352,-0.899437665939331,0.225939929485321,-12.444713592529297,1.062431573867798,71.52999114990234,28.35,2
-0.4524071812629699,-0.8906826972961426,0.2289618551731109,-11.189123153686523,1.0624772310256958,71.52999114990234,28.35,2
-0.4358710348606109,-0.8738687038421631,0.2141078263521194,-9.856719017028809,1.0625065565109253,71.52999114990234,28.35,2
-0.430856853723526,-0.8686762452125549,0.2101731449365615,-9.675183296203612,1.0625253915786743,71.52999114990234,28.35,2
-0.4332368075847626,-0.8653439879417419,0.2020503133535385,-9.79871654510498,1.062537431716919,71.73419952392578,28.37,2
-0.4347641170024872,-0.8744010925292969,0.1800442337989807,-8.939358711242676,1.0625451803207395,71.86524963378906,28.37,2
-0.4469398260116577,-0.9417889714241028,0.1715197712182998,-6.897520065307617,1.0625501871109009,71.94934844970703,28.37,2
-0.4883401393890381,-1.0186212062835691,0.1828425824642181,-4.071756362915039,1.0625534057617188,72.0033187866211,28.37,2
-0.514908492565155,-0.9839611649513244,0.1509244889020919,-1.1656583547592163,1.0625554323196411,72.03795623779297,28.37,2
-0.492774099111557,-0.9785116314888,0.1304412931203842,0.2801467776298523,1.0625567436218262,72.0601806640625,28.37,2
-0.4729717373847961,-0.9862099885940552,0.1228941306471824,-0.8842428922653198,1.062557578086853,72.07444763183594,28.37,2
-0.4658614993095398,-0.9743570685386658,0.1180507987737655,-3.512333393096924,1.0625580549240112,72.08360290527344,28.37,2
-0.4668963253498077,-0.9723482728004456,0.1093448549509048,-5.442505359649658,1.0620994567871094,72.0894775390625,28.37,2
-0.4563648700714111,-0.9766569137573242,0.0813667848706245,-6.240522384643555,1.0618051290512085,72.09324645996094,28.37,2
-0.4328130781650543,-0.9738242030143738,0.0522165186703205,-6.921024799346924,1.06161630153656,72.09566497802734,28.37,2
-0.4065033197402954,-0.9720063209533693,0.0279117822647094,-7.830631732940674,1.061495065689087,72.09721374511719,28.37,2
-0.3952170312404632,-0.954046368598938,0.0011188519420102,-8.665145874023438,1.0614173412322998,72.09821319580078,28.37,2
-0.3935719132423401,-0.9425207376480104,-0.0160753093659877,-9.92795181274414,1.061367392539978,72.0988540649414,28.37,2
-0.3869183957576751,-0.9575153589248656,-0.0606961771845817,-12.486644744873049,1.0613353252410889,72.0992660522461,28.37,2
-0.3770507574081421,-0.9503446817398072,-0.1061246022582054,-15.590356826782228,1.061314821243286,72.09952545166016,28.37,2
-0.3707182705402374,-0.945742964744568,-0.124082401394844,-17.02326011657715,1.0608426332473757,72.09969329833984,28.37,2
-0.3778499960899353,-0.9315943121910096,-0.1244111359119415,-15.696538925170898,1.060539722442627,72.09980010986328,28.37,2
-0.3880245089530945,-0.9001234173774719,-0.1246220991015434,-12.5701904296875,1.0603452920913696,72.09986877441406,28.37,2
-0.4057494699954986,-0.8575361371040344,-0.1303552538156509,-8.740348815917969,1.06022047996521,72.09991455078125,28.37,2
-0.3947332501411438,-0.8861837983131409,-0.1340344697237014,-4.104371070861816,1.0601403713226318,72.09994506835938,28.37,2
-0.3876636624336242,-0.9045681953430176,-0.1252000331878662,2.059225559234619,1.0600889921188354,72.09996795654297,28.37,2
-0.3999201357364654,-0.8995729684829712,-0.1027372702956199,10.184784889221191,1.06005597114563,72.0999755859375,28.37,2
-0.4245789647102356,-0.8963673114776611,-0.0995175093412399,19.1717529296875,1.0600348711013794,72.09998321533203,28.37,2
-0.4627946615219116,-0.8831145167350769,-0.0974512547254562,25.555274963378903,1.054971694946289,72.09999084472656,28.37,2
-0.4873192906379699,-0.8802074193954468,-0.0793319270014762,26.402456283569336,1.0517224073410034,72.09999084472656,28.37,2
-0.4806666970252991,-0.8895373940467834,-0.0621062144637107,23.37788200378418,1.0496371984481812,72.09999084472656,28.37,2
-0.4652019143104553,-0.895524799823761,-0.0230628699064254,20.69529151916504,1.0482990741729736,72.09999084472656,28.37,2
-0.4552775025367737,-0.8993672132492065,0.0075906752608716,19.40008544921875,1.0474402904510498,72.09999084472656,28.37,2
-0.4601041376590729,-0.9298219084739684,0.0384579040110111,17.304248809814453,1.0468891859054563,72.09999084472656,28.37,2
-0.3736371994018554,-0.9325726628303528,0.1086466833949089,13.551770210266112,1.0465354919433594,72.09999084472656,28.37,2
-0.3125499188899994,-0.8895557522773743,0.1145053803920745,9.363104820251465,1.046308517456055,72.09999084472656,28.37,2
-0.3853031098842621,-0.8899388313293457,0.0342985428869724,5.478480339050293,1.046621799468994,72.30419921875,28.37,2
-0.4040030539035797,-0.8957824110984802,-0.0227713640779256,1.971683144569397,1.0468229055404663,72.43524932861328,28.37,2
-0.4160035848617553,-0.8771414160728455,-0.120971068739891,-0.7230167388916016,1.0469518899917605,72.51934814453125,28.37,2
-0.4572914838790893,-0.859580934047699,-0.20638108253479,-2.635031223297119,1.047034740447998,72.57331848144531,28.37,2
-0.4893854558467865,-0.8427138328552246,-0.283583402633667,-4.657383918762207,1.0470879077911377,72.60795593261719,28.37,2
-0.493188202381134,-0.8318895101547241,-0.3443229496479034,-7.044316291809082,1.0471220016479492,72.63018035888672,28.37,2
-0.4900307953357696,-0.8249430656433105,-0.3497154712677002,-8.798232078552246,1.047143816947937,72.64444732666016,28.37,2
-0.4936023354530334,-0.8148874640464783,-0.3587738573551178,-8.90276050567627,1.047157883644104,72.65360260009766,28.37,2
-0.4846988022327423,-0.7748477458953857,-0.3645870089530945,-7.282447338104248,1.0448719263076782,72.65947723388672,28.37,2
-0.4677894711494446,-0.7267614603042603,-0.3291331231594085,-4.938566207885742,1.0434048175811768,72.66324615478516,28.37,2
-0.4513402581214905,-0.7015001773834229,-0.3455652892589569,-3.53829288482666,1.0424634218215942,72.66566467285156,28.37,2
-0.4183930158615112,-0.6908867359161377,-0.3449149429798126,-3.857753753662109,1.0418592691421509,72.6672134399414,28.37,2
-0.4140426814556122,-0.7120645046234131,-0.3165087103843689,-4.775697708129883,1.0414714813232422,72.668212890625,28.37,2
-0.3944575786590576,-0.83761066198349,-0.2311059385538101,-5.017271518707275,1.0412226915359497,72.66885375976562,28.37,2
-0.4602578282356262,-0.9573633670806884,-0.1874949038028717,-4.943015098571777,1.0410629510879517,72.66926574707031,28.37,2
-0.530473530292511,-1.0957893133163452,0.036414235830307,-5.300192356109619,1.0409605503082275,72.66952514648438,28.37,2
-0.5251539349555969,-1.1678297519683838,0.1241284981369972,-5.52940845489502,1.0431897640228271,72.66969299316406,28.37,2
-0.5385334491729736,-1.1300945281982422,0.1020496189594268,-4.8059401512146,1.044620394706726,72.6697998046875,28.37,2
-0.6086951494216919,-1.0834871530532837,0.0822828933596611,-3.775612831115722,1.0455384254455566,72.66986846923828,28.37,2
-0.664916455745697,-1.0255883932113647,0.0528044253587722,-3.737776279449463,1.0461276769638062,72.66991424560547,28.37,2
-0.7289849519729614,-0.9660412073135376,0.0450823903083801,-4.5195746421813965,1.0465058088302612,72.6699447631836,28.37,2
-0.7589048743247986,-0.8886427879333496,0.0625179260969162,-4.594961166381836,1.046748399734497,72.66996765136719,28.37,2
-0.7501168847084045,-0.8109840750694275,0.1520759016275406,-3.170901298522949,1.0469040870666504,72.66997528076172,28.37,2
-0.7780638933181763,-0.7331583499908447,0.1759624034166336,-0.9601292610168456,1.047003984451294,72.66998291015625,28.37,2
-0.8295853137969971,-0.7000075578689575,0.2360735833644867,0.7846314907073975,1.0493634939193726,72.66999053955078,28.37,2
-0.8402577042579651,-0.67313551902771,0.297040581703186,1.349019169807434,1.0508776903152466,72.66999053955078,28.37,2
-0.7743355631828308,-0.667086124420166,0.3641545474529266,1.3422054052352903,1.051849365234375,72.66999053955078,28.37,2
-0.8327904343605042,-0.5792374014854431,0.379235565662384,2.2370591163635254,1.0524729490280151,72.66999053955078,28.37,2
-0.9878566861152648,-0.4444922804832458,0.3385337293148041,4.523796081542969,1.052873134613037,72.66999053955078,28.37,2
-1.132151484489441,-0.3356295228004455,0.2620336413383484,7.044569492340088,1.053130030632019,72.66999053955078,28.37,2
-1.1351871490478516,-0.2097899317741394,0.2913091480731964,8.432971954345703,1.0532948970794678,72.66999053955078,28.37,2
-1.0251798629760742,-0.1178377792239189,0.3548786640167236,8.306516647338867,1.053400635719299,72.66999053955078,28.37,2
-0.8762146234512329,-0.1260014772415161,0.4348583519458771,7.222244262695312,1.0589770078659058,72.8061294555664,28.39,2
-0.7974106073379517,-0.1648271083831787,0.5253691077232361,6.060685634613037,1.0625556707382202,72.89350128173828,28.39,2
-0.7468387484550476,-0.195340946316719,0.5946492552757263,5.125387668609619,1.064852237701416,72.94956970214844,28.39,2
-0.7591668367385864,-0.2261185199022293,0.5943270921707153,4.073762893676758,1.0663260221481323,72.98554992675781,28.39,2
-0.783871591091156,-0.2514675557613373,0.5717292428016663,3.044215679168701,1.0672718286514282,73.0086441040039,28.39,2
-0.7493457198143005,-0.2341484725475311,0.5964116454124451,2.902984857559204,1.0678788423538208,73.0234603881836,28.39,2
-0.6768090724945068,-0.2230340838432312,0.6346425414085388,3.912201642990112,1.0682682991027832,73.03296661376953,28.39,2
-0.6078681349754333,-0.2047059535980224,0.6535791158676147,5.351608276367188,1.0685182809829712,73.03907012939453,28.39,2
-0.6252012848854065,-0.1705529242753982,0.6321448683738708,6.773314476013184,1.0544483661651611,73.04298400878906,28.39,2
-0.6531180739402771,-0.1262443661689758,0.6631718277931213,8.276808738708496,1.0454190969467163,73.04550170898438,28.39,2
-0.7046200633049011,-0.097809687256813,0.6830831170082092,9.521105766296388,1.039624571800232,73.04711151123047,28.39,2
-0.7880510687828064,-0.1019530445337295,0.6902632713317871,10.144078254699709,1.0359060764312744,73.04814910888672,28.39,2
-0.8080056309700012,-0.0990142449736595,0.6724799871444702,11.03467845916748,1.0335197448730469,73.04881286621094,28.39,2
-0.8432024121284485,-0.130714938044548,0.6498721241950989,13.530057907104492,1.031988263130188,73.04924011230469,28.39,2
-0.8545941114425659,-0.145460844039917,0.6241681575775146,17.313236236572266,1.0310055017471311,73.04951477050781,28.39,2
-0.8619046807289124,-0.1605216860771179,0.6020750999450684,20.31785774230957,1.0303747653961182,73.04969024658203,28.39,2
-0.8386073112487793,-0.1645890921354293,0.6046903729438782,21.00289726257324,1.0497089624404907,73.0498046875,28.39,2
-0.7676786780357361,-0.150406002998352,0.5559887290000916,19.98440742492676,1.0621165037155151,73.04987335205078,28.39,2
-0.727758526802063,-0.1748907566070556,0.535930335521698,19.019115447998047,1.07007896900177,73.04991912841797,28.39,2
-0.7133356332778931,-0.2297880798578262,0.5566446781158447,18.72924423217773,1.0751887559890747,73.0499496459961,28.39,2
-0.6481021046638489,-0.2818113565444946,0.6203179359436035,17.640411376953125,1.0784679651260376,73.04997253417969,28.39,2
-0.6118367314338684,-0.3375879824161529,0.6779730916023254,12.879020690917969,1.0805723667144775,73.04998016357422,28.39,2
-0.5773681402206421,-0.3789799809455871,0.7317661643028259,2.8660728931427,1.0819228887557983,73.04998779296875,28.39,2
-0.6336170434951782,-0.4447274208068847,0.7886785268783569,-9.621377944946287,1.0827895402908323,73.04999542236328,28.39,2
-0.6305299401283264,-0.4701270163059234,0.7972127795219421,-18.93558120727539,1.0860999822616575,73.04999542236328,28.39,2
-0.6061577200889587,-0.4360470473766327,0.7579073309898376,-21.867712020874023,1.0882245302200315,73.04999542236328,28.39,2
-0.5961148142814636,-0.3526009619235992,0.7438789010047913,-19.095617294311523,1.089587926864624,73.04999542236328,28.39,2
-0.6288542747497559,-0.2710611820220947,0.7236807346343994,-12.218642234802246,1.0904628038406372,73.04999542236328,28.39,2
-0.7226356267929077,-0.2019403427839279,0.7163164615631104,-2.804119825363159,1.0910242795944214,73.04999542236328,28.39,2
-0.7828190922737122,-0.1463870108127594,0.7003949880599976,6.651772975921631,1.0913846492767334,73.04999542236328,28.39,2
-0.8046480417251587,-0.116333857178688,0.6677863597869873,13.887940406799316,1.091615915298462,73.04999542236328,28.39,2
-0.8074610829353333,-0.1306341141462326,0.6468600630760193,19.047588348388672,1.0917643308639526,73.04999542236328,28.39,2
-0.7644841074943542,-0.1398112028837204,0.6278330087661743,24.68026161193848,1.0872691869735718,73.1861343383789,28.39,2
-0.7313061952590942,-0.1680916249752044,0.6100247502326965,32.58333206176758,1.0843844413757324,73.27349853515625,28.39,2
-0.7100145220756531,-0.1974359154701233,0.6657696962356567,39.75445556640625,1.0825331211090088,73.3295669555664,28.39,2
-0.713144063949585,-0.1994740664958953,0.7183369398117065,38.98618698120117,1.0813450813293457,73.36554718017578,28.39,2
-0.7095546722412109,-0.2007820457220077,0.7016916275024414,26.197757720947266,1.080582618713379,73.38864135742188,28.39,2
-0.7240445017814636,-0.1904258728027343,0.685411810874939,6.189877033233643,1.0800933837890625,73.40345764160156,28.39,2
-0.6829633116722107,-0.1837798804044723,0.6749643683433533,-11.701461791992188,1.0797793865203855,73.4129638671875,28.39,2
-0.634208619594574,-0.1739170998334884,0.6850531101226807,-22.334022521972656,1.079577922821045,73.4190673828125,28.39,2
-0.5413451790809631,-0.2347610145807266,0.7531030178070068,-26.362979888916016,1.0739400386810305,73.42298126220703,28.39,2
-0.4817507565021515,-0.2738071382045746,0.8247624039649963,-26.07172393798828,1.0703219175338743,73.42549896240234,28.39,2
-0.3875287473201751,-0.3212558031082153,0.8819448351860046,-23.66361618041992,1.068000078201294,73.42710876464844,28.39,2
-0.3886379897594452,-0.3069234192371368,0.8962501287460327,-21.10077857971192,1.0665100812911987,73.42814636230469,28.39,2
-0.4061431884765625,-0.2809323966503143,0.8718438148498535,-18.13770866394043,1.065553903579712,73.4288101196289,28.39,2
-0.4341703355312347,-0.2810461819171905,0.8449856638908386,-12.893638610839844,1.0649402141571045,73.42923736572266,28.39,2
-0.4857431948184967,-0.2867169678211212,0.8277496695518494,-6.020954608917236,1.0645464658737185,73.42951202392578,28.39,2
-0.5188396573066711,-0.2791606187820434,0.8054930567741394,-1.2772825956344604,1.0642937421798706,73.4296875,28.39,2
-0.5288835167884827,-0.2799091637134552,0.802405595779419,-1.0489712953567505,1.0655087232589722,73.42980194091797,28.39,2
-0.5185357928276062,-0.2859873175621032,0.8172175288200378,-3.8939049243927,1.0662883520126345,73.42987060546875,28.39,2
-0.5006996393203735,-0.2898879051208496,0.8379185199737549,-6.837383270263672,1.066788673400879,73.42991638183594,28.39,2
-0.4948512017726898,-0.2867933213710785,0.8400076627731323,-7.909510612487793,1.0671098232269287,73.42994689941406,28.39,2
-0.4966957867145538,-0.2792096138000488,0.8189572691917419,-6.179301738739014,1.067315936088562,73.42996978759766,28.39,2
-0.5146728754043579,-0.2799406051635742,0.8278394341468811,-1.1317027807235718,1.0674481391906738,73.42997741699219,28.39,2
-0.5094162225723267,-0.2804096937179565,0.8279417157173157,7.348864078521728,1.067533016204834,73.42998504638672,28.39,2
-0.5004450082778931,-0.2807107269763946,0.8168118596076965,18.77052116394043,1.0675874948501587,73.42999267578125,28.39,2
-0.4946877956390381,-0.2920994758605957,0.8264626264572144,31.352338790893555,1.062113881111145,73.42999267578125,28.39,2
-0.5077864527702332,-0.3106036782264709,0.8158626556396484,41.81620407104492,1.0586012601852417,73.42999267578125,28.39,2
-0.5049968957901001,-0.30568528175354,0.8258535265922546,47.30606842041016,1.0563470125198364,73.42999267578125,28.39,2
-0.503206729888916,-0.2969311475753784,0.8210695385932922,47.67648315429688,1.0549004077911377,73.42999267578125,28.39,2
-0.5020579099655151,-0.2857154905796051,0.8235971927642822,44.37102508544922,1.0539720058441162,73.42999267578125,28.39,2
-0.5684939622879028,-0.2785179316997528,0.786034882068634,38.2086296081543,1.0533761978149414,73.42999267578125,28.39,2
-0.5943354368209839,-0.2850944995880127,0.778722882270813,30.592565536499023,1.052993893623352,73.42999267578125,28.39,2
-0.5045613050460815,-0.294912725687027,0.813214898109436,24.60516166687012,1.0527485609054563,73.42999267578125,28.39,2
-0.4637427628040313,-0.3068112730979919,0.8409476280212402,20.9813289642334,1.0535088777542114,73.55896759033203,28.45,2
-0.4935255050659179,-0.3144470751285553,0.8307560682296753,14.704180717468262,1.0539968013763428,73.64173889160156,28.45,2
-0.5070406198501587,-0.3081517517566681,0.807422399520874,0.1323484927415847,1.054309964179993,73.69485473632812,28.45,2
-0.526909351348877,-0.3041117787361145,0.7924481630325317,-21.36394500732422,1.0545109510421753,73.72894287109375,28.45,2
-0.5676488280296326,-0.2959213852882385,0.7716430425643921,-42.50331115722656,1.0546399354934692,73.75081634521484,28.45,2
-0.5881953239440918,-0.2906652390956878,0.758291482925415,-57.695831298828125,1.0547226667404177,73.76485443115234,28.45,2
-0.6069786548614502,-0.2816943824291229,0.7497231960296631,-67.14816284179688,1.0547758340835571,73.77386474609375,28.45,2
-0.6190327405929565,-0.275937408208847,0.7442246079444885,-75.30992889404297,1.0548099279403689,73.77964782714844,28.45,2
-0.6323661208152771,-0.2722429037094116,0.7518914341926575,-86.51983642578125,1.0571271181106567,73.78335571289062,28.45,2
-0.6521182656288147,-0.2810675501823425,0.7456160187721252,-97.80142974853516,1.0586142539978027,73.78573608398438,28.45,2
-0.6591962575912476,-0.2755351364612579,0.7247955203056335,-98.11976623535156,1.0595685243606567,73.78726196289062,28.45,2
-0.663738489151001,-0.2719847559928894,0.7114341259002686,-81.31757354736328,1.060180902481079,73.78824615478516,28.45,2
-0.6722512245178223,-0.2809018790721893,0.6916639804840088,-54.742897033691406,1.060573935508728,73.78887176513672,28.45,2
-0.7001053094863892,-0.2922221422195434,0.7069655060768127,-28.775352478027344,1.0608261823654177,73.78927612304688,28.45,2
-0.6731982827186584,-0.2882912755012512,0.6887962818145752,-6.070653915405273,1.0609880685806274,73.78953552246094,28.45,2
-0.6615286469459534,-0.2801709175109863,0.6827341318130493,13.576424598693848,1.0610918998718262,73.78970336914062,28.45,2
-0.6876264214515686,-0.252568632364273,0.6788437366485596,28.69617462158203,1.063912868499756,73.78981018066406,28.45,2
-0.6931788921356201,-0.2628439366817474,0.6819449067115784,39.80711364746094,1.065723180770874,73.78987884521484,28.45,2
-0.6967421770095825,-0.2750358283519745,0.6783372759819031,50.4054069519043,1.066884994506836,73.78992462158203,28.45,2
-0.710224449634552,-0.2828598618507385,0.6648265719413757,62.55198287963867,1.0676305294036863,73.78995513916016,28.45,2
-0.7076810002326965,-0.2878808975219726,0.6673517227172852,70.35770416259766,1.0681090354919434,73.78997039794922,28.45,2
-0.7004510164260864,-0.2799075543880462,0.6801677942276001,64.3971176147461,1.0684161186218262,73.78997802734375,28.45,2
-0.7014089822769165,-0.2691929340362549,0.6883924007415771,43.41500473022461,1.0686131715774536,73.78998565673828,28.45,2
-0.6908282041549683,-0.2623169124126434,0.6936704516410828,17.281904220581055,1.0687395334243774,73.78999328613281,28.45,2
-0.6896358728408813,-0.2635020613670349,0.6914598345756531,-3.9276256561279297,1.0656074285507202,73.78999328613281,28.45,2
-0.6944684386253357,-0.2698603868484497,0.6844434142112732,-17.481359481811523,1.0635974407196045,73.78999328613281,28.45,2
-0.6919719576835632,-0.2739408016204834,0.6855384707450867,-23.850690841674805,1.062307596206665,73.78999328613281,28.45,2
-0.6903698444366455,-0.2765593826770782,0.6862412095069885,-23.241405487060547,1.0614798069000244,73.78999328613281,28.45,2
-0.6893417239189148,-0.2782398462295532,0.6810944080352783,-18.19305229187012,1.060948610305786,73.78999328613281,28.45,2
-0.694279670715332,-0.2737204730510711,0.6777914762496948,-13.129778861999512,1.060607671737671,73.78999328613281,28.45,2
-0.6806552410125732,-0.2764179706573486,0.6924651861190796,-9.189024925231934,1.0603889226913452,73.78999328613281,28.45,2
-0.6775096654891968,-0.2781490683555603,0.6962841153144836,-4.453209400177002,1.0602484941482544,73.78999328613281,28.45,2
-0.692284345626831,-0.2736622393131256,0.681941568851471,1.6132405996322632,1.060158371925354,73.87956237792969,28.43,2
-0.7017658948898315,-0.2707828283309936,0.6727373600006104,6.362575054168701,1.060100555419922,73.93704223632812,28.43,2
-0.7078505754470825,-0.2689349949359894,0.6668306589126587,7.389851570129394,1.0600634813308716,73.97393035888672,28.43,2
-0.7061576247215271,-0.267749160528183,0.6686378121376038,6.060769081115723,1.0600396394729614,73.99760437011719,28.43,2
-0.7050711512565613,-0.2669881582260132,0.6697975397109985,5.021546840667725,1.060024380683899,74.0127944946289,28.43,2
-0.7043739557266235,-0.266499787569046,0.664944052696228,5.443736553192139,1.0600146055221558,74.02254486083984,28.43,2
-0.7039265036582947,-0.266186386346817,0.667427122592926,6.689134120941162,1.0600082874298096,74.02880096435547,28.43,2
-0.7092371582984924,-0.2659852802753448,0.6690205931663513,8.982293128967285,1.0600042343139648,74.0328140258789,28.43,2
-0.7126452326774597,-0.2658562064170837,0.6700432300567627,12.653611183166504,1.0595422983169556,74.03538513183594,28.43,2
-0.7092345356941223,-0.2657733857631683,0.6706994771957397,16.779443740844727,1.0592459440231323,74.03704071044922,28.43,2
-0.7126435041427612,-0.2713179886341095,0.6711206436157227,18.248498916625977,1.0590556859970093,74.03810119628906,28.43,2
-0.7148311734199524,-0.274876207113266,0.6657931208610535,14.297455787658691,1.0589336156845093,74.03878021240234,28.43,2
-0.7162351012229919,-0.2771596610546112,0.6623741984367371,4.1059393882751465,1.0588552951812744,74.03921508789062,28.43,2
-0.7171360850334167,-0.2786250412464142,0.6601801514625549,-12.264975547790527,1.058804988861084,74.03949737548828,28.43,2
-0.7177143096923828,-0.2795654535293579,0.6587721705436707,-28.3525390625,1.0587728023529053,74.03968048095703,28.43,2
-0.7180853486061096,-0.2801689505577087,0.6578685641288757,-39.37521362304688,1.0587520599365234,74.039794921875,28.43,2
-0.7127256989479065,-0.2805562317371368,0.6572887301445007,-44.757957458496094,1.060575246810913,74.03987121582031,28.43,2
-0.7148839235305786,-0.2808047831058502,0.656916618347168,-45.41071701049805,1.0617451667785645,74.0399169921875,28.43,2
-0.7106711864471436,-0.2809642851352691,0.656677782535553,-42.4333381652832,1.0624960660934448,74.03994750976562,28.43,2
-0.713565468788147,-0.2810666561126709,0.6565245389938354,-37.79270553588867,1.062977910041809,74.03997039794922,28.43,2
-0.7098250985145569,-0.2811323404312134,0.656426191329956,-33.03765869140625,1.0632871389389038,74.03997802734375,28.43,2
-0.7074247598648071,-0.2811744809150696,0.6563630700111389,-28.571025848388672,1.0634855031967163,74.03998565673828,28.43,2
-0.7114821076393127,-0.2812015414237976,0.6507247686386108,-24.34321975708008,1.0636128187179563,74.03999328613281,28.43,2
-0.7140858769416809,-0.2812189161777496,0.6527042388916016,-20.33316421508789,1.0636945962905884,74.03999328613281,28.43,2
-0.7157568335533142,-0.2812300622463226,0.6539745330810547,-17.24026870727539,1.062828779220581,74.03999328613281,28.43,2
-0.7224269509315491,-0.2812372148036957,0.6547897458076477,-15.040471076965332,1.0622731447219849,74.03999328613281,28.43,2
-0.7267074584960938,-0.2812418043613434,0.6497151255607605,-13.467551231384276,1.0619165897369385,74.03999328613281,28.43,2
-0.7238566279411316,-0.2812447547912597,0.6520562767982483,-12.210944175720217,1.0616878271102903,74.03999328613281,28.43,2
-0.7220271229743958,-0.2812466323375702,0.6535587310791016,-11.47976016998291,1.061540961265564,74.03999328613281,28.43,2
-0.7208530902862549,-0.2812478244304657,0.6545228958129883,-11.379533767700195,1.0614467859268188,74.03999328613281,28.43,2
-0.7200996279716492,-0.2812485992908478,0.6551416516304016,-11.505090713500977,1.0613863468170166,74.03999328613281,28.43,2
-0.7196161150932312,-0.2812491059303283,0.6555387377738953,-11.227408409118652,1.061347484588623,74.03999328613281,28.43,2
-0.7193058133125305,-0.2812494337558746,0.6557935476303101,-9.716489791870115,1.062699794769287,74.09373474121094,28.35,2
-0.7191066741943359,-0.2812496423721313,0.6559571027755737,-6.63314962387085,1.0635675191879272,74.12821960449219,28.35,2
-0.7245766520500183,-0.2812497615814209,0.6504642367362976,-1.7418055534362793,1.0641244649887085,74.15035247802734,28.35,2
-0.7224892377853394,-0.281249850988388,0.6469392776489258,5.502809047698975,1.0644818544387815,74.16455841064453,28.35,2
-0.7267473936080933,-0.2812499105930328,0.6446771621704102,14.902481079101562,1.0647112131118774,74.17367553710938,28.35,2
-0.7294800281524658,-0.2812499403953552,0.6432254314422607,25.484519958496094,1.0648584365844729,74.17952728271484,28.35,2
-0.7312337160110474,-0.2812499701976776,0.6422938108444214,35.8974494934082,1.0649528503417969,74.18328094482422,28.35,2
-0.7323591113090515,-0.2812499701976776,0.6416959762573242,44.955116271972656,1.065013408660889,74.1856918334961,28.35,2
-0.7330813407897949,-0.2812499701976776,0.641312301158905,51.9930419921875,1.064134120941162,74.1872329711914,28.35,2
-0.7335448265075684,-0.2812499701976776,0.6410660743713379,57.15085983276367,1.0635697841644287,74.18822479248047,28.35,2
-0.7338422536849976,-0.2812499701976776,0.6409080624580383,61.20244598388672,1.0632076263427734,74.18885803222656,28.35,2
-0.7284353375434875,-0.2812499701976776,0.6408066749572754,64.86296081542969,1.062975287437439,74.18927001953125,28.35,2
-0.7361610531806946,-0.2812499701976776,0.6407415866851807,68.6092758178711,1.062826156616211,74.18952941894531,28.35,2
-0.7355211973190308,-0.2812499701976776,0.6406998038291931,72.81906127929688,1.0627304315567017,74.189697265625,28.35,2
-0.7351105809211731,-0.2812499701976776,0.6406729817390442,77.99980163574219,1.062669038772583,74.18980407714844,28.35,2
-0.7348470687866211,-0.2812499701976776,0.6406558156013489,84.38043975830078,1.0626295804977417,74.18987274169922,28.35,2
-0.7402757406234741,-0.2812499701976776,0.6350470185279846,91.87860870361328,1.063522458076477,74.1899185180664,28.35,2
-0.7381617426872253,-0.2812499701976776,0.6370453834533691,100.50595092773438,1.0640954971313477,74.18994903564453,28.35,2
-0.7368051409721375,-0.2812499701976776,0.6383278369903564,110.56011199951172,1.0644632577896118,74.18997192382812,28.35,2
-0.7359344959259033,-0.2812499701976776,0.6391507983207703,122.56169891357422,1.0646992921829224,74.18997955322266,28.35,2
-0.7353758215904236,-0.2812499701976776,0.639678955078125,136.1318817138672,1.064850687980652,74.18998718261719,28.35,2
-0.7350172400474548,-0.2812499701976776,0.6400178670883179,150.30746459960938,1.0649478435516355,74.18999481201172,28.35,2
-0.7347871661186218,-0.2812499701976776,0.6402353644371033,163.17340087890625,1.0650101900100708,74.18999481201172,28.35,2
-0.7346395254135132,-0.2812499701976776,0.6403749585151672,172.0462188720703,1.06505024433136,74.18999481201172,28.35,2
-0.7345447540283203,-0.2812499701976776,0.6404645442962646,178.8508758544922,1.0650759935379028,74.18999481201172,28.35,2
-0.7344839572906494,-0.2812499701976776,0.6349242329597473,185.54281616210932,1.0650924444198608,74.18999481201172,28.35,2
-0.7344449162483215,-0.2812499701976776,0.6369665861129761,193.0437164306641,1.0651030540466309,74.18999481201172,28.35,2
-0.7400176525115967,-0.2812499701976776,0.6326794624328613,201.2070770263672,1.0651098489761353,74.18999481201172,28.35,2
-0.7379961013793945,-0.2812499701976776,0.6355260014533997,209.1148681640625,1.0651142597198486,74.18999481201172,28.35,2
-0.7366988062858582,-0.2812499701976776,0.6373527646064758,214.6123809814453,1.0651170015335083,74.18999481201172,28.35,2
-0.7358663082122803,-0.2812499701976776,0.6329272985458374,215.621810913086,1.0651187896728516,74.18999481201172,28.35,2
-0.7353320121765137,-0.2812499701976776,0.6356850862503052,211.10353088378903,1.065119981765747,74.18999481201172,28.35,2
-0.7349891662597656,-0.2812499701976776,0.6318570971488953,201.57620239257807,1.0651206970214844,74.2795639038086,28.31,2
-0.7403669357299805,-0.2812499701976776,0.6349982619285583,188.2181396484375,1.0651211738586426,74.33704376220703,28.31,2
-0.7382202744483948,-0.2812499701976776,0.6314163208007812,171.9180908203125,1.0651215314865112,74.37393188476562,28.31,2
-0.7424404621124268,-0.2812499701976776,0.6347153782844543,153.138916015625,1.0651216506958008,74.3976058959961,28.31,2
-0.7395509481430054,-0.2812499701976776,0.6312347650527954,132.08450317382812,1.0651217699050903,74.41279602050781,28.31,2
-0.737696647644043,-0.2812499701976776,0.6290011405944824,109.0218505859375,1.06512188911438,74.42254638671875,28.31,2
-0.7365066409111023,-0.2812499701976776,0.627567708492279,83.80702209472656,1.06512188911438,74.42880249023438,28.31,2
-0.73574298620224,-0.2812499701976776,0.6266478300094604,56.186431884765625,1.06512188911438,74.43281555175781,28.31,2
-0.7408506870269775,-0.2812499701976776,0.626057505607605,26.387847900390625,1.0642037391662598,74.43538665771484,28.31,2
-0.738530695438385,-0.2812499701976776,0.6312764286994934,-4.127760410308838,1.0636144876480105,74.43704223632812,28.31,2
-0.7370418906211853,-0.2812499701976776,0.6290278434753418,-33.219078063964844,1.0632363557815552,74.43810272216797,28.31,2
-0.7416842579841614,-0.2812499701976776,0.6275848150253296,-59.56925201416016,1.0629936456680298,74.43878173828125,28.31,2
-0.744663417339325,-0.2812499701976776,0.6266587972640991,-83.11420440673828,1.0628379583358765,74.43921661376953,28.31,2
-0.7465752959251404,-0.2812499701976776,0.6260645389556885,-103.66593170166016,1.062738060951233,74.43949890136719,28.31,2
-0.747802197933197,-0.2812499701976776,0.6256831884384155,-120.07200622558594,1.0626739263534546,74.43968200683594,28.31,2
-0.7485895752906799,-0.2812499701976776,0.6254384517669678,-132.27711486816406,1.0626327991485596,74.4397964477539,28.31,2
-0.7490948438644409,-0.2812499701976776,0.6252813935279846,-143.33755493164062,1.0616885423660278,74.43987274169922,28.31,2
-0.749419093132019,-0.2812499701976776,0.6251806020736694,-157.4609375,1.0610824823379517,74.4399185180664,28.31,2
-0.7496272325515747,-0.2812499701976776,0.6251158714294434,-175.953857421875,1.060693621635437,74.43994903564453,28.31,2
-0.7497608065605164,-0.2756521999835968,0.6250743865966797,-197.45867919921875,1.0604439973831177,74.43997192382812,28.31,2
-0.7498465180397034,-0.2776576578617096,0.6250477433204651,-222.4798583984375,1.060283899307251,74.43997955322266,28.31,2
-0.749901533126831,-0.2789446413516998,0.6250306367874146,-254.54396057128903,1.0601811408996582,74.43998718261719,28.31,2
-0.7499368190765381,-0.27977055311203,0.6250196695327759,-295.2835998535156,1.060115098953247,74.43999481201172,28.31,2
-0.7499594688415527,-0.2803005874156952,0.6250126361846924,-341.6300964355469,1.0600727796554563,74.43999481201172,28.31,2
-0.7499740123748779,-0.2750429511070251,0.6250081062316895,-390.1954650878906,1.0614228248596191,74.43999481201172,28.31,2
-0.7499833106994629,-0.2772666811943054,0.6250051856040955,-442.3737182617188,1.062289118766785,74.43999481201172,28.31,2
-0.7499892711639404,-0.2786937355995178,0.6250033378601074,-504.9134216308594,1.0628451108932495,74.43999481201172,28.31,2
-0.749993085861206,-0.2796095311641693,0.6250021457672119,-584.4202880859375,1.063201904296875,74.43999481201172,28.31,2
-0.7499955892562866,-0.2801972329616546,0.6250013709068298,-673.156982421875,1.063430905342102,74.43999481201172,28.31,2
-0.74439936876297,-0.2805743813514709,0.6250008940696716,-742.2157592773438,1.0635777711868286,74.43999481201172,28.31,2
-0.746405839920044,-0.2808164358139038,0.6250005960464478,-762.6702270507812,1.0636720657348633,74.43999481201172,28.31,2
-0.7476934790611267,-0.2809717655181885,0.6250003576278687,-731.8563842773438,1.063732624053955,74.43999481201172,28.31,2
-0.748519778251648,-0.2810714542865753,0.6250002384185791,-667.6471557617188,1.0623942613601685,74.53672790527344,28.27,2
-0.7490500807762146,-0.2811354100704193,0.6250001788139343,-585.9797973632812,1.061535358428955,74.59880065917969,28.27,2
-0.7493904232978821,-0.2811764776706695,0.6250001192092896,-496.3760681152344,1.0609842538833618,74.63864135742188,28.27,2
-0.7496088147163391,-0.2812028229236603,0.6250000596046448,-407.4507751464844,1.0606305599212646,74.6642074584961,28.27,2
-0.749748945236206,-0.2812197208404541,0.6250000596046448,-323.7221374511719,1.06040358543396,74.68061065673828,28.27,2
-0.7498388886451721,-0.2812305688858032,0.6250000596046448,-243.70095825195312,1.060257911682129,74.6911392211914,28.27,2
-0.7498965859413147,-0.2812375426292419,0.6250000596046448,-166.9439239501953,1.060164451599121,74.6978988647461,28.27,2
-0.749933660030365,-0.2812420129776001,0.619402289390564,-98.27886962890624,1.060104489326477,74.70223236083984,28.27,2
-0.7499574422836304,-0.2812448740005493,0.621407687664032,-42.07582473754883,1.060065984725952,74.70501708984375,28.27,2
-0.7499727010726929,-0.2812467217445373,0.6170969009399414,3.883543014526367,1.0600413084030151,74.70680236816406,28.27,2
-0.749982476234436,-0.2812478840351105,0.6143304705619812,45.544044494628906,1.0600254535675049,74.70794677734375,28.27,2
-0.7499887347221375,-0.2812486290931701,0.6125551462173462,85.00466918945312,1.0600152015686035,74.70867919921875,28.27,2
-0.7499927878379822,-0.2812491059303283,0.6170136332511902,119.2560043334961,1.0600086450576782,74.70915222167969,28.27,2
-0.7499953508377075,-0.2812494337558746,0.6198748350143433,146.68563842773438,1.060004472732544,74.70945739746094,28.27,2
-0.7499970197677612,-0.2812496423721313,0.6161131858825684,171.36398315429688,1.0600017309188845,74.70964813232422,28.27,2
-0.7499980926513672,-0.2812497615814209,0.6192969679832458,198.2677001953125,1.0600000619888306,74.70977020263672,28.27,2
-0.7499987483024597,-0.281249850988388,0.6213400959968567,226.45623779296875,1.0604579448699951,74.70985412597656,28.27,2
-0.7499992251396179,-0.2812499105930328,0.6170535087585449,250.66864013671875,1.0607516765594482,74.70990753173828,28.27,2
-0.7499995231628418,-0.2812499403953552,0.6199004054069519,269.5170593261719,1.0609402656555176,74.7099380493164,28.27,2
-0.7499997019767761,-0.2812499701976776,0.6217273473739624,289.6665344238281,1.0610612630844116,74.7099609375,28.27,2
-0.7555975914001465,-0.2812499701976776,0.6228997707366943,320.96875,1.0611388683319092,74.70997619628906,28.27,2
-0.7535921931266785,-0.2812499701976776,0.6180543899536133,364.0353393554688,1.0611886978149414,74.7099838256836,28.27,2
-0.752305269241333,-0.2812499701976776,0.6205427050590515,399.9989013671875,1.061220645904541,74.70999145507812,28.27,2
-0.757077157497406,-0.2812499701976776,0.6165418028831482,401.1063232421875,1.0612411499023438,74.70999145507812,28.27,2
-0.7545416951179504,-0.2812499701976776,0.6195720434188843,358.7615966796875,1.0607954263687134,74.70999145507812,28.27,2
-0.7529146075248718,-0.2812499701976776,0.6215166449546814,294.0202941894531,1.0605093240737915,74.70999145507812,28.27,2
-0.7518704533576965,-0.2812499701976776,0.6227645874023438,236.0541229248047,1.0603257417678833,74.70999145507812,28.27,2
-0.7512003779411316,-0.2812499701976776,0.6235654354095459,196.8413543701172,1.0602079629898071,74.70999145507812,28.27,2
-0.7507703304290771,-0.2812499701976776,0.6240794062614441,168.491943359375,1.060132384300232,74.70999145507812,28.27,2
-0.7504943609237671,-0.2812499701976776,0.6244091987609863,137.90321350097656,1.0600838661193848,74.70999145507812,28.27,2
-0.7503172755241394,-0.2812499701976776,0.6190230846405029,99.33563232421876,1.060052752494812,74.70999145507812,28.27,2
-0.7502036094665527,-0.2812499701976776,0.6211643815040588,54.96341323852539,1.0600327253341677,74.70999145507812,28.27,2
-0.7501306533813477,-0.2812499701976776,0.6225385069847107,9.939961433410645,1.058642864227295,74.76373291015625,28.25,2
-0.750083863735199,-0.2812499701976776,0.6234203577041626,-29.36088180541992,1.0577508211135864,74.7982177734375,28.25,2
-0.7500538229942322,-0.2812499701976776,0.6183884739875793,-57.73098373413086,1.0571783781051636,74.82035064697266,28.25,2
-0.750034511089325,-0.2812499701976776,0.6151593327522278,-76.01609802246094,1.0568110942840576,74.83455657958984,28.25,2
-0.7500221729278564,-0.2812499701976776,0.6130870580673218,-88.19108581542969,1.0565752983093262,74.84367370605469,28.25,2
-0.7500142455101013,-0.2812499701976776,0.6173549890518188,-92.66175079345705,1.0564240217208862,74.84952545166016,28.25,2
-0.7500091195106506,-0.2812499701976776,0.6200938820838928,-83.10639190673828,1.056326985359192,74.85327911376953,28.25,2
-0.750005841255188,-0.2812499701976776,0.6162537336349487,-57.38121032714844,1.0562646389007568,74.8556900024414,28.25,2
-0.7500037550926208,-0.2812499701976776,0.619387149810791,-18.91107940673828,1.0557653903961182,74.85723114013672,28.25,2
-0.7556002140045166,-0.2812499701976776,0.610202431678772,28.716064453125,1.0554449558258057,74.85822296142578,28.25,2
-0.753593921661377,-0.2812499701976776,0.609906017780304,80.10235595703125,1.0552393198013306,74.85885620117188,28.25,2
-0.7523064017295837,-0.2812499701976776,0.6153135299682617,120.42698669433594,1.055107355117798,74.85926818847656,28.25,2
-0.7514801025390625,-0.2812499701976776,0.6187837719917297,130.72080993652344,1.0550227165222168,74.85952758789062,28.25,2
-0.7509498596191406,-0.2812499701976776,0.6154130101203918,109.22865295410156,1.0549683570861816,74.85969543457031,28.25,2
-0.7562073469161987,-0.2812499701976776,0.6132498383522034,79.60482025146484,1.0549334287643433,74.85980224609375,28.25,2
-0.7539834976196289,-0.2812499701976776,0.6118616461753845,67.50831604003906,1.0549110174179075,74.85987091064453,28.25,2
-0.7525563836097717,-0.2812499701976776,0.6165685653686523,76.27548217773438,1.0548967123031616,74.85991668701172,28.25,2
-0.7516405582427979,-0.2812499701976776,0.6139914393424988,92.94324493408205,1.0548875331878662,74.85994720458984,28.25,2
-0.7510527968406677,-0.2812499701976776,0.612337589263916,104.101806640625,1.054881572723389,74.85997009277344,28.25,2
-0.750675618648529,-0.2812499701976776,0.6112762093544006,100.3967742919922,1.054877758026123,74.85997772216797,28.25,2
-0.7504335641860962,-0.2812499701976776,0.6105951070785522,82.42414855957031,1.054875373840332,74.8599853515625,28.25,2
-0.7558760046958923,-0.2812499701976776,0.6101579666137695,63.30245590209961,1.054873824119568,74.85999298095703,28.25,2
-0.7537708878517151,-0.2812499701976776,0.6154752373695374,53.10556411743164,1.054872751235962,74.85999298095703,28.25,2
-0.7524199485778809,-0.2812499701976776,0.6188875436782837,47.61148071289063,1.0548721551895142,74.85999298095703,28.25,2
-0.7571507692337036,-0.2812499701976776,0.615479588508606,39.70420455932617,1.052576780319214,74.85999298095703,28.25,2
-0.7545889616012573,-0.2812499701976776,0.6132925748825073,31.011369705200195,1.0511037111282349,74.85999298095703,28.25,2
-0.7529449462890625,-0.2812499701976776,0.6118890643119812,29.001054763793945,1.0501583814620972,74.85999298095703,28.25,2
-0.7518898844718933,-0.2756521999835968,0.6109883785247803,40.787353515625,1.0495517253875732,74.85999298095703,28.25,2
-0.7512128353118896,-0.2776576578617096,0.6160081624984741,67.4498291015625,1.0491623878479004,74.85999298095703,28.25,2
-0.750778317451477,-0.2789446413516998,0.6192295551300049,98.9156494140625,1.048912525177002,74.85999298095703,28.25,2
-0.7504994869232178,-0.27977055311203,0.6156991124153137,116.91964721679688,1.0487521886825562,74.85999298095703,28.25,2
-0.750320553779602,-0.274702787399292,0.6190312504768372,104.4631576538086,1.0486493110656738,74.85999298095703,28.25,2
-0.7502056956291199,-0.2770483791828155,0.6155717968940735,55.84647750854492,1.0508782863616943,75.12510681152344,28.25,2
-0.7501320242881775,-0.2785536348819732,0.6133517622947693,-14.463891983032228,1.0523086786270142,75.29524230957031,28.25,2
-0.7500846982002258,-0.2739218473434448,0.6175248026847839,-77.84542846679688,1.0532265901565552,75.40442657470703,28.25,2
-0.7500543594360352,-0.2709494531154632,0.6146050691604614,-116.67144012451172,1.0538157224655151,75.47449493408203,28.25,2
-0.7500348687171936,-0.2746396958827972,0.6183291077613831,-137.0522003173828,1.0541937351226809,75.51945495605469,28.25,2
-0.7500223517417908,-0.2770078778266907,0.6207190155982971,-151.56442260742188,1.0544363260269165,75.54830932617188,28.25,2
-0.7500143647193909,-0.2785276472568512,0.6166549324989319,-164.14842224121094,1.0545920133590698,75.56682586669922,28.25,2
-0.7500092387199402,-0.2795029580593109,0.6140468120574951,-175.39468383789062,1.0546919107437134,75.5787124633789,28.25,2
-0.7500059008598328,-0.2745310664176941,0.6123731136322021,-183.7296600341797,1.05246102809906,75.58634185791016,28.25,2
-0.7556015849113464,-0.271340399980545,0.6112990379333496,-180.7992401123047,1.0510294437408447,75.59123229980469,28.25,2
-0.7535947561264038,-0.269292801618576,0.6106097102165222,-164.16561889648438,1.0501106977462769,75.59437561035156,28.25,2
-0.7523068785667419,-0.2679787874221802,0.6157651543617249,-149.7401580810547,1.0495210886001587,75.59638977050781,28.25,2
-0.7570781707763672,-0.2727333009243011,0.6134758591651917,-154.07501220703125,1.0491427183151243,75.5976791381836,28.25,2
-0.7601401209831238,-0.2757844626903534,0.6120067238807678,-170.556640625,1.0488998889923096,75.5985107421875,28.25,2
-0.7565073370933533,-0.2777425348758697,0.6110638976097107,-177.81614685058594,1.0487440824508667,75.59904479980469,28.25,2
-0.7597737908363342,-0.2789991199970245,0.6104588508605957,-164.5010986328125,1.0486440658569336,75.5993881225586,28.25,2
-0.7562722563743591,-0.2798055112361908,0.610070526599884,-133.64756774902344,1.0485799312591553,75.599609375,28.25,2
-0.7540251612663269,-0.2803229987621307,0.6154191493988037,-91.5280990600586,1.0485388040542605,75.59974670410156,28.25,2
-0.7581809163093567,-0.2806551158428192,0.6132537722587585,-44.77975082397461,1.04851233959198,75.59983825683594,28.25,2
-0.7552500367164612,-0.2808682322502136,0.6118641495704651,-1.9537317752838133,1.0484954118728638,75.59989929199219,28.25,2
-0.7589669227600098,-0.2754072248935699,0.6109724044799805,31.763227462768555,1.0484845638275146,75.59993743896484,28.25,2
-0.7557544708251953,-0.2775004506111145,0.6104001402854919,57.98652267456055,1.0484775304794312,75.59996032714844,28.25,2
-0.7536928653717041,-0.2788437604904175,0.610032856464386,81.56111907958984,1.0484730005264282,75.5999755859375,28.25,2
-0.7523698806762695,-0.2741080522537231,0.6153949499130249,108.88502502441406,1.048470139503479,75.59998321533203,28.25,2
-0.7515208721160889,-0.2710689306259155,0.6188360452651978,146.57550048828125,1.0493861436843872,75.59999084472656,28.25,2
-0.750976026058197,-0.2691186070442199,0.6210443377494812,191.663818359375,1.049973964691162,75.59999084472656,28.25,2
-0.7506263852119446,-0.2734647691249847,0.6168637275695801,226.42417907714844,1.0503512620925903,75.59999084472656,28.25,2
-0.755999743938446,-0.276253879070282,0.614180862903595,233.838607788086,1.050593376159668,75.59999084472656,28.25,2
-0.7594480514526367,-0.2780437767505646,0.612459123134613,215.94772338867188,1.0507487058639526,75.59999084472656,28.25,2
-0.7560632228851318,-0.2735946476459503,0.6113542318344116,188.74961853027344,1.0508484840393066,75.59999084472656,28.25,2
-0.7594888210296631,-0.2763372361660003,0.6106451749801636,161.9091033935547,1.0509124994277954,75.59999084472656,28.25,2
-0.7560893893241882,-0.2780972719192505,0.6101901531219482,131.2569122314453,1.0509535074234009,75.59999084472656,28.25,2
-0.7539077997207642,-0.2792267501354217,0.6154959201812744,89.27023315429688,1.0491437911987305,75.8364486694336,28.23,2
-0.7581055760383606,-0.2799516022205353,0.6133030652999878,37.147254943847656,1.0479824542999268,75.98818969726562,28.23,2
-0.7607994675636292,-0.2804167568683624,0.6118957996368408,-11.058897972106934,1.0472371578216553,76.0855712890625,28.23,2
-0.7569304704666138,-0.2807152867317199,0.6109927296638489,-34.80460357666016,1.0467588901519775,76.14806365966797,28.23,2
-0.7600453495979309,-0.2809068560600281,0.6104131937026978,-26.043556213378903,1.0464519262313845,76.18816375732422,28.23,2
-0.7620443105697632,-0.2754320204257965,0.6100412607192993,-2.0390257835388184,1.0462548732757568,76.21389770507812,28.23,2
-0.7577293515205383,-0.2775163650512695,0.6154003143310547,13.899503707885742,1.046128511428833,76.23041534423828,28.23,2
-0.760558009147644,-0.2788539826869964,0.6132416725158691,19.742862701416016,1.046047329902649,76.24101257324219,28.23,2
-0.7567754983901978,-0.2797123789787292,0.6118564009666443,25.044050216674805,1.046913504600525,76.24781799316406,28.23,2
-0.7599459290504456,-0.2802632451057434,0.6109673976898193,24.4872989654541,1.0474693775177002,76.25218200683594,28.23,2
-0.7563827037811279,-0.2806167602539062,0.6159946918487549,5.504199028015137,1.047826051712036,76.2549819946289,28.23,2
-0.7596938014030457,-0.2808436155319214,0.6136231422424316,-25.615556716918945,1.0480549335479736,76.25678253173828,28.23,2
-0.7562209367752075,-0.2753914296627044,0.6121011972427368,-47.85061264038086,1.0482017993927002,76.2579345703125,28.23,2
-0.7539922595024109,-0.2774903178215027,0.6111245155334473,-52.557899475097656,1.0482960939407349,76.25867462158203,28.23,2
-0.7525619864463806,-0.2788372635841369,0.6104977130889893,-49.96128463745117,1.0483566522598269,76.25914764404297,28.23,2
-0.7516441345214844,-0.2797016501426697,0.6100955009460449,-49.16549301147461,1.0483955144882202,76.25945281982422,28.23,2
-0.7566528916358948,-0.2802563607692718,0.6098373532295227,-45.87113952636719,1.0465840101242063,76.25965118408203,28.23,2
-0.7598671913146973,-0.2806123495101928,0.6096717119216919,-32.94121551513672,1.045421481132507,76.25977325439453,28.23,2
-0.7563322186470032,-0.2808407843112945,0.6095654368400574,-12.480690956115724,1.0446754693984983,76.25985717773438,28.23,2
-0.7540636658668518,-0.2809873819351196,0.6150949597358704,5.876673221588135,1.0441967248916626,76.2599105834961,28.23,2
-0.7582055926322937,-0.2810814678668976,0.6130457520484924,13.480091094970703,1.043889403343201,76.25994110107422,28.23,2
-0.7552658915519714,-0.281141847372055,0.611730694770813,9.34934902191162,1.0436922311782837,76.25996398925781,28.23,2
-0.7533793449401855,-0.281180590391159,0.616484522819519,2.528358459472656,1.0435656309127808,76.25997924804688,28.23,2
-0.7521686553955078,-0.2812054455280304,0.613937497138977,8.619325637817383,1.043484449386597,76.2599868774414,28.23,2
-0.7513917088508606,-0.2812214195728302,0.6179007291793823,39.06071090698242,1.044350504875183,76.25999450683594,28.23,2
-0.7564908862113953,-0.2812316715717315,0.6148463487625122,87.47896575927734,1.0449063777923584,76.25999450683594,28.23,2
-0.7541654706001282,-0.2812382280826568,0.6184839606285095,130.67086791992188,1.0452630519866943,76.25999450683594,28.23,2
-0.7470753788948059,-0.2812424600124359,0.6208183765411377,152.330810546875,1.0454919338226318,76.25999450683594,28.23,2
-0.7425253987312317,-0.2812451720237732,0.6279142498970032,158.06980895996094,1.0456387996673584,76.25999450683594,28.23,2
-0.7452032566070557,-0.2812469005584717,0.6268702149391174,155.5405731201172,1.045733094215393,76.25999450683594,28.23,2
-0.746921718120575,-0.2812480032444,0.6262001991271973,134.64320373535156,1.0457936525344849,76.25999450683594,28.23,2
-0.7424267530441284,-0.2812487185001373,0.6257702112197876,86.99021911621094,1.0458325147628784,76.25999450683594,28.23,2
-0.7395421266555786,-0.2812491655349731,0.6310920715332031,33.76023483276367,1.0435620546340942,76.49286651611328,28.21,2
-0.7376909852027893,-0.281249463558197,0.6345072984695435,11.48727798461914,1.042104959487915,76.6423110961914,28.21,2
-0.736503005027771,-0.2812496423721313,0.6311012506484985,31.522016525268555,1.0411698818206787,76.73821258544922,28.21,2
-0.735740602016449,-0.2812497615814209,0.6345131993293762,69.75812530517578,1.04056978225708,76.79975891113281,28.21,2
-0.7408491373062134,-0.281249850988388,0.6311050057411194,95.50318145751952,1.040184736251831,76.8392562866211,28.21,2
-0.7441275119781494,-0.2812499105930328,0.6233200430870056,97.16793823242188,1.0399376153945925,76.8646011352539,28.21,2
-0.7462313771247864,-0.2812499403953552,0.6183241009712219,82.0967788696289,1.0397790670394895,76.88086700439453,28.21,2
-0.7475815415382385,-0.2812499701976776,0.6151180267333984,63.22492218017578,1.0396772623062134,76.89130401611328,28.21,2
-0.7484479546546936,-0.2812499701976776,0.6186583042144775,46.08769989013672,1.039152979850769,76.89800262451172,28.21,2
-0.7490040063858032,-0.2812499701976776,0.6153324842453003,24.865345001220703,1.0388165712356567,76.90230560302734,28.21,2
-0.7493607997894287,-0.2812499701976776,0.6131981611251831,-7.30451774597168,1.0386006832122805,76.90505981445312,28.21,2
-0.7551875710487366,-0.2812499701976776,0.6118285059928894,-43.9526481628418,1.0384621620178225,76.90682983398438,28.21,2
-0.7533290982246399,-0.2812499701976776,0.6109495162963867,-64.10368347167969,1.0383732318878174,76.90796661376953,28.21,2
-0.7577341794967651,-0.2812499701976776,0.6103854179382324,-49.50695037841797,1.0383161306381226,76.90869903564453,28.21,2
-0.7549633383750916,-0.2812499701976776,0.6100234389305115,-5.589247703552246,1.0382795333862305,76.90916442871094,28.21,2
-0.7531852126121521,-0.2812499701976776,0.6097911596298218,40.00950622558594,1.038256049156189,76.90946197509766,28.21,2
-0.7520440816879272,-0.2812499701976776,0.6096420884132385,63.30717086791992,1.0382410287857056,76.90965270996094,28.21,2
-0.7513117790222168,-0.2812499701976776,0.609546422958374,58.966102600097656,1.038231372833252,76.90977478027344,28.21,2
-0.7564396262168884,-0.2812499701976776,0.6094850301742554,29.540224075317383,1.038225173950195,76.90985870361328,28.21,2
-0.7541325688362122,-0.2812499701976776,0.6094456315040588,-20.25765991210937,1.0382211208343506,76.909912109375,28.21,2
-0.758249819278717,-0.2812499701976776,0.6094202995300293,-75.94963836669922,1.03821861743927,76.90994262695312,28.21,2
-0.7608920335769653,-0.2812499701976776,0.6094040870666504,-120.67822265625,1.0382169485092163,76.90996551513672,28.21,2
-0.7625876665115356,-0.2812499701976776,0.6093936562538147,-152.87188720703125,1.0382158756256104,76.90998077392578,28.21,2
-0.7580780386924744,-0.2812499701976776,0.6093869805335999,-183.32310485839844,1.038215160369873,76.90998840332031,28.21,2
-0.7607817649841309,-0.2812499701976776,0.609382688999176,-217.7792053222656,1.0409690141677856,76.90999603271484,28.21,2
-0.7625169157981873,-0.2812499701976776,0.6093799471855164,-251.1475982666016,1.042736291885376,76.90999603271484,28.21,2
-0.7636303901672363,-0.2812499701976776,0.6093781590461731,-272.52569580078125,1.043870449066162,76.90999603271484,28.21,2
-0.7587472200393677,-0.2812499701976776,0.6093770265579224,-270.4529113769531,1.0445982217788696,76.90999603271484,28.21,2
-0.7612112164497375,-0.2812499701976776,0.6037785410881042,-238.79623413085932,1.0450652837753296,76.90999603271484,28.21,2
-0.7627924680709839,-0.2812499701976776,0.6057835221290588,-181.336654663086,1.0453650951385498,76.90999603271484,28.21,2
-0.7638072371482849,-0.2812499701976776,0.6070702075958252,-109.77948760986328,1.0455574989318848,76.90999603271484,28.21,2
-0.7644584774971008,-0.2812499701976776,0.6022981405258179,-36.72378540039063,1.0456808805465698,76.90999603271484,28.21,2
-0.7648763656616211,-0.2812499701976776,0.6048334836959839,32.815364837646484,1.0466783046722412,77.12853240966797,28.21,2
-0.7651445865631104,-0.2812499701976776,0.6064605116844177,106.4281997680664,1.047318458557129,77.2687759399414,28.21,2
-0.7653167247772217,-0.2812499701976776,0.6019068956375122,196.0541381835937,1.047729253768921,77.35877990722656,28.21,2
-0.7654271721839905,-0.2812499701976776,0.6045824289321899,296.37908935546875,1.0479928255081177,77.41653442382812,28.21,2
-0.7654980421066284,-0.2812499701976776,0.600701630115509,377.2954711914063,1.0481619834899902,77.45359802246094,28.21,2
-0.765543520450592,-0.2812499701976776,0.5982111692428589,409.7158203125,1.048270583152771,77.47738647460938,28.21,2
-0.765572726726532,-0.2812499701976776,0.5966129302978516,392.8003845214844,1.0483402013778689,77.4926528930664,28.21,2
-0.7655914425849915,-0.2812499701976776,0.6011850237846375,344.8403015136719,1.0483849048614502,77.50244903564453,28.21,2
-0.7656034827232361,-0.2812499701976776,0.59852135181427,278.609130859375,1.048413634300232,77.50873565673828,28.21,2
-0.7656111717224121,-0.2812499701976776,0.6024097800254822,198.32034301757807,1.0484319925308228,77.51277160644531,28.21,2
-0.7712138891220093,-0.2812499701976776,0.5993073582649231,108.58028411865234,1.0484437942504885,77.5153579711914,28.21,2
-0.7692116498947144,-0.2812499701976776,0.5973163843154907,14.089754104614258,1.0484514236450195,77.51702117919922,28.21,2
-0.7679266929626465,-0.2812499701976776,0.5960386991500854,-81.62583923339844,1.0484563112258911,77.5180892944336,28.21,2
-0.7671021223068237,-0.2812499701976776,0.600816547870636,-170.8943634033203,1.0484594106674194,77.5187759399414,28.21,2
-0.7665729522705078,-0.2812499701976776,0.598284900188446,-242.0140991210937,1.0484614372253418,77.51921081542969,28.21,2
-0.7662333250045776,-0.2756521999835968,0.5966602563858032,-288.2708435058594,1.0484627485275269,77.51949310302734,28.21,2
-0.7660154104232788,-0.2776576578617096,0.5956176519393921,-310.8765869140625,1.0498406887054443,77.5196762084961,28.21,2
-0.765875518321991,-0.2789446413516998,0.5949485301971436,-312.5759582519531,1.050724983215332,77.51979064941406,28.21,2
-0.7657857537269592,-0.27977055311203,0.5945191383361816,-296.69586181640625,1.0512925386428833,77.51986694335938,28.21,2
-0.7657281756401062,-0.2803005874156952,0.594243586063385,-272.2964172363281,1.051656723022461,77.51991271972656,28.21,2
-0.7656912207603455,-0.2806407213211059,0.5996645092964172,-249.23666381835932,1.0518903732299805,77.51994323730469,28.21,2
-0.7656674981117249,-0.2808589935302734,0.5975455641746521,-227.36981201171875,1.0520403385162354,77.51996612548828,28.21,2
-0.7656522989273071,-0.2809990644454956,0.5961858034133911,-198.55880737304688,1.0521366596221924,77.51997375488281,28.21,2
-0.765642523765564,-0.2810889780521393,0.5953131318092346,-156.22035217285156,1.0521984100341797,77.51998138427734,28.21,2
-0.7656362652778625,-0.2811466753482818,0.5947531461715698,-97.79199981689452,1.0504015684127808,77.51998901367188,28.21,2
-0.7656322121620178,-0.2811836898326874,0.594393789768219,-27.07123756408692,1.049248456954956,77.51998901367188,28.21,2
-0.7656296491622925,-0.2812074422836303,0.5941631197929382,39.52212142944336,1.0485085248947144,77.51998901367188,28.21,2
-0.7656279802322388,-0.2812227010726928,0.5940151214599609,80.09044647216797,1.0480337142944336,77.51998901367188,28.21,2
-0.7656269073486328,-0.281232476234436,0.593920111656189,89.34407806396484,1.0477288961410522,77.51998901367188,28.21,2
-0.7656262516975403,-0.2812387645244598,0.5938591957092285,86.17920684814453,1.047533392906189,77.51998901367188,28.21,2
-0.7656257748603821,-0.2812427878379822,0.5938200950622559,91.44229888916016,1.047407865524292,77.51998901367188,28.21,2
-0.7656254768371582,-0.2756476104259491,0.5993927717208862,103.70821380615234,1.0473272800445557,77.51998901367188,28.21,2
-0.7656252980232239,-0.2776547074317932,0.6029689908027649,106.38861846923828,1.0486527681350708,77.72419738769531,28.23,2
-0.7656251788139343,-0.278942734003067,0.5996662378311157,93.16582489013672,1.0495033264160156,77.8552474975586,28.23,2
-0.7656251192092896,-0.2797693312168121,0.5975466966629028,72.74305725097656,1.0500491857528689,77.93934631347656,28.23,2
-0.7712228298187256,-0.2802997827529907,0.5961865186691284,53.19184494018555,1.0503995418548584,77.99331665039062,28.23,2
-0.7692173719406128,-0.2806402146816253,0.5953136086463928,37.17348861694336,1.0506243705749512,78.0279541015625,28.23,2
-0.7679303884506226,-0.2808586657047272,0.5947534441947937,26.04834175109864,1.0507686138153076,78.05017852783203,28.23,2
-0.76710444688797,-0.2809988558292389,0.5943939685821533,14.39840030670166,1.0508612394332886,78.06444549560547,28.23,2
-0.7665744423866272,-0.2810888290405273,0.5941632390022278,-10.130921363830566,1.0509206056594849,78.07360076904297,28.23,2
-0.766234278678894,-0.2811465561389923,0.5940151810646057,-49.02303314208984,1.0495816469192505,78.07947540283203,28.23,2
-0.7660160064697266,-0.2811836302280426,0.5939201712608337,-83.39675903320312,1.048722267150879,78.08324432373047,28.23,2
-0.7658759355545044,-0.281207412481308,0.5938591957092285,-90.36602783203124,1.048170804977417,78.08566284179688,28.23,2
-0.7657860517501831,-0.2812226712703705,0.5938200950622559,-64.10000610351562,1.0478168725967407,78.08721160888672,28.23,2
-0.7657283544540405,-0.281232476234436,0.5937950015068054,-19.550676345825195,1.0475897789001465,78.08821105957031,28.23,2
-0.765691339969635,-0.2812387645244598,0.5937789082527161,22.43376922607422,1.0474441051483154,78.08885192871094,28.23,2
-0.7656675577163696,-0.2812427878379822,0.599366307258606,54.24569320678711,1.047350525856018,78.08926391601562,28.23,2
-0.7656522989273071,-0.2812453806400299,0.6029520034790039,82.8541030883789,1.047290563583374,78.08952331542969,28.23,2
-0.765642523765564,-0.2812470495700836,0.5996553301811218,112.00047302246094,1.0477113723754885,78.08969116210938,28.23,2
-0.7656362652778625,-0.2812480926513672,0.5975397229194641,132.60369873046875,1.0479813814163208,78.08979797363281,28.23,2
-0.7656322121620178,-0.2812487781047821,0.5961820483207703,134.9095458984375,1.048154592514038,78.0898666381836,28.23,2
-0.7712274193763733,-0.2812492251396179,0.5953107476234436,122.34561157226562,1.048265814781189,78.08991241455078,28.23,2
-0.7748180627822876,-0.2812494933605194,0.5947515964508057,109.36751556396484,1.04833722114563,78.0899429321289,28.23,2
-0.7715246081352234,-0.2812496721744537,0.5943927764892578,109.48663330078124,1.0483829975128174,78.0899658203125,28.23,2
-0.769411027431488,-0.2812497913837433,0.5941625237464905,124.83201599121094,1.0484123229980469,78.08997344970703,28.23,2
-0.7680546641349792,-0.2812498807907104,0.5940147042274475,142.99853515625,1.048431158065796,78.08998107910156,28.23,2
-0.7727819681167603,-0.2812499105930328,0.5939198732376099,145.299072265625,1.04706609249115,78.0899887084961,28.23,2
-0.7758157253265381,-0.2812499403953552,0.5938590168952942,121.8371124267578,1.0461901426315308,78.0899887084961,28.23,2
-0.7721648216247559,-0.2812499701976776,0.5938199758529663,77.94801330566406,1.0456279516220093,78.0899887084961,28.23,2
-0.7698218822479248,-0.2812499701976776,0.5993926525115967,26.155426025390625,1.0452672243118286,78.0899887084961,28.23,2
-0.7739160656929016,-0.2812499701976776,0.5973711013793945,-25.34604454040528,1.045035719871521,78.0899887084961,28.23,2
-0.7709457278251648,-0.2812499701976776,0.5960738062858582,-76.23436737060547,1.0448871850967407,78.0899887084961,28.23,2
-0.769039511680603,-0.2812499701976776,0.5952413082122803,-126.2921371459961,1.0447918176651,78.0899887084961,28.23,2
-0.7734140157699585,-0.2812499701976776,0.5947070121765137,-164.6571807861328,1.0447306632995603,78.0899887084961,28.23,2
-0.7706235647201538,-0.2812499701976776,0.5943641662597656,-175.06915283203125,1.0456092357635498,78.26195526123047,28.25,2
-0.768832802772522,-0.2812499701976776,0.5941441655158997,-155.84893798828125,1.046173095703125,78.372314453125,28.25,2
-0.7732813358306885,-0.2812499701976776,0.5940029621124268,-123.3768539428711,1.0465348958969116,78.4431381225586,28.25,2
-0.7705383896827698,-0.2812499701976776,0.5939123630523682,-92.51051330566406,1.0467671155929563,78.48858642578125,28.25,2
-0.7687781453132629,-0.2812499701976776,0.5938541889190674,-67.22809600830078,1.046916127204895,78.51775360107422,28.25,2
-0.7676485180854797,-0.2812499701976776,0.593816876411438,-50.1613883972168,1.0470117330551147,78.53646850585938,28.25,2
-0.7669236063957214,-0.2812499701976776,0.5937929153442383,-44.45743179321289,1.0470731258392334,78.5484848022461,28.25,2
-0.7664583921432495,-0.2812499701976776,0.5937775373458862,-43.79557418823242,1.0471124649047852,78.55619049072266,28.25,2
-0.7661598324775696,-0.2812499701976776,0.5937676429748535,-31.87076568603516,1.0453016757965088,78.5611343383789,28.25,2
-0.7659682035446167,-0.2812499701976776,0.5937613248825073,2.876910448074341,1.0441396236419678,78.5643081665039,28.25,2
-0.7658452391624451,-0.2812499701976776,0.5937572717666626,53.84732055664063,1.043393850326538,78.56634521484375,28.25,2
-0.7657663226127625,-0.2812499701976776,0.5937546491622925,100.50774383544922,1.0429152250289917,78.56765747070312,28.25,2
-0.7657157182693481,-0.2812499701976776,0.5937529802322388,125.73346710205078,1.0426081418991089,78.56849670410156,28.25,2
-0.7656832337379456,-0.2812499701976776,0.5937519073486328,126.36634063720705,1.0424110889434814,78.56903839111328,28.25,2
-0.7656623721122742,-0.2812499701976776,0.5937512516975403,110.53983306884766,1.042284607887268,78.56938171386719,28.25,2
-0.7656489610671997,-0.2812499701976776,0.5937507748603821,91.38027954101562,1.042203426361084,78.5696029663086,28.25,2
-0.765640377998352,-0.2812499701976776,0.5937504768371582,78.85191345214844,1.0407742261886597,78.56974792480469,28.25,2
-0.7656348943710327,-0.2812499701976776,0.5937502980232239,70.32111358642578,1.039857029914856,78.56983947753906,28.25,2
-0.765631377696991,-0.2812499701976776,0.5937501788139343,52.79475402832031,1.0392683744430542,78.56990051269531,28.25,2
-0.7656291127204895,-0.2812499701976776,0.5937501192092896,20.20952415466309,1.0388906002044678,78.56993865966797,28.25,2
-0.7712253928184509,-0.2812499701976776,0.5937500596046448,-16.23584747314453,1.038648247718811,78.56996154785156,28.25,2
-0.7692189812660217,-0.2812499701976776,0.5937500596046448,-38.89712524414063,1.0384926795959473,78.56997680664062,28.25,2
-0.7679314017295837,-0.2812499701976776,0.5937500596046448,-38.85516357421875,1.0383927822113037,78.56998443603516,28.25,2
-0.7727028727531433,-0.2812499701976776,0.5937500596046448,-16.386981964111328,1.038328766822815,78.56999206542969,28.25,2
-0.7701671719551086,-0.2812499701976776,0.5937500596046448,27.9749698638916,1.0387465953826904,78.56999206542969,28.25,2
-0.7685399055480957,-0.2812499701976776,0.5937500596046448,96.575927734375,1.03901469707489,78.56999206542969,28.25,2
-0.7674956321716309,-0.2812499701976776,0.5937500596046448,184.28599548339844,1.039186716079712,78.56999206542969,28.25,2
-0.7668254375457764,-0.2812499701976776,0.5937500596046448,266.70098876953125,1.039297103881836,78.56999206542969,28.25,2
-0.7719931602478027,-0.2812499701976776,0.5937500596046448,311.3789367675781,1.0393680334091189,78.56999206542969,28.25,2
-0.7697117328643799,-0.2812499701976776,0.5937500596046448,306.3708801269531,1.039413571357727,78.56999206542969,28.25,2
-0.7682476043701172,-0.2812499701976776,0.5937500596046448,266.4427490234375,1.039442777633667,78.56999206542969,28.25,2
-0.7673080563545227,-0.2812499701976776,0.5937500596046448,209.94813537597656,1.0394614934921265,78.56999206542969,28.25,2
-0.7667050957679749,-0.2812499701976776,0.5937500596046448,143.19825744628906,1.03855562210083,78.71329498291016,28.21,2
-0.7719159126281738,-0.2812499701976776,0.5937500596046448,67.43815612792969,1.037974238395691,78.80525970458984,28.21,2
-0.7752599120140076,-0.2812499701976776,0.5937500596046448,-9.611639022827148,1.0376012325286863,78.8642807006836,28.21,2
-0.7774059176445007,-0.2812499701976776,0.5937500596046448,-71.55378723144531,1.0373618602752686,78.90215301513672,28.21,2
-0.7787830829620361,-0.2812499701976776,0.5937500596046448,-104.05355834960938,1.0372081995010376,78.92646026611328,28.21,2
-0.7796669006347656,-0.2812499701976776,0.5937500596046448,-109.60885620117188,1.037109613418579,78.94206237792969,28.21,2
-0.7802340388298035,-0.2812499701976776,0.5937500596046448,-106.70738220214844,1.0370463132858276,78.95207214355469,28.21,2
-0.7805980443954468,-0.2812499701976776,0.5937500596046448,-113.9487075805664,1.0370056629180908,78.95849609375,28.21,2
-0.7808316349983215,-0.2812499701976776,0.5937500596046448,-138.21395874023438,1.0383567810058594,78.96261596679688,28.21,2
-0.7753837704658508,-0.2812499701976776,0.5937500596046448,-170.7136688232422,1.0392237901687622,78.96526336669922,28.21,2
-0.7774853706359863,-0.2812499701976776,0.5937500596046448,-189.23426818847656,1.0397802591323853,78.96695709228516,28.21,2
-0.7732362747192383,-0.2812499701976776,0.5937500596046448,-174.63015747070312,1.0401372909545898,78.96804809570312,28.21,2
-0.7761072516441345,-0.2812499701976776,0.5937500596046448,-131.38482666015625,1.0403664112091064,78.96875,28.21,2
-0.7779496908187866,-0.2812499701976776,0.5937500596046448,-85.36849975585938,1.040513515472412,78.96920013427734,28.21,2
-0.7735342979431152,-0.2812499701976776,0.5937500596046448,-61.6093978881836,1.0406079292297363,78.96949005126953,28.21,2
-0.7762985229492188,-0.2812499701976776,0.588152289390564,-70.24003601074219,1.040668487548828,78.96967315673828,28.21,2
-0.7724746465682983,-0.2812499701976776,0.5845599174499512,-104.7115707397461,1.039330244064331,78.96978759765625,28.21,2
-0.7756184935569763,-0.2812499701976776,0.5822545886039734,-141.5936279296875,1.0384713411331177,78.96986389160156,28.21,2
-0.7776360511779785,-0.2812499701976776,0.5807751417160034,-152.1680908203125,1.0379202365875244,78.96990966796875,28.21,2
-0.7789307832717896,-0.2812499701976776,0.585423469543457,-128.7566375732422,1.0375665426254272,78.96994018554688,28.21,2
-0.7797616720199585,-0.2812499701976776,0.588406503200531,-93.07897186279295,1.0373395681381226,78.96996307373047,28.21,2
-0.7802948951721191,-0.2812499701976776,0.5903208255767822,-68.93994903564453,1.0371938943862915,78.96997833251953,28.21,2
-0.7750393152236938,-0.2812499701976776,0.5915493369102478,-56.96699905395508,1.0371004343032837,78.96998596191406,28.21,2
-0.7772643566131592,-0.2812499701976776,0.5923377275466919,-44.67984008789063,1.0370404720306396,78.9699935913086,28.21,2
-0.7786922454833984,-0.2812499701976776,0.5928437113761902,-26.88882637023925,1.0370019674301147,78.9699935913086,28.21,2
-0.7796086072921753,-0.2812499701976776,0.5931683778762817,-6.78383207321167,1.0369772911071775,78.9699935913086,28.21,2
-0.7801966667175293,-0.2812499701976776,0.5933767557144165,8.253610610961914,1.0369614362716677,78.9699935913086,28.21,2
-0.7805740237236023,-0.2812499701976776,0.5935104489326477,4.938434600830078,1.036951184272766,78.9699935913086,28.21,2
-0.7808161973953247,-0.2812499701976776,0.5935962796211243,-26.15059280395508,1.0369446277618408,78.9699935913086,28.21,2
-0.7809715867042542,-0.2812499701976776,0.5936513543128967,-72.54473114013672,1.0369404554367063,78.9699935913086,28.21,2
-0.7810713052749634,-0.2812499701976776,0.5936866998672485,-103.9156494140625,1.0369377136230469,78.9699935913086,28.21,2
-0.7811353206634521,-0.2812499701976776,0.5881115794181824,-98.31764221191406,1.0369360446929932,78.9699935913086,28.21,2
-0.7755786180496216,-0.2812499701976776,0.5901315808296204,-59.22900390625,1.0360167026519775,79.10613250732422,28.21,2
-0.7720126509666443,-0.2812499701976776,0.5914279222488403,-8.879843711853027,1.0354267358779907,79.19349670410156,28.21,2
-0.7753220200538635,-0.2812499701976776,0.5866620540618896,28.952098846435547,1.0350481271743774,79.24956512451172,28.21,2
-0.7774457931518555,-0.2812499701976776,0.5892013907432556,40.26512145996094,1.034805178642273,79.2855453491211,28.21,2
-0.7788086533546448,-0.2812499701976776,0.5908309817314148,22.80181312561035,1.0346492528915403,79.30863952636719,28.21,2
-0.7796832919120789,-0.2812499701976776,0.5862789750099182,-15.629124641418455,1.0345492362976074,79.32345581054688,28.21,2
-0.7802445888519287,-0.2812499701976776,0.5833577513694763,-59.41567993164063,1.0344849824905396,79.33296203613281,28.21,2
-0.7806047797203064,-0.2812499701976776,0.5814830660820007,-89.97660064697266,1.034443736076355,79.33906555175781,28.21,2
-0.7808359265327454,-0.2812499701976776,0.5802800059318542,-94.34856414794922,1.0348762273788452,79.34297943115234,28.21,2
-0.7809842824935913,-0.2812499701976776,0.5795079469680786,-73.122314453125,1.0351537466049194,79.34549713134766,28.21,2
-0.7810794711112976,-0.2812499701976776,0.5846102833747864,-39.64948272705078,1.0353318452835083,79.34710693359375,28.21,2
-0.7811405658721924,-0.2812499701976776,0.5822868943214417,-9.115375518798828,1.0354461669921875,79.34814453125,28.21,2
-0.7811797857284546,-0.2812499701976776,0.5807958841323853,11.515021324157717,1.0355194807052612,79.34880828857422,28.21,2
-0.7812049388885498,-0.2812499701976776,0.5798389911651611,23.86236000061035,1.0355665683746338,79.34923553466797,28.21,2
-0.7812210917472839,-0.2812499701976776,0.5792249441146851,32.53851318359375,1.0355968475341797,79.3495101928711,28.21,2
-0.7812314629554749,-0.2812499701976776,0.578830897808075,39.396095275878906,1.0356162786483765,79.34968566894531,28.21,2
-0.7812380790710449,-0.2812499701976776,0.578577995300293,41.38582229614258,1.0342515707015991,79.34980010986328,28.21,2
-0.7812423706054688,-0.2756521999835968,0.5784156918525696,35.45457458496094,1.0333757400512695,79.34986877441406,28.21,2
-0.7812451124191284,-0.2776576578617096,0.578311562538147,25.06346702575684,1.0328136682510376,79.34991455078125,28.21,2
-0.7812468409538269,-0.2789446413516998,0.5782447457313538,20.533849716186523,1.0324530601501465,79.34994506835938,28.21,2
-0.7812479734420776,-0.27977055311203,0.5782018303871155,33.63394927978516,1.0322215557098389,79.34996795654297,28.21,2
-0.7868464589118958,-0.2803005874156952,0.5781742930412292,66.98631286621094,1.0320730209350586,79.3499755859375,28.21,2
-0.7848414778709412,-0.2806407213211059,0.5837544202804565,106.64315795898438,1.031977653503418,79.34998321533203,28.21,2
-0.7891525626182556,-0.2808589935302734,0.5761398673057556,133.47193908691406,1.0319164991378784,79.34999084472656,28.21,2
-0.7863214015960693,-0.2809990644454956,0.5768510699272156,141.61085510253906,1.0318772792816162,79.34999084472656,28.21,2
-0.7901023030281067,-0.2810889780521393,0.5773074626922607,135.8640899658203,1.031852126121521,79.34999084472656,28.21,2
-0.7869309186935425,-0.2811466753482818,0.577600359916687,117.1794891357422,1.031835913658142,79.34999084472656,28.21,2
-0.7904934883117676,-0.2811836898326874,0.572190523147583,83.82589721679688,1.0318255424499512,79.34999084472656,28.21,2
-0.7871819138526917,-0.2812074422836303,0.5743166208267212,41.4813232421875,1.0318188667297363,79.34999084472656,28.21,2
-0.7906545400619507,-0.2812227010726928,0.5700832009315491,2.355539560317993,1.0318145751953125,79.34999084472656,28.21,2
-0.7872852683067322,-0.281232476234436,0.5729642510414124,-24.31155586242676,1.0318118333816528,79.34999084472656,28.21,2
-0.7907208800315857,-0.2812387645244598,0.5748131275177002,-39.56560516357422,1.0318100452423096,79.34999084472656,28.21,2
-0.7929256558418274,-0.2812427878379822,0.5704018473625183,-52.08469772338867,1.0308910608291626,79.4323959350586,28.21,2
-0.7887427806854248,-0.2812453806400299,0.5675709247589111,-66.8790512084961,1.0303013324737549,79.48527526855469,28.21,2
-0.7860584259033203,-0.2812470495700836,0.5713520050048828,-81.54645538330078,1.0299228429794312,79.51921081542969,28.21,2
-0.7843357920646667,-0.2812480926513672,0.573778510093689,-94.3052749633789,1.0296800136566162,79.5409927368164,28.21,2
-0.7832303047180176,-0.2812487781047821,0.575335681438446,-107.35470581054688,1.0295242071151731,79.55496978759766,28.21,2
-0.7825208306312561,-0.2812492251396179,0.5763349533081055,-123.0447006225586,1.0294241905212402,79.56393432617188,28.21,2
-0.7820655703544617,-0.2812494933605194,0.5769762396812439,-142.5572967529297,1.029360055923462,79.56968688964844,28.21,2
-0.7817733883857727,-0.2812496721744537,0.577387809753418,-164.06805419921875,1.0293188095092771,79.57337951660156,28.21,2
-0.7815858721733093,-0.2812497913837433,0.5776519179344177,-179.7353515625,1.0288333892822266,79.57575225830078,28.21,2
-0.7870633006095886,-0.2812498807907104,0.5722236037254333,-179.7549285888672,1.0285218954086304,79.57727813720703,28.21,2
-0.7849806547164917,-0.2812499105930328,0.579935610294342,-159.21424865722656,1.0283219814300537,79.57825469970703,28.21,2
-0.7836441397666931,-0.2812499403953552,0.5792869329452515,-120.15906524658205,1.028193712234497,79.5788803100586,28.21,2
-0.7827864289283752,-0.2812499701976776,0.5788706541061401,-72.6436996459961,1.028111457824707,79.57928466796875,28.21,2
-0.7822359800338745,-0.2812499701976776,0.5786035060882568,-30.53277969360352,1.028058648109436,79.57954406738281,28.21,2
-0.7818827629089355,-0.2812499701976776,0.5784320831298828,-0.4990527033805847,1.0280247926712036,79.57970428466797,28.21,2
-0.7816560864448547,-0.2812499701976776,0.5839198231697083,18.130001068115234,1.0280029773712158,79.5798110961914,28.21,2
-0.781510591506958,-0.2812499701976776,0.5874415636062622,23.71523666381836,1.0270707607269287,79.57987976074219,28.21,2
-0.7814172506332397,-0.2812499701976776,0.5897015929222107,16.046648025512695,1.026472568511963,79.57992553710938,28.21,2
-0.7757595777511597,-0.2812499701976776,0.5911519527435303,6.33190393447876,1.0260887145996094,79.5799560546875,28.21,2
-0.7721287608146667,-0.2868477404117584,0.5920827388763428,8.376872062683105,1.025842308998108,79.57997131347656,28.21,2
-0.7753965258598328,-0.284842312335968,0.5870822668075562,22.94474601745605,1.0256842374801636,79.5799789428711,28.21,2
-0.7718958258628845,-0.2835553288459778,0.5894710421562195,41.765899658203125,1.025582790374756,79.57998657226562,28.21,2
-0.7696492671966553,-0.2827294170856476,0.5910040140151978,60.45050048828125,1.0255177021026611,79.57999420166016,28.21,2
-0.7682075500488281,-0.2821994125843048,0.5919877886772156,77.3421630859375,1.0254758596420288,79.57999420166016,28.21,2
-0.7672823071479797,-0.281859278678894,0.5926191210746765,85.82134246826172,1.0231536626815796,79.57999420166016,28.21,2
-0.7666885852813721,-0.2816410064697265,0.5930242538452148,79.82720947265625,1.0216634273529053,79.57999420166016,28.21,2
-0.7719053030014038,-0.2815009355545044,0.5932842493057251,66.15351867675781,1.020707130432129,79.57999420166016,28.21,2
-0.7696553468704224,-0.2814110219478607,0.5934510827064514,60.18368911743164,1.020093321800232,79.57999420166016,28.21,2
-0.7682114243507385,-0.2813533246517181,0.5935581922531128,68.14643096923828,1.0196994543075562,79.57999420166016,28.21,2
-0.7672848105430603,-0.2813163101673126,0.5936269164085388,82.30604553222656,1.0194467306137085,79.57999420166016,28.21,2
-0.766690194606781,-0.2812925577163696,0.5936710238456726,92.91905212402344,1.01928448677063,79.57999420166016,28.21,2
-0.766308605670929,-0.2812772989273071,0.5936993360519409,99.01693725585938,1.019180417060852,79.57999420166016,28.21,2
-0.7660636901855469,-0.2812675237655639,0.5937175154685974,109.64395141601562,1.019572615623474,79.67672729492188,28.19,2
-0.7659065127372742,-0.2812612354755401,0.5937291383743286,135.89564514160156,1.0198242664337158,79.73880004882812,28.19,2
-0.7658056616783142,-0.2868549823760986,0.5937365889549255,177.22579956054688,1.0199857950210571,79.77864074707031,28.19,2
-0.7601431608200073,-0.2848469614982605,0.5937414169311523,218.3803558349609,1.0200893878936768,79.80420684814453,28.19,2
-0.7621070742607117,-0.2835583090782165,0.5937445163726807,245.1241607666016,1.020155906677246,79.82061004638672,28.19,2
-0.7689651846885681,-0.2883291244506836,0.5937464833259583,257.33209228515625,1.0201985836029053,79.83113861083984,28.19,2
-0.7677685618400574,-0.2857929766178131,0.5937477350234985,261.644775390625,1.020226001739502,79.83789825439453,28.19,2
-0.772598385810852,-0.2841654121875763,0.5937485694885254,259.39678955078125,1.020243525505066,79.84223175048828,28.19,2
-0.7701001167297363,-0.2831209301948547,0.5937491059303284,248.73977661132807,1.0184186697006226,79.84501647949219,28.19,2
-0.7684968709945679,-0.2824506461620331,0.5937494039535522,230.7194976806641,1.0172476768493652,79.8468017578125,28.19,2
-0.7674679756164551,-0.2820205092430115,0.5937496423721313,205.1651611328125,1.016496181488037,79.84794616699219,28.19,2
-0.7668077349662781,-0.2817444801330566,0.5937497615814209,169.3411407470703,1.0160138607025146,79.84867858886719,28.19,2
-0.7663840055465698,-0.2815673351287842,0.5937498211860657,129.92164611816406,1.0157043933868408,79.84915161132812,28.19,2
-0.7661120891571045,-0.2814536392688751,0.5937498807907104,104.56358337402344,1.0155057907104492,79.84945678710938,28.19,2
-0.771535336971283,-0.28138068318367,0.5937499403953552,98.38235473632812,1.0153783559799194,79.84964752197266,28.19,2
-0.769417941570282,-0.2869316339492798,0.5937499403953552,90.67897033691406,1.0152965784072876,79.84976959228516,28.19,2
-0.7680590748786926,-0.2848961353302002,0.5937499403953552,59.60765838623047,1.0152440071105957,79.849853515625,28.19,2
-0.7671870589256287,-0.2835898697376251,0.5937499403953552,11.111170768737791,1.0152102708816528,79.84990692138672,28.19,2
-0.7722252011299133,-0.282751590013504,0.5937499403953552,-30.805381774902344,1.015188694000244,79.84993743896484,28.19,2
-0.7698606252670288,-0.2822136282920837,0.5937499403953552,-55.204376220703125,1.0151748657226562,79.84996032714844,28.19,2
-0.7683432102203369,-0.2818683981895447,0.5881521701812744,-70.5362319946289,1.01516592502594,79.8499755859375,28.19,2
-0.7729671597480774,-0.2816468477249145,0.5901576280593872,-83.71070861816406,1.0151602029800415,79.84998321533203,28.19,2
-0.7759345769882202,-0.2815046608448028,0.5858468413352966,-88.13851928710938,1.0151565074920654,79.84999084472656,28.19,2
-0.7722411155700684,-0.2814134359359741,0.5886781811714172,-76.83960723876953,1.0151541233062744,79.84999084472656,28.19,2
-0.7754685878753662,-0.2813548743724823,0.5904951691627502,-56.171871185302734,1.0142347812652588,79.84999084472656,28.19,2
-0.777539849281311,-0.2813172936439514,0.5860634446144104,-38.46969223022461,1.013644814491272,79.84999084472656,28.19,2
-0.7732712626457214,-0.2812931835651397,0.5888172388076782,-29.524110794067383,1.0132662057876587,79.84999084472656,28.19,2
-0.7761297225952148,-0.2812777161598205,0.5905844569206238,-32.051937103271484,1.0130232572555542,79.84999084472656,28.19,2
-0.7779641151428223,-0.2812677919864654,0.5861207842826843,-51.50821304321289,1.0128673315048218,79.84999084472656,28.19,2
-0.7735435366630554,-0.2812614142894745,0.5888540148735046,-86.37805938720703,1.012767314910889,79.84999084472656,28.19,2
-0.7763044238090515,-0.2812573313713074,0.5906080603599548,-120.77864074707033,1.0127030611038208,79.84999084472656,28.19,2
-0.7780762314796448,-0.2812547087669372,0.5917336940765381,-138.75650024414062,1.0126618146896362,79.84999084472656,28.19,2
-0.7736154794692993,-0.2812530100345611,0.592456042766571,-140.34483337402344,1.0130943059921265,79.93955993652344,28.21,2
-0.7763506174087524,-0.2812519371509552,0.5873218178749084,-135.07672119140625,1.013371825218201,79.99703979492188,28.21,2
-0.7725080847740173,-0.2812512516975403,0.5896247625350952,-126.81647491455078,1.0135499238967896,80.03392791748047,28.21,2
-0.7700421810150146,-0.2812508046627044,0.591102659702301,-114.92716979980467,1.0136642456054688,80.05760192871094,28.21,2
-0.7740574479103088,-0.2812505066394806,0.592051088809967,-104.8575668334961,1.0137375593185425,80.07279205322266,28.21,2
-0.7766342163085938,-0.2812503278255462,0.5926597118377686,-105.77557373046876,1.013784646987915,80.0825424194336,28.21,2
-0.7782878279685974,-0.2812502086162567,0.5930503010749817,-118.06897735595705,1.013814926147461,80.08879852294922,28.21,2
-0.7793490290641785,-0.2812501192092895,0.593300998210907,-132.21693420410156,1.0138343572616575,80.09281158447266,28.21,2
-0.7800300717353821,-0.2812500894069671,0.5934618711471558,-140.29673767089844,1.0129286050796509,80.09538269042969,28.21,2
-0.7804670929908752,-0.2756522893905639,0.5879673361778259,-142.07127380371094,1.0123473405838013,80.09703826904297,28.21,2
-0.7807475924491882,-0.2776577174663543,0.5844412446022034,-140.2974395751953,1.0119743347167969,80.09809875488281,28.21,2
-0.7753298282623291,-0.2789446711540222,0.5877761840820312,-134.93524169921875,1.011734962463379,80.0987777709961,28.21,2
-0.7774507999420166,-0.2741728127002716,0.5899163484573364,-123.00696563720705,1.011581301689148,80.09921264648438,28.21,2
-0.7788118720054626,-0.2767082750797272,0.591289758682251,-102.28643798828124,1.0114827156066897,80.09949493408203,28.21,2
-0.7740875482559204,-0.2727376222610473,0.5921711325645447,-73.43006896972656,1.011419415473938,80.09967803955078,28.21,2
-0.776653528213501,-0.2757872343063354,0.5927367806434631,-40.0261116027832,1.0113787651062012,80.09979248046875,28.21,2
-0.7783002257347107,-0.277744323015213,0.5930997729301453,-11.510201454162598,1.0113526582717896,80.09986877441406,28.21,2
-0.7737592458724976,-0.2734024822711944,0.5933327078819275,-3.8756606578826895,1.0113359689712524,80.09991455078125,28.21,2
-0.7764428853988647,-0.2706161439418793,0.5934821963310242,-26.759126663208008,1.0113252401351929,80.09994506835938,28.21,2
-0.7781650424003601,-0.2744258046150207,0.5879803895950317,-67.98771667480469,1.011318325996399,80.09996795654297,28.21,2
-0.7736724615097046,-0.2768706381320953,0.5844496488571167,-99.90570068359376,1.0113139152526855,80.0999755859375,28.21,2
-0.7763871550559998,-0.2728418111801147,0.587781548500061,-103.56863403320312,1.0113110542297363,80.09998321533203,28.21,2
-0.7781292796134949,-0.2758541107177734,0.5899198055267334,-83.86853790283203,1.011309266090393,80.09999084472656,28.21,2
-0.7792472839355469,-0.2721894681453705,0.5912920236587524,-61.72874450683594,1.0113080739974976,80.09999084472656,28.21,2
