acc_x,acc_y,acc_z,bvp,eda,hr,temp,label
0.0,0.0,0.0,0.0,0.0,0.0,35.97,2
-0.0364583320915699,-0.1588541567325592,0.0364583320915699,1.4283331632614136,0.0916596576571464,13.166666030883787,35.97,2
-0.0895579308271408,-0.3719512224197387,0.0895579308271408,2.424146175384521,0.2146177440881729,30.829269409179688,35.97,2
-0.1357454359531402,-0.5523256063461304,0.1357454359531402,2.1581060886383057,0.3215701282024383,46.19269180297852,35.97,2
-0.1801181137561798,-0.6892566084861755,0.1587653160095214,1.2533944845199585,0.3995976448059082,57.40113830566406,35.97,2
-0.204670563340187,-0.7764749526977539,0.1743507385253906,0.5284370183944702,0.4524255692958832,64.98973083496094,35.97,2
-0.2152274250984192,-0.8559150695800781,0.1790239512920379,0.1522718220949173,0.4870882928371429,69.96893310546875,35.97,2
-0.222064584493637,-0.8906265497207642,0.1820505559444427,-0.094922736287117,0.5095376372337341,73.1937255859375,35.97,2
-0.2376492470502853,-0.9073964953422546,0.1895903795957565,-0.3185573518276214,0.5244571566581726,75.27104187011719,35.97,2
-0.2420715242624282,-0.9349591732025146,0.1888419091701507,-0.5267470479011536,0.5340465903282166,76.6062240600586,35.97,2
-0.2449113130569458,-0.9414657354354858,0.1883612722158432,-0.9075776934623718,0.5402044653892517,77.46361541748047,35.97,2
-0.2131507396697998,-0.945642352104187,0.1880527436733245,-1.703701734542847,0.5441573262214661,78.01398468017578,35.97,2
-0.2375468611717224,-0.9483229517936708,0.1878547221422195,-3.0063822269439697,0.546694278717041,78.36721801757812,35.97,2
-0.2420082241296768,-0.9500433206558228,0.193325325846672,-4.412025451660156,0.5483224391937256,78.59391021728516,35.97,2
-0.2448713183403015,-0.9567450881004332,0.1912383735179901,-4.805380821228027,0.5493673086166382,78.73939514160156,35.97,2
-0.2467087060213089,-0.9554481506347656,0.1954968422651291,-3.252202033996582,0.5500378608703613,78.83275604248047,35.97,2
-0.2534855902194977,-0.9546158909797668,0.1926319152116775,-0.0987499356269836,0.5513864159584045,78.89266967773438,35.97,2
-0.2522368431091308,-0.9540817737579346,0.190793365240097,3.27916955947876,0.5522518157958984,78.93112182617188,35.97,2
-0.2570332586765289,-0.9537389874458312,0.1896134912967682,5.9735636711120605,0.5528072118759155,78.95579528808594,35.97,2
-0.2601113021373749,-0.95351904630661,0.1888563185930252,7.724166393280029,0.5531635880470276,78.97163391113281,35.97,2
-0.2620866298675537,-0.953377902507782,0.188370406627655,8.682804107666016,0.5533922910690308,78.98179626464844,35.97,2
-0.2633542716503143,-0.9532873034477234,0.1880585700273513,9.756572723388672,0.5535390973091125,78.98831939697266,35.97,2
-0.2585700154304504,-0.9532291293144226,0.1878584623336792,12.430401802062988,0.5536332726478577,78.99250030517578,35.97,2
-0.2610975205898285,-0.958789587020874,0.1877300441265106,17.266735076904297,0.5536937117576599,78.99518585205078,35.97,2
-0.2627195119857788,-0.9567602276802064,0.1876476258039474,22.888965606689453,0.5528143048286438,78.99691009521484,35.97,2
-0.2637604176998138,-0.955457866191864,0.1875947415828704,27.31381797790528,0.5522499680519104,78.99801635742188,35.97,2
-0.2588306367397308,-0.9546220898628236,0.1875607967376709,27.67070770263672,0.5518878102302551,78.99872589111328,35.97,2
-0.2612647712230682,-0.9540857672691344,0.1875390112400055,21.855934143066406,0.5516553521156311,78.99918365478516,35.97,2
-0.2628268599510193,-0.9537415504455566,0.1875250339508056,11.70795440673828,0.5515062212944031,78.99947357177734,35.97,2
-0.2638293206691742,-0.9479228854179382,0.1819182932376861,-0.0099175944924354,0.5514104962348938,78.99966430664062,35.97,2
-0.2588748633861542,-0.9441888332366944,0.1783202141523361,-11.850359916687012,0.5513490438461304,78.99978637695312,35.97,2
-0.2612931430339813,-0.9473902583122252,0.1816089451313018,-22.14655303955078,0.5513096451759338,78.99986267089844,35.97,2
-0.268442839384079,-0.9550425410270692,0.1837194561958313,-28.46028709411621,0.5503664612770081,75.4173355102539,35.97,2
-0.2730311155319214,-0.9599533677101136,0.1850738674402237,-29.78931999206543,0.5497612357139587,73.11827850341797,35.97,2
-0.2815733551979065,-0.9631048440933228,0.1859430521726608,-27.396404266357425,0.5493727922439575,71.64287567138672,35.97,2
-0.2814575135707855,-0.9595295190811156,0.1865008473396301,-23.84019470214844,0.5491235256195068,70.696044921875,35.97,2
-0.2813831567764282,-0.9516372680664062,0.1812610328197479,-22.18497467041016,0.5489635467529297,70.08842468261719,35.97,2
-0.2869332134723663,-0.9241814017295836,0.177898421883583,-24.46529197692871,0.5488609075546265,69.698486328125,35.97,2
-0.2904949188232422,-0.9009640216827391,0.1701427102088928,-28.66217422485352,0.5487950444221497,69.44824981689453,35.97,2
-0.3039761781692505,-0.902857780456543,0.1539699882268905,-29.646602630615234,0.5487527847290039,69.28765869140625,35.97,2
-0.3182254433631897,-0.91526859998703,0.1491890400648117,-25.0943660736084,0.5496435165405273,69.18460083007812,35.97,2
-0.3329675793647766,-0.9512220621109008,0.1517186760902404,-17.60163688659668,0.5502151250839233,69.11846923828125,35.97,2
-0.3368304669857025,-0.9854904413223268,0.1533420532941818,-9.72654914855957,0.5505819320678711,69.0760269165039,35.97,2
-0.3337116539478302,-1.0074819326400757,0.1543838530778885,-0.9003191590309143,0.5508173108100891,69.04878997802734,35.97,2
-0.3205146491527557,-1.0103992223739624,0.1550524085760116,9.51434326171875,0.5509684085845947,69.03131103515625,35.97,2
-0.3064478039741516,-1.0010758638381958,0.1498836874961853,20.52204322814941,0.5510653257369995,69.02009582519531,35.97,2
-0.2806271910667419,-0.97829931974411,0.140968918800354,30.83912849426269,0.551127552986145,69.01289367675781,35.97,2
-0.258459210395813,-0.9580848813056946,0.1352479308843612,37.87203598022461,0.5511674880981445,69.0082778930664,35.97,2
-0.2498308569192886,-0.9395146369934082,0.1315765380859375,37.480804443359375,0.5507341623306274,69.00531005859375,35.97,2
-0.244293674826622,-0.9331951141357422,0.11802489310503,30.025177001953125,0.5504561066627502,69.00341033935547,35.97,2
-0.2463380098342895,-0.9291396141052246,0.1037304550409317,20.8411808013916,0.5502776503562927,69.00218963623047,35.97,2
-0.2532477080821991,-0.9321348071098328,0.1001548841595649,13.779500961303713,0.5501631498336792,69.00140380859375,35.97,2
-0.2576819658279419,-0.9340569376945496,0.1146536096930503,8.373573303222656,0.5500896573066711,69.00090026855469,35.97,2
-0.2661253809928894,-0.9408882260322572,0.1295558363199234,3.482077121734619,0.5500425100326538,69.00057983398438,35.97,2
-0.2715438902378082,-0.9732609987258912,0.1559125483036041,-0.8894095420837402,0.5500122308731079,69.00037384033203,35.97,2
-0.2806189656257629,-1.0164270401000977,0.1728267669677734,-4.676403522491455,0.5499927997589111,69.00023651123047,35.97,2
-0.2752472758293152,-1.0385308265686035,0.1892791092395782,-8.041730880737305,0.5499803423881531,69.00015258789062,35.97,2
-0.2662022411823272,-1.0415202379226685,0.1998372822999954,-10.649226188659668,0.5499723553657532,69.0000991821289,35.97,2
-0.2603976726531982,-1.0322431325912476,0.2066128998994827,-11.939230918884276,0.5499672293663025,69.00006103515625,35.97,2
-0.279063731431961,-1.065474033355713,0.210961103439331,-12.107887268066406,0.5499638915061951,69.00003814697266,35.97,2
-0.3022380769252777,-1.0867996215820312,0.2137515395879745,-12.00116729736328,0.5499618053436279,69.0000228881836,35.97,2
-0.300316721200943,-1.0221163034439087,0.1987489461898803,-12.058070182800291,0.5499604344367981,69.00001525878906,35.97,2
-0.254301518201828,-0.9862040877342224,0.1723278313875198,-11.77215576171875,0.5499595403671265,69.00000762939453,35.97,2
-0.2191738188266754,-0.979951024055481,0.1665678322315216,-10.653619766235352,0.5499590039253235,69.00000762939453,35.97,2
-0.2246197611093521,-0.9591448307037354,0.1796647161245346,-9.086737632751465,0.5485815405845642,71.59737396240234,35.97,2
-0.2393102049827575,-0.9345970749855042,0.1824717670679092,-7.658458709716797,0.5476975440979004,73.26421356201172,35.97,2
-0.2543354630470276,-0.9020504355430604,0.1674798429012298,-6.319127559661865,0.5471302270889282,74.33389282226562,35.97,2
-0.247184470295906,-0.8643705248832703,0.1634566634893417,-4.707281112670898,0.5467661619186401,75.02035522460938,35.97,2
-0.2369976043701172,-0.8401897549629211,0.1832659244537353,-2.59095311164856,0.5465325117111206,75.46088409423828,35.97,2
-0.1856780648231506,-0.8190741539001465,0.2463583350181579,0.2575360834598541,0.5463826060295105,75.74359130859375,35.97,2
-0.1471463590860366,-0.8167189359664917,0.2924451828002929,3.6152923107147217,0.546286404132843,75.92501831054688,35.97,2
-0.1224189326167106,-0.826403021812439,0.2996299862861633,6.411387920379639,0.5462246537208557,76.04144287109375,35.97,2
-0.1009525209665298,-0.8494110107421875,0.2986429929733276,7.571645259857178,0.5480210781097412,76.11615753173828,35.97,2
-0.0927743911743164,-0.8809695839881897,0.2924118340015411,6.919026851654053,0.5491739511489868,76.16410827636719,35.97,2
-0.1267105638980865,-0.9348086714744568,0.2604241371154785,5.0134453773498535,0.549913763999939,76.19487762451172,35.97,2
-0.1708799302577972,-0.9805550575256348,0.2342985123395919,2.783849000930786,0.550388514995575,76.2146224975586,35.97,2
-0.2328119426965713,-1.0155102014541626,0.211934819817543,1.188223958015442,0.5506932139396667,76.227294921875,35.97,2
-0.2893496751785278,-1.0659313201904297,0.1919853091239929,0.4830928444862366,0.5508887767791748,76.23542785644531,35.97,2
-0.331230103969574,-1.1262775659561155,0.1903784126043319,0.0914840400218963,0.551014244556427,76.24064636230469,35.97,2
-0.3525087833404541,-1.1258199214935305,0.2117383033037185,-0.4822597205638885,0.5510947704315186,76.2439956665039,35.97,2
-0.3661642074584961,-1.10873281955719,0.2254458516836166,-1.1012357473373413,0.5483921766281128,76.24614715576172,35.97,2
-0.3581341505050659,-1.0417896509170532,0.2230470180511474,-1.5844407081604004,0.5466578006744385,76.24752807617188,35.97,2
-0.3529809117317199,-0.9876337647438048,0.2047142535448074,-2.2277133464813232,0.5455448031425476,76.2484130859375,35.97,2
-0.3552716374397278,-0.9584774374961852,0.1929493397474289,-3.4071998596191406,0.5448305010795593,76.24898529052734,35.97,2
-0.373535007238388,-0.962157666683197,0.1965948492288589,-5.045440196990967,0.5443721413612366,76.24935150146484,35.97,2
-0.3740598559379577,-0.9813127517700196,0.2101298719644546,-6.437113285064697,0.54407799243927,76.24958038330078,35.97,2
-0.3520055711269378,-0.9656165242195128,0.213218092918396,-6.380826473236084,0.5438892245292664,76.2497329711914,35.97,2
-0.3042657673358917,-0.8883702754974365,0.1984066218137741,-4.16649866104126,0.543768048286438,76.24983215332031,35.97,2
-0.256835788488388,-0.8220047354698181,0.1777059137821197,-0.685489296913147,0.5441495776176453,76.24989318847656,35.97,2
-0.2152023911476135,-0.7906107306480408,0.158823624253273,2.153877019882202,0.5443944334983826,76.24993133544922,35.97,2
-0.1996800303459167,-0.787257194519043,0.1523038297891616,3.2236781120300293,0.5445515513420105,76.24995422363281,35.97,2
-0.2233053147792816,-0.8242895007133484,0.1481198072433471,2.6491482257843018,0.5446524024009705,76.24996948242188,35.97,2
-0.2664555311203003,-0.8816413283348083,0.1398369669914245,0.9978861212730408,0.5447171330451965,76.2499771118164,35.97,2
-0.2885490953922272,-0.940837562084198,0.1233259588479995,-0.9251996278762816,0.5447586178779602,76.24998474121094,35.97,2
-0.2747385799884796,-0.990021824836731,0.07914350181818,-2.1629080772399902,0.5447852611541748,76.24999237060547,35.97,2
-0.2882668972015381,-1.0383788347244265,0.0172031000256538,-2.151118516921997,0.5448023676872253,76.24999237060547,35.97,2
-0.274557501077652,-1.0862048864364624,-0.0057533639483153,-1.362551212310791,0.544813334941864,75.15731048583984,35.95,2
-0.1426085531711578,-1.1672768592834473,0.0298944674432277,-0.7346864938735962,0.5448203682899475,74.45608520507812,35.95,2
-0.0299424417316913,-1.2081085443496704,0.0583689697086811,-0.6506083011627197,0.5448248982429504,74.0060806274414,35.95,2
-0.0360086597502231,-1.161540985107422,0.0990333631634712,-1.1017948389053345,0.5448278188705444,73.71729278564453,35.95,2
-0.0678904801607132,-1.070081114768982,0.1251294314861297,-2.390878915786743,0.5448296666145325,73.53196716308594,35.95,2
-0.0379704274237155,-0.9833984971046448,0.1306808292865753,-4.651169300079346,0.544830858707428,73.41303253173828,35.95,2
-0.0243672356009483,-0.9781505465507508,0.151036724448204,-7.337681770324707,0.5448316335678101,73.33670806884766,35.95,2
-0.032430812716484,-0.9971738457679749,0.1640999615192413,-9.735255241394045,0.5448321104049683,73.28772735595703,35.95,2
-0.0488011017441749,-0.9925885796546936,0.1836787462234497,-11.148489952087402,0.5452913641929626,73.25629425048828,35.95,2
-0.0649043843150138,-0.9616571068763732,0.1962432861328125,-10.561488151550291,0.545586109161377,73.23612213134766,35.95,2
-0.0976296439766883,-0.9138182401657104,0.2099042683839798,-7.3258891105651855,0.5457752346992493,73.22318267822266,35.95,2
-0.1298263818025589,-0.8663246631622314,0.2130733132362365,-2.2293567657470703,0.545896589756012,73.21487426757812,35.95,2
-0.1560861617326736,-0.8358460068702698,0.2151070237159729,2.9687299728393555,0.5459744930267334,73.20954132080078,35.95,2
-0.1897315084934234,-0.8330798745155334,0.2108143717050552,6.763132572174072,0.5460245013237,73.20612335205078,35.95,2
-0.2169209271669387,-0.8425003290176392,0.2080595940351486,8.338343620300293,0.5460565686225891,73.20392608642578,35.95,2
-0.2511628568172455,-0.870936930179596,0.2062917351722717,7.654664993286133,0.5460771322250366,73.2025146484375,35.95,2
-0.2731373608112335,-0.9283702969551086,0.2275483310222625,5.707655429840088,0.5456314086914062,73.20161437988281,35.95,2
-0.2928371131420135,-0.9764232635498048,0.24678735435009,4.175152778625488,0.5453453660011292,73.20103454589844,35.95,2
-0.3222725987434387,-0.990467607975006,0.2647316455841064,4.094490051269531,0.545161783695221,73.2006607055664,35.95,2
-0.3523581326007843,-1.0050781965255735,0.2762472331523895,5.020768642425537,0.5450440049171448,73.20042419433594,35.95,2
-0.3716652989387512,-1.0648343563079834,0.2836372852325439,5.991371154785156,0.5449684262275696,73.20027160644531,35.95,2
-0.3840555250644684,-1.1311713457107544,0.2939775586128235,6.800541877746582,0.5449199080467224,73.2001724243164,35.95,2
-0.3976046442985534,-1.1625471115112305,0.2950156033039093,7.495367527008057,0.5448887944221497,73.20011138916016,35.95,2
-0.4007019102573395,-1.126704454421997,0.2844862043857574,7.27490758895874,0.5448688268661499,73.2000732421875,35.95,2
-0.3914940059185028,-1.0701160430908203,0.2609357237815857,5.059117794036865,0.544396698474884,73.20004272460938,35.95,2
-0.3743893504142761,-1.067387580871582,0.2234312742948532,0.9681324362754822,0.5440937280654907,73.20002746582031,35.95,2
-0.3522170186042785,-1.0936254262924194,0.1993630677461624,-3.398358106613159,0.5438992977142334,73.20001983642578,35.95,2
-0.3379881083965301,-1.1104633808135986,0.1839174926280975,-6.032139301300049,0.5437745451927185,73.20001220703125,35.95,2
-0.3008679151535034,-1.0764868259429932,0.1572120785713195,-5.812835693359375,0.5436944961547852,73.20000457763672,35.95,2
-0.2546552419662475,-1.0210959911346436,0.1344763040542602,-3.257443189620972,0.5436431169509888,73.20000457763672,35.95,2
-0.2194008231163025,-0.979951560497284,0.1198857948184013,-0.3098995983600616,0.5436100959777832,73.20000457763672,35.95,2
-0.2079721093177795,-0.9311563372612,0.1049246713519096,1.0693559646606443,0.5435889363288879,73.20000457763672,35.95,2
-0.2118333727121353,-0.8942446112632751,0.0897257104516029,0.2850026786327362,0.544493556022644,74.62228393554688,35.95,2
-0.2255068570375442,-0.8593612313270569,0.0687763467431068,-1.8340917825698853,0.5450741052627563,75.53501892089844,35.95,2
-0.2342817038297653,-0.8313772678375244,0.0497344732284545,-3.91051983833313,0.5454466938972473,76.12076568603516,35.95,2
-0.2231195718050003,-0.802223265171051,0.0431122705340385,-4.884794235229492,0.5456857681274414,76.49665832519531,35.95,2
-0.210358589887619,-0.7891116738319397,0.0444602966308593,-4.668122291564941,0.5458391904830933,76.73788452148438,35.95,2
-0.2077670991420745,-0.8030884861946106,0.0565209314227104,-4.177982330322266,0.5459376573562622,76.89269256591797,35.95,2
-0.2117018103599548,-0.8680357336997986,0.081054076552391,-4.221696376800537,0.5460008382797241,76.9920425415039,35.95,2
-0.2310201972723007,-0.9321062564849854,0.1079935878515243,-4.421712875366211,0.5460413694381714,77.05579376220703,35.95,2
-0.2602109611034393,-1.0180052518844604,0.1476729065179824,-3.7654879093170166,0.5442312955856323,77.09671020507812,35.95,2
-0.2677483558654785,-1.095521330833435,0.1731368154287338,-2.144197702407837,0.5430697202682495,77.12296295166016,35.95,2
-0.2669876515865326,-1.1508644819259644,0.1894780844449997,-0.8493840098381042,0.5423243045806885,77.13981628417969,35.95,2
-0.2888905704021454,-1.0632294416427612,0.2391493916511535,-1.1899493932724,0.5418459177017212,77.15062713623047,35.95,2
-0.3029465973377228,-0.9678059220314026,0.2878189086914062,-2.827204704284668,0.5415388941764832,77.1575698852539,35.95,2
-0.2727825343608856,-0.9513508081436156,0.3414433002471924,-3.920891761779785,0.5413419008255005,77.16202545166016,35.95,2
-0.1974472254514694,-0.9743775129318236,0.3590630292892456,-2.9425292015075684,0.5412154793739319,77.16487884521484,35.95,2
-0.1546991318464279,-0.972361385822296,0.3647725582122803,0.0820708945393562,0.5411343574523926,77.16670989990234,35.95,2
-0.1888413876295089,-0.9262853860855104,0.3404477536678314,4.036492347717285,0.5410822629928589,77.16788482666016,35.95,2
-0.2331430166959762,-0.8799231648445129,0.3136419355869293,7.638237476348877,0.5410488247871399,77.16864013671875,35.95,2
-0.3007576763629913,-0.8445727825164795,0.2964394986629486,9.68451976776123,0.5410273671150208,77.16912841796875,35.95,2
-0.3665399849414825,-0.8330824375152588,0.2909977436065674,9.396294593811035,0.5410135984420776,77.16944122314453,35.95,2
-0.3975597321987152,-0.8313063979148865,0.2875055372714996,7.205085754394531,0.5410047769546509,77.16963958740234,35.95,2
-0.3950753211975097,-0.8301666378974915,0.2684711217880249,4.652470111846924,0.5409991145133972,77.16976928710938,35.95,2
-0.387883186340332,-0.8350329995155334,0.2562559247016907,2.978522300720215,0.5409954786300659,77.16985321044922,35.95,2
-0.360876590013504,-0.8437536954879761,0.2540147006511688,2.2947797775268555,0.5409931540489197,77.16990661621094,35.95,2
-0.3603386282920837,-0.8773390054702759,0.2525764107704162,2.257241725921631,0.5419095158576965,77.16993713378906,35.95,2
-0.3767867386341095,-0.92128324508667,0.2516534030437469,2.648730516433716,0.5424975752830505,77.16996002197266,35.95,2
-0.4153310358524322,-0.9718751907348632,0.2398655116558075,3.1328330039978027,0.5428749918937683,77.16997528076172,35.95,2
-0.4344687759876251,-1.037928819656372,0.226702943444252,3.300199031829834,0.5431171655654907,77.16998291015625,35.95,2
-0.4355547428131103,-1.1139049530029297,0.2350492924451828,2.9096269607543945,0.5432726144790649,77.16999053955078,35.95,2
-0.453044980764389,-1.1570641994476318,0.2460032701492309,1.7454235553741455,0.5433723330497742,77.16999053955078,35.95,2
-0.4642691910266876,-1.1455769538879397,0.2474351227283477,-0.1445368081331253,0.5434363484382629,77.16999053955078,35.95,2
-0.4546789228916168,-1.0878251791000366,0.2203651368618011,-1.7658182382583618,0.5434774160385132,77.16999053955078,35.95,2
-0.4485244452953338,-1.0787522792816162,0.2029931843280792,-1.7386558055877686,0.5435037612915039,78.28775787353516,35.95,2
-0.4669659435749054,-1.1009186506271362,0.1806493103504181,0.091558814048767,0.5435206890106201,79.00507354736328,35.95,2
-0.4620073139667511,-1.1095459461212158,0.1495169699192047,2.430422067642212,0.5435315370559692,79.46540832519531,35.95,2
-0.4308362901210785,-1.092691421508789,0.1351357996463775,3.791649580001831,0.543538510799408,79.76082611083984,35.95,2
-0.3436592221260071,-1.037092924118042,0.1203090250492096,3.303828239440918,0.5435429811477661,79.95040893554688,35.95,2
-0.2653228938579559,-0.984619677066803,0.1163918301463127,0.8985485434532166,0.5435458421707153,80.07206726074219,35.95,2
-0.1982578337192535,-0.939749836921692,0.1250735521316528,-2.461387157440185,0.5435476899147034,80.150146484375,35.95,2
-0.1664148867130279,-0.9109549522399902,0.1306449770927429,-5.197978019714356,0.5435488820075989,80.20024871826172,35.95,2
-0.1627732366323471,-0.8980737924575806,0.1342203915119171,-6.409613132476807,0.5430907011032104,80.23240661621094,35.95,2
-0.1884251087903976,-0.889807403087616,0.1309171169996261,-6.47065544128418,0.5427966713905334,80.25303649902344,35.95,2
-0.2104847729206085,-0.8733069896697998,0.1287972629070282,-6.079919815063477,0.5426079630851746,80.26628112792969,35.95,2
-0.2022503018379211,-0.8571202158927917,0.1162413135170936,-5.316859722137451,0.5424869060516357,80.2747802734375,35.95,2
-0.1969658881425857,-0.8803191184997559,0.1025858595967292,-3.942275762557984,0.5424091815948486,80.28023529052734,35.95,2
-0.1991724371910095,-0.8952068090438843,0.1050181239843368,-2.0426955223083496,0.5423592925071716,80.28373718261719,35.95,2
-0.2229795753955841,-0.915956437587738,0.1345678865909576,0.1579715609550476,0.5423272848129272,80.28598022460938,35.95,2
-0.2494531720876693,-0.9516634345054626,0.1647267639636993,3.0964102745056152,0.5423067808151245,80.28742218017578,35.95,2
-0.2720401883125305,-1.0025670528411863,0.1952765434980392,8.01298999786377,0.5422936081886292,80.28834533691406,35.95,2
-0.3089263141155243,-1.0408318042755127,0.2372727394104004,15.510249137878418,0.542285144329071,80.2889404296875,35.95,2
-0.3493910431861877,-1.042996883392334,0.2810167968273163,23.63902473449707,0.5422797203063965,80.28932189941406,35.95,2
-0.3641634285449981,-1.0107996463775637,0.320284754037857,28.85560417175293,0.5422762632369995,80.28956604003906,35.95,2
-0.3568501770496368,-0.98453950881958,0.3454846739768982,30.0286808013916,0.542273998260498,80.28971862792969,35.95,2
-0.2737880945205688,-0.9844805598258972,0.3448632061481476,29.78553771972656,0.5422725677490234,80.2898178100586,35.95,2
-0.203690305352211,-0.9564538598060608,0.3332688510417938,30.464242935180664,0.5422716736793518,80.28988647460938,35.95,2
-0.1643033623695373,-0.9160768389701844,0.320230484008789,30.835309982299805,0.542271077632904,80.28992462158203,35.95,2
-0.1614181846380233,-0.8677741289138794,0.3062654435634613,28.210962295532227,0.5427296161651611,80.28995513916016,35.95,2
-0.1875555217266082,-0.8255806565284729,0.2917056977748871,21.579269409179688,0.5430238842964172,80.28997039794922,35.95,2
-0.249111145734787,-0.7985033392906189,0.2655687630176544,11.895829200744627,0.5432127118110657,80.28997802734375,35.95,2
-0.3110051155090332,-0.7923222184181213,0.2487955838441848,1.278568983078003,0.543333888053894,80.28998565673828,35.95,2
-0.3507250845432281,-0.7939532995223999,0.2380315214395523,-7.784834384918213,0.5434116721153259,80.28999328613281,35.95,2
-0.3650195300579071,-0.8005977869033813,0.2255259901285171,-13.855567932128906,0.5434616208076477,80.28999328613281,35.95,2
-0.3741928935050964,-0.8216551542282104,0.2175006717443466,-17.36091423034668,0.5434936285018921,80.28999328613281,35.95,2
-0.3744820356369018,-0.8855485320091248,0.2347415834665298,-19.700008392333984,0.5435141921043396,80.28999328613281,35.95,2
-0.3858631551265716,-0.9601382613182068,0.2737946808338165,-21.96061134338379,0.5426095128059387,81.12474060058594,35.97,2
-0.3987646698951721,-1.0080056190490725,0.3100522458553314,-24.16009330749512,0.5420289635658264,81.66043090820312,35.97,2
-0.3790552616119385,-1.0163331031799316,0.3277224898338318,-25.16318130493164,0.5416563749313354,82.00420379638672,35.97,2
-0.3552113473415375,-1.0776549577713013,0.3446600139141083,-23.736177444458008,0.5414173007011414,82.22481536865234,35.97,2
-0.3734963238239288,-1.1505944728851318,0.3891161978244781,-19.93285179138184,0.5412638783454895,82.36639404296875,35.97,2
-0.396426111459732,-1.0966428518295288,0.3840589523315429,-15.016536712646484,0.5411654114723206,82.4572525024414,35.97,2
-0.3999455869197845,-1.0396287441253662,0.3528246283531189,-10.159805297851562,0.5411022305488586,82.51555633544922,35.97,2
-0.3798131048679352,-1.0422247648239136,0.3215847015380859,-5.84645414352417,0.5410616397857666,82.552978515625,35.97,2
-0.3724910020828247,-1.116661787033081,0.3183300495147705,-2.2185752391815186,0.5410355925559998,82.57698822021484,35.97,2
-0.3565965592861175,-1.1756267547607422,0.3162413835525512,0.7007133364677429,0.5410189032554626,82.59239959716797,35.97,2
-0.3240053057670593,-1.1686848402023315,0.2869121432304382,2.857168197631836,0.5410081744194031,82.60228729248047,35.97,2
-0.2918945848941803,-1.130643367767334,0.2624925374984741,3.87563419342041,0.5410013198852539,82.60863494873047,35.97,2
-0.2600921988487243,-1.0502527952194214,0.2412236630916595,3.268160343170166,0.5409969091415405,82.61270904541016,35.97,2
-0.2340855002403259,-0.9706738591194152,0.2163789868354797,1.2016732692718506,0.5409940481185913,82.61531829833984,35.97,2
-0.2229936718940735,-0.8972135782241821,0.1780440062284469,-1.331807255744934,0.540992259979248,82.61699676513672,35.97,2
-0.2270711213350296,-0.8500709533691406,0.1422472596168518,-3.4126362800598145,0.5409910678863525,82.61807250976562,35.97,2
-0.2352855652570724,-0.8198175430297852,0.1192749738693237,-4.941451549530029,0.5419082045555115,82.61876678466797,35.97,2
-0.2349593490362167,-0.7948048710823059,0.1045326814055442,-6.327388286590576,0.5424967408180237,82.61920928955078,35.97,2
-0.2291522324085235,-0.7843509912490845,0.1006697043776512,-7.768519401550293,0.5428744554519653,82.61949157714844,35.97,2
-0.2198277860879898,-0.805631160736084,0.1037884429097175,-8.722015380859375,0.5431168675422668,82.61967468261719,35.97,2
-0.2194416671991348,-0.8584719300270081,0.122583195567131,-7.882970809936523,0.5432724356651306,82.61978912353516,35.97,2
-0.2359872013330459,-0.909175455570221,0.1458401381969452,-4.10945463180542,0.5433722138404846,82.61986541748047,35.97,2
-0.2801918089389801,-0.9864962100982666,0.1999495178461074,2.528862714767456,0.5434362888336182,82.61991119384766,35.97,2
-0.2973642349243164,-1.080898404121399,0.2234782576560974,10.919662475585938,0.5434774160385132,82.61994171142578,35.97,2
-0.2636023163795471,-1.1358824968338013,0.2385776489973068,19.60752868652344,0.5416676998138428,82.61996459960938,35.97,2
-0.2251425385475158,-1.1095926761627195,0.2594631016254425,26.74848747253418,0.5405063033103943,82.61997985839844,35.97,2
-0.2060590386390686,-1.081525802612305,0.2840617597103119,30.388925552368164,0.5397610068321228,82.61998748779297,35.97,2
-0.2162034511566162,-1.0467207431793213,0.2942499816417694,29.812515258789062,0.5392827391624451,82.6199951171875,35.97,2
-0.2451046407222747,-1.018787145614624,0.2783970832824707,26.10723114013672,0.5389757752418518,82.6199951171875,35.97,2
-0.2748472988605499,-0.9840676188468932,0.2682236135005951,21.031713485717773,0.5387787818908691,82.6199951171875,35.97,2
-0.2883366644382477,-0.9114066958427428,0.2504993081092834,15.757548332214355,0.5386523604393005,82.6199951171875,35.97,2
-0.3025911450386047,-0.84238600730896,0.2391248792409896,10.875375747680664,0.5385712385177612,82.6199951171875,35.97,2
-0.3061410784721374,-0.7980924844741821,0.2374231964349746,6.742740154266357,0.5380603075027466,83.27202606201172,35.95,2
-0.3196147680282593,-0.7864607572555542,0.2139400541782379,3.230834484100342,0.5377324223518372,83.69046020507812,35.95,2
-0.3394569456577301,-0.8013873100280762,0.204467698931694,-0.3162145316600799,0.5375219583511353,83.95899200439453,35.95,2
-0.3857771456241607,-0.8501507043838501,0.2207799851894378,-4.340803146362305,0.5373868942260742,84.13131713867188,35.95,2
-0.4322961270809173,-0.8982375860214233,0.2368460446596145,-8.413904190063477,0.5373002290725708,84.24190521240234,35.95,2
-0.4565515518188476,-0.912303626537323,0.2583518624305725,-11.48635482788086,0.5372446179389954,84.31287384033203,35.95,2
-0.3993462324142456,-0.9157326221466064,0.2777508497238159,-12.755892753601074,0.5372089147567749,84.3584213256836,35.95,2
-0.3346462547779083,-0.9347264766693116,0.306993305683136,-12.366863250732422,0.5371860265731812,84.38764953613281,35.95,2
-0.2875277698040008,-0.9805023074150084,0.3369549810886383,-11.128416061401367,0.5380892157554626,84.40640258789062,35.95,2
-0.2740831673145294,-1.0042808055877686,0.3393893539905548,-9.480998992919922,0.5386688113212585,84.41844177246094,35.95,2
-0.3214329481124878,-1.0419316291809082,0.3129627108573913,-7.359756469726562,0.539040744304657,84.42616271972656,35.95,2
-0.4021992683410644,-1.0716915130615234,0.3071991801261902,-5.170889854431152,0.5392794609069824,84.43112182617188,35.95,2
-0.4764215350151062,-1.101985216140747,0.3090982437133789,-3.930999994277954,0.5394326448440552,84.4343032836914,35.95,2
-0.501662015914917,-1.0766438245773315,0.3103169500827789,-4.263821125030518,0.5395309329032898,84.43634796142578,35.95,2
-0.4898710250854492,-1.0267945528030396,0.2943057119846344,-5.795794486999512,0.5395939946174622,84.43766021728516,35.95,2
-0.4375220537185669,-0.9948040843009948,0.2728350758552551,-7.595754146575928,0.5396344661712646,84.4384994506836,35.95,2
-0.4095252752304077,-1.035849928855896,0.2590564489364624,-8.940741539001465,0.5396604537963867,84.43904113769531,35.95,2
-0.4027540981769562,-1.1013752222061155,0.2446163594722747,-9.785964012145996,0.5396771430969238,84.43938446044922,35.95,2
-0.3760176599025726,-1.177012324333191,0.2409473210573196,-10.503925323486328,0.5396878123283386,84.43960571289062,35.95,2
-0.3308708667755127,-1.191965103149414,0.2329949587583542,-11.3336763381958,0.5396946668624878,84.43975067138672,35.95,2
-0.2515183091163635,-1.1231921911239624,0.2166960388422012,-12.414297103881836,0.5396990776062012,84.4398422241211,35.95,2
-0.18380106985569,-1.045470952987671,0.1950407922267913,-14.032081604003906,0.5397019386291504,84.43990325927734,35.95,2
-0.145941823720932,-0.9955939650535583,0.1867414712905883,-16.116395950317383,0.5397037267684937,84.43994140625,35.95,2
-0.1552325785160064,-0.9691835641860962,0.1758176684379577,-17.625951766967773,0.5397049188613892,84.4399642944336,35.95,2
-0.1891837269067764,-0.9522349238395692,0.1520140767097473,-17.075685501098633,0.5392467379570007,84.43997955322266,35.95,2
-0.2389604896306991,-0.9245649576187134,0.108749434351921,-13.799174308776855,0.5389527082443237,84.43998718261719,35.95,2
-0.2429154813289642,-0.9236012697219848,0.0753869041800499,-8.42202377319336,0.5387639999389648,84.43999481201172,35.95,2
-0.2342580109834671,-0.9285805821418762,0.0539767518639564,-2.2628509998321533,0.5386428833007812,84.43999481201172,35.95,2
-0.2231043726205825,-0.9149827361106871,0.040236946195364,3.545525312423706,0.5385651588439941,84.43999481201172,35.95,2
-0.2215443849563598,-0.8950608372688293,0.0426150783896446,8.602142333984375,0.5385152697563171,84.43999481201172,35.95,2
-0.2485321462154388,-0.9102649688720704,0.0665323287248611,13.079594612121582,0.5384832620620728,84.43999481201172,35.95,2
-0.2994379997253418,-0.9312176704406738,0.0874788165092468,17.07789421081543,0.53846275806427,84.43999481201172,35.95,2
-0.3656930923461914,-0.922272801399231,0.1121166124939918,20.38178253173828,0.5379906892776489,84.92723083496094,35.93,2
-0.4529939889907837,-0.8493592143058777,0.1391232758760452,22.792217254638672,0.5376877188682556,85.23990631103516,35.93,2
-0.503420889377594,-0.8193607926368713,0.1396612823009491,24.457321166992188,0.5374932885169983,85.44056701660156,35.93,2
-0.507793128490448,-0.8784784078598022,0.1120176687836647,25.909223556518555,0.5373685359954834,85.5693359375,35.93,2
-0.5217944979667664,-0.9276121854782104,0.1222664639353752,27.664962768554688,0.53728848695755,85.6519775390625,35.93,2
-0.6147463917732239,-0.9871323108673096,0.1568324267864227,29.23593521118164,0.5372371077537537,85.70500946044922,35.93,2
-0.5232576727867126,-0.9525578618049622,0.3189592361450195,28.825395584106445,0.5372040867805481,85.73904418945312,35.93,2
-0.4477521479129791,-0.9023810625076294,0.4453939795494079,24.886211395263672,0.5371829271316528,85.76087951660156,35.93,2
-0.3769059479236603,-0.803007185459137,0.4593592286109924,17.808399200439453,0.5376282334327698,85.77489471435547,35.93,2
-0.3090498447418213,-0.7056481242179871,0.4011480212211609,9.69802188873291,0.5379140377044678,85.78388977050781,35.93,2
-0.2822970151901245,-0.6711575388908386,0.3525958657264709,2.7377865314483643,0.5380974411964417,85.78966522216797,35.93,2
-0.2931174635887146,-0.6938056945800781,0.2878512442111969,-2.2913565635681152,0.538215160369873,85.79336547851562,35.93,2
-0.31685471534729,-0.7139376997947693,0.2183130085468292,-6.231703758239746,0.5382906794548035,85.79574584960938,35.93,2
-0.3208923935890198,-0.7268573045730591,0.1456985026597976,-10.193422317504885,0.5383391380310059,85.79727172851562,35.93,2
-0.3234835267066955,-0.7799305319786072,0.1046964600682258,-14.125864028930664,0.5383702516555786,85.79824829101562,35.93,2
-0.3251463770866394,-0.8419787883758545,0.0895792618393898,-17.19403076171875,0.5383902192115784,85.79887390136719,35.93,2
-0.2702357470989227,-0.8873955607414246,0.1022690087556839,-19.03403091430664,0.5370259284973145,85.79927825927734,35.93,2
-0.2070083916187286,-0.9221391677856444,0.0936192348599433,-19.720441818237305,0.5361503958702087,85.7995376586914,35.93,2
-0.1720304936170578,-0.9724245071411132,0.0264927931129932,-19.20439338684082,0.5355885028839111,85.7997055053711,35.93,2
-0.1999636590480804,-1.027085781097412,-0.027780644595623,-17.805614471435547,0.53522789478302,85.79981231689453,35.93,2
-0.2290851026773452,-1.0565664768218994,-0.0626102164387703,-16.495962142944336,0.534996509552002,85.79988098144531,35.93,2
-0.3037513196468353,-1.0363011360168457,-0.107352927327156,-15.899118423461914,0.5348480343818665,85.7999267578125,35.93,2
-0.3628633320331573,-1.0121004581451416,-0.1304684430360794,-15.469525337219238,0.5347527265548706,85.79995727539062,35.93,2
-0.4399824440479278,-0.9853742718696594,-0.1453026533126831,-14.35193157196045,0.534691572189331,85.79997253417969,35.93,2
-0.511864185333252,-0.917842984199524,-0.1828112751245498,-12.717584609985352,0.5360294580459595,85.79998016357422,35.93,2
-0.5467981696128845,-0.8409186601638794,-0.2012843638658523,-11.783397674560549,0.5368880033493042,85.79998779296875,35.93,2
-0.5524234771728516,-0.7411730885505676,-0.1739549189805984,-12.491530418395996,0.5374389886856079,85.79999542236328,35.93,2
-0.5784245729446411,-0.6491732597351074,-0.1508186757564544,-14.178375244140623,0.5377925634384155,85.79999542236328,35.93,2
-0.5335350632667542,-0.6069263815879822,-0.0967867448925972,-14.888307571411133,0.5380194783210754,85.79999542236328,35.93,2
-0.5159230828285217,-0.5854125022888184,-0.1460787802934646,-13.230181694030762,0.5381650924682617,85.79999542236328,35.93,2
-0.5829895734786987,-0.627583920955658,-0.1945048868656158,-9.49707317352295,0.5382585525512695,85.79999542236328,35.93,2
-0.6484200954437256,-0.6882337331771851,-0.247973084449768,-4.661644458770752,0.5383185148239136,85.79999542236328,35.93,2
-0.6624207496643066,-0.7383508086204529,-0.2710903286933899,0.7665464878082275,0.5374388098716736,86.22990417480469,35.95,2
-0.6770033836364746,-0.7817086577415466,-0.2859256565570831,6.245541572570801,0.5368742346763611,86.50579833984375,35.95,2
-0.7087527513504028,-0.8431198596954346,-0.323434978723526,10.68595027923584,0.5365119576454163,86.68284606933594,35.95,2
-0.7235298752784729,-0.8993233442306519,-0.3475063145160675,13.471061706542969,0.5362794399261475,86.79647064208984,35.95,2
-0.7665996551513672,-0.946587085723877,-0.39094278216362,15.491253852844238,0.5361302495002747,86.869384765625,35.95,2
-0.7774460315704346,-0.9601249098777772,-0.4076222479343414,18.518081665039062,0.5360345244407654,86.91617584228516,35.95,2
-0.6388644576072693,-0.9408237934112548,-0.3903373181819916,23.387489318847656,0.535973072052002,86.94620513916016,35.95,2
-0.7794395685195923,-0.9564263224601746,-0.2393004745244979,28.7192611694336,0.5359336137771606,86.9654769897461,35.95,2
-1.21671462059021,-0.9944280385971068,0.0311572905629873,31.750385284423828,0.5345311760902405,86.97784423828125,35.95,2
-0.9823372960090636,-0.9348487257957458,0.0423860512673854,31.16987037658692,0.5336312055587769,86.98577880859375,35.95,2
-0.8487207293510437,-0.8630275130271912,0.0104076033458113,28.66569709777832,0.5330536365509033,86.99087524414062,35.95,2
-0.8021577596664429,-0.7833501100540161,0.1186344921588897,26.26691246032715,0.5326829552650452,86.994140625,35.95,2
-0.9570028781890868,-0.793793261051178,0.0313505940139293,22.93980598449707,0.5324450731277466,86.9962387084961,35.95,2
-1.045177936553955,-0.7781040072441101,-0.1086298003792762,15.9180269241333,0.5322924256324768,86.99758911132812,35.95,2
-0.9954059720039368,-0.6616778373718262,-0.1144945472478866,4.966799736022949,0.5321944952011108,86.99845123291016,35.95,2
-0.9690629243850708,-0.5813644528388977,-0.028693813830614,-6.650346279144287,0.5321316123008728,86.99900817871094,35.95,2
-0.9969396591186525,-0.4346617460250854,0.0543570294976234,-15.316472053527832,0.532550573348999,86.9993667602539,35.95,2
-0.99243825674057,-0.3964941501617431,0.0852631852030754,-19.720722198486328,0.532819390296936,86.99959564208984,35.95,2
-0.9727562069892884,-0.3775981664657593,0.0939014256000518,-20.64834976196289,0.5329919457435608,86.99974060058594,35.95,2
-0.9265387654304504,-0.3934606909751892,0.1330315917730331,-19.746131896972656,0.5331026911735535,86.99983215332031,35.95,2
-0.8912813067436218,-0.3868470191955566,0.1805341839790344,-18.75872611999512,0.5331737399101257,86.99989318847656,35.95,2
-0.8742528557777405,-0.3602116405963897,0.2278119325637817,-18.75918197631836,0.5332193374633789,86.99993133544922,35.95,2
-0.8409338593482971,-0.3319230377674103,0.2525542974472046,-19.604963302612305,0.5332486033439636,86.99995422363281,35.95,2
-0.825149416923523,-0.2745846211910248,0.2684325277805328,-20.53107261657715,0.5332673788070679,86.99996948242188,35.95,2
-0.8150199055671692,-0.237788125872612,0.3178066909313202,-21.279447555541992,0.536492645740509,86.9999771118164,35.95,2
-0.8365082144737244,-0.2029787003993988,0.3326988518238067,-21.97466468811035,0.5385624170303345,86.99998474121094,35.95,2
-0.8447003960609436,-0.1974333375692367,0.3590491116046905,-22.31692123413086,0.539890706539154,86.99999237060547,35.95,2
-0.8555554747581482,-0.1770813167095184,0.3815569579601288,-21.87020301818848,0.5407431125640869,86.99999237060547,35.95,2
-0.8569238781929016,-0.1640205681324005,0.373610109090805,-20.77744483947754,0.5412901043891907,86.99999237060547,35.95,2
-0.8745953440666199,-0.1444433778524398,0.3461191654205322,-19.49221611022949,0.5416411757469177,86.99999237060547,35.95,2
-0.9083269834518432,-0.1318798661231994,0.322879284620285,-18.07272148132324,0.5418664813041687,86.99999237060547,35.95,2
-0.935571789741516,-0.1238173246383667,0.2799763977527618,-16.398683547973633,0.542011022567749,86.99999237060547,35.95,2
-0.9530559182167052,-0.1074477061629295,0.263639360666275,-14.50039005279541,0.537054181098938,87.41915893554688,35.95,2
-0.9530806541442872,-0.1305292695760727,0.2811440527439117,-12.47609519958496,0.5338731408119202,87.68815612792969,35.95,2
-0.986683189868927,-0.1341461390256881,0.3427575230598449,-10.087916374206545,0.5318317413330078,87.86077880859375,35.95,2
-1.0306384563446045,-0.1308694630861282,0.3711019456386566,-7.118707656860352,0.5305216908454895,87.9715576171875,35.95,2
-1.0308575630187988,-0.1175711378455162,0.2773362994194031,-4.070398807525635,0.5296809673309326,88.04264831542969,35.95,2
-1.0365959405899048,-0.1034392639994621,0.1835762411355972,-1.4979666471481323,0.5291414260864258,88.08827209472656,35.95,2
-1.0234851837158203,-0.0887724608182907,0.1234064400196075,1.5106682777404783,0.5287951827049255,88.1175537109375,35.95,2
-0.9814847707748412,-0.0793601498007774,0.0679996013641357,7.16373348236084,0.5285729765892029,88.13634490966797,35.95,2
-0.9601291418075562,-0.0789176449179649,0.0212471317499876,15.602944374084473,0.5275125503540039,88.14839935302734,35.95,2
-0.9744131565093994,-0.0842314511537551,-0.0143536869436502,24.22514915466309,0.5268320441246033,88.15613555908203,35.95,2
-1.0059709548950195,-0.1100326403975486,-0.0483957901597023,30.89047813415528,0.526395320892334,88.16110229492188,35.95,2
-1.0094295740127563,-0.1377859115600586,-0.0254598576575517,36.38956069946289,0.5261150598526001,88.16429138183594,35.95,2
-1.0508335828781128,-0.1723896861076355,-0.02753422036767,42.56607818603516,0.525935173034668,88.16633605957031,35.95,2
-1.0830020904541016,-0.1889986246824264,-0.0568543002009391,50.03715133666992,0.5258197784423828,88.16764831542969,35.95,2
-1.0308748483657837,-0.1884617358446121,-0.0700724646449089,57.43619155883789,0.525745689868927,88.16848754882812,35.95,2
-0.9638359546661376,-0.1825194060802459,-0.0897506698966026,59.465293884277344,0.525698184967041,88.16902923583984,35.95,2
-0.9599986672401428,-0.1843037456274032,-0.1135745570063591,50.38515090942383,0.5233722925186157,88.16937255859375,35.95,2
-0.9911227822303772,-0.2022421509027481,-0.0896789357066154,29.75125312805176,0.5218796730041504,88.16959381103516,35.95,2
-1.0222920179367063,-0.2193517684936523,-0.0631485506892204,2.691611766815185,0.5209218263626099,88.16973876953125,35.95,2
-1.0310990810394287,-0.2303317338228225,-0.0741117522120475,-25.647140502929688,0.5203071236610413,88.16983032226562,35.95,2
-1.0143598318099976,-0.2373780459165573,-0.0811473056674003,-51.56451797485352,0.5199126601219177,88.16989135742188,35.95,2
-0.9924219846725464,-0.2363021820783615,-0.1024556383490562,-62.88025665283203,0.5196594595909119,88.16992950439453,35.95,2
-0.9783435463905334,-0.2300139814615249,-0.1161300987005233,-50.94660568237305,0.5194969773292542,88.16995239257812,35.95,2
-0.9916999340057372,-0.2315763533115387,-0.1137100309133529,-27.048460006713867,0.519392728805542,88.16996765136719,35.95,2
-1.0058690309524536,-0.2325789928436279,-0.1121569722890853,-9.512304306030272,0.5216211676597595,88.16997528076172,35.95,2
-0.9869731068611144,-0.2276246547698974,-0.1335514038801193,-5.434507846832275,0.5230512619018555,88.16998291015625,35.95,2
-0.986042320728302,-0.2300430238246917,-0.141683354973793,-9.549272537231444,0.5239690542221069,88.16999053955078,35.95,2
-0.9798471927642822,-0.237192764878273,-0.1469019651412964,-14.343019485473633,0.5245580077171326,88.16999053955078,35.95,2
-0.992664873600006,-0.2417810559272766,-0.1502509713172912,-15.216086387634276,0.5249359607696533,88.16999053955078,35.95,2
-1.0008904933929443,-0.2447255551815033,-0.1524001657962799,-12.132890701293944,0.5251784920692444,88.16999053955078,35.95,2
-0.9949737191200256,-0.2466151714324951,-0.1481816172599792,-6.94070291519165,0.5253341794013977,88.16999053955078,35.95,2
-0.9743833541870116,-0.2478278130292892,-0.1342788487672805,-2.777498245239258,0.5254340767860413,88.16999053955078,35.95,2
-0.9499740600585938,-0.2598015666007995,-0.136552408337593,-1.6892914772033691,0.5241210460662842,88.57840728759766,35.95,2
-0.9287118315696716,-0.256290078163147,-0.1436092257499694,-2.481294631958008,0.5232784152030945,88.84050750732422,35.95,2
-0.9150669574737548,-0.2596343755722046,-0.1761267483234405,-2.3124496936798096,0.5227376222610474,89.00870513916016,35.95,2
-0.9063104391098022,-0.2785738706588745,-0.2249834984540939,-0.9860190749168396,0.522390604019165,89.11664581298828,35.95,2
-0.928679883480072,-0.268337070941925,-0.2843258082866668,-0.3067559003829956,0.5221679210662842,89.1859130859375,35.95,2
-0.9038509130477904,-0.2729632258415222,-0.3392016291618347,-0.350909024477005,0.5220249891281128,89.2303695678711,35.95,2
-0.8991126418113708,-0.2759320139884949,-0.3744177520275116,0.7850930690765381,0.5219332575798035,89.25889587402344,35.95,2
-0.9240607619285583,-0.2890327572822571,-0.3746263384819031,4.02908182144165,0.5218744277954102,89.27720642089844,35.95,2
-0.9176799058914183,-0.2918423116207123,-0.391553521156311,7.72304630279541,0.5200002193450928,89.28895568847656,35.95,2
-0.9303783774375916,-0.2992430925369262,-0.4248075187206268,10.118698120117188,0.5187974572181702,89.29649353027344,35.95,2
-0.8993431329727173,-0.3095902502536773,-0.3901702761650085,11.304997444152832,0.5180255770683289,89.30133056640625,35.95,2
-0.8570353984832764,-0.3106326758861542,-0.3623443245887756,12.442465782165527,0.5175302624702454,89.30443572998047,35.95,2
-0.9138513207435608,-0.3336927592754364,-0.355682760477066,14.035828590393066,0.5172123908996582,89.30642700195312,35.95,2
-0.8663458824157715,-0.3261002898216247,-0.3737988471984863,16.154624938964844,0.5170084238052368,89.30770874023438,35.95,2
-0.8694462776184082,-0.3156301081180572,-0.4078158140182495,19.645978927612305,0.5168775320053101,89.30852508544922,35.95,2
-0.9050225615501404,-0.325704276561737,-0.4408414959907532,25.7377986907959,0.5167934894561768,89.30905151367188,35.95,2
-0.888668954372406,-0.3433648347854614,-0.445242166519165,34.07882308959961,0.5130674242973328,89.30938720703125,35.95,2
-0.9005652666091919,-0.3602961599826813,-0.4424684643745422,41.9322509765625,0.5106762647628784,89.30960845947266,35.95,2
-0.908199667930603,-0.3655639290809631,-0.4238951504230499,46.28427505493164,0.509141743183136,89.30974578857422,35.95,2
-0.9746744632720948,-0.3689444661140442,-0.467953622341156,46.25766372680664,0.5081570148468018,89.3098373413086,35.95,2
-0.8773897886276245,-0.34312504529953,-0.4122611880302429,42.90520858764648,0.5075250267982483,89.30989837646484,35.95,2
-0.9157180786132812,-0.3433489501476288,-0.3765209913253784,36.93477249145508,0.5071194767951965,89.3099365234375,35.95,2
-0.9403149485588074,-0.337894856929779,-0.3815738558769226,27.35683822631836,0.5068592429161072,89.3099594116211,35.95,2
-0.928110897541046,-0.3231991827487945,-0.3568276166915893,13.034833908081056,0.5066922307014465,89.30997467041016,35.95,2
-0.9370723962783812,-0.3081705570220947,-0.3521424531936645,-4.152512073516846,0.5120936036109924,89.30998229980469,35.95,2
-0.90923672914505,-0.2985260784626007,-0.3603313565254211,-19.20201301574707,0.5155599117279053,89.30998992919922,35.95,2
-0.9081667065620422,-0.2923367917537689,-0.3879776000976562,-28.197139739990234,0.5177843570709229,89.30998992919922,35.95,2
-0.9242733716964722,-0.2939626276493072,-0.4113171398639679,-31.565784454345703,0.5192118883132935,89.30998992919922,35.95,2
-0.9066208004951476,-0.2950060069561004,-0.3759151399135589,-32.1297607421875,0.5201280117034912,89.30998992919922,35.95,2
-0.8840968608856201,-0.290077805519104,-0.330805093050003,-32.00803756713867,0.5207158923149109,89.30998992919922,35.95,2
-0.8864356279373169,-0.2869151830673218,-0.3018560707569122,-32.32759094238281,0.5210931897163391,89.30998992919922,35.95,2
-0.9103276133537292,-0.2848855853080749,-0.294473797082901,-33.35665512084961,0.5213353037834167,89.30998992919922,35.95,2
-0.9312579035758972,-0.2835831046104431,-0.3121273815631866,-34.19617462158203,0.5242449641227722,89.66108703613281,35.95,2
-0.9334942102432252,-0.2827472388744354,-0.3234564363956451,-33.52402114868164,0.5261121988296509,89.88639831542969,35.95,2
-0.9237337708473206,-0.2822108268737793,-0.3307267725467682,-31.61665153503418,0.5273104906082153,90.03099060058594,35.95,2
-0.9286656379699708,-0.2818666100502014,-0.3409902155399322,-30.18840408325196,0.5280795097351074,90.123779296875,35.95,2
-0.931830644607544,-0.2816457152366638,-0.3419789373874664,-30.27495765686035,0.5285729765892029,90.1833267211914,35.95,2
-0.9226661920547484,-0.2815039455890655,-0.3370156586170196,-30.81056785583496,0.5288896560668945,90.22154235839844,35.95,2
-0.9223827123641968,-0.2814129590988159,-0.3338305056095123,-29.75708770751953,0.5290929079055786,90.2460708618164,35.95,2
-0.9222007989883424,-0.2757568061351776,-0.3317864537239074,-26.60546493530273,0.5292233228683472,90.26181030273438,35.95,2
-0.922084093093872,-0.2721270024776459,-0.3248769342899322,-22.440553665161133,0.5302249193191528,90.27191162109376,35.95,2
-0.9276069402694702,-0.2697976231575012,-0.3260405659675598,-18.54609489440918,0.5308676958084106,90.27838897705078,35.95,2
-0.93674898147583,-0.2683027386665344,-0.3323850929737091,-14.979249000549316,0.5312801599502563,90.28254699707033,35.95,2
-0.9370180368423462,-0.2673434317111969,-0.3308588862419128,-11.031519889831545,0.5315448641777039,90.28521728515624,35.95,2
-0.9315929412841796,-0.2667278051376343,-0.3298794627189636,-5.753841400146484,0.5317147374153137,90.28693389892578,35.95,2
-0.93370920419693,-0.2663327157497406,-0.3348487019538879,2.505371332168579,0.5318237543106079,90.28803253173828,35.95,2
-0.9350672960281372,-0.2660791575908661,-0.3324398994445801,11.581693649291992,0.5318937301635742,90.28873443603516,35.95,2
-0.935938835144043,-0.2659164667129516,-0.3308940529823303,19.06867027282715,0.5319386124610901,90.2891845703125,35.95,2
-0.9364981055259703,-0.2602142691612243,-0.3299020230770111,24.328367233276367,0.5310495495796204,90.28947448730467,35.95,2
-0.936857044696808,-0.2565549314022064,-0.3292653858661651,25.72973823547364,0.5304790139198303,90.28966522216795,35.95,2
-0.9370874166488647,-0.2542065680027008,-0.3288568258285522,21.60628700256348,0.5301128625869751,90.28978729248048,35.95,2
-0.9372352361679076,-0.2526995241641998,-0.3285946547985077,13.987479209899902,0.5298779010772705,90.28986358642578,35.95,2
-0.9373300671577454,-0.2517324090003967,-0.3284263908863067,7.0417680740356445,0.5297271013259888,90.28990936279295,35.95,2
-0.937390923500061,-0.2511117458343506,-0.3283184170722961,2.835191011428833,0.5296303033828735,90.2899398803711,35.95,2
-0.9374300241470336,-0.2507134675979614,-0.3282491266727447,0.3004505038261413,0.5295681953430176,90.28996276855467,35.95,2
-0.937455117702484,-0.2504578530788421,-0.3282046616077423,-2.143027305603028,0.5295283198356628,90.28997802734376,35.95,2
-0.9430689811706544,-0.2558915913105011,-0.3281761109828949,-4.463451862335205,0.5281256437301636,90.28998565673828,35.95,2
-0.9410738348960876,-0.2537808716297149,-0.3281578123569488,-5.608639240264893,0.5272254943847656,90.2899932861328,35.95,2
-0.9397934675216676,-0.2524263560771942,-0.3281460702419281,-4.466285228729248,0.5266478061676025,90.2899932861328,35.95,2
-0.9445695877075196,-0.2515570819377899,-0.3225407600402832,-1.2038897275924685,0.5262770652770996,90.2899932861328,35.95,2
-0.9420368671417236,-0.250999242067337,-0.318943589925766,2.24394154548645,0.526039183139801,90.2899932861328,35.95,2
-0.9404115080833436,-0.250641256570816,-0.3222329020500183,3.901262044906616,0.5258864760398865,90.2899932861328,35.95,2
-0.944966197013855,-0.2448137402534485,-0.3243438005447387,3.5353872776031494,0.5257884860038757,90.2899932861328,35.95,2
-0.9422913789749146,-0.2410739809274673,-0.3256984353065491,1.663352608680725,0.5257256031036377,90.2899932861328,35.95,2
-0.940574824810028,-0.2442717999219894,-0.3265677690505981,-1.1859960556030271,0.526603102684021,90.5694351196289,35.95,2
-0.939473271369934,-0.2463239729404449,-0.3271256685256958,-3.1256039142608643,0.5271662473678589,90.74876403808594,35.95,2
-0.938766360282898,-0.2476409375667572,-0.3274836838245392,-1.690566062927246,0.5275276303291321,90.86384582519533,35.95,2
-0.9383126497268676,-0.2484860867261886,-0.3221156597137451,2.433181047439575,0.5277595520019531,90.9376983642578,35.95,2
-0.9380215406417848,-0.2490284591913223,-0.3242685496807098,5.49872636795044,0.5279083847999573,90.98509979248048,35.95,2
-0.9434324502944946,-0.2437787503004074,-0.3200523853302002,5.904013633728027,0.5280038714408875,91.01551818847656,35.95,2
-0.9413071274757384,-0.2404097914695739,-0.3173466920852661,5.494162082672119,0.5280652046203613,91.0350341796875,35.95,2
-0.9399431943893432,-0.2382477819919586,-0.3212080895900726,5.532079219818115,0.5281045436859131,91.0475616455078,35.95,2
-0.9390679001808168,-0.2368603348731994,-0.3180883526802063,5.212484836578369,0.5281297564506531,91.05560302734376,35.95,2
-0.9385061860084534,-0.2359699457883834,-0.3160862922668457,4.118908882141113,0.528145968914032,91.06076049804688,35.95,2
-0.9381456971168518,-0.2353985458612442,-0.3148014843463897,3.14842176437378,0.5281563401222229,91.06407165527344,35.95,2
-0.9435121417045592,-0.235031858086586,-0.3139769732952118,2.7943122386932373,0.5281630158424377,91.06619262695312,35.95,2
-0.9469560384750366,-0.2403943091630935,-0.3134478330612182,2.305536985397339,0.5281673073768616,91.06755828857422,35.95,2
-0.9435683488845824,-0.2382378429174423,-0.3131082653999328,0.7308026552200317,0.5281700491905212,91.06843566894533,35.95,2
-0.9413943290710448,-0.2368539571762085,-0.3184881210327148,-2.017320394515991,0.5281718373298645,91.0689926147461,35.95,2
-0.9399991631507874,-0.2359658479690551,-0.3219406008720398,-3.917045593261719,0.5281729698181152,91.06935119628906,35.95,2
-0.944701611995697,-0.2353959083557129,-0.3185584247112274,-1.0484609603881836,0.5267965197563171,91.069580078125,35.95,2
-0.9477193355560304,-0.2350301593542099,-0.3163879513740539,8.093720436096191,0.5259132385253906,91.06973266601562,35.95,2
-0.9440581798553468,-0.2347954362630844,-0.3149950504302978,19.019243240356445,0.5253463983535767,91.06983184814452,35.95,2
-0.9417086839675904,-0.234644815325737,-0.3196989595890045,25.41799545288086,0.5249826312065125,91.06989288330078,35.95,2
-0.9402008652687072,-0.2345481514930725,-0.3227176666259765,25.71248435974121,0.5247491598129272,91.06993103027344,35.95,2
-0.9448310136795044,-0.2400838881731033,-0.3246548771858215,22.354721069335938,0.5245993137359619,91.06995391845705,35.95,2
-0.9478024244308472,-0.2436364144086837,-0.3203003108501434,17.197704315185547,0.5245031714439392,91.0699691772461,35.95,2
-0.9441115260124208,-0.2459162175655365,-0.3175057768821716,10.943349838256836,0.5244414806365967,91.06997680664062,35.95,2
-0.9417428970336914,-0.2417814880609512,-0.315712422132492,4.966413497924805,0.5244019031524658,91.06998443603516,35.95,2
-0.9402228593826294,-0.2391280531883239,-0.3145615458488464,0.5073919296264648,0.5243765115737915,91.06999206542967,35.95,2
-0.9392473697662354,-0.2374252378940582,-0.3138229846954345,-3.099327564239502,0.524360179901123,91.06999206542967,35.95,2
-0.9442191123962402,-0.2363324612379074,-0.3133490085601806,-7.20878267288208,0.5243496894836426,91.06999206542967,35.95,2
-0.947409689426422,-0.2412289530038833,-0.3130448460578918,-11.633699417114258,0.5243430137634277,91.06999206542967,35.95,2
-0.9438594579696656,-0.2443712502717971,-0.3184474110603332,-15.171958923339844,0.5243387222290039,91.06999206542967,35.95,2
-0.941581130027771,-0.2463877946138382,-0.316316694021225,-17.757877349853516,0.5243359208106995,91.06999206542967,35.95,2
-0.928923487663269,-0.2476819008588791,-0.3149493336677551,-20.764419555664062,0.5243341326713562,91.06999206542967,35.95,2
-0.9263983368873596,-0.2485123723745346,-0.3196696043014526,-25.57781791687012,0.5252512097358704,91.36018371582033,35.97,2
-0.9303755760192872,-0.2490453273057937,-0.3171010315418243,-32.758079528808594,0.5258397459983826,91.5464096069336,35.97,2
-0.9441235065460204,-0.2493873387575149,-0.3098548948764801,-40.90196228027344,0.5262174606323242,91.6659164428711,35.97,2
-0.952946126461029,-0.2440090477466583,-0.3052047491073608,-44.92807388305664,0.526459813117981,91.74261474609376,35.97,2
-0.9642057418823242,-0.2461553514003753,-0.3078183233737945,-38.66283798217773,0.5266153812408447,91.79183197021484,35.97,2
-0.9602359533309937,-0.2531304955482483,-0.3150933384895324,-21.59443092346192,0.5267151594161987,91.82341766357422,35.97,2
-0.952090620994568,-0.2576067447662353,-0.3197620213031769,-0.3983269333839416,0.5267792344093323,91.84368896484376,35.97,2
-0.9468634128570556,-0.2604793310165405,-0.3227581083774566,17.68233299255371,0.5268203616142273,91.85669708251952,35.97,2
-0.9379111528396606,-0.2623228132724762,-0.3190830647945404,30.04854965209961,0.5263878107070923,91.86504364013672,35.97,2
-0.9377638697624208,-0.2635058462619781,-0.3111268579959869,37.1640625,0.5261102318763733,91.87039947509766,35.97,2
-0.9432671070098876,-0.2642650604248047,-0.3004232347011566,39.595176696777344,0.5259320735931396,91.87384033203124,35.97,2
-0.9523965716362,-0.2647522687911987,-0.3103475868701935,37.784122467041016,0.5258177518844604,91.87604522705078,35.97,2
-0.9470597505569458,-0.2594671547412872,-0.3111186921596527,32.77062225341797,0.5257443785667419,91.8774642944336,35.97,2
-0.9436349272727966,-0.2560754716396332,-0.3116135597229004,26.174877166748047,0.5256972908973694,91.8783721923828,35.97,2
-0.9414370656013488,-0.2538988888263702,-0.3119311332702636,19.42713928222656,0.5256670713424683,91.8789520263672,35.97,2
-0.940026581287384,-0.2525020837783813,-0.3121349215507507,13.011771202087402,0.5256476998329163,91.87932586669922,35.97,2
-0.939121425151825,-0.2516056895256042,-0.3122657239437103,6.6305694580078125,0.5242581367492676,91.87957000732422,35.97,2
-0.9441382884979248,-0.2510304450988769,-0.3067518770694732,0.092165321111679,0.523366391658783,91.87972259521484,35.97,2
-0.9473578333854676,-0.2506612837314605,-0.3032134175300598,-6.554287910461426,0.5227941274642944,91.87982177734376,35.97,2
-0.9494239687919616,-0.2504243850708008,-0.3065403997898102,-13.538774490356444,0.5224268436431885,91.8798828125,35.97,2
-0.9507498741149902,-0.2502723336219787,-0.308675467967987,-21.567766189575195,0.5221911668777466,91.87992095947266,35.97,2
-0.9460030198097228,-0.2501747608184814,-0.3044478595256805,-31.64993476867676,0.5220398902893066,91.87995147705078,35.97,2
-0.948554515838623,-0.2501121461391449,-0.3017348349094391,-43.56918716430664,0.5219428539276123,91.87996673583984,35.97,2
-0.9501919150352478,-0.2500719726085663,-0.2999937534332275,-52.82685470581055,0.521880567073822,91.87997436523438,35.97,2
-0.9512426853179932,-0.2500461935997009,-0.2988764345645904,-51.84993743896485,0.5236766338348389,91.8799819946289,35.97,2
-0.9463192820549012,-0.2500296533107757,-0.2981593906879425,-37.60205841064453,0.5248292684555054,91.87998962402344,35.97,2
-0.9487574696540833,-0.2556168138980865,-0.2976992428302765,-15.650880813598633,0.525568962097168,91.87998962402344,35.97,2
-0.950322151184082,-0.2536045610904693,-0.30300173163414,5.712333679199219,0.5260436534881592,91.87998962402344,35.97,2
-0.951326310634613,-0.2523131966590881,-0.3008067905902862,22.11969375610352,0.5263482928276062,91.87998962402344,35.97,2
-0.946372926235199,-0.2514844834804535,-0.304995983839035,32.62033462524414,0.5265437960624695,91.87998962402344,35.97,2
-0.9487919211387634,-0.250952661037445,-0.3076843619346618,37.24531936645508,0.5266692638397217,91.87998962402344,35.97,2
-0.9503442645072936,-0.2506113648414612,-0.3094095885753631,37.3150634765625,0.5267497897148132,91.87998962402344,35.97,2
-0.9457427263259888,-0.250392347574234,-0.310516744852066,35.117130279541016,0.5272603631019592,92.13435363769533,35.97,2
-0.9483875036239624,-0.2502517998218536,-0.3056294918060303,31.764867782592773,0.5275880098342896,92.29759216308594,35.97,2
-0.9500847458839417,-0.2501615881919861,-0.3024931252002716,26.912315368652344,0.5277982950210571,92.40235137939452,35.97,2
-0.9455761909484864,-0.2501037120819092,-0.3004803955554962,20.810359954833984,0.5279332399368286,92.46957397460938,35.97,2
-0.94828063249588,-0.2500665485858917,-0.2991887331008911,14.934806823730469,0.5280198454856873,92.5127182006836,35.97,2
-0.9500161409378052,-0.2500427067279815,-0.3039575815200805,9.97480010986328,0.5280754566192627,92.5404052734375,35.97,2
-0.9567276835441588,-0.2500274181365967,-0.307017982006073,4.724606990814209,0.5281111001968384,92.55817413330078,35.97,2
-0.9386436939239502,-0.2500175833702087,-0.3033841848373413,-1.7650878429412842,0.5281339883804321,92.56957244873048,35.97,2
-0.943831741809845,-0.2500112950801849,-0.3010522127151489,-8.0327730178833,0.5272307991981506,92.57688903808594,35.97,2
-0.9471611380577089,-0.2500072419643402,-0.2995556890964508,-11.983360290527344,0.5266512036323547,92.58158111572266,35.97,2
-0.9492977261543274,-0.2500046491622925,-0.2929975390434265,-14.217683792114258,0.5262792706489563,92.5845947265625,35.97,2
-0.9506688714027404,-0.2500029802322387,-0.2943866550922394,-17.983800888061523,0.5260405540466309,92.58653259277344,35.97,2
-0.9515488147735596,-0.2500019073486328,-0.2952781319618225,-25.78170585632324,0.5258873701095581,92.58777618408205,35.97,2
-0.9521135091781616,-0.244403451681137,-0.2958502173423767,-35.586605072021484,0.5257890820503235,92.58856964111328,35.97,2
-0.952475905418396,-0.240810677409172,-0.2962173521518707,-40.284576416015625,0.5257260203361511,92.58908081054688,35.97,2
-0.9527084231376648,-0.2385050505399704,-0.2964529693126678,-33.304080963134766,0.5256855487823486,92.58940887451172,35.97,2
-0.9528576731681824,-0.2370254248380661,-0.2966041564941406,-15.74441623687744,0.5265774130821228,92.5896224975586,35.97,2
-0.9529534578323364,-0.2360758930444717,-0.2911034226417541,4.545290946960449,0.5271497368812561,92.58975982666016,35.97,2
-0.9530149102211,-0.2410643100738525,-0.287573367357254,20.58258628845215,0.5275170207023621,92.58984375,35.97,2
-0.9530543684959412,-0.2442655861377716,-0.2909057438373565,30.07190322875977,0.5277527570724487,92.58989715576172,35.97,2
-0.9530797004699708,-0.2407222092151641,-0.2986420392990112,33.37435531616211,0.5279040336608887,92.58993530273438,35.97,2
-0.9530959129333496,-0.2384482771158218,-0.2980089783668518,31.735557556152344,0.5280011296272278,92.58995819091795,35.97,2
-0.9531063437461852,-0.2369889914989471,-0.2976027131080627,27.226686477661133,0.5280634164810181,92.58997344970705,35.97,2
-0.9475152492523192,-0.2360525131225586,-0.2973420023918152,22.022390365600582,0.5281034111976624,92.58998107910156,35.97,2
-0.949524998664856,-0.2354515343904495,-0.2971746921539306,17.310447692871094,0.5272111892700195,92.5899887084961,35.97,2
-0.950814723968506,-0.2350658625364303,-0.2970673143863678,13.154500007629396,0.5266386270523071,92.5899887084961,35.97,2
-0.9516423940658568,-0.2348183542490005,-0.2969984114170074,9.018595695495604,0.5262711644172668,92.5899887084961,35.97,2
-0.9521735310554504,-0.2346595227718353,-0.2969541847705841,4.3474202156066895,0.5260353684425354,92.5899887084961,35.97,2
-0.9525144100189208,-0.2345575839281082,-0.3025235831737518,-0.9717801809310912,0.5258840322494507,92.5899887084961,35.97,2
-0.9527331590652466,-0.2344921678304672,-0.3004999458789825,-6.602951526641846,0.5257869362831116,92.5899887084961,35.97,2
-0.9528735280036926,-0.2344501912593841,-0.2992012798786163,-12.280277252197266,0.5257246494293213,92.5899887084961,35.97,2
-0.9473658204078674,-0.2344232499599456,-0.2983678579330444,-18.35980796813965,0.525684654712677,92.5899887084961,35.97,2
-0.9494290947914124,-0.2344059646129608,-0.3034307956695556,-25.9585189819336,0.5242818593978882,92.77628326416016,35.95,2
-0.9507531523704528,-0.2343948781490326,-0.3010821342468261,-35.29166030883789,0.5233815908432007,92.89584350585938,35.95,2
-0.9516028761863708,-0.2343877553939819,-0.2995748817920685,-42.47771072387695,0.5228038430213928,92.97256469726562,35.95,2
-0.9521481990814208,-0.2343831807374954,-0.2986076176166534,-40.56901931762695,0.5224331021308899,93.02180480957033,35.95,2
-0.9524981379508972,-0.2343802452087402,-0.2979868948459625,-26.701221466064453,0.5221951603889465,93.05339813232422,35.95,2
-0.9527227282524108,-0.2343783676624298,-0.2975885570049286,-6.054400444030762,0.522042453289032,93.07367706298828,35.95,2
-0.9528668522834778,-0.2343771606683731,-0.2973329126834869,13.404144287109377,0.5219444632530212,93.0866928100586,35.95,2
-0.9529593586921692,-0.234376385807991,-0.2971688508987427,27.41053009033203,0.5218815803527832,93.09503936767578,35.95,2
-0.9530187249183656,-0.2343758940696716,-0.2970635890960693,35.57144546508789,0.5213819742202759,93.10040283203124,35.95,2
-0.953056812286377,-0.2287777960300445,-0.2969960272312164,38.8418197631836,0.521061360836029,93.10384368896484,35.95,2
-0.9530812501907348,-0.2307830303907394,-0.2969526648521423,38.55097961425781,0.5208556056022644,93.10604858398438,35.95,2
-0.9530969262123108,-0.2320698797702789,-0.3025226294994354,35.79562759399414,0.5207235813140869,93.1074676513672,35.95,2
-0.9531069993972778,-0.2328957021236419,-0.3004993200302124,31.02161979675293,0.5206388235092163,93.1083755493164,35.95,2
-0.9531134366989136,-0.2334256768226623,-0.2992008924484253,24.92349624633789,0.5205844640731812,93.10895538330078,35.95,2
-0.953117609024048,-0.2337657809257507,-0.2983676195144653,18.9178466796875,0.5205495357513428,93.1093292236328,35.95,2
-0.953120231628418,-0.233984038233757,-0.2978328764438629,13.612823486328123,0.5205271244049072,93.1095733642578,35.95,2
-0.9531219601631165,-0.2341241091489792,-0.2974897027015686,7.847447872161865,0.521889865398407,93.10972595214844,35.95,2
-0.9531230330467224,-0.2342139929533004,-0.2972694933414459,0.4897522032260895,0.5227643847465515,93.10982513427734,35.95,2
-0.9531237483024596,-0.2342716753482818,-0.2971281707286834,-7.864725112915039,0.5233256220817566,93.1098861694336,35.95,2
-0.953124225139618,-0.2343086898326873,-0.3026352524757385,-16.03130531311035,0.5236858129501343,93.10992431640624,35.95,2
-0.9531245231628418,-0.2343324422836303,-0.3061693608760834,-24.166868209838867,0.5239169597625732,93.10995483398438,35.95,2
-0.953124701976776,-0.2343476861715316,-0.3028395771980285,-33.894683837890625,0.5240652561187744,93.10997009277344,35.95,2
-0.9531248211860656,-0.234357476234436,-0.3007027208805084,-45.99136352539063,0.5241604447364807,93.10997772216795,35.95,2
-0.9531248807907104,-0.2343637496232986,-0.299331396818161,-56.509315490722656,0.5242215394973755,93.1099853515625,35.95,2
-0.9531249403953552,-0.2343677729368209,-0.2984513640403747,-57.1221809387207,0.5242607593536377,93.10999298095705,35.95,2
-0.9531249403953552,-0.2343703657388687,-0.2978866100311279,-43.34639739990234,0.5242859125137329,93.10999298095705,35.95,2
-0.9531249403953552,-0.2343720197677612,-0.303121954202652,-20.53384590148925,0.524302065372467,93.10999298095705,35.95,2
-0.9531249403953552,-0.2343730926513672,-0.3064817190170288,1.9302797317504885,0.524312436580658,93.10999298095705,35.95,2
-0.9531249403953552,-0.2343737781047821,-0.3030400276184082,19.058473587036133,0.524319052696228,93.10999298095705,35.95,2
-0.9531249403953552,-0.2343742102384567,-0.3008313477039337,30.07544136047364,0.5243233442306519,93.10999298095705,35.95,2
-0.9531249403953552,-0.2343744933605194,-0.2994139492511749,35.10700988769531,0.5243260860443115,93.10999298095705,35.95,2
-0.9531249403953552,-0.2343746721744537,-0.2985043525695801,35.49858093261719,0.52432781457901,93.10999298095705,35.95,2
-0.9531249403953552,-0.2343747913837433,-0.2979206144809723,33.675559997558594,0.5224928855895996,93.2389678955078,35.99,2
-0.9531249403953552,-0.2343748658895492,-0.2975460290908813,30.674951553344727,0.521315336227417,93.32173919677734,35.99,2
-0.9531249403953552,-0.2343749105930328,-0.302903413772583,26.04090690612793,0.5205596685409546,93.3748550415039,35.99,2
-0.9531249403953552,-0.2343749403953552,-0.3063414692878723,20.383695602416992,0.520074725151062,93.40894317626952,35.99,2
-0.9531249403953552,-0.2343749552965164,-0.3029500246047973,15.545894622802734,0.5197634696960449,93.43081665039062,35.99,2
-0.9531249403953552,-0.2343749701976776,-0.3007735908031463,11.821486473083496,0.5195637345314026,93.44485473632812,35.99,2
-0.9531249403953552,-0.2343749850988388,-0.299376904964447,7.152857780456543,0.5194355845451355,93.45386505126952,35.99,2
-0.9531249403953552,-0.2343749850988388,-0.3040783405303955,0.0296734496951103,0.5193533301353455,93.45964813232422,35.99,2
-0.9531249403953552,-0.2343749850988388,-0.3014976978302002,-8.35701847076416,0.5206776857376099,93.4633560180664,35.99,2
-0.9531249403953552,-0.2343749850988388,-0.2998415827751159,-16.00330352783203,0.5215275883674622,93.46573638916016,35.99,2
-0.9531249403953552,-0.2343749850988388,-0.298778772354126,-23.09561920166016,0.5220730304718018,93.4672622680664,35.99,2
-0.9531249403953552,-0.2343749850988388,-0.2980967462062835,-32.00705337524414,0.5224230289459229,93.46824645996094,35.99,2
-0.9531249403953552,-0.2343749850988388,-0.2976590394973755,-43.99540710449219,0.5226476788520813,93.4688720703125,35.99,2
-0.9531249403953552,-0.2343749850988388,-0.2973781526088714,-55.22842788696289,0.5227918028831482,93.46927642822266,35.99,2
-0.9531249403953552,-0.2343749850988388,-0.2971979081630707,-57.417945861816406,0.5228843092918396,93.46953582763672,35.99,2
-0.9531249403953552,-0.2343749850988388,-0.2970822155475616,-45.44213104248047,0.5229436755180359,93.4697036743164,35.99,2
-0.9531249403953552,-0.2343749850988388,-0.2970079779624939,-23.38344955444336,0.5229817628860474,93.46981048583984,35.99,2
-0.9531249403953552,-0.2343749850988388,-0.2969603240489959,-0.1205505058169364,0.5230062007904053,93.46987915039062,35.99,2
-0.9531249403953552,-0.2343749850988388,-0.2969297468662262,18.70249938964844,0.5230218768119812,93.4699249267578,35.99,2
-0.9531249403953552,-0.2343749850988388,-0.2969101369380951,31.713518142700195,0.5230319499969482,93.46995544433594,35.99,2
-0.9531249403953552,-0.2343749850988388,-0.2968975603580475,38.6660385131836,0.5230384469032288,93.469970703125,35.99,2
-0.9531249403953552,-0.2343749850988388,-0.2968894839286804,40.11481857299805,0.523042619228363,93.46997833251952,35.99,2
-0.9531249403953552,-0.2343749850988388,-0.2968842983245849,38.1355094909668,0.5230452418327332,93.46998596191406,35.99,2
-0.9531249403953552,-0.2343749850988388,-0.2968809604644775,34.81965255737305,0.5230469703674316,93.4699935913086,35.99,2
-0.9531249403953552,-0.2343749850988388,-0.2968788146972656,30.78221321105957,0.521670937538147,93.4699935913086,35.99,2
-0.9531249403953552,-0.2343749850988388,-0.2968774437904358,25.81955337524414,0.5207878351211548,93.4699935913086,35.99,2
-0.9531249403953552,-0.2343749850988388,-0.2968765795230865,20.313295364379883,0.5202211141586304,93.4699935913086,35.99,2
-0.9531249403953552,-0.2343749850988388,-0.2968760132789612,15.203362464904783,0.5198574662208557,93.4699935913086,35.99,2
-0.9531249403953552,-0.2343749850988388,-0.2968756556510925,10.673782348632812,0.5196240544319153,93.4699935913086,35.99,2
-0.9531249403953552,-0.228777214884758,-0.2968754172325134,5.524266242980957,0.5194742679595947,93.4699935913086,35.99,2
-0.9531249403953552,-0.2251848876476287,-0.2968752682209015,-1.305651307106018,0.519378125667572,93.4699935913086,35.99,2
-0.9531249403953552,-0.2228795439004898,-0.2968751788139343,-9.02049446105957,0.5193164348602295,93.4699935913086,35.99,2
-0.9531249403953552,-0.2214000970125198,-0.2968751192092895,-15.963348388671877,0.5192768573760986,93.65987396240234,35.99,2
-0.9531249403953552,-0.220450684428215,-0.2968750894069671,-22.02028465270996,0.5192514657974243,93.78172302246094,35.99,2
-0.9531249403953552,-0.2254391759634018,-0.2968750596046448,-28.78766822814941,0.5192351937294006,93.85992431640624,35.99,2
-0.9531249403953552,-0.2286404967308044,-0.2968750298023224,-37.78076934814453,0.5192247033119202,93.9101104736328,35.99,2
-0.9531249403953552,-0.2306949198246002,-0.2968750298023224,-48.39566802978516,0.5192180275917053,93.94231414794922,35.99,2
-0.9531249403953552,-0.2264155596494674,-0.2968750298023224,-55.82389831542969,0.5192137360572815,93.96298217773438,35.99,2
-0.9531249403953552,-0.2236693203449249,-0.2968750298023224,-52.80597305297852,0.519210934638977,93.97624206542967,35.99,2
-0.9531249403953552,-0.2219069302082061,-0.2968750298023224,-36.983177185058594,0.5192091464996338,93.98475646972656,35.99,2
-0.9531249403953552,-0.2207759320735931,-0.2968750298023224,-14.47271728515625,0.5196669697761536,93.99021911621094,35.99,2
-0.9531249403953552,-0.2200501263141632,-0.2968750298023224,6.511401176452637,0.5199607610702515,93.99372100830078,35.99,2
-0.9531249403953552,-0.2195843458175659,-0.2968750298023224,22.23482322692871,0.520149290561676,93.9959716796875,35.99,2
-0.9531249403953552,-0.2192854285240173,-0.2968750298023224,32.21773147583008,0.5202702879905701,93.9974136352539,35.99,2
-0.9531249403953552,-0.2190936058759689,-0.2968750298023224,36.43881988525391,0.5203479528427124,93.9983367919922,35.99,2
-0.9531249403953552,-0.2245682775974273,-0.2968750298023224,36.04874038696289,0.5203977823257446,93.99893188476562,35.99,2
-0.9531249403953552,-0.222483828663826,-0.2968750298023224,33.65245056152344,0.5204297304153442,93.9993133544922,35.99,2
-0.9531249403953552,-0.2211461514234542,-0.2968750298023224,31.07211875915528,0.520450234413147,93.9995574951172,35.99,2
-0.9531249403953552,-0.2258854806423187,-0.2968750298023224,28.03691864013672,0.5204634070396423,93.99971771240234,35.99,2
-0.9531249403953552,-0.2233291417360305,-0.2968750298023224,23.90014839172364,0.5204718708992004,93.99981689453124,35.99,2
-0.9531249403953552,-0.2216886281967163,-0.2968750298023224,19.482778549194336,0.520477294921875,93.99988555908205,35.99,2
-0.9531249403953552,-0.2206358462572097,-0.2968750298023224,15.85263442993164,0.520480751991272,93.99992370605467,35.99,2
-0.9531249403953552,-0.2199602276086807,-0.2968750298023224,12.132976531982422,0.5204830169677734,93.9999542236328,35.99,2
-0.9531249403953552,-0.2251244336366653,-0.2968750298023224,6.449945449829102,0.520484447479248,93.99996948242188,35.99,2
-0.9531249403953552,-0.228438526391983,-0.2968750298023224,-1.2239117622375488,0.5204853415489197,93.9999771118164,35.99,2
-0.9531249403953552,-0.2305653095245361,-0.2968750298023224,-8.925047874450684,0.5204859375953674,93.99998474121094,35.99,2
-0.9531249403953552,-0.2263323813676834,-0.2968750298023224,-15.432779312133787,0.5191091895103455,93.99999237060548,35.99,2
-0.9531249403953552,-0.2236159294843673,-0.2968750298023224,-21.765777587890625,0.5182256698608398,93.99999237060548,35.99,2
-0.9531249403953552,-0.2274704426527023,-0.2968750298023224,-29.921232223510746,0.5176586508750916,93.99999237060548,35.99,2
-0.9531249403953552,-0.2243462800979614,-0.2968750298023224,-40.5932846069336,0.5172947645187378,93.99999237060548,35.99,2
-0.9531249403953552,-0.2279391437768936,-0.2968750298023224,-50.798866271972656,0.5170612335205078,93.99999237060548,35.99,2
-0.9531249403953552,-0.2302448451519012,-0.2968750298023224,-53.72982025146485,0.5169113874435425,93.99999237060548,35.99,2
-0.9531249403953552,-0.2317245006561279,-0.3024728000164032,-44.09275436401367,0.5168152451515198,93.99999237060548,35.99,2
-0.9531249403953552,-0.2326740622520446,-0.3004673421382904,-24.18697738647461,0.5167535543441772,93.99999237060548,35.99,2
-0.9531249403953552,-0.2332834303379058,-0.2991803586483001,-1.8292053937911987,0.518091082572937,94.2042007446289,35.99,2
-0.9531249403953552,-0.2336744964122772,-0.2983544468879699,16.986196517944336,0.5189494490623474,94.3352508544922,35.99,2
-0.9531249403953552,-0.233925461769104,-0.2978244125843048,30.26458549499512,0.5195003151893616,94.41934967041016,35.99,2
-0.9531249403953552,-0.2340865135192871,-0.297484278678894,37.52482223510742,0.5198538303375244,94.47332000732422,35.99,2
-0.9531249403953552,-0.2341898679733276,-0.2972660064697265,39.500675201416016,0.5200806856155396,94.5079574584961,35.99,2
-0.9531249403953552,-0.2342561930418014,-0.2971259355545044,38.66569137573242,0.520226240158081,94.53018188476562,35.99,2
-0.9531249403953552,-0.234298750758171,-0.2970360219478607,37.04074478149414,0.5203196406364441,94.54444885253906,35.99,2
-0.9531249403953552,-0.2343260645866394,-0.2969783246517181,34.679561614990234,0.5203796029090881,94.55360412597656,35.99,2
-0.9531249403953552,-0.2343436032533645,-0.2969413101673126,31.390914916992188,0.520418107509613,94.55947875976562,35.99,2
-0.9531249403953552,-0.2343548536300659,-0.2969175577163696,28.126861572265625,0.52044278383255,94.56324768066406,35.99,2
-0.9531249403953552,-0.2343620657920837,-0.2969022989273071,25.455385208129883,0.5204586386680603,94.56566619873048,35.99,2
-0.9531249403953552,-0.234366700053215,-0.2968925237655639,22.200477600097656,0.5204688310623169,94.56721496582033,35.99,2
-0.9531249403953552,-0.2343696802854538,-0.2968862354755401,17.005571365356445,0.5204753279685974,94.5682144165039,35.99,2
-0.9531249403953552,-0.2343715876340866,-0.2968822121620178,10.451045036315918,0.5204795002937317,94.56885528564452,35.99,2
-0.9531249403953552,-0.2343728095293045,-0.2968796193599701,4.191911220550537,0.5204821825027466,94.56926727294922,35.99,2
-0.9531249403953552,-0.2343735992908477,-0.3024757504463196,-1.5946329832077026,0.5204839110374451,94.56952667236328,35.99,2
-0.9531249403953552,-0.2399718761444091,-0.306067019701004,-8.235068321228027,0.5191078782081604,94.56969451904295,35.99,2
-0.9475271701812744,-0.2379667460918426,-0.3027739226818084,-16.09342384338379,0.518224835395813,94.5698013305664,35.99,2
-0.9495326280593872,-0.2366799712181091,-0.3006605803966522,-23.780405044555664,0.5176581144332886,94.5698699951172,35.99,2
-0.9508196115493774,-0.2358541935682296,-0.2993043661117553,-30.20381736755371,0.5172944664955139,94.56991577148438,35.99,2
-0.9460477828979492,-0.2353242635726928,-0.2984340190887451,-36.31790542602539,0.5170610547065735,94.5699462890625,35.99,2
-0.9485832452774048,-0.2349841892719268,-0.2978754937648773,-44.53350067138672,0.5169112682342529,94.5699691772461,35.99,2
-0.9502103924751282,-0.2347659468650818,-0.2975170612335205,-55.77078628540039,0.5168151259422302,94.56997680664062,35.99,2
-0.9512545466423036,-0.2346258908510208,-0.2972870469093323,-65.62975311279297,0.5167534351348877,94.56998443603516,35.99,2
-0.9519246220588684,-0.2345360070466995,-0.297139436006546,-65.36114501953125,0.5185502767562866,94.56999206542967,35.99,2
-0.9523546695709229,-0.2344783246517181,-0.2970446944236755,-50.32466506958008,0.5197033882141113,94.56999206542967,35.99,2
-0.9526306390762328,-0.2344413101673126,-0.2969838976860046,-25.771602630615234,0.5204433798789978,94.56999206542967,35.99,2
-0.9528077244758606,-0.2344175577163696,-0.2969448864459991,-1.1300740242004397,0.5209183096885681,94.56999206542967,35.99,2
-0.9529213905334472,-0.2344023138284683,-0.2969198524951935,18.287511825561523,0.5212230682373047,94.56999206542967,35.99,2
-0.9529943466186525,-0.2343925237655639,-0.2969037890434265,31.4328727722168,0.5214186310768127,94.56999206542967,35.99,2
-0.953041136264801,-0.2343862503767013,-0.2968934774398803,38.31755447387695,0.5215441584587097,94.56999206542967,35.99,2
-0.9530711770057678,-0.234382227063179,-0.2968868613243103,40.1742057800293,0.5216246843338013,94.56999206542967,35.99,2
-0.953090488910675,-0.2343796342611313,-0.2968825995922088,39.58515548706055,0.5207581520080566,94.41594696044922,35.99,2
-0.9531028270721436,-0.2343779802322387,-0.2968798875808716,38.11803436279297,0.520202100276947,94.31708526611328,35.99,2
-0.9531107544898988,-0.2343769073486328,-0.2968781292438507,35.46046829223633,0.5198452472686768,94.2536392211914,35.99,2
-0.9531158804893494,-0.2343762218952179,-0.2968769967556,31.50872039794922,0.5196162462234497,94.21292877197266,35.99,2
-0.953119158744812,-0.2343757897615432,-0.2968762814998626,27.575511932373047,0.5194692611694336,94.18679809570312,35.99,2
-0.9531212449073792,-0.2343755066394806,-0.2968758344650268,24.57850456237793,0.5193749666213989,94.17002868652344,35.99,2
-0.953122615814209,-0.2343753278255462,-0.296875536441803,21.46936416625977,0.5193144083023071,94.15927124023438,35.99,2
-0.9531234502792358,-0.2343752086162567,-0.2968753576278686,16.8229923248291,0.5192755460739136,94.1523666381836,35.99,2
-0.9531239867210388,-0.2343751341104507,-0.2968752384185791,11.028895378112791,0.5178735256195068,94.14793395996094,35.99,2
-0.9531243443489076,-0.2343750894069671,-0.2968751490116119,5.544367790222168,0.5169737339019775,94.14508819580078,35.99,2
-0.9531245827674866,-0.2343750596046447,-0.2968750894069671,0.5522750616073608,0.5163963437080383,94.1432647705078,35.99,2
-0.9531247615814208,-0.2287772595882415,-0.2968750596046448,-5.216486930847168,0.5160257816314697,94.14209747314452,35.99,2
-0.9531248211860656,-0.2251849174499511,-0.2968750298023224,-12.261089324951172,0.5157879590988159,94.14134216308594,35.99,2
-0.9531248807907104,-0.222879558801651,-0.2968750298023224,-19.339868545532227,0.5156353712081909,94.14086151123048,35.99,2
-0.9531249403953552,-0.221400111913681,-0.2968750298023224,-25.272661209106445,0.515537440776825,94.14055633544922,35.99,2
-0.9531249403953552,-0.226048469543457,-0.2968750298023224,-30.727970123291016,0.5154746174812317,94.1403579711914,35.99,2
-0.9531249403953552,-0.2290315181016922,-0.2968750298023224,-37.70038986206055,0.5158932209014893,94.14022827148438,35.99,2
-0.9531249403953552,-0.2309458553791046,-0.2968750298023224,-47.02927780151367,0.5161618590354919,94.14014434814452,35.99,2
-0.9531249403953552,-0.2321743667125702,-0.2968750298023224,-55.28020858764648,0.5163342356681824,94.1400909423828,35.99,2
-0.9531249403953552,-0.2329627573490142,-0.2968750298023224,-55.14399719238281,0.5164448618888855,94.14006042480467,35.99,2
-0.9531249403953552,-0.2334687113761901,-0.2968750298023224,-42.20588302612305,0.516515851020813,94.1400375366211,35.99,2
-0.9531249403953552,-0.2337933927774429,-0.2968750298023224,-20.622339248657227,0.5165613889694214,94.14002227783205,35.99,2
-0.9531249403953552,-0.2340017557144165,-0.2968750298023224,1.0530823469161987,0.5165905952453613,94.1400146484375,35.99,2
-0.9531249403953552,-0.2285376936197281,-0.2968750298023224,17.707372665405273,0.5166093707084656,94.14000701904295,35.99,2
-0.9531249403953552,-0.2250311821699142,-0.2968750298023224,28.567100524902344,0.5179985761642456,94.14000701904295,35.99,2
-0.9531249403953552,-0.2227808982133865,-0.2968750298023224,33.87751770019531,0.5188900828361511,94.14000701904295,35.99,2
-0.9531249403953552,-0.2269345670938491,-0.2968750298023224,34.498191833496094,0.5194621682167053,94.14000701904295,35.99,2
-0.9531249403953552,-0.2240023910999298,-0.2968750298023224,32.62873458862305,0.5198293328285217,94.14000701904295,35.99,2
-0.9531249403953552,-0.2277184575796127,-0.2968750298023224,30.4259033203125,0.5200649499893188,94.14000701904295,35.99,2
-0.9531249403953552,-0.2301032096147537,-0.2968750298023224,28.54293632507324,0.520216166973114,94.14000701904295,35.99,2
-0.9531249403953552,-0.2316336035728454,-0.2968750298023224,26.496232986450195,0.5203132033348083,94.14000701904295,35.99,2
-0.9531249403953552,-0.2326157242059707,-0.2968750298023224,23.78557205200196,0.5203754901885986,94.14000701904295,35.99,2
-0.9531249403953552,-0.2276482284069061,-0.2968750298023224,20.38012886047364,0.5194975733757019,93.8390655517578,35.97,2
-0.9531249403953552,-0.2244603633880615,-0.2968750298023224,16.457162857055664,0.5189341902732849,93.64594268798828,35.97,2
-0.9531249403953552,-0.2224145829677581,-0.3024728000164032,11.911890983581545,0.5185726284980774,93.52201080322266,35.97,2
-0.9531249403953552,-0.2211017161607742,-0.3004673421382904,6.325977802276611,0.5183406472206116,93.44247436523438,35.97,2
-0.9531249403953552,-0.2202591896057129,-0.2991803586483001,-0.3433371782302856,0.5181917548179626,93.39143371582033,35.97,2
-0.9531249403953552,-0.2197185158729553,-0.2983544468879699,-7.360406875610352,0.5180962085723877,93.35868072509766,35.97,2
-0.9531249403953552,-0.2193715423345565,-0.2978244125843048,-13.941452026367188,0.5180348753929138,93.33766174316406,35.97,2
-0.9531249403953552,-0.2191488742828369,-0.297484278678894,-20.19252586364746,0.5179955363273621,93.3241729736328,35.97,2
-0.9531249403953552,-0.2190059721469879,-0.2972660064697265,-27.159730911254883,0.5165930986404419,93.31551361083984,35.97,2
-0.9531249403953552,-0.2189142704010009,-0.2971259355545044,-36.07327651977539,0.5156931281089783,93.3099594116211,35.97,2
-0.9531249403953552,-0.2188554257154464,-0.2970360219478607,-46.18571472167969,0.5151155591011047,93.30638885498048,35.97,2
-0.9531249403953552,-0.224415436387062,-0.2969783246517181,-52.3564453125,0.5147449374198914,93.3041000366211,35.97,2
-0.9531249403953552,-0.2279835194349289,-0.2969413101673126,-47.83292388916016,0.5145070552825928,93.3026351928711,35.97,2
-0.9531249403953552,-0.2302733212709427,-0.2969175577163696,-31.61713981628418,0.514354407787323,93.30168914794922,35.97,2
-0.9531249403953552,-0.2317427843809127,-0.2969022989273071,-10.180031776428224,0.514256477355957,93.30108642578124,35.97,2
-0.9531249403953552,-0.2326857894659042,-0.2968925237655639,9.244704246520996,0.514193594455719,93.30069732666016,35.97,2
-0.9531249403953552,-0.2332909554243087,-0.2968862354755401,23.530330657958984,0.5155304074287415,93.30044555664062,35.97,2
-0.9531249403953552,-0.233679324388504,-0.2968822121620178,32.142723083496094,0.5163882970809937,93.30028533935548,35.97,2
-0.9531249403953552,-0.2339285612106323,-0.2968796193599701,35.52011489868164,0.5169388651847839,93.30018615722656,35.97,2
-0.9531249403953552,-0.2340884953737259,-0.2968779504299164,35.44125747680664,0.5172921419143677,93.30011749267578,35.97,2
-0.9531249403953552,-0.2341911345720291,-0.3024746775627136,33.99702835083008,0.5175188779830933,93.30007934570312,35.97,2
-0.9531249403953552,-0.2342570126056671,-0.3060663342475891,32.00617980957031,0.51766437292099,93.300048828125,35.97,2
-0.9531249403953552,-0.234299287199974,-0.3027734756469726,29.5427360534668,0.517757773399353,93.30003356933594,35.97,2
-0.9531249403953552,-0.2343264073133468,-0.3006603121757507,27.137847900390625,0.5178176760673523,93.3000259399414,35.97,2
-0.9531249403953552,-0.2343438118696212,-0.299304187297821,25.15028953552246,0.5173968076705933,93.30001831054688,35.97,2
-0.9531249403953552,-0.2343549877405166,-0.2984338998794555,22.656713485717773,0.517126739025116,93.30001068115234,35.97,2
-0.9531249403953552,-0.2343621551990509,-0.2978754043579101,18.43045234680176,0.5169534087181091,93.30001068115234,35.97,2
-0.9531249403953552,-0.2343667596578598,-0.2975170016288757,12.726829528808594,0.5168421864509583,93.30001068115234,35.97,2
-0.9531249403953552,-0.2343697100877761,-0.2972869873046875,6.7844719886779785,0.5167708396911621,93.30001068115234,35.97,2
-0.9531249403953552,-0.2343716025352478,-0.3027371764183044,0.7999687194824219,0.5167250633239746,93.30001068115234,35.97,2
-0.9531249403953552,-0.2343728244304657,-0.3062347769737243,-6.1072258949279785,0.5166956782341003,93.30001068115234,35.97,2
-0.9531249403953552,-0.2343735992908477,-0.3028815686702728,-13.946895599365234,0.5166767835617065,93.30001068115234,35.97,2
-0.9531249403953552,-0.2343741059303283,-0.3007296621799469,-21.39259910583496,0.5157468318939209,93.07430267333984,35.99,2
-0.9531249403953552,-0.2343744188547134,-0.2993487119674682,-27.71849632263184,0.5151500105857849,92.92945861816406,35.99,2
-0.9531249403953552,-0.2343746274709701,-0.2984624803066253,-34.27873229980469,0.514767050743103,92.83650207519533,35.99,2
-0.9531249403953552,-0.2343747615814209,-0.297893762588501,-43.34310531616211,0.5145212411880493,92.77684783935548,35.99,2
-0.9531249403953552,-0.234374850988388,-0.2975287735462188,-54.43364715576172,0.5143635272979736,92.7385711669922,35.99,2
-0.9531249403953552,-0.2343749105930328,-0.297294557094574,-61.554500579833984,0.514262318611145,92.71400451660156,35.99,2
-0.9531249403953552,-0.2343749403953552,-0.2971442341804504,-57.02093124389648,0.5141973495483398,92.6982421875,35.99,2
-0.9531249403953552,-0.2343749552965164,-0.2970477938652038,-39.684513092041016,0.5141556859016418,92.68812561035156,35.99,2
-0.9531249403953552,-0.2343749701976776,-0.2969858944416046,-16.543041229248047,0.5150467753410339,92.68163299560548,35.99,2
-0.9531249403953552,-0.2343749850988388,-0.2969461679458618,4.68839168548584,0.515618622303009,92.6774673461914,35.99,2
-0.9531249403953552,-0.2343749850988388,-0.2969206571578979,21.00043487548828,0.5159856081008911,92.67478942871094,35.99,2
-0.9531249403953552,-0.2343749850988388,-0.2969042956829071,32.1205940246582,0.5162211060523987,92.6730728149414,35.99,2
-0.9531249403953552,-0.2343749850988388,-0.2968938052654266,38.099700927734375,0.5163722634315491,92.6719741821289,35.99,2
-0.9531249403953552,-0.2343749850988388,-0.296887069940567,39.987823486328125,0.5164692401885986,92.6712646484375,35.99,2
-0.9531249403953552,-0.2343749850988388,-0.2968827486038208,39.70558166503906,0.5165314674377441,92.67081451416016,35.99,2
-0.9531249403953552,-0.2343749850988388,-0.2968799769878387,38.295631408691406,0.5165714025497437,92.67052459716795,35.99,2
-0.9531249403953552,-0.2343749850988388,-0.2968781888484955,35.78939437866211,0.5161381363868713,92.67033386230467,35.99,2
-0.9531249403953552,-0.2343749850988388,-0.2968770563602447,32.626197814941406,0.5158600807189941,92.6702117919922,35.99,2
-0.9531249403953552,-0.2343749850988388,-0.296876311302185,29.68268203735352,0.5156816244125366,92.67013549804688,35.99,2
-0.9531249403953552,-0.2343749850988388,-0.2968758344650268,26.90522575378418,0.5155671238899231,92.67008972167967,35.99,2
-0.9531249403953552,-0.2343749850988388,-0.296875536441803,23.10224151611328,0.515493631362915,92.67005920410156,35.99,2
-0.9531249403953552,-0.228777214884758,-0.2968753576278686,17.469629287719727,0.5154464840888977,92.67003631591795,35.99,2
-0.9531249403953552,-0.2307826578617096,-0.2968752384185791,10.841997146606444,0.5154162049293518,92.6700210571289,35.99,2
-0.9531249403953552,-0.2320696413516998,-0.2968751490116119,4.847632884979248,0.515396773815155,92.67001342773438,35.99,2
-0.9531249403953552,-0.23289555311203,-0.2968750894069671,-0.27101930975914,0.5149253606796265,92.67000579833984,35.99,2
-0.9531249403953552,-0.233425572514534,-0.2968750596046448,-5.941871643066406,0.5146228671073914,92.67000579833984,35.99,2
-0.9531249403953552,-0.2281679362058639,-0.2968750298023224,-13.020370483398438,0.5144287347793579,92.67000579833984,35.99,2
-0.9531249403953552,-0.2247938960790634,-0.2968750298023224,-20.50423812866211,0.5143041610717773,92.67000579833984,35.99,2
-0.9531249403953552,-0.2226286232471466,-0.2968750298023224,-27.17347526550293,0.5142242312431335,92.67000579833984,35.99,2
-0.9531249403953552,-0.2212390750646591,-0.2968750298023224,-33.3306770324707,0.5141729116439819,92.67000579833984,35.99,2
-0.9531249403953552,-0.2203473448753357,-0.2968750298023224,-40.48842239379883,0.5141400098800659,92.67000579833984,35.99,2
-0.9531249403953552,-0.2197750806808471,-0.2968750298023224,-49.613807678222656,0.5141188502311707,92.67000579833984,35.99,2
-0.9531249403953552,-0.2194078415632248,-0.2968750298023224,-58.32526779174805,0.5141053199768066,92.47296142578124,35.97,2
-0.9531249403953552,-0.2191721647977829,-0.2968750298023224,-60.139747619628906,0.5140966176986694,92.34651184082033,35.97,2
-0.9531249403953552,-0.2190209180116653,-0.2968750298023224,-49.78977584838867,0.5140910148620605,92.26536560058594,35.97,2
-0.9531249403953552,-0.2245216369628906,-0.2968750298023224,-29.548303604125977,0.514087438583374,92.21328735351562,35.97,2
-0.9531249403953552,-0.2224539071321487,-0.2968750298023224,-7.258127212524414,0.5140851140022278,92.17987060546876,35.97,2
-0.9531249403953552,-0.2211269587278366,-0.2968750298023224,11.037416458129885,0.5140836238861084,92.1584243774414,35.97,2
-0.9531249403953552,-0.2258731722831726,-0.2968750298023224,23.598852157592773,0.514082670211792,92.14466094970705,35.97,2
-0.9531249403953552,-0.2233212441205978,-0.2968750298023224,30.542295455932617,0.5140820741653442,92.13582611083984,35.97,2
-0.9531249403953552,-0.2216835618019104,-0.2968750298023224,32.805660247802734,0.5140817165374756,92.13015747070312,35.97,2
-0.9531249403953552,-0.2206325978040695,-0.2968750298023224,32.40238571166992,0.5140814781188965,92.12651824951172,35.97,2
-0.9531249403953552,-0.2255559116601944,-0.2968750298023224,31.133298873901367,0.5140812993049622,92.12418365478516,35.97,2
-0.9531249403953552,-0.2231176495552063,-0.2968750298023224,29.47696685791016,0.5140811800956726,92.12268829345705,35.97,2
-0.9531249403953552,-0.2215529084205627,-0.2968750298023224,27.45389747619629,0.5140811204910278,92.1217269897461,35.97,2
-0.9531249403953552,-0.2261465191841125,-0.2968750298023224,25.367441177368164,0.5140810608863831,92.12110900878906,35.97,2
-0.9531249403953552,-0.2290944308042526,-0.2968750298023224,23.17582130432129,0.5140810608863831,92.12071228027344,35.97,2
-0.9531249403953552,-0.2309862375259399,-0.2968750298023224,20.2611026763916,0.5140810608863831,92.1204605102539,35.97,2
-0.9531249403953552,-0.2266025096178054,-0.2968750298023224,16.31629180908203,0.5145399570465088,92.12030029296876,35.97,2
-0.9531249403953552,-0.2293870598077774,-0.2968750298023224,11.556377410888672,0.514834463596344,92.12019348144533,35.97,2
-0.9531249403953552,-0.2311740219593048,-0.3024728000164032,6.0799174308776855,0.5150234699249268,92.12012481689452,35.97,2
-0.9531249403953552,-0.2323208004236221,-0.3004673421382904,-0.1537346243858337,0.5151447653770447,92.12007904052734,35.97,2
-0.9531249403953552,-0.2330567389726638,-0.2991803586483001,-6.747918128967285,0.5152226090431213,92.12004852294922,35.97,2
-0.9531249403953552,-0.2279312461614608,-0.2983544468879699,-12.996675491333008,0.5152725577354431,92.12003326416016,35.97,2
-0.9531249403953552,-0.2246419936418533,-0.2978244125843048,-18.83388328552246,0.5153046250343323,92.12002563476562,35.97,2
-0.9531249403953552,-0.2225311398506164,-0.297484278678894,-25.381441116333008,0.5153251886367798,92.1200180053711,35.97,2
-0.9531249403953552,-0.2211765199899673,-0.3028637766838074,-34.065086364746094,0.5144201517105103,92.12001037597656,35.97,2
-0.9531249403953552,-0.2259049713611602,-0.3007182478904724,-43.951171875,0.5138393640518188,92.12001037597656,35.97,2
-0.9531249403953552,-0.2289394289255142,-0.2993413805961609,-49.71870040893555,0.5134666562080383,92.12001037597656,35.97,2
-0.9531249403953552,-0.2308867573738098,-0.3040555417537689,-45.08689498901367,0.5132274627685547,92.12001037597656,35.97,2
-0.9531249403953552,-0.2321364432573318,-0.3014830648899078,-29.747419357299805,0.5130739808082581,92.12001037597656,35.97,2
-0.9531249403953552,-0.2329384237527847,-0.2998321950435638,-10.194645881652832,0.5129754543304443,92.12001037597656,35.97,2
-0.9531249403953552,-0.233453094959259,-0.2987727522850036,7.078615188598633,0.5129122734069824,92.12001037597656,35.97,2
-0.9531249403953552,-0.2337833791971206,-0.2980928719043731,19.75784683227539,0.5128716826438904,92.12001037597656,35.97,2
-0.9531249403953552,-0.2339953333139419,-0.2976565659046173,27.600875854492188,0.5133049488067627,91.92655181884766,35.99,2
-0.9531249403953552,-0.2341313511133194,-0.2973765730857849,30.84279441833496,0.5135830044746399,91.80239868164062,35.99,2
-0.9531249403953552,-0.2342186421155929,-0.2971968948841095,30.970766067504883,0.5137614011764526,91.72272491455078,35.99,2
-0.9531249403953552,-0.2342746555805206,-0.2970815598964691,29.93512725830078,0.5138759016990662,91.67159271240234,35.99,2
-0.9531249403953552,-0.2343106120824813,-0.2970075607299804,28.52175521850586,0.5139493942260742,91.63877868652344,35.99,2
-0.9531249403953552,-0.2343336790800094,-0.2969600558280945,26.865976333618164,0.5139965415000916,91.6177215576172,35.99,2
-0.9531249403953552,-0.2343484759330749,-0.2969295978546142,25.56694221496582,0.5140268206596375,91.60420989990234,35.99,2
-0.9531249403953552,-0.2343579828739166,-0.2969100475311279,25.00557327270508,0.5140462517738342,91.59553527832033,35.99,2
-0.9531249403953552,-0.2343640774488449,-0.2968975007534027,24.14375877380371,0.5140587091445923,91.58997344970705,35.99,2
-0.9531249403953552,-0.2343679964542389,-0.296889454126358,21.28351593017578,0.5140666961669922,91.5864028930664,35.99,2
-0.9531249403953552,-0.2343704998493194,-0.2968842685222626,16.22365951538086,0.5140718221664429,91.5841064453125,35.99,2
-0.9531249403953552,-0.2343721091747284,-0.2968809604644775,10.622782707214355,0.5140751004219055,91.58263397216795,35.99,2
-0.9531249403953552,-0.2343731522560119,-0.2968788146972656,5.778143405914307,0.5140771865844727,91.5816879272461,35.99,2
-0.9531249403953552,-0.2399715930223465,-0.2968774437904358,0.9351665377616882,0.5140785574913025,91.58108520507812,35.99,2
-0.9531249403953552,-0.2435643523931503,-0.2968765795230865,-5.278870582580566,0.5140794515609741,91.58069610595705,35.99,2
-0.9475271701812744,-0.2402721941471099,-0.2968760132789612,-12.580564498901367,0.5140799880027771,91.5804443359375,35.99,2
-0.9495326280593872,-0.2381594777107238,-0.2968756556510925,-19.53772354125977,0.5127031803131104,91.58028411865234,35.99,2
-0.9508196115493774,-0.2368036657571792,-0.2968754172325134,-25.88686180114746,0.5118196606636047,91.58018493652344,35.99,2
-0.95164555311203,-0.2359335720539093,-0.2968752682209015,-33.214351654052734,0.5112526416778564,91.58011627197266,35.99,2
-0.9521755576133728,-0.2353751957416534,-0.2968751788139343,-43.07920455932617,0.5108887553215027,91.580078125,35.99,2
-0.952515721321106,-0.235016867518425,-0.2968751192092895,-53.89528274536133,0.5106552243232727,91.58004760742188,35.99,2
-0.9527339935302734,-0.2347869127988815,-0.2968750894069671,-59.5610237121582,0.5105053782463074,91.5800323486328,35.99,2
-0.9528740644454956,-0.2346393465995788,-0.2968750596046448,-53.74971771240234,0.5104092359542847,91.58002471923828,35.99,2
-0.9529639482498168,-0.2345446497201919,-0.2968750298023224,-36.80781936645508,0.5103475451469421,91.58001708984376,35.99,2
-0.9530216455459596,-0.2344838678836822,-0.2968750298023224,-15.746638298034668,0.510766863822937,91.58000946044922,35.99,2
-0.953058660030365,-0.2344448715448379,-0.2968750298023224,2.9281246662139893,0.5110359787940979,91.58000946044922,35.99,2
-0.9530824422836304,-0.2344198375940323,-0.2968750298023224,17.137290954589844,0.5112086534500122,91.58000946044922,35.99,2
-0.9530977010726928,-0.2344037741422653,-0.2968750298023224,26.76464080810547,0.5113194584846497,91.58000946044922,35.99,2
-0.953107476234436,-0.2343934625387191,-0.2968750298023224,31.87531280517578,0.5113905668258667,91.58000946044922,35.99,2
-0.9531137347221376,-0.2343868464231491,-0.2968750298023224,33.60379409790039,0.5114362239837646,91.58000946044922,35.99,2
-0.9531177878379822,-0.2343825995922088,-0.3024728000164032,33.75648498535156,0.5114655494689941,91.58000946044922,35.99,2
-0.9531203508377076,-0.2343798726797104,-0.3060651123523712,33.06272506713867,0.5114843249320984,91.58000946044922,35.99,2
-0.9531220197677612,-0.2343781292438507,-0.3027726709842682,31.28120803833008,0.5124145746231079,91.38655090332033,35.99,2
-0.9531230926513672,-0.2343770116567611,-0.3006597757339477,28.80879783630371,0.5130115747451782,91.26239776611328,35.99,2
-0.9531237483024596,-0.2343762964010238,-0.2993038594722748,26.6990909576416,0.5133947134017944,91.18272399902344,35.99,2
-0.953124225139618,-0.2343758344650268,-0.2984336912631988,25.02635383605957,0.5136405825614929,91.131591796875,35.99,2
-0.9531245231628418,-0.2343755364418029,-0.2978752851486206,22.48761367797852,0.5137983560562134,91.0987777709961,35.99,2
-0.953124701976776,-0.2343753427267074,-0.2975169122219085,18.22878646850586,0.5138996243476868,91.07772064208984,35.99,2
-0.9531248211860656,-0.2343752235174179,-0.2972869277000427,13.21003246307373,0.5139645934104919,91.064208984375,35.99,2
-0.9531248807907104,-0.2343751490116119,-0.2971393465995788,8.807035446166992,0.5140063166618347,91.05553436279295,35.99,2
-0.9531249403953552,-0.2343750894069671,-0.2970446348190307,4.677387714385986,0.5121966600418091,91.04997253417967,35.99,2
-0.9531249403953552,-0.2343750596046447,-0.2969838678836822,-0.6597143411636353,0.5110353231430054,91.04640197753906,35.99,2
-0.9531249403953552,-0.2343750447034835,-0.2969448566436767,-7.337737560272217,0.5102900266647339,91.04410552978516,35.99,2
-0.9531249403953552,-0.2343750298023224,-0.2969198226928711,-13.826592445373535,0.5098117589950562,91.04263305664062,35.99,2
-0.9531249403953552,-0.2343750149011612,-0.2969037592411041,-19.15510368347168,0.5095047950744629,91.04168701171876,35.99,2
-0.9531249403953552,-0.2343750149011612,-0.296893447637558,-24.193960189819336,0.5093078017234802,91.04108428955078,35.99,2
-0.9531249403953552,-0.2287772297859192,-0.2968868315219879,-30.813140869140625,0.5091813802719116,91.04069519042967,35.99,2
-0.9531249403953552,-0.2307826727628708,-0.2968825995922088,-39.90817642211914,0.5091002583503723,91.04044342041016,35.99,2
-0.9531249403953552,-0.232069656252861,-0.3024776577949524,-48.75779342651367,0.5095074772834778,91.040283203125,35.99,2
-0.9531249403953552,-0.2328955680131912,-0.3004704713821411,-50.92962646484375,0.5097688436508179,91.0401840209961,35.99,2
-0.9531249403953552,-0.2334255874156952,-0.2991823554039001,-41.85151290893555,0.5099365711212158,91.04011535644533,35.99,2
-0.9531249403953552,-0.2337657213211059,-0.2983557283878326,-24.19603729248047,0.5100442171096802,91.04007720947266,35.99,2
-0.9531249403953552,-0.2339839935302734,-0.2978252470493316,-5.184727191925049,0.5101132988929749,91.04004669189452,35.99,2
-0.9531249403953552,-0.2341240793466568,-0.297484815120697,10.150389671325684,0.510157585144043,91.04003143310548,35.99,2
-0.9531249403953552,-0.2342139780521392,-0.2972663342952728,20.661527633666992,0.5101860165596008,91.04002380371094,35.99,2
-0.9531249403953552,-0.2342716604471206,-0.2971261441707611,26.5041618347168,0.5102042555809021,91.0400161743164,35.99,2
-0.9531249403953552,-0.2343086898326873,-0.2970361709594726,28.27962875366211,0.5102159976959229,91.04000854492188,35.99,2
-0.9531249403953552,-0.2343324422836303,-0.2969784438610077,27.68505477905273,0.5102235078811646,91.04000854492188,35.99,2
-0.9531249403953552,-0.2343476861715316,-0.2969413697719574,26.619218826293945,0.5102283358573914,91.04000854492188,35.99,2
-0.9531249403953552,-0.234357476234436,-0.296917587518692,25.691612243652344,0.5102314352989197,91.04000854492188,35.99,2
-0.9531249403953552,-0.2343637496232986,-0.2969023287296295,24.4263858795166,0.5102334022521973,91.04000854492188,35.99,2
-0.9531249403953552,-0.2343677729368209,-0.2968925237655639,22.5217514038086,0.5102346539497375,91.04000854492188,35.99,2
-0.9531249403953552,-0.2343703657388687,-0.2968862354755401,20.10288619995117,0.5102354884147644,91.04000854492188,35.99,2
-0.9531249403953552,-0.2287742495536804,-0.2968822121620178,17.14264488220215,0.5102360248565674,91.04000854492188,35.99,2
-0.9531249403953552,-0.2307807654142379,-0.2968796193599701,13.451644897460938,0.5111542344093323,90.82147216796876,35.99,2
-0.9531249403953552,-0.2264706492424011,-0.2968779504299164,9.040904998779297,0.5117434859275818,90.68122100830078,35.99,2
-0.9531249403953552,-0.2237046658992767,-0.3024746775627136,3.938993215560913,0.5121216177940369,90.59121704101562,35.99,2
-0.9531249403953552,-0.2275273948907852,-0.3004685640335083,-1.9647305011749268,0.5123643279075623,90.53346252441406,35.99,2
-0.9531249403953552,-0.2243828326463699,-0.2991811335086822,-8.41167163848877,0.5125200748443604,90.49639892578124,35.99,2
-0.9531249403953552,-0.2279625982046127,-0.2983549535274505,-14.680580139160156,0.5126200318336487,90.4726104736328,35.99,2
-0.9531249403953552,-0.230259895324707,-0.2978247404098511,-20.584457397460938,0.512684166431427,90.45734405517578,35.99,2
-0.9531249403953552,-0.2317341566085815,-0.2974844872951507,-27.33243179321289,0.512725293636322,90.44754791259766,35.99,2
-0.9531249403953552,-0.2326802611351013,-0.2972661256790161,-36.295166015625,0.5104566812515259,90.4412612915039,35.99,2
-0.9531249403953552,-0.2332874089479446,-0.2971259951591491,-45.57576751708984,0.509000837802887,90.43722534179688,35.99,2
-0.9531249403953552,-0.2336770445108413,-0.2970360815525055,-48.95565032958984,0.5080665946006775,90.43463897705078,35.99,2
-0.9531249403953552,-0.2339270859956741,-0.2969783842563629,-41.19376754760742,0.5074670314788818,90.43297576904295,35.99,2
-0.9531249403953552,-0.2340875566005706,-0.296941339969635,-24.07845497131348,0.5070822834968567,90.4319076538086,35.99,2
-0.9531249403953552,-0.2341905385255813,-0.296917587518692,-4.579049110412598,0.5068353414535522,90.43122100830078,35.99,2
-0.9531249403953552,-0.234256625175476,-0.2969023287296295,11.88254451751709,0.5066768527030945,90.4307861328125,35.99,2
-0.9531249403953552,-0.2342990338802337,-0.2968925237655639,23.7220458984375,0.5065751671791077,90.43050384521484,35.99,2
-0.9531249403953552,-0.2343262434005737,-0.2968862354755401,30.87929916381836,0.5166088342666626,90.4303207397461,35.99,2
-0.9531249403953552,-0.2343437075614929,-0.2968822121620178,33.90682601928711,0.5230478644371033,90.43020629882812,35.99,2
-0.9531249403953552,-0.2343549132347107,-0.2968796193599701,34.42743682861328,0.5271800756454468,90.4301300048828,35.99,2
-0.9531249403953552,-0.2343621104955673,-0.2968779504299164,33.976951599121094,0.5298318862915039,90.43008422851562,35.99,2
-0.9531249403953552,-0.2343667298555374,-0.2968769073486328,32.68115234375,0.5315336585044861,90.4300537109375,35.99,2
-0.9531249403953552,-0.234369695186615,-0.2968762218952179,30.19084930419922,0.5326257348060608,90.4300308227539,35.99,2
-0.9531249403953552,-0.2343716025352478,-0.2968757748603821,27.19551086425781,0.5333265662193298,90.43002319335938,35.99,2
-0.9531249403953552,-0.2343728244304657,-0.2968755066394806,24.74663734436035,0.5337763428688049,90.43001556396484,35.99,2
-0.9531249403953552,-0.2343735992908477,-0.2968753278255462,22.41200256347656,0.5253431797027588,90.43000793457033,35.99,2
-0.9531249403953552,-0.2343741059303283,-0.2968752086162567,18.595842361450195,0.5199312567710876,90.43000793457033,35.99,2
-0.9531249403953552,-0.2343744188547134,-0.2968751192092895,12.911784172058104,0.5164582133293152,90.43000793457033,35.99,2
-0.9531249403953552,-0.2343746274709701,-0.2968750894069671,6.870922565460205,0.514229416847229,90.43000793457033,35.99,2
-0.9531249403953552,-0.2343747615814209,-0.2968750596046448,1.5504672527313232,0.512799084186554,90.43000793457033,35.99,2
-0.9531249403953552,-0.2399726212024688,-0.2968750298023224,-3.970449209213257,0.5118811726570129,90.43000793457033,35.99,2
-0.9531249403953552,-0.2435650080442428,-0.2968750298023224,-10.798677444458008,0.5112920999526978,90.43000793457033,35.99,2
-0.9531249403953552,-0.2458703964948654,-0.2968750298023224,-18.190004348754883,0.5109140872955322,90.43000793457033,35.99,2
-0.9531249403953552,-0.2473498582839965,-0.2968750298023224,-24.703125,0.5092943906784058,90.21504974365234,35.99,2
-0.9531249403953552,-0.2427015155553817,-0.2968750298023224,-30.480701446533203,0.5082549452781677,90.0771026611328,35.99,2
-0.9531249403953552,-0.2397184818983078,-0.2968750298023224,-37.391239166259766,0.5075879096984863,89.98857879638672,35.99,2
-0.9531249403953552,-0.2434019148349762,-0.3024728000164032,-47.00284576416016,0.5071598291397095,89.93177032470703,35.99,2
-0.9531249403953552,-0.240167960524559,-0.3004673421382904,-57.4880256652832,0.5068851113319397,89.89530944824219,35.99,2
-0.9531249403953552,-0.2436903566122055,-0.2991803586483001,-62.38969421386719,0.5067088007926941,89.87191009521484,35.99,2
-0.9531249403953552,-0.240353062748909,-0.2983544468879699,-55.38945007324219,0.5065956711769104,89.85689544677734,35.99,2
-0.9531249403953552,-0.238211378455162,-0.2978244125843048,-37.32630157470703,0.506523072719574,89.84725952148438,35.99,2
-0.9531249403953552,-0.2368369698524475,-0.297484278678894,-15.581391334533691,0.5064764618873596,89.84107971191406,35.99,2
-0.9531249403953552,-0.2359549552202224,-0.2972660064697265,3.424670934677124,0.5064465403556824,89.83711242675781,35.99,2
-0.9531249403953552,-0.2353889197111129,-0.2971259355545044,17.79629135131836,0.5064273476600647,89.83456420898438,35.99,2
-0.9531249403953552,-0.2350256741046905,-0.2970360219478607,27.54939079284668,0.506415069103241,89.83293151855469,35.99,2
-0.9531249403953552,-0.234792560338974,-0.2969783246517181,32.83749008178711,0.5064071416854858,89.83187866210938,35.99,2
-0.9531249403953552,-0.2346429675817489,-0.2969413101673126,34.68699645996094,0.5064020752906799,89.83120727539062,35.99,2
-0.9531249403953552,-0.234546959400177,-0.2969175577163696,34.71315002441406,0.5063988566398621,89.83077239990234,35.99,2
-0.9531249403953552,-0.2344853579998016,-0.2969022989273071,33.626502990722656,0.5063967704772949,89.83049774169922,35.99,2
-0.9531249403953552,-0.2344458252191543,-0.2968925237655639,31.291915893554688,0.5077725648880005,89.830322265625,35.99,2
-0.9531249403953552,-0.2344204485416412,-0.2968862354755401,28.278282165527344,0.5086554884910583,89.83020782470703,35.99,2
-0.9531249403953552,-0.2344041615724563,-0.2968822121620178,25.83199882507324,0.5092220902442932,89.83013153076172,35.99,2
-0.9531249403953552,-0.2343937158584594,-0.2968796193599701,23.96117782592773,0.5095856785774231,89.83008575439453,35.99,2
-0.9531249403953552,-0.2343870103359222,-0.2968779504299164,21.044538497924805,0.5098190307617188,89.8300552368164,35.99,2
-0.9531249403953552,-0.2343827039003372,-0.2968769073486328,16.11328887939453,0.5099687576293945,89.83003234863281,35.99,2
-0.9531249403953552,-0.2343799471855163,-0.3024739921092987,10.32266902923584,0.5100648403167725,89.83002471923828,35.99,2
-0.9531249403953552,-0.2343781739473343,-0.3004681169986725,5.316854476928711,0.510126531124115,89.83001708984375,35.99,2
-0.9531249403953552,-0.2343770414590835,-0.2991808652877807,1.0403860807418823,0.5101661086082458,89.83000946044922,35.99,2
-0.9531249403953552,-0.234376311302185,-0.2983547747135162,-3.878628492355346,0.5101915001869202,89.83000946044922,35.99,2
-0.9531249403953552,-0.2343758344650268,-0.2978246212005615,-9.9838285446167,0.5102077722549438,89.83000946044922,35.99,2
-0.9531249403953552,-0.2343755364418029,-0.2974843978881836,-16.305702209472656,0.5102182626724243,89.83000946044922,35.99,2
-0.9531249403953552,-0.2343753427267074,-0.2972660660743713,-21.91039085388184,0.5102249383926392,89.83000946044922,35.99,2
-0.9531249403953552,-0.2343752235174179,-0.2971259653568268,-27.29486083984375,0.510229229927063,89.83000946044922,35.99,2
-0.9531249403953552,-0.2343751490116119,-0.2970360517501831,-34.01403045654297,0.5102320313453674,89.83000946044922,35.99,2
-0.9531249403953552,-0.2343750894069671,-0.2969783544540405,-42.85079956054688,0.5102338194847107,89.83000946044922,35.99,2
-0.9531249403953552,-0.2343750596046447,-0.296941339969635,-51.26598358154297,0.5083985328674316,89.62937927246094,35.99,2
-0.9531249403953552,-0.2343750447034835,-0.296917587518692,-53.24500274658203,0.5072207450866699,89.50062561035156,35.99,2
-0.9531249403953552,-0.2343750298023224,-0.2969023287296295,-44.35483932495117,0.5064648985862732,89.41799926757812,35.99,2
-0.9531249403953552,-0.2343750149011612,-0.2968925237655639,-26.852224349975582,0.5059798359870911,89.36497497558594,35.99,2
-0.9531249403953552,-0.2343750149011612,-0.2968862354755401,-7.559257030487059,0.505668580532074,89.33094787597656,35.99,2
-0.9531249403953552,-0.2343750149011612,-0.2968822121620178,8.397268295288086,0.5054688453674316,89.30911254882812,35.99,2
-0.9531249403953552,-0.2343750149011612,-0.2968796193599701,19.59021377563477,0.5053406357765198,89.29509735107422,35.99,2
-0.9531249403953552,-0.2343750149011612,-0.2968779504299164,26.24298095703125,0.5052583813667297,89.28610229492188,35.99,2
-0.9531249403953552,-0.2343750149011612,-0.2968769073486328,29.190372467041016,0.5065827369689941,89.28033447265625,35.99,2
-0.9531249403953552,-0.2343750149011612,-0.2968762218952179,29.856597900390625,0.5074326395988464,89.2766342163086,35.99,2
-0.9531249403953552,-0.2343750149011612,-0.2968757748603821,29.38133430480957,0.5079780220985413,89.27425384521484,35.99,2
-0.9531249403953552,-0.2343750149011612,-0.2968755066394806,28.16636276245117,0.5083280205726624,89.2727279663086,35.99,2
-0.9531249403953552,-0.2343750149011612,-0.2968753278255462,26.63074111938477,0.5085526704788208,89.2717514038086,35.99,2
-0.9531249403953552,-0.2343750149011612,-0.2968752086162567,25.405235290527344,0.5086967945098877,89.27112579345703,35.99,2
-0.9531249403953552,-0.2343750149011612,-0.2968751192092895,24.332170486450195,0.5087893009185791,89.27072143554688,35.99,2
-0.9531249403953552,-0.2343750149011612,-0.2968750894069671,22.30723762512207,0.5088486671447754,89.27046203613281,35.99,2
-0.9531249403953552,-0.2343750149011612,-0.2968750596046448,18.67549514770508,0.5084277987480164,89.27029418945312,35.99,2
-0.9531249403953552,-0.2343750149011612,-0.2968750298023224,13.96243953704834,0.5081577301025391,89.27018737792969,35.99,2
-0.9531249403953552,-0.2343750149011612,-0.2968750298023224,8.770413398742676,0.5079843997955322,89.2701187133789,35.99,2
-0.9531249403953552,-0.2343750149011612,-0.2968750298023224,2.9414150714874268,0.5078731775283813,89.27007293701172,35.99,2
-0.9531249403953552,-0.2343750149011612,-0.2968750298023224,-3.60445785522461,0.5078018307685852,89.2700424194336,35.99,2
-0.9531249403953552,-0.2343750149011612,-0.2968750298023224,-10.12314796447754,0.5077560544013977,89.27002716064453,35.99,2
-0.9531249403953552,-0.2343750149011612,-0.2968750298023224,-16.001026153564453,0.5077266693115234,89.27001953125,35.99,2
-0.9531249403953552,-0.2343750149011612,-0.2968750298023224,-21.96564674377441,0.5077077746391296,89.27001190185547,35.99,2
-0.9531249403953552,-0.2343750149011612,-0.2968750298023224,-29.662578582763672,0.5067774653434753,89.27000427246094,35.99,2
-0.9531249403953552,-0.2343750149011612,-0.2968750298023224,-39.10532379150391,0.5061804056167603,89.27000427246094,35.99,2
-0.9531249403953552,-0.2343750149011612,-0.2968750298023224,-46.17184066772461,0.505797266960144,89.27000427246094,35.99,2
-0.9531249403953552,-0.2343750149011612,-0.2968750298023224,-44.54469299316406,0.5055513978004456,89.27000427246094,35.99,2
-0.9531249403953552,-0.2343750149011612,-0.2968750298023224,-32.0899772644043,0.5053936243057251,89.27000427246094,35.99,2
-0.9531249403953552,-0.2343750149011612,-0.2968750298023224,-13.578818321228027,0.5052923560142517,89.27000427246094,35.99,2
-0.9531249403953552,-0.2343750149011612,-0.2968750298023224,4.326472282409668,0.5052273869514465,89.27000427246094,35.99,2
-0.9531249403953552,-0.2343750149011612,-0.2968750298023224,18.28186798095703,0.5051856637001038,89.27000427246094,35.99,2
-0.9531249403953552,-0.2343750149011612,-0.2968750298023224,27.660381317138672,0.5060771107673645,89.06938171386719,36.03,2
-0.9531249403953552,-0.2343750149011612,-0.2968750298023224,32.51105117797852,0.5066491961479187,88.94062805175781,36.03,2
-0.9531249403953552,-0.2343750149011612,-0.2968750298023224,33.89713287353516,0.5070163607597351,88.85800170898438,36.03,2
-0.9531249403953552,-0.2343750149011612,-0.2968750298023224,33.7476921081543,0.5072519779205322,88.80497741699219,36.03,2
-0.9531249403953552,-0.2343750149011612,-0.2968750298023224,33.12873458862305,0.5074031352996826,88.77095031738281,36.03,2
-0.9531249403953552,-0.2343750149011612,-0.2968750298023224,31.814382553100582,0.507500171661377,88.74911499023438,36.03,2
-0.9531249403953552,-0.2343750149011612,-0.2968750298023224,29.724170684814453,0.5075624585151672,88.73509979248047,36.03,2
-0.9531249403953552,-0.2343750149011612,-0.2968750298023224,27.54805374145508,0.5076023936271667,88.72610473632812,36.03,2
-0.9531249403953552,-0.2343750149011612,-0.2968750298023224,25.61774253845215,0.5071691274642944,88.7203369140625,36.03,2
-0.9531249403953552,-0.2343750149011612,-0.2968750298023224,23.03193092346192,0.5068910717964172,88.71663665771484,36.03,2
-0.9531249403953552,-0.2343750149011612,-0.2968750298023224,18.68557548522949,0.5067126154899597,88.7142562866211,36.03,2
-0.9531249403953552,-0.2343750149011612,-0.2968750298023224,12.861892700195312,0.5065981149673462,88.71273040771484,36.03,2
-0.9531249403953552,-0.2343750149011612,-0.2968750298023224,6.946382522583008,0.5065246224403381,88.71175384521484,36.03,2
-0.9531249403953552,-0.2343750149011612,-0.2968750298023224,1.5379894971847534,0.5064774751663208,88.71112823486328,36.03,2
-0.9531249403953552,-0.2343750149011612,-0.2968750298023224,-4.286558151245117,0.5064471960067749,88.71072387695312,36.03,2
-0.9531249403953552,-0.2343750149011612,-0.2968750298023224,-11.420699119567873,0.5064277648925781,88.71046447753906,36.03,2
-0.9531249403953552,-0.2343750149011612,-0.2968750298023224,-19.187471389770508,0.5059559941291809,88.71029663085938,36.03,2
-0.9531249403953552,-0.2343750149011612,-0.2968750298023224,-26.12066078186035,0.5056532621383667,88.71018981933594,36.03,2
-0.9531249403953552,-0.2343750149011612,-0.2968750298023224,-32.060333251953125,0.5054590106010437,88.71012115478516,36.03,2
-0.9531249403953552,-0.2343750149011612,-0.2968750298023224,-38.791873931884766,0.5053343176841736,88.71007537841797,36.03,2
-0.9531249403953552,-0.2343750149011612,-0.2968750298023224,-48.213375091552734,0.505254328250885,88.71004486083984,36.03,2
-0.9531249403953552,-0.2343750149011612,-0.2968750298023224,-58.81300735473633,0.5052029490470886,88.71002960205078,36.03,2
-0.9531249403953552,-0.2343750149011612,-0.2968750298023224,-63.98516845703125,0.5051699876785278,88.71002197265625,36.03,2
-0.9531249403953552,-0.2343750149011612,-0.2968750298023224,-56.9363899230957,0.5051488280296326,88.71001434326172,36.03,2
-0.9531249403953552,-0.2343750149011612,-0.2968750298023224,-38.24738693237305,0.504676342010498,88.71000671386719,36.03,2
-0.9531249403953552,-0.2343750149011612,-0.2968750298023224,-15.545541763305664,0.5043731331825256,88.71000671386719,36.03,2
-0.9531249403953552,-0.2343750149011612,-0.2968750298023224,4.31824254989624,0.5041785836219788,88.71000671386719,36.03,2
-0.9531249403953552,-0.239972785115242,-0.2968750298023224,19.186561584472656,0.5040537118911743,88.71000671386719,36.03,2
-0.9531249403953552,-0.2435651123523712,-0.2968750298023224,29.02554702758789,0.5039735436439514,88.71000671386719,36.03,2
-0.9531249403953552,-0.2458704560995102,-0.2968750298023224,34.13947677612305,0.5039221048355103,88.71000671386719,36.03,2
-0.9531249403953552,-0.2473499029874801,-0.2968750298023224,35.81272888183594,0.5038890838623047,88.71000671386719,36.03,2
-0.9531249403953552,-0.2482993155717849,-0.2968750298023224,35.65411758422852,0.5038679242134094,88.71000671386719,36.03,2
-0.9531249403953552,-0.248908594250679,-0.2968750298023224,34.2590217590332,0.5047725439071655,88.52371215820312,36.0,2
-0.9531249403953552,-0.2492996007204055,-0.2968750298023224,31.726491928100582,0.5053530931472778,88.40415954589844,36.0,2
-0.9531249403953552,-0.2495505213737487,-0.2968750298023224,28.70405578613281,0.5057256817817688,88.32743835449219,36.0,2
-0.9531249403953552,-0.2497115433216095,-0.2968750298023224,26.001340866088867,0.5059647560119629,88.2781982421875,36.0,2
-0.9531249403953552,-0.2498148828744888,-0.2968750298023224,23.59337043762207,0.5061181783676147,88.2466049194336,36.0,2
-0.9531249403953552,-0.2442834228277206,-0.2968750298023224,20.50756454467773,0.5062166452407837,88.22632598876953,36.0,2
-0.9531249403953552,-0.240733653306961,-0.2968750298023224,15.80451488494873,0.5062798261642456,88.21331024169922,36.0,2
-0.9531249403953552,-0.2384556233882904,-0.2968750298023224,9.862987518310549,0.5063203573226929,88.20496368408203,36.0,2
-0.9531249403953552,-0.2369937151670456,-0.2968750298023224,4.230108261108398,0.5063464045524597,88.19960021972656,36.0,2
-0.9531249403953552,-0.2416533082723617,-0.2968750298023224,-0.4093660414218902,0.5063630938529968,88.19615936279297,36.0,2
-0.9531249403953552,-0.2446435689926147,-0.2968750298023224,-5.238905429840088,0.5063738226890564,88.19395446777344,36.0,2
-0.9531249403953552,-0.2409647703170776,-0.2968750298023224,-11.5231351852417,0.5063806772232056,88.19253540039062,36.0,2
-0.9531249403953552,-0.2386039346456527,-0.2968750298023224,-18.687162399291992,0.506385087966919,88.1916275024414,36.0,2
-0.9531249403953552,-0.2370888888835907,-0.2968750298023224,-25.17622375488281,0.5063879489898682,88.19104766845703,36.0,2
-0.9531249403953552,-0.2361166179180145,-0.2968750298023224,-30.676830291748047,0.5063897371292114,88.190673828125,36.0,2
-0.9531249403953552,-0.2354926764965057,-0.2968750298023224,-36.71460723876953,0.5063909292221069,88.1904296875,36.0,2
-0.9531249403953552,-0.2350922673940658,-0.2968750298023224,-45.15350341796875,0.5050145387649536,88.19027709960938,36.0,2
