acc_x,acc_y,acc_z,bvp,eda,hr,temp,label
0.0,0.0,0.0,0.0,0.0,0.0,25.75,2
-0.0234374981373548,-0.1484374850988388,0.0546874962747097,-0.111666664481163,0.6496449708938599,11.166666030883787,25.75,2
-0.0674542710185051,-0.3349847495555877,0.1322408467531204,-0.307073175907135,1.5211200714111328,26.14634132385254,25.75,2
-0.1107246652245521,-0.5121989250183105,0.194715529680252,-0.4770431816577911,2.279153347015381,39.17607879638672,25.75,2
-0.1209399625658989,-0.6361480355262756,0.2136031836271286,-0.6591250896453857,2.832179546356201,48.681976318359375,25.75,2
-0.1113869845867157,-0.725556492805481,0.2538395226001739,-0.9264525175094604,3.206601619720459,55.11787033081055,25.75,2
-0.1662026941776275,-0.8397520780563354,0.2413688153028488,-1.2937721014022827,3.4522762298583984,59.34074020385742,25.75,2
-0.1849661469459533,-0.9081316590309144,0.2277128100395202,-1.7887626886367798,3.611387729644776,62.07568740844727,25.75,2
-0.2082333862781524,-0.9409995079040528,0.2245061695575714,-2.490436792373657,3.666206598281861,63.83746337890625,25.75,2
-0.20640429854393,-0.9285572171211244,0.2168504893779754,-3.532226800918579,3.7014410495758057,64.96983337402344,25.75,2
-0.2052297294139862,-0.9149708151817322,0.206337884068489,-4.978456497192383,3.724066972732544,65.69699096679688,25.75,2
-0.2100730091333389,-0.9174440503120422,0.2051869481801986,-6.6949005126953125,3.738590717315674,66.16375732421875,25.75,2
-0.2075839340686798,-0.924628973007202,0.1988507062196731,-8.495110511779785,3.7479124069213854,66.46333312988281,25.75,2
-0.2059865146875381,-0.9348376989364624,0.1835889220237732,-10.474411964416504,3.753894805908203,66.65559387207031,25.75,2
-0.204961359500885,-0.946986973285675,0.1793923527002334,-12.891053199768066,3.757733821868897,66.77897644042969,25.75,2
-0.1875101923942566,-0.9435881972312928,0.1711014509201049,-15.54535675048828,3.760197639465332,66.85816192626953,25.75,2
-0.1987020820379257,-0.935809314250946,0.1657808125019073,-18.09781074523925,3.8568015098571777,66.90897369384766,25.73,2
-0.2114821672439575,-0.9308172464370728,0.1511707901954651,-21.34440803527832,3.9187963008880615,66.94158172607422,25.73,2
-0.2084881514310836,-0.9164180755615234,0.152990460395813,-26.89223861694336,3.9585812091827393,66.96250915527344,25.73,2
-0.2177623063325882,-0.9407641291618348,0.1373648941516876,-34.927154541015625,3.984112739562988,66.97593688964844,25.73,2
-0.2125183790922165,-0.9395947456359864,0.1329350769519806,-43.41887664794922,4.000497341156006,66.98455810546875,25.73,2
-0.2091531306505203,-0.9500398635864258,0.1300922781229019,-50.46620559692383,4.011012077331543,66.9900894165039,25.73,2
-0.2069935053586959,-0.9511451125144958,0.1282679289579391,-56.65467071533203,4.017759799957275,66.99363708496094,25.73,2
-0.2112053632736206,-0.9574521780014038,0.1270971745252609,-64.14057922363281,4.022089958190918,66.99591827392578,25.73,2
-0.2083105146884918,-0.95030415058136,0.1263458430767059,-73.93513488769531,4.06526517868042,66.99738311767578,25.73,2
-0.2064527720212936,-0.9457169771194458,0.1202659085392952,-85.23632049560547,4.092972278594971,66.99832153320312,25.73,2
-0.2108583450317382,-0.942773163318634,0.1163641586899757,-96.88459014892578,4.110753059387207,66.9989242553711,25.73,2
-0.2192833572626114,-0.940883994102478,0.1138602420687675,-108.51914978027344,4.122163772583008,66.99931335449219,25.73,2
-0.2246900498867035,-0.9508671760559082,0.1122533679008483,-121.60301971435548,4.129486560821533,66.99955749511719,25.73,2
-0.2281597554683685,-0.9572738409042358,0.1168199479579925,-138.13194274902344,4.134185791015625,66.99971771240234,25.73,2
-0.2359841912984848,-0.9613852500915528,0.1253482848405838,-153.8121795654297,4.13720178604126,66.99981689453125,25.73,2
-0.235407680273056,-0.9528281688690186,0.1364190578460693,-155.3268280029297,4.139137268066406,66.99988555908203,25.73,2
-0.2294399440288543,-0.9305434226989746,0.1435236483812332,-131.03451538085938,4.134411811828613,68.90943908691406,25.73,2
-0.2256101965904235,-0.9274379014968872,0.1424851864576339,-80.64397430419922,4.131379127502441,70.13488006591797,25.73,2
-0.2399457991123199,-0.9646293520927428,0.1418187618255615,-9.940421104431152,4.129433155059815,70.92130279541016,25.73,2
-0.2491455674171447,-0.9773011803627014,0.1413910835981369,73.7988510131836,4.1281843185424805,71.42597961425781,25.73,2
-0.2606472373008728,-0.9798354506492616,0.1299210786819458,156.48867797851562,4.127382755279541,71.7498550415039,25.73,2
-0.2680283188819885,-0.9870595335960388,0.1169625148177146,220.9468536376953,4.12686824798584,71.95769500732422,25.73,2
-0.2727651000022888,-0.9804999828338624,0.1198420077562332,261.84307861328125,4.126538276672363,72.09107971191406,25.73,2
-0.2646093368530273,-0.9427038431167604,0.1216899007558822,287.5111389160156,4.126326560974121,72.17667388916016,25.73,2
-0.2593754231929779,-0.9128506779670716,0.1228757724165916,306.7563171386719,4.135830402374268,72.23160552978516,25.73,2
-0.2504188418388366,-0.8992903828620911,0.1180390194058418,322.28094482421875,4.1419291496276855,72.26685333251953,25.73,2
-0.2446710169315338,-0.8905881643295288,0.1149350702762603,333.5442199707031,4.145843029022217,72.28947448730469,25.73,2
-0.2353846132755279,-0.8850035667419434,0.112943135201931,336.3908386230469,4.148354530334473,72.30399322509766,25.73,2
-0.2294251322746276,-0.9038107991218568,0.1060670465230941,322.36834716796875,4.149966716766357,72.31330871582031,25.73,2
-0.2256006896495819,-0.927075743675232,0.1016543731093406,285.5866394042969,4.1510009765625,72.31929016113281,25.73,2
-0.223146378993988,-0.9364081025123596,0.098822571337223,228.29171752929688,4.151664733886719,72.32312774658203,25.73,2
-0.2215713411569595,-0.9423970580101012,0.1026030555367469,155.7439422607422,4.152090549468994,72.32559204101562,25.73,2
-0.2261583507061004,-0.9350448846817015,0.1050291582942009,71.58782958984375,4.157413482666016,72.3271713256836,25.75,2
-0.2346998006105423,-0.935924470424652,0.1177816390991211,-15.507390022277832,4.160829544067383,72.32818603515625,25.75,2
-0.2401812076568603,-0.9476844668388368,0.1315632164478302,-88.6358642578125,4.163022041320801,72.3288345336914,25.75,2
-0.2269055396318435,-1.022404670715332,0.1236141175031662,-135.14634704589844,4.1644287109375,72.32925415039062,25.75,2
-0.2239837497472763,-1.0759536027908323,0.1185128465294838,-156.97987365722656,4.1653313636779785,72.32952117919922,25.75,2
-0.2389020472764969,-1.1383070945739746,0.1040435954928398,-163.44647216796875,4.165910720825195,72.32969665527344,25.75,2
-0.2652690708637237,-1.1727241277694702,0.0779647380113601,-160.81813049316406,4.166282653808594,72.32980346679688,25.75,2
-0.2486032545566558,-1.19481098651886,0.0444355048239231,-152.5215606689453,4.166521072387695,72.32987213134766,25.75,2
-0.1875281333923339,-1.136214017868042,0.0453094728291034,-141.7804412841797,4.160706996917725,72.32991790771484,25.75,2
-0.1203447580337524,-1.0482299327850342,0.0458703339099884,-129.86822509765625,4.156975746154785,72.32994842529297,25.75,2
-0.0436436906456947,-0.9525823593139648,0.0126436166465282,-116.06519317626952,4.154581069946289,72.32997131347656,25.75,2
-0.0448013320565223,-0.9303856492042542,-0.0198749285191297,-100.88037872314452,4.1530442237854,72.3299789428711,25.75,2
-0.0511420145630836,-0.921738862991333,-0.0519390068948268,-86.7111587524414,4.152058124542236,72.32998657226562,25.75,2
-0.0608088746666908,-0.9161898493766784,-0.0669181123375892,-74.8094253540039,4.151425361633301,72.32999420166016,25.75,2
-0.0670125111937522,-0.8958355188369751,-0.0653352886438369,-64.01174926757812,4.151019096374512,72.32999420166016,25.75,2
-0.0597980953752994,-0.8659799098968506,-0.0475262030959129,-53.17383193969727,4.150758743286133,72.32999420166016,25.75,2
-0.0719616189599037,-0.8468203544616699,-0.0193040333688259,-42.98003005981445,4.152886390686035,70.77873992919922,25.75,2
-0.0909630209207534,-0.8345248103141785,0.004405106883496,-34.582462310791016,4.154252052307129,69.78323364257812,25.75,2
-0.1087547987699508,-0.8322320580482483,0.0364135913550853,-27.925153732299805,4.155128479003906,69.14437866210938,25.75,2
-0.1201725378632545,-0.8363584280014038,0.0681503415107727,-22.133865356445312,4.155690670013428,68.7343978881836,25.75,2
-0.1107064634561538,-0.8446043133735657,0.0997127071022987,-16.79085922241211,4.156051635742188,68.4712905883789,25.75,2
-0.110229454934597,-0.8722870945930481,0.1199676170945167,-12.255010604858398,4.156283378601074,68.30244445800781,25.75,2
-0.121118888258934,-0.9068456888198853,0.1385638266801834,-8.903507232666016,4.156432151794434,68.194091796875,25.75,2
-0.1504981964826584,-0.9626100063323976,0.1504978090524673,-6.469681739807129,4.156527519226074,68.12455749511719,25.75,2
-0.1693521440029144,-1.0095919370651243,0.1581563502550125,-4.391901969909668,4.154752731323242,68.0799331665039,25.75,2
-0.1702559739351272,-1.0733288526535034,0.151875615119934,-2.553359270095825,4.153613567352295,68.05130004882812,25.75,2
-0.1764337718486786,-1.1981981992721558,0.1422472298145294,-1.2624285221099854,4.1528825759887695,68.03292083740234,25.75,2
-0.1971916556358337,-1.3119187355041504,0.1360682845115661,-0.6131123304367065,4.152413368225098,68.02112579345703,25.75,2
-0.2329039722681045,-1.30652916431427,0.1321029812097549,-0.3038958013057709,4.152112483978272,68.01355743408203,25.75,2
-0.2446265220642089,-1.230299472808838,0.1183627322316169,-0.0839629992842674,4.151919364929199,68.00869750976562,25.75,2
-0.2185627371072769,-1.114206314086914,0.0871539339423179,0.0177688915282487,4.151795387268066,68.00558471679688,25.75,2
-0.2186298221349716,-1.0620955228805542,0.0559303797781467,-0.013674977235496,4.151715755462647,68.00358581542969,25.75,2
-0.2242706567049026,-1.0342515707015991,0.0302951261401176,-0.0123583888635039,4.139729022979736,68.00230407714844,25.73,2
-0.2110972851514816,-1.0051873922348022,-0.002949429443106,0.0816334933042526,4.132036685943604,68.00148010253906,25.73,2
-0.2026433795690536,-0.9585467576980592,-0.0298816449940204,0.0738831311464309,4.127100467681885,68.00094604492188,25.73,2
-0.1916203796863556,-0.9230177402496338,-0.0583607405424118,-0.1281322687864303,4.123932361602783,68.0006103515625,25.73,2
-0.1845464408397674,-0.8946194648742676,-0.0822347626090049,-0.3222604691982269,4.121899604797363,68.0003890991211,25.73,2
-0.1912023574113845,-0.870797336101532,-0.0975557342171669,-0.3035377562046051,4.12059497833252,68.00025177001953,25.73,2
-0.2010715156793594,-0.8443140983581543,-0.0961923003196716,-0.137471854686737,4.119757652282715,68.00016021728516,25.73,2
-0.2074049711227417,-0.8217208981513977,-0.0841217786073684,0.0120905945077538,4.11922025680542,68.0000991821289,25.73,2
-0.2058716416358947,-0.8016241192817688,-0.0595822893083095,0.1224014684557914,4.114284992218018,68.00006103515625,25.73,2
-0.204887643456459,-0.7943249344825745,-0.0214431583881378,0.3114176094532013,4.111117839813232,68.00003814697266,25.73,2
-0.1986583918333053,-0.8064340353012085,0.003032338572666,0.6154286861419678,4.109085559844971,68.0000228881836,25.73,2
-0.1834652721881866,-0.8589872121810913,0.0243370775133371,0.964576244354248,4.107781410217285,68.00001525878906,25.73,2
-0.168117418885231,-0.9151039123535156,0.0436070077121257,1.3391071557998655,4.106944561004639,68.00000762939453,25.73,2
-0.1638658195734024,-0.9735074639320374,0.0671688839793205,1.7084323167800903,4.106407165527344,68.00000762939453,25.73,2
-0.1779307126998901,-1.0893563032150269,0.0543006733059883,1.888122797012329,4.106062412261963,68.00000762939453,25.73,2
-0.1925545334815979,-1.180494785308838,0.0404448211193084,1.648762822151184,4.105841159820557,68.00000762939453,25.73,2
-0.235525906085968,-1.2053955793380735,0.0595418028533458,0.89686518907547,4.1034040451049805,67.28349304199219,25.73,2
-0.2742980122566223,-1.182191014289856,0.0885904729366302,-0.1660366505384445,4.101840496063232,66.82366943359375,25.73,2
-0.2487997412681579,-1.105724215507507,0.0960366874933242,-1.0881785154342651,4.100836753845215,66.5285873413086,25.73,2
-0.1372742503881454,-1.067847728729248,0.0784241408109664,-1.4793318510055542,4.100192546844482,66.33921813964844,25.73,2
-0.0545080639421939,-1.026747465133667,0.0783169716596603,-1.3398507833480835,4.09977912902832,66.21768951416016,25.73,2
-0.0181868150830268,-0.955589473247528,0.0950415208935737,-0.9888118505477904,4.099514007568359,66.13970184326172,25.73,2
-0.0116712506860494,-0.8651421666145325,0.1001765951514244,-0.7635352611541748,4.099343776702881,66.08965301513672,25.73,2
-0.0690654590725898,-0.790304958820343,0.0810808986425399,-0.8160073757171631,4.099234580993652,66.05753326416016,25.73,2
-0.1562777310609817,-0.7534742951393127,0.0576308295130729,-1.0216445922851562,4.10605001449585,66.03691864013672,25.73,2
-0.2178433090448379,-0.7354362607002258,0.0425819233059883,-1.1213674545288086,4.110423564910889,66.02368927001953,25.73,2
-0.2349614650011062,-0.7574471831321716,0.0497177243232727,-1.013400316238403,4.113230228424072,66.01520538330078,25.73,2
-0.234751358628273,-0.7883658409118652,0.0654926225543022,-0.7434889674186707,4.1150312423706055,66.00975799560547,25.73,2
-0.2066276520490646,-0.8361964821815491,0.0924093648791313,-0.3803988695144653,4.11618709564209,66.00626373291016,25.73,2
-0.1773839294910431,-0.8836847543716431,0.1208785325288772,-0.0864847749471664,4.116929054260254,66.00402069091797,25.73,2
-0.1586169898509979,-0.9253555536270142,0.139148399233818,-0.0590835250914096,4.117404937744141,66.00257873535156,25.73,2
-0.1577689945697784,-1.0136730670928955,0.1620685011148452,-0.1346459537744522,4.117710590362549,66.00165557861328,25.73,2
-0.1628225743770599,-1.0815457105636597,0.1767773032188415,0.2145283073186874,4.121579170227051,66.00106048583984,25.75,2
-0.1828590035438537,-1.1978734731674194,0.1806187927722931,1.2267749309539795,4.124062061309815,66.00067901611328,25.75,2
-0.2069127708673477,-1.3620903491973877,0.1830840408802032,2.435258388519287,4.125655174255371,66.00043487548828,25.75,2
-0.233544647693634,-1.4114974737167358,0.184666097164154,3.042412519454956,4.126677513122559,66.00028228759766,25.75,2
-0.2170488089323043,-1.2920643091201782,0.16329026222229,2.7012035846710205,4.127333641052246,66.00018310546875,25.75,2
-0.1952671706676483,-1.1594412326812744,0.1327791661024093,1.8158762454986568,4.12775468826294,66.00011444091797,25.75,2
-0.1924845278263092,-1.0799291133880615,0.0964055731892585,1.0327695608139038,4.128025054931641,66.00007629394531,25.75,2
-0.2242854237556457,-1.0512938499450684,0.0730630978941917,0.6161985993385315,4.128198623657227,66.00004577636719,25.75,2
-0.2446934133768081,-1.0329174995422363,0.058083239942789,0.4312665462493896,4.122342586517334,66.00003051757812,25.75,2
-0.229801207780838,-0.9483534693717957,0.0260789319872856,0.1836150884628296,4.118584156036377,66.0000228881836,25.75,2
-0.203450933098793,-0.8772918581962585,-5.736581806559116e-05,-0.3120754957199096,4.1161723136901855,66.00001525878906,25.75,2
-0.203334167599678,-0.8372863531112671,-0.0168301369994878,-0.9060394763946532,4.114624500274658,66.00000762939453,25.75,2
-0.2200525552034378,-0.811613142490387,-0.0331917107105255,-1.2549681663513184,4.113631248474121,66.00000762939453,25.75,2
-0.2195859104394912,-0.8007352948188782,-0.0436916276812553,-1.3033443689346311,4.112993717193604,66.00000762939453,25.75,2
-0.2024931162595749,-0.7993522882461548,-0.0392343215644359,-1.352302312850952,4.112584590911865,66.00000762939453,25.75,2
-0.1859261691570282,-0.8096603155136108,-0.0363738797605037,-1.5198585987091064,4.1123223304748535,66.00000762939453,25.75,2
-0.1696966886520385,-0.8330687284469604,-0.028940437361598,-1.5915607213974,4.109858512878418,65.40171813964844,25.75,2
-0.1648793071508407,-0.8872753381729126,-0.035365629941225,-1.4476985931396484,4.108277320861816,65.01776885986328,25.75,2
-0.1617877930402755,-0.9500508904457092,-0.0394889488816261,-1.2156556844711304,4.10726261138916,64.77136993408203,25.75,2
-0.1654016077518463,-1.0239232778549194,-0.0421350561082363,-0.9126931428909302,4.106611251831055,64.61324310302734,25.75,2
-0.1677207499742508,-1.0713303089141846,-0.043833177536726,-0.3385162353515625,4.106193542480469,64.51177215576172,25.75,2
-0.1748068183660507,-1.1465356349945068,-0.0561184808611869,0.4956923127174377,4.105925559997559,64.4466552734375,25.75,2
-0.1961475759744644,-1.2003958225250244,-0.0528069324791431,1.235246181488037,4.105753421783447,64.40486145019531,25.75,2
-0.2434294819831848,-1.1565914154052734,0.0108937444165349,1.5987894535064695,4.105642795562744,64.37804412841797,25.75,2
-0.2177945524454116,-1.0725024938583374,0.0573709458112716,1.6207185983657837,4.10189962387085,64.36083221435547,25.75,2
-0.156561329960823,-1.0297346115112305,0.0760017931461334,1.4735755920410156,4.099497318267822,64.34978485107422,25.75,2
-0.0500920861959457,-1.013484239578247,0.0879579931497573,1.250174880027771,4.097955703735352,64.34269714355469,25.75,2
0.0182337518781423,-0.9806645512580872,0.1068263500928878,0.9455932974815368,4.09696626663208,64.33815002441406,25.75,2
0.0117013724520802,-0.8868317008018494,0.1357282996177673,0.5351758599281311,4.0963311195373535,64.3352279663086,25.75,2
-0.0316751562058925,-0.7986263036727905,0.1486781239509582,0.0102655263617634,4.095923900604248,64.33335876464844,25.75,2
-0.0986961349844932,-0.7644122242927551,0.1401952505111694,-0.5809545516967773,4.095662593841553,64.3321533203125,25.75,2
-0.1584996581077575,-0.7592489123344421,0.1179581135511398,-1.1538246870040894,4.095494747161865,64.33138275146484,25.75,2
-0.196878120303154,-0.7615332007408142,0.1036875993013382,-1.6038590669631958,4.102732181549072,64.33088684082031,25.73,2
-0.2047138810157776,-0.7741946578025818,0.1001273766160011,-1.8245961666107176,4.107376575469971,64.33056640625,25.73,2
-0.1929491013288498,-0.8159067034721375,0.1146359592676162,-1.7262200117111206,4.110357284545898,64.33036041259766,25.73,2
-0.196594700217247,-0.8538706302642822,0.123946726322174,-1.3800643682479858,4.112269878387451,64.33023071289062,25.73,2
-0.1933364570140838,-0.911820352077484,0.1355196237564087,-1.011036038398743,4.113497257232666,64.33014678955078,25.73,2
-0.2024410516023636,-0.9881935715675354,0.1429464370012283,-0.7455542683601379,4.114284992218018,64.33009338378906,25.73,2
-0.2026860862970352,-1.0763899087905884,0.1589080840349197,-0.5178621411323547,4.114790439605713,64.33006286621094,25.73,2
-0.191647782921791,-1.188966989517212,0.1467602550983429,-0.042145486921072,4.115114688873291,64.33003997802734,25.73,2
-0.1901618093252182,-1.305994749069214,0.1389644742012024,1.0333958864212036,4.114404678344727,64.33002471923828,25.73,2
-0.2115992903709411,-1.353107452392578,0.1395593732595443,2.554774045944214,4.113949298858643,64.33001708984375,25.73,2
-0.2309544086456298,-1.293777346611023,0.1287456005811691,3.677992582321167,4.113656997680664,64.33000946044922,25.73,2
-0.2209843099117279,-1.1269538402557373,0.1050126105546951,3.75752854347229,4.113469123840332,64.33000946044922,25.73,2
-0.214586079120636,-1.0590806007385254,0.0785866007208824,3.031151056289673,4.113348484039307,64.33000946044922,25.73,2
-0.2384689301252365,-1.037914514541626,0.0672256797552108,2.070608377456665,4.113271236419678,64.33000946044922,25.73,2
-0.2593933343887329,-1.0019402503967283,0.0599348954856395,1.1890767812728882,4.113221645355225,64.33000946044922,25.73,2
-0.2504303157329559,-0.9396696090698242,0.0440605394542217,0.5087181925773621,4.113189697265625,64.33000946044922,25.73,2
-0.2110917270183563,-0.8717190623283386,0.0282755177468061,0.0326948538422584,4.1094970703125,63.85352325439453,25.73,2
-0.1970420330762863,-0.8393078446388245,0.0181456003338098,-0.4196751117706299,4.107127189636231,63.5477409362793,25.73,2
-0.2048190832138061,-0.8185082077980042,0.0116448020562529,-1.0216641426086426,4.1056060791015625,63.35150909423828,25.73,2
-0.2098099440336227,-0.8051601648330688,0.0018751889001578,-1.7089225053787231,4.104629993438721,63.22557830810547,25.73,2
-0.2018172442913055,-0.7965941429138184,-0.0043943859636783,-2.2216169834136963,4.10400390625,63.1447639465332,25.73,2
-0.1910902112722396,-0.7910969853401184,-0.0028200638480484,-2.3930013179779053,4.103601932525635,63.092899322509766,25.73,2
-0.1898039877414703,-0.8099603056907654,-0.0074075292795896,-2.3059442043304443,4.103343963623047,63.05961608886719,25.73,2
-0.1945763379335403,-0.8444567918777466,-0.0159492753446102,-2.092442750930786,4.10317850112915,63.03825759887695,25.73,2
-0.1920411884784698,-0.9337679743766784,-0.0270286500453948,-1.7404751777648926,4.10031795501709,63.02455139160156,25.73,2
-0.1960120499134063,-0.996680498123169,-0.0285409800708293,-1.2172489166259766,4.098482131958008,63.01575469970703,25.73,2
-0.1929625421762466,-1.0650429725646973,-0.0183159578591585,-0.5697883367538452,4.097303867340088,63.01010894775391,25.73,2
-0.1686144471168518,-1.2040762901306152,-0.0341452248394489,0.2254676073789596,4.096548080444336,63.00648880004883,25.73,2
-0.1585870087146759,-1.2877020835876465,-0.0219124406576156,1.1800564527511597,4.096063137054443,63.00416564941406,25.73,2
-0.1689453125,-1.2126195430755615,0.0307200513780117,1.971785545349121,4.095751762390137,63.0026741027832,25.73,2
-0.1420060247182846,-1.1196537017822266,0.0700943320989608,2.125196695327759,4.09555196762085,63.00171661376953,25.73,2
-0.0519468672573566,-1.1103734970092771,0.061775829643011,1.6611826419830322,4.095423698425293,63.001102447509766,25.73,2
0.0394345633685588,-1.0764291286468506,0.0508397221565246,1.1269551515579224,4.078815937042236,63.00070571899414,25.73,2
0.081284575164318,-1.0154612064361572,0.0550171062350273,0.8342747688293457,4.068158149719238,63.00045394897461,25.73,2
0.0521637611091136,-0.8755755424499512,0.0856867805123329,0.4995637536048889,4.061318397521973,63.00028991699219,25.73,2
0.0054868259467184,-0.7802071571350098,0.099771037697792,-0.1379783898591995,4.056929111480713,63.000186920166016,25.73,2
-0.0580543912947177,-0.7357985973358154,0.086418405175209,-0.8193919658660889,4.054112434387207,63.000118255615234,25.73,2
-0.0932337120175361,-0.7352885603904724,0.0834472328424453,-1.2244408130645752,4.052304744720459,63.00007629394531,25.73,2
-0.1158097758889198,-0.7405590415000916,0.0871382802724838,-1.4592998027801514,4.051144599914551,63.00004959106445,25.73,2
-0.1135044693946838,-0.7551369071006775,0.1007025241851806,-1.706748366355896,4.050400257110596,63.000030517578125,25.73,2
-0.1120250523090362,-0.7812854647636414,0.1094072759151458,-1.7974777221679688,4.0618577003479,63.00001907348633,25.73,2
-0.1222712025046348,-0.8204571604728699,0.1205912604928016,-1.5189404487609863,4.069210052490234,63.0000114440918,25.73,2
-0.1344443708658218,-0.8679864406585693,0.1277685016393661,-1.0177594423294067,4.073928356170654,63.00000762939453,25.73,2
-0.1478541791439056,-0.920879065990448,0.1323744356632232,-0.5671576261520386,4.076956272125244,63.00000381469727,25.73,2
-0.1676553636789322,-0.988409161567688,0.1577213555574417,-0.1848403364419937,4.07889986038208,63.00000381469727,25.73,2
-0.1747648566961288,-1.042941689491272,0.1683897823095321,0.3686103820800781,4.080146789550781,63.00000381469727,25.73,2
-0.151338443160057,-1.240272879600525,0.1304539740085601,1.2969952821731567,4.080946922302246,63.00000381469727,25.73,2
-0.1307069510221481,-1.3725064992904663,0.1117067262530326,2.440913438796997,4.081460475921631,63.00000381469727,25.73,2
-0.1174668446183204,-1.378997564315796,0.0940780416131019,3.2108399868011475,4.082708358764648,62.77788162231445,25.73,2
-0.1033723279833793,-1.2824032306671145,0.0603738725185394,3.067235946655273,4.08350944519043,62.63533782958984,25.73,2
-0.083131730556488,-1.1980234384536743,0.0331467017531394,2.161834478378296,4.084023475646973,62.54386138916016,25.73,2
-0.081338033080101,-1.0822978019714355,-0.0011194524122402,1.2906113862991333,4.084352970123291,62.48515701293945,25.73,2
-0.1193713620305061,-0.9912384748458862,-0.0455005951225757,0.9894559979438782,4.084564685821533,62.44748306274414,25.73,2
-0.1493767350912094,-0.9551929235458374,-0.085177406668663,0.9466599822044371,4.084700584411621,62.42330551147461,25.73,2
-0.1630346775054931,-0.9096698760986328,-0.121835246682167,0.5716861486434937,4.084787845611572,62.40779113769531,25.73,2
-0.1606040149927139,-0.8524669408798218,-0.1453601419925689,-0.1669284701347351,4.084843635559082,62.39783477783203,25.73,2
-0.1310552805662155,-0.8269529342651367,-0.1548592895269394,-0.9311174154281616,4.076157569885254,62.39144515991211,25.73,2
-0.1176903843879699,-0.8441661596298218,-0.149759754538536,-1.5361723899841309,4.070583343505859,62.38734436035156,25.73,2
-0.1147113367915153,-0.8552126288414001,-0.1464871615171432,-1.9065489768981927,4.06700611114502,62.38471221923828,25.73,2
-0.1239951029419899,-0.8623015880584717,-0.1331914514303207,-1.9077852964401243,4.064710140228272,62.38302612304688,25.73,2
-0.1355506628751754,-0.8612531423568726,-0.1134634763002395,-1.668546199798584,4.063236713409424,62.38194274902344,25.73,2
-0.1597596853971481,-0.8493847250938416,-0.0840098783373832,-1.597415566444397,4.062291145324707,62.38124847412109,25.73,2
-0.1808934062719345,-0.836170494556427,-0.0595104768872261,-1.7738876342773438,4.061684608459473,62.380802154541016,25.73,2
-0.2000535875558853,-0.8332881331443787,-0.0437881723046302,-1.7330864667892456,4.061295509338379,62.380516052246094,25.73,2
-0.2123494893312454,-0.8426339626312256,-0.0281007289886474,-1.1050299406051636,4.05920934677124,62.380332946777344,25.73,2
-0.2202402949333191,-0.8654248714447021,-0.0236312039196491,-0.0141248749569058,4.057870864868164,62.38021469116211,25.73,2
-0.2197063863277435,-0.913637399673462,-0.037556242197752,1.1624376773834229,4.057011604309082,62.3801383972168,25.73,2
-0.2137659788131714,-0.9557729959487916,-0.0576880797743797,2.010634660720825,4.056460380554199,62.38008880615234,25.73,2
-0.2043559998273849,-0.9884109497070312,-0.076205313205719,2.236109495162964,4.0561065673828125,62.38005828857422,25.73,2
-0.1591327935457229,-1.1884849071502686,-0.1664574444293975,1.986722946166992,4.055879592895508,62.38003921508789,25.73,2
-0.1301111429929733,-1.3448697328567505,-0.2355716228485107,1.694125771522522,4.055733680725098,62.38002395629883,25.73,2
-0.2346377521753311,-1.2772952318191528,-0.1735673993825912,1.4239544868469238,4.05564022064209,62.3800163269043,25.73,2
-0.262532502412796,-1.2171365022659302,-0.1001900136470794,0.8564908504486084,4.049153804779053,62.38001251220703,25.73,2
-0.2076626718044281,-1.189725637435913,-0.0810895040631294,-0.0522262006998062,4.044991493225098,62.380008697509766,25.73,2
-0.0548971071839332,-1.1721349954605105,-0.0912229940295219,-0.8897513151168823,4.042320251464844,62.3800048828125,25.73,2
0.0543345846235752,-1.1328574419021606,-0.0641394406557083,-1.2731759548187256,4.040606021881104,62.3800048828125,25.73,2
0.0516621321439743,-1.0404781103134155,-0.0243676770478487,-1.2111343145370483,4.039505958557129,62.3800048828125,25.73,2
-0.056410614401102,-0.9364121556282043,-0.0268333218991756,-1.0495120286941528,4.03879976272583,62.3800048828125,25.73,2
-0.1593521237373352,-0.8528352975845337,-0.0340134054422378,-1.09984290599823,4.038346767425537,62.3800048828125,25.73,2
-0.2310118377208709,-0.7992004752159119,-0.0330233946442604,-1.3470969200134275,4.038055896759033,62.3800048828125,25.73,2
-0.2602055966854095,-0.7759762406349182,-0.0211925134062767,-1.4591968059539795,4.037869453430176,62.7203483581543,25.73,2
-0.2677448987960815,-0.7610722780227661,0.0143887363374233,-1.1728785037994385,4.037749767303467,62.93876266479492,25.73,2
-0.2725832164287567,-0.7627032995223999,0.0540160574018955,-0.7096949815750122,4.037672996520996,63.07892608642578,25.73,2
-0.2532970607280731,-0.7581522464752197,0.0738488137722015,-0.4590239524841308,4.037623405456543,63.16887664794922,25.73,2
-0.1849425733089447,-0.7496338486671448,0.0809785649180412,-0.1835153102874755,4.037591934204102,63.226600646972656,25.73,2
-0.1298810392618179,-0.732971727848053,0.0911518037319183,0.673979640007019,4.037571430206299,63.26364517211914,25.73,2
-0.0889479517936706,-0.6830945014953613,0.0808870792388916,1.8189780712127688,4.037558555603027,63.28741836547852,25.73,2
-0.1130594164133071,-0.6622816920280457,0.0351153500378131,2.3603131771087646,4.03754997253418,63.30267333984375,25.73,2
-0.1621194183826446,-0.7105007767677307,-0.0278449580073356,2.1452465057373047,4.03433084487915,63.31246566772461,25.73,2
-0.2663743793964386,-0.741445004940033,-0.068249262869358,1.6525540351867676,4.032265186309815,63.31874847412109,25.73,2
-0.3388769626617431,-0.7333143353462219,-0.1109717413783073,1.0605140924453735,4.03093957901001,63.32278060913086,25.73,2
-0.3462205529212951,-0.84005206823349,-0.1383885741233825,0.433379203081131,4.030088901519775,63.32536697387695,25.73,2
-0.261368840932846,-0.9197457432746888,-0.1056031435728073,0.0846587270498275,4.029542922973633,63.3270263671875,25.73,2
-0.307675838470459,-0.976486325263977,-0.0789655670523643,0.0292510651051998,4.0291924476623535,63.32809066772461,25.73,2
-0.4605440497398376,-0.9905080795288086,-0.1122510731220245,-0.1316965222358703,4.02896785736084,63.32877349853516,25.73,2
-0.4746794402599334,-1.027495265007019,-0.1112206950783729,-0.5502500534057617,4.028823375701904,63.3292121887207,25.73,2
-0.4109796583652496,-1.02884042263031,-0.0601794943213462,-0.9908172488212584,4.009450912475586,63.32949447631836,25.75,2
-0.5772184729576111,-1.1192680597305298,0.0397491082549095,-1.2341395616531372,3.997018814086914,63.32967758178711,25.75,2
-0.5383588075637817,-1.0541483163833618,0.0087153660133481,-1.2469868659973145,3.98904061317444,63.32979202270508,25.75,2
-0.4742365181446075,-1.0011626482009888,-0.04478694871068,-1.1871625185012815,3.983920574188232,63.32986831665039,25.75,2
-0.6458019614219666,-1.0231372117996216,-0.0567305572330951,-1.3243169784545898,3.980634927749634,63.32991790771485,25.75,2
-0.6383494734764099,-0.9588704109191896,-0.1875463128089904,-1.7025234699249268,3.97852635383606,63.32994842529297,25.75,2
-0.6615557670593262,-0.928823173046112,-0.2379096895456314,-2.063459634780884,3.977173089981079,63.3299674987793,25.75,2
-0.6204705238342285,-0.8703562021255493,-0.2758277952671051,-2.2413489818573,3.976304769515991,63.32997894287109,25.75,2
-0.6164954900741577,-0.8552265763282776,-0.2441836893558502,-2.4056642055511475,3.938564777374268,63.329986572265625,25.75,2
-0.6195423007011414,-0.8287239074707031,-0.218278557062149,-2.8084659576416016,3.9143455028533936,63.32999038696289,25.75,2
-0.6550841927528381,-0.8397048711776733,-0.1736652553081512,-3.4073057174682617,3.898802995681762,63.32999420166016,25.75,2
-0.6834907531738281,-0.8075674176216125,-0.161828339099884,-3.6590514183044434,3.888828754425049,63.32999801635742,25.75,2
-0.75210040807724,-0.7589545845985413,-0.1206454336643219,-3.0431883335113525,3.882427930831909,63.32999801635742,25.75,2
-0.7681412696838379,-0.7389532327651978,-0.1054121702909469,-2.02459454536438,3.878320217132568,63.32999801635742,25.75,2
-0.7896308898925781,-0.7429108023643494,-0.1012341082096099,-1.8259068727493288,3.8756840229034415,63.32999801635742,25.75,2
-0.7978239059448242,-0.7174617052078247,-0.0649662241339683,-2.9021458625793457,3.8739922046661377,63.32999801635742,25.75,2
-0.831070601940155,-0.6899343729019165,-0.002507159486413,-4.538614273071289,3.858217000961304,63.64168167114258,25.75,2
-0.8524064421653748,-0.6610733866691589,0.0487710200250148,-6.215756416320801,3.848093271255493,63.84170150756836,25.75,2
-0.8996852040290833,-0.6369542479515076,0.1040695011615753,-8.352492332458496,3.841596603393554,63.970062255859375,25.75,2
-0.8852437734603882,-0.6214759945869446,0.1619479805231094,-11.203329086303713,3.8374273777008057,64.05243682861328,25.75,2
-0.8367916941642761,-0.6059451699256897,0.1822977364063263,-14.078944206237791,3.834751844406128,64.10530090332031,25.75,2
-0.8112956881523132,-0.6351628303527832,0.1897592544555664,-16.52263832092285,3.83303475379944,64.13922882080078,25.75,2
-0.7725427150726318,-0.6427174806594849,0.2113409638404846,-19.55255126953125,3.831932783126831,64.16100311279297,25.75,2
-0.742075502872467,-0.6475656032562256,0.2531797289848327,-24.41319274902344,3.831225633621216,64.17497253417969,25.75,2
-0.7169256210327148,-0.6394813060760498,0.2688338756561279,-30.430774688720703,3.8376576900482178,64.1839370727539,25.75,2
-0.7175792455673218,-0.6230977177619934,0.3180642426013946,-35.70046615600586,3.841785192489624,64.18968963623047,25.75,2
-0.695607602596283,-0.601388156414032,0.3832440972328186,-39.96714782714844,3.8444340229034415,64.1933822631836,25.75,2
-0.6703118681907654,-0.5706628561019897,0.4306705594062805,-45.08050537109375,3.846133947372437,64.19575500488281,25.75,2
-0.6708718538284302,-0.5453473329544067,0.4723016917705536,-52.231143951416016,3.847224950790405,64.19727325439453,25.75,2
-0.6824268102645874,-0.5235035419464111,0.499018132686615,-59.93685531616211,3.847924947738648,64.19824981689453,25.75,2
-0.6562554240226746,-0.4982898831367492,0.4993698894977569,-65.39066314697266,3.848374128341675,64.1988754272461,25.75,2
-0.6114712953567505,-0.4765114486217499,0.5051934123039246,-67.8624038696289,3.8486623764038086,64.19927978515625,25.75,2
-0.5883291959762573,-0.4569375216960907,0.5145283937454224,-70.70252227783203,3.856192111968994,64.19953918457031,25.73,2
-0.5958690047264099,-0.472364991903305,0.565301239490509,-77.11801147460938,3.8610241413116455,64.19969940185547,25.73,2
-0.5335343480110168,-0.4654721319675445,0.5978842973709106,-81.0523910522461,3.86412525177002,64.1998062133789,25.73,2
-0.5719003677368164,-0.5002331137657166,0.5908053517341614,-66.00830078125,3.86611533164978,64.19987487792969,25.73,2
-0.6077170372009277,-0.5337362289428711,0.5862625241279602,-19.446176528930664,3.867392301559448,64.19992065429688,25.73,2
-0.6139087677001953,-0.5496388673782349,0.5889449715614319,51.14710998535156,3.86821174621582,64.199951171875,25.73,2
-0.5898934006690979,-0.5542464852333069,0.5738731026649475,122.29451751708984,3.8687376976013184,64.19996643066406,25.73,2
-0.5856772661209106,-0.5572033524513245,0.5642008185386658,174.01454162597656,3.869075298309326,64.1999740600586,25.73,2
-0.5829716324806213,-0.5646986961364746,0.5747870206832886,199.1590118408203,3.87158727645874,64.19998168945312,25.73,2
-0.5812352895736694,-0.5639110207557678,0.5871784090995789,198.8046875,3.873199224472046,64.19998931884766,25.73,2
-0.5745232105255127,-0.5690032839775085,0.5951305031776428,178.94837951660156,3.874233722686768,64.19998931884766,25.73,2
-0.5814113616943359,-0.5722712278366089,0.583440363407135,147.69815063476562,3.874897718429565,64.19998931884766,25.73,2
-0.5914295315742493,-0.5687705874443054,0.5591449737548828,110.0136947631836,3.87532377243042,64.19998931884766,25.73,2
-0.6146519780158997,-0.5553285479545593,0.5659447312355042,69.53284454345703,3.8755972385406494,64.19998931884766,25.73,2
-0.6183592081069946,-0.5411044359207153,0.5647106170654297,33.67741012573242,3.875772714614868,64.19998931884766,25.73,2
-0.6263360977172852,-0.5263784527778625,0.5639186501502991,8.890498161315918,3.875885248184204,64.19998931884766,25.73,2
-0.648248553276062,-0.5281237363815308,0.5634104013442993,-5.429234504699707,3.8773345947265625,64.45436096191406,25.73,2
-0.6511151194572449,-0.5236459970474243,0.5630842447280884,-13.454477310180664,3.8782646656036377,64.61759948730469,25.73,2
-0.6473569273948669,-0.5263701677322388,0.5628749132156372,-18.55087852478028,3.878861665725708,64.72235870361328,25.73,2
-0.6393473744392395,-0.5281184315681458,0.5739361643791199,-22.810245513916016,3.879244804382324,64.78958129882812,25.73,2
-0.6342073082923889,-0.5292403101921082,0.5754368305206299,-26.34615898132324,3.879490613937378,64.83272552490234,25.73,2
-0.630908727645874,-0.5411558747291565,0.5819976329803467,-27.81280899047852,3.879648447036743,64.86041259765625,25.73,2
-0.628791868686676,-0.5488025546073914,0.5974035859107971,-27.1812686920166,3.879749774932861,64.87818145751953,25.73,2
-0.661020040512085,-0.5705031156539917,0.6072902083396912,-26.765235900878903,3.879814624786377,64.88957977294922,25.73,2
-0.6705067157745361,-0.5564404129981995,0.6024393439292908,-28.57256126403809,3.888578176498413,64.89689636230469,25.73,2
-0.6262147426605225,-0.5194268822669983,0.5769352316856384,-31.75297164916992,3.8942019939422607,64.9015884399414,25.73,2
-0.5306174159049988,-0.4564893245697021,0.5269815325737,-33.851295471191406,3.897810935974121,64.90460205078125,25.73,2
-0.5084529519081116,-0.4328929185867309,0.5117174386978149,-33.78276062011719,3.9001271724700928,64.90653991699219,25.73,2
-0.6341734528541565,-0.5129122734069824,0.5690950751304626,-32.1122932434082,3.901613473892212,64.90778350830078,25.73,2
-0.6756691932678223,-0.5586663484573364,0.572330117225647,-29.48186111450196,3.902567386627197,64.90857696533203,25.73,2
-0.6519187688827515,-0.5320509076118469,0.5520150661468506,-26.17089462280273,3.903179407119751,64.90908813476562,25.73,2
-0.5918949246406555,-0.5149706602096558,0.5277824997901917,-22.38020896911621,3.9035723209381104,64.90941619873047,25.73,2
-0.5645706653594971,-0.4984117448329925,0.5290247797966003,-18.267337799072266,3.902906656265259,64.90962982177734,25.73,2
-0.5638288259506226,-0.4597963392734527,0.5298219919204712,-14.159077644348145,3.902479410171509,64.9097671508789,25.73,2
-0.6137327551841736,-0.5413728952407837,0.563920259475708,-10.537424087524414,3.902205228805542,64.90985107421875,25.73,2
-0.5729871392250061,-0.4985618591308594,0.5354225635528564,-7.668703556060791,3.902029275894165,64.90990447998047,25.73,2
-0.5860233902931213,-0.5214681625366211,0.545123279094696,-5.562613487243652,3.901916265487671,64.90994262695312,25.73,2
-0.6223781704902649,-0.5025814771652222,0.5625441670417786,-4.08565616607666,3.901843786239624,64.90996551513672,25.73,2
-0.6345130205154419,-0.507254421710968,0.5681261420249939,-2.915710210800171,3.901797294616699,64.90998077392578,25.73,2
-0.6199093461036682,-0.4990577101707458,0.5661105513572693,-1.6418501138687134,3.901767492294312,64.90998840332031,25.73,2
-0.6217331290245056,-0.4937975108623504,0.5648170709609985,0.0175452604889869,3.9054205417633057,64.90999603271484,25.73,2
-0.6508923768997192,-0.4848240613937378,0.5695847272872925,2.092736005783081,3.907764673233032,64.90999603271484,25.73,2
-0.6696051359176636,-0.473467618227005,0.5782421231269836,4.492081165313721,3.909269094467163,64.90999603271484,25.73,2
-0.6704183220863342,-0.4773752689361572,0.5837979316711426,7.049294471740723,3.910234451293945,64.90999603271484,25.73,2
-0.6485490798950195,-0.4966762959957123,0.5761677622795105,9.424795150756836,3.9108541011810303,64.90999603271484,25.73,2
-0.6401124596595764,-0.5090625882148743,0.5712711811065674,11.214365005493164,3.911251783370972,64.90999603271484,25.73,2
-0.6291005611419678,-0.5282069444656372,0.5793243646621704,12.39146900177002,3.9115068912506095,64.90999603271484,25.73,2
-0.6108381748199463,-0.5348949432373047,0.5844924449920654,13.368986129760742,3.911670684814453,64.90999603271484,25.73,2
-0.6103139519691467,-0.5335891246795654,0.5934067964553833,14.39754867553711,3.919579744338989,65.12136840820312,25.73,2
-0.6099775433540344,-0.515957772731781,0.6047253012657166,15.233166694641112,3.9246551990509033,65.25701904296875,25.73,2
-0.6153594255447388,-0.5046430230140686,0.6063910722732544,15.701350212097168,3.927912473678589,65.34407043457031,25.73,2
-0.6188132166862488,-0.5029796361923218,0.5962645411491394,15.980307579040527,3.930002689361572,65.39993286132812,25.73,2
-0.6266274452209473,-0.5019121766090393,0.5897659063339233,15.922876358032228,3.9313440322875977,65.43578338623047,25.73,2
-0.637239933013916,-0.5012271404266357,0.5855954885482788,14.796916961669922,3.932204961776733,65.45878601074219,25.73,2
-0.6384526491165161,-0.5007874965667725,0.5829191207885742,12.30454921722412,3.932757377624512,65.47354888916016,25.73,2
-0.6336331367492676,-0.5005053877830505,0.5867993831634521,9.178913116455078,3.933111906051636,65.48302459716797,25.73,2
-0.6361380219459534,-0.5003243088722229,0.5836917161941528,6.438632011413574,3.937011480331421,65.48910522460938,25.73,2
-0.6377454996109009,-0.5058059096336365,0.581697404384613,4.368393421173096,3.93951416015625,65.49301147460938,25.73,2
-0.6331793069839478,-0.5093236565589905,0.5860153436660767,2.065372943878174,3.941120147705078,65.49551391601562,25.73,2
-0.6246512532234192,-0.5115811824798584,0.5887863636016846,-1.7090044021606443,3.942150831222534,65.49712371826172,25.73,2
-0.6247761845588684,-0.513029932975769,0.5905646085739136,-6.592411518096924,3.942812204360962,65.49815368652344,25.73,2
-0.6192585825920105,-0.5139596462249756,0.5917057991027832,-10.539546012878418,3.943236589431762,65.49881744384766,25.73,2
-0.6213154792785645,-0.5145562887191772,0.5924381613731384,-12.302335739135742,3.9435088634490967,65.4992446899414,25.73,2
-0.6170377135276794,-0.5149391889572144,0.5929081439971924,-12.649008750915527,3.943683624267578,65.49951171875,25.73,2
-0.6254880428314209,-0.5151848793029785,0.587611973285675,-12.717432975769045,3.947468280792236,65.49968719482422,25.73,2
-0.6309109926223755,-0.5153425335884094,0.5842131972312927,-12.68610954284668,3.949897050857544,65.49980163574219,25.73,2
-0.6231955885887146,-0.515443742275238,0.5876298546791077,-12.236099243164062,3.95145583152771,65.49987030029297,25.73,2
-0.6182442307472229,-0.5155086517333984,0.5898224711418152,-11.248705863952637,3.95245623588562,65.49991607666016,25.73,2
-0.6150667667388916,-0.5155503153800964,0.5912295579910278,-9.927199363708496,3.9530980587005615,65.49994659423828,25.73,2
-0.6186254024505615,-0.5155770778656006,0.5921325087547302,-8.573988914489746,3.953510046005249,65.49996948242188,25.73,2
-0.6153113842010498,-0.5155942440032959,0.5927119851112366,-7.34731912612915,3.9537744522094727,65.4999771118164,25.73,2
-0.6187824010848999,-0.5156052708625793,0.5874860882759094,-6.262759208679199,3.953943967819214,65.49998474121094,25.73,2
-0.621009886264801,-0.5156123638153076,0.5841324329376221,-5.247901916503906,3.953134775161743,65.49999237060547,25.73,2
-0.6224393844604492,-0.5156168937683105,0.5819802284240723,-4.163133144378662,3.952615261077881,65.49999237060547,25.73,2
-0.6233567595481873,-0.5100220441818237,0.5805990695953369,-2.990508317947388,3.952281951904297,65.49999237060547,25.73,2
-0.6239454746246338,-0.5120293498039246,0.5853105187416077,-1.9549617767333984,3.9520680904388414,65.49999237060547,25.73,2
-0.6243232488632202,-0.5133175253868103,0.5883340239524841,-1.2796599864959717,3.95193076133728,65.49999237060547,25.73,2
-0.6189679503440857,-0.5141441822052002,0.5902743339538574,-0.943019688129425,3.951842784881592,65.49999237060547,25.73,2
-0.6211289763450623,-0.514674723148346,0.5915195345878601,-0.7699742317199707,3.9517862796783447,65.49999237060547,25.73,2
-0.6225157976150513,-0.515015184879303,0.592318594455719,-0.6732538938522339,3.951750040054321,65.49999237060547,25.73,2
-0.6234057545661926,-0.5152336359024048,0.5928314328193665,-0.7365745306015015,3.951267719268799,65.92632293701172,25.73,2
-0.6183791160583496,-0.5153738260269165,0.5931605100631714,-1.056650996208191,3.950958251953125,66.19992065429688,25.73,2
-0.6151533126831055,-0.5154638290405273,0.5933716893196106,-1.494925022125244,3.950759649276733,66.37549591064453,25.73,2
-0.6130831837654114,-0.5155215859413147,0.587909460067749,-1.729610562324524,3.950632095336914,66.48816680908203,25.73,2
-0.6117547154426575,-0.515558660030365,0.5900018811225891,-1.6007773876190186,3.950550317764282,66.56047821044922,25.73,2
-0.6164999604225159,-0.5155824422836304,0.5913446545600891,-1.2637367248535156,3.95049786567688,66.60688018798828,25.73,2
-0.6195451617240906,-0.5099999308586121,0.5922063589096069,-0.9722093939781188,3.9504642486572266,66.63665771484375,25.73,2
-0.6214994192123413,-0.512015163898468,0.592759370803833,-0.7958716750144958,3.950442552566528,66.65576934814453,25.73,2
-0.6227535009384155,-0.5077106356620789,0.5931142568588257,-0.5895612835884094,3.944920301437378,66.66803741455078,25.73,2
-0.6235583424568176,-0.5049482583999634,0.5933420062065125,-0.3174427151679992,3.941376447677612,66.6759033203125,25.73,2
-0.6240748167037964,-0.5087732672691345,0.5934881567955017,-0.2072990387678146,3.9391021728515625,66.68095397949219,25.73,2
-0.6244062781333923,-0.5112279653549194,0.5935819745063782,-0.4339689314365387,3.937642574310303,66.68419647216797,25.73,2
-0.6246190071105957,-0.5072054862976074,0.5936421751976013,-0.780056893825531,3.9367058277130127,66.686279296875,25.73,2
-0.6247555017471313,-0.50462406873703,0.588083028793335,-0.8731834888458252,3.9361047744750977,66.68761444091797,25.73,2
-0.630440890789032,-0.5029674768447876,0.5901132822036743,-0.6391755938529968,3.9357190132141113,66.68846893310547,25.73,2
-0.6340894103050232,-0.5019043684005737,0.5914161801338196,-0.2883785367012024,3.935471534729004,66.68901824951172,25.73,2
-0.630833089351654,-0.5012221336364746,0.5922523140907288,-0.0023533920757472,3.933935403823853,66.68936920166016,25.73,2
-0.6287433505058289,-0.5007842779159546,0.5927888751029968,0.1417927592992782,3.932949781417847,66.6895980834961,25.73,2
-0.6274022459983826,-0.5005033016204834,0.5931332111358643,0.1339853405952453,3.93231725692749,66.68974304199219,25.73,2
-0.6265416145324707,-0.5003229975700378,0.5933541655540466,0.0501583255827426,3.93191123008728,66.68983459472656,25.73,2
-0.6259893178939819,-0.5002073049545288,0.5934959650039673,0.0071106953546404,3.931650638580322,66.68989562988281,25.73,2
-0.6256349086761475,-0.5001330375671387,0.5935869812965393,0.0511367172002792,3.931483507156372,66.68993377685547,25.73,2
-0.6254074573516846,-0.5000853538513184,0.5936453938484192,0.1904499232769012,3.931376218795776,66.68995666503906,25.73,2
-0.6252614855766296,-0.5000547766685486,0.5936828851699829,0.3550871908664703,3.931307315826416,66.68997192382812,25.73,2
-0.6307655572891235,-0.5000351667404175,0.5937069058418274,0.4177510142326355,3.928508758544922,66.68997955322266,25.73,2
-0.634297788143158,-0.5000225901603699,0.5937223434448242,0.4364696145057678,3.926712989807129,66.68998718261719,25.73,2
-0.6309667825698853,-0.5000144839286804,0.5937322378158569,0.5953677296638489,3.925560474395752,66.68999481201172,25.73,2
-0.6344268918037415,-0.500009298324585,0.5937386155128479,0.7833212018013,3.924820899963379,66.68999481201172,25.73,2
-0.6254518628120422,-0.5000059604644775,0.5937426686286926,0.7248101234436035,3.924346208572388,66.68999481201172,25.73,2
-0.6196922063827515,-0.5000038146972656,0.5937452912330627,0.4328982234001159,3.924041509628296,66.68999481201172,25.73,2
-0.6215937733650208,-0.5000024437904358,0.5993447303771973,0.1273409724235534,3.9238460063934326,66.68999481201172,25.73,2
-0.6228140592575073,-0.5000015497207642,0.602938175201416,-0.0436700396239757,3.923720598220825,66.68999481201172,25.73,2
-0.6235972046852112,-0.5000010132789612,0.6052442193031311,-0.0387726426124572,3.918590545654297,67.0840835571289,25.73,2
-0.6296975612640381,-0.5000006556510925,0.6011263132095337,0.0861777961254119,3.9152982234954834,67.33698272705078,25.73,2
-0.6336123943328857,-0.4944026470184326,0.598483681678772,0.1771115213632583,3.913185358047485,67.49928283691406,25.73,2
-0.6361247301101685,-0.4908101558685303,0.5967878103256226,0.1745637655258178,3.911829471588135,67.60343170166016,25.73,2
-0.637736976146698,-0.4885047078132629,0.5956994891166687,0.1657636165618896,3.910959482192993,67.67027282714844,25.73,2
-0.638771653175354,-0.4870252013206482,0.5950010418891907,0.1744464784860611,3.910401105880737,67.71316528320312,25.73,2
-0.6394356489181519,-0.4916735291481018,0.6001506447792053,0.1226974353194236,3.910042762756348,67.74069213867188,25.73,2
-0.6342639923095703,-0.4890587627887726,0.5978575944900513,0.0500795505940914,3.9098129272460938,67.75835418701172,25.73,2
-0.630945086479187,-0.4929785430431366,0.5963860154151917,0.0643813535571098,3.9073703289031982,67.76969146728516,25.73,2
-0.6344130039215088,-0.4898962676525116,0.5954416394233704,0.0843071565032005,3.905802965164185,67.77696990966797,25.73,2
-0.6366385221481323,-0.4935159981250763,0.5948355793952942,-0.0282957572489976,3.904797077178955,67.7816390991211,25.73,2
-0.6380667090415955,-0.4958389401435852,0.5944466590881348,-0.1686267554759979,3.904151439666748,67.78463745117188,25.73,2
-0.6389832496643066,-0.4973296821117401,0.5941970944404602,-0.2228573560714721,3.9037370681762695,67.78656005859375,25.73,2
-0.6395714282989502,-0.4926885664463043,0.5940369367599487,-0.2827374637126922,3.9034712314605713,67.78779602050781,25.73,2
-0.6399489045143127,-0.4897101819515228,0.5939341187477112,-0.3569908440113067,3.9033007621765137,67.78858947753906,25.73,2
-0.6401911377906799,-0.487798810005188,0.5938681364059448,-0.2828347980976105,3.903191328048706,67.78909301757812,25.73,2
-0.6403465867042542,-0.4865722060203552,0.5938258171081543,-0.1026904284954071,3.8980712890625,67.78942108154297,25.75,2
-0.6404463052749634,-0.485785037279129,0.5937986373901367,-0.0838136821985244,3.894785642623901,67.78962707519531,25.75,2
-0.6405103206634521,-0.4908776581287384,0.5937812328338623,-0.25799360871315,3.892677068710327,67.78976440429688,25.75,2
-0.6405513882637024,-0.4885480403900146,0.5937700271606445,-0.3805199861526489,3.891323804855346,67.78984832763672,25.75,2
-0.6405777335166931,-0.4870530068874359,0.5937628746032715,-0.3731685578823089,3.890455484390259,67.78990173339844,25.75,2
-0.6405946612358093,-0.4860935807228088,0.5937582850456238,-0.4006940126419067,3.8898983001708975,67.7899398803711,25.75,2
-0.6406055092811584,-0.4854778945446014,0.593755304813385,-0.5258355140686035,3.889540672302246,67.78996276855469,25.75,2
-0.6406124830245972,-0.4850827753543854,0.5937533974647522,-0.6348047256469727,3.8893110752105713,67.78997802734375,25.75,2
-0.6406169533729553,-0.4848292171955108,0.5937522053718567,-0.6545788645744324,3.886868476867676,67.78998565673828,25.75,2
-0.6406198143959045,-0.484666496515274,0.5937514305114746,-0.5060528516769409,3.885300874710083,67.78999328613281,25.75,2
-0.6406216621398926,-0.4901598393917084,0.5937508940696716,-0.088305614888668,3.8842949867248535,67.78999328613281,25.75,2
-0.6406228542327881,-0.4936851561069488,0.5937505960464478,0.4269782602787018,3.883649349212648,67.78999328613281,25.75,2
-0.6406236290931702,-0.4959475100040436,0.5937503576278687,0.6430153846740723,3.883234977722168,67.78999328613281,25.75,2
-0.6406241059303284,-0.4918015599250793,0.5937502384185791,0.4162328243255615,3.8829691410064697,67.78999328613281,25.75,2
-0.6406244039535522,-0.4947387278079986,0.5937501788139343,0.0664900317788124,3.882798671722412,67.78999328613281,25.75,2
-0.6406246423721313,-0.49102583527565,0.5937501192092896,-0.0433123409748077,3.882689237594605,67.78999328613281,25.75,2
-0.6406247615814209,-0.4886431097984314,0.5937500596046448,0.0474387221038341,3.8775696754455566,68.27005767822266,25.75,2
-0.6406248211860657,-0.4927118122577667,0.5937500596046448,0.1128426790237426,3.874284267425537,68.57814025878906,25.75,2
-0.6406248807907104,-0.4953228533267975,0.5937500596046448,0.1333197206258773,3.872175693511963,68.77584838867188,25.75,2
-0.6406249403953552,-0.4969984889030456,0.5937500596046448,0.1643735915422439,3.8708226680755615,68.90272521972656,25.75,2
-0.6406249403953552,-0.4924760162830353,0.5937500596046448,0.1484764218330383,3.8699543476104736,68.98414611816406,25.75,2
-0.6406249403953552,-0.4895737767219543,0.5937500596046448,0.1024487689137458,3.869397163391113,69.0363998413086,25.75,2
-0.6406249403953552,-0.4933090507984161,0.5937500596046448,0.133814662694931,3.869039535522461,69.06993103027344,25.75,2
-0.6406249403953552,-0.4957061409950256,0.5937500596046448,0.1754389405250549,3.868809938430786,69.0914535522461,25.75,2
-0.6406249403953552,-0.4972444474697113,0.588152289390564,0.1340820640325546,3.8672854900360094,69.10526275634766,25.75,2
-0.6406249403953552,-0.4982316493988037,0.590157687664032,0.1147067546844482,3.866307258605957,69.11412048339844,25.75,2
-0.6406249403953552,-0.4988651871681213,0.5914446711540222,0.1775068789720535,3.865679502487183,69.11981201171875,25.75,2
-0.6406249403953552,-0.4992717504501343,0.59227055311203,0.2357212752103805,3.865276575088501,69.12345886230469,25.75,2
-0.6406249403953552,-0.4995326399803161,0.5928005576133728,0.2085935473442077,3.865018129348755,69.12580108642578,25.75,2
-0.6406249403953552,-0.4997000694274902,0.593140721321106,0.0980375781655311,3.8648521900177,69.12730407714844,25.75,2
-0.6406249403953552,-0.4998075366020202,0.5933589935302734,-0.019484369084239,3.864745616912842,69.12826538085938,25.75,2
-0.6406249403953552,-0.4998764991760254,0.5934990644454956,-0.0375819765031337,3.86467719078064,69.1288833618164,25.75,2
-0.6406249403953552,-0.4943229556083679,0.5935889482498169,0.0188729558140039,3.860502004623413,69.12928009033203,25.71,2
-0.6406249403953552,-0.490759015083313,0.5936466455459595,-0.02729675732553,3.8578226566314697,69.1295394897461,25.71,2
-0.6406249403953552,-0.4940696656703949,0.593683660030365,-0.2575500607490539,3.856103181838989,69.12969970703125,25.71,2
-0.6406249403953552,-0.4961942434310913,0.5937074422836304,-0.5307034850120544,3.8549997806549072,69.12980651855469,25.71,2
-0.6406249403953552,-0.4919598996639251,0.5937227010726929,-0.6415112614631653,3.854291677474976,69.12987518310547,25.71,2
-0.6406249403953552,-0.4892425537109375,0.593732476234436,-0.547822892665863,3.853837251663208,69.12992095947266,25.71,2
-0.6406249403953552,-0.4874987304210663,0.5881409645080566,-0.3981346786022186,3.853545665740967,69.12995147705078,25.71,2
-0.6406249403953552,-0.4863796234130859,0.5901504158973694,-0.3271514475345611,3.853358507156372,69.12996673583984,25.71,2
-0.6406249403953552,-0.4856614470481872,0.5914400219917297,-0.2923462092876434,3.850484132766724,69.12997436523438,25.71,2
-0.6406249403953552,-0.4852005541324615,0.5922675728797913,-0.1840284019708633,3.848639488220215,69.1299819946289,25.71,2
-0.6406249403953552,-0.484904795885086,0.59279865026474,-0.0285344496369361,3.847455739974976,69.12998962402344,25.71,2
-0.6406249403953552,-0.4847149848937988,0.5931394696235657,0.0318442955613136,3.846695899963379,69.12998962402344,25.71,2
-0.6406249403953552,-0.4901909530162811,0.5933582186698914,-0.047633096575737,3.846208333969116,69.12998962402344,25.71,2
-0.646222710609436,-0.4881073534488678,0.5934985876083374,-0.1093848422169685,3.845895528793335,69.12998962402344,25.71,2
-0.6498150825500488,-0.4867702126502991,0.593588650226593,-0.0379537157714366,3.845694780349731,69.12998962402344,25.71,2
-0.6465226411819458,-0.4859121143817901,0.5880486965179443,0.1046162098646164,3.8455657958984375,69.12998962402344,25.71,2
-0.6444097757339478,-0.4853614270687103,0.5900912284851074,0.2032745331525802,3.84686017036438,69.48467254638672,25.71,2
-0.6430538296699524,-0.485008031129837,0.591401994228363,0.2164317071437835,3.8476908206939697,69.71228790283203,25.71,2
-0.6477814316749573,-0.4847812354564667,0.5922431945800781,0.1747191697359085,3.848223924636841,69.85835266113281,25.71,2
-0.6508153676986694,-0.4846357107162475,0.5927830338478088,0.1658633351325988,3.848566055297852,69.95208740234375,25.71,2
-0.6527623534202576,-0.4845423102378845,0.5931294560432434,0.1995885074138641,3.848785638809204,70.01224517822266,25.71,2
-0.6540118455886841,-0.4844823777675628,0.5933517813682556,0.2069010734558105,3.848926544189453,70.05084991455078,25.71,2
-0.6548137068748474,-0.4844439029693603,0.5934944748878479,0.1972635686397552,3.8490169048309326,70.07562255859375,25.71,2
-0.6497305035591125,-0.4844192266464233,0.5935860276222229,0.2161567956209182,3.8490750789642334,70.09152221679688,25.71,2
-0.6464684009552002,-0.4844033718109131,0.5936447978019714,0.1566298604011535,3.844980955123901,70.10172271728516,25.71,2
-0.6443749666213989,-0.4843932092189789,0.5936824679374695,-0.0141263883560895,3.842353582382202,70.10826873779297,25.71,2
-0.6430315375328064,-0.484386682510376,0.5937066674232483,-0.098629891872406,3.840667486190796,70.11247253417969,25.71,2
-0.6421693563461304,-0.4843825101852417,0.5937221646308899,-0.0525472611188888,3.839585304260254,70.11517333984375,25.71,2
-0.6416161060333252,-0.4843798279762268,0.5937321186065674,-0.1483642160892486,3.838890790939331,70.11690521240234,25.71,2
-0.6412610411643982,-0.4843780994415283,0.5937384963035583,-0.46063432097435,3.8384451866149902,70.11801147460938,25.71,2
-0.6410331726074219,-0.4843769967556,0.5937426090240479,-0.6574487090110779,3.838159322738648,70.11872863769531,25.71,2
-0.6464847326278687,-0.4843762814998626,0.593745231628418,-0.5150597095489502,3.8379757404327393,70.11918640136719,25.71,2
-0.6499832272529602,-0.4843758344650268,0.5937469601631165,-0.2123106569051742,3.8373990058898926,70.11947631835938,25.73,2
-0.6522283554077148,-0.484375536441803,0.5937480330467224,0.0392974540591239,3.837028980255127,70.11966705322266,25.73,2
-0.6480713486671448,-0.4843753576278686,0.5937487483024597,0.2222605049610138,3.836791515350342,70.11978912353516,25.73,2
-0.6454036235809326,-0.4843752384185791,0.5937492251396179,0.3181802034378052,3.836639165878296,70.11986541748047,25.73,2
-0.6492894291877747,-0.4843751490116119,0.5937495231628418,0.2579283714294433,3.836541175842285,70.11991119384766,25.73,2
-0.6517831087112427,-0.4843750894069671,0.5937497019767761,0.1511932760477066,3.836478471755981,70.11994171142578,25.73,2
-0.6477856040000916,-0.4843750596046448,0.5937498211860657,0.2224172800779342,3.836438179016113,70.11996459960938,25.73,2
-0.6452202796936035,-0.4843750298023224,0.5937498807907104,0.4580012559890747,3.836412191390991,70.11997985839844,25.73,2
-0.649171769618988,-0.4787772595882416,0.5937499403953552,0.5697771310806274,3.8341002464294434,70.11998748779297,25.73,2
-0.6517075896263123,-0.480782687664032,0.5937499403953552,0.3799804747104645,3.8326165676116943,70.1199951171875,25.73,2
-0.65333491563797,-0.4764719009399414,0.5937499403953552,0.0790511146187782,3.831664562225342,70.1199951171875,25.73,2
-0.6543792486190796,-0.4737054705619812,0.5937499403953552,-0.0531642325222492,3.831053495407105,70.1199951171875,25.73,2
-0.6550494432449341,-0.477527916431427,0.5937499403953552,-0.0162048656493425,3.8306612968444815,70.1199951171875,25.73,2
-0.6554795503616333,-0.4743831753730774,0.5937499403953552,-0.0032341983169317,3.8304097652435294,70.1199951171875,25.73,2
-0.6557555794715881,-0.4779628217220306,0.5937499403953552,-0.009240673854947,3.83024835586548,70.1199951171875,25.73,2
-0.6503349542617798,-0.4802600443363189,0.5937499403953552,0.1481206268072128,3.830144643783569,70.1199951171875,25.73,2
-0.6524540781974792,-0.4761364758014679,0.5937499403953552,0.4748082756996155,3.828242063522339,70.37077331542969,25.73,2
-0.6538140177726746,-0.4790879786014557,0.5937499403953552,0.7453614473342896,3.82702112197876,70.5317153930664,25.73,2
-0.6546867489814758,-0.4753843247890472,0.5937499403953552,0.7649361491203308,3.826237678527832,70.63499450683594,25.73,2
-0.6552467942237854,-0.4786053001880646,0.5937499403953552,0.5267177820205688,3.825734853744507,70.7012710571289,25.73,2
-0.655606210231781,-0.4806723296642303,0.5937499403953552,0.1588883697986602,3.8254122734069824,70.74380493164062,25.73,2
-0.6558368802070618,-0.4764010608196258,0.5937499403953552,-0.1129891276359558,3.825205087661743,70.77110290527344,25.73,2
-0.6559848785400391,-0.4736600220203399,0.5937499403953552,-0.1155008226633071,3.825072288513184,70.78861999511719,25.73,2
-0.656079888343811,-0.4774987399578094,0.5937499403953552,0.0655986592173576,3.824986934661865,70.79986572265625,25.73,2
-0.6561408042907715,-0.4799621999263763,0.5937499403953552,0.1854004710912704,3.823554992675781,70.80707550048828,25.73,2
-0.6561799049377441,-0.4759453535079956,0.5937499403953552,0.1834657192230224,3.822636127471924,70.81170654296875,25.73,2
-0.6562049984931946,-0.4789653420448303,0.5937499403953552,0.1356506198644638,3.8220465183258057,70.8146743774414,25.73,2
-0.6562210917472839,-0.4809033870697021,0.5937499403953552,0.018983818590641,3.821668148040772,70.81658172607422,25.73,2
-0.6562314629554749,-0.476549357175827,0.5937499403953552,-0.1741112172603607,3.821425199508667,70.81780242919922,25.73,2
-0.6562380790710449,-0.4793529510498047,0.5937499403953552,-0.2765330374240875,3.821269273757935,70.81858825683594,25.73,2
-0.6506446003913879,-0.4811521470546722,0.5937499403953552,-0.2670273780822754,3.821169137954712,70.819091796875,25.73,2
-0.6526528000831604,-0.4823067486286163,0.5937499403953552,-0.357656717300415,3.8211050033569336,70.81941986083984,25.73,2
-0.6539415121078491,-0.4830477237701416,0.5937499403953552,-0.46955606341362,3.8206045627594,70.81962585449219,25.73,2
-0.6547685265541077,-0.4835232198238373,0.5937499403953552,-0.3156643509864807,3.8202834129333496,70.81976318359375,25.73,2
-0.6552992463111877,-0.4838283658027649,0.5937499403953552,0.0123793352395296,3.820077419281006,70.8198471069336,25.73,2
-0.6556398868560791,-0.4840241968631744,0.5937499403953552,0.1440822184085846,3.819945096969605,70.81990051269531,25.73,2
-0.6558584570884705,-0.4841498732566833,0.5937499403953552,0.0136470105499029,3.819860219955444,70.81993865966797,25.73,2
-0.655998706817627,-0.4842305183410644,0.5937499403953552,-0.1596231907606125,3.81980562210083,70.81996154785156,25.73,2
-0.650490939617157,-0.4842822849750519,0.5937499403953552,-0.2636528611183166,3.819770574569702,70.81997680664062,25.73,2
-0.6525541543960571,-0.4843155145645141,0.5937499403953552,-0.3447434306144714,3.8197481632232666,70.81998443603516,25.73,2
-0.6538782119750977,-0.4843368232250213,0.5937499403953552,-0.4290258586406708,3.81927490234375,70.81999206542969,25.73,2
-0.6547279357910156,-0.4843505024909973,0.5937499403953552,-0.4652006030082702,3.818971157073975,70.81999206542969,25.73,2
-0.6496754288673401,-0.4843592643737793,0.5937499403953552,-0.416763961315155,3.8187761306762695,70.81999206542969,25.73,2
-0.6520308256149292,-0.4843648970127105,0.5937499403953552,-0.3426892161369324,3.81865119934082,70.81999206542969,25.73,2
-0.6479446291923523,-0.4843685030937195,0.5937499403953552,-0.3023174405097961,3.818570852279663,70.81999206542969,25.73,2
-0.645322322845459,-0.4843708276748657,0.5937499403953552,-0.2692440152168274,3.818519353866577,70.81999206542969,25.73,2
-0.6492372751235962,-0.4843723177909851,0.5937499403953552,-0.2121936380863189,3.818486213684082,70.81999206542969,25.73,2
-0.6517496109008789,-0.4843732714653015,0.5937499403953552,-0.1684168428182602,3.818464994430542,70.81999206542969,25.73,2
-0.6477641463279724,-0.4843738973140716,0.5881521701812744,-0.1654014438390731,3.813861131668091,71.0421142578125,25.73,2
-0.6452065110206604,-0.4843742847442627,0.5901576280593872,-0.077484518289566,3.810906648635864,71.18466186523438,25.73,2
-0.6435651779174805,-0.4843745529651642,0.5914446115493774,0.2010551989078521,3.8090105056762695,71.27613830566406,25.73,2
-0.6481096148490906,-0.4843747019767761,0.59227055311203,0.5051960945129395,3.807793617248535,71.33484649658203,25.73,2
-0.6510259509086609,-0.4843748211860657,0.5928005576133728,0.5821512341499329,3.8070127964019775,71.37252044677734,25.73,2
-0.6472997069358826,-0.4843748807907104,0.5875429511070251,0.4129994809627533,3.806511640548706,71.39669799804688,25.73,2
-0.6449084281921387,-0.4843749105930328,0.5897666811943054,0.1539794653654098,3.806190013885498,71.4122085571289,25.73,2
-0.6433738470077515,-0.4843749403953552,0.5911937355995178,-0.0444878637790679,3.805983543395996,71.42216491699219,25.73,2
-0.6479868292808533,-0.4843749701976776,0.5921095609664917,-0.0858709588646888,3.806769132614136,71.42855834960938,25.73,2
-0.6509471535682678,-0.4843749701976776,0.5870994925498962,0.0272922050207853,3.807273149490357,71.43265533447266,25.73,2
-0.6528469324111938,-0.4843749701976776,0.5894820690155029,0.1572350114583969,3.807596683502197,71.43528747558594,25.73,2
-0.6540660858154297,-0.4843749701976776,0.591011106967926,0.1403127163648605,3.8078043460845934,71.43697357177734,25.73,2
-0.6548485159873962,-0.4843749701976776,0.5919923186302185,-0.0998318791389465,3.807937622070313,71.43805694580078,25.73,2
-0.6497528553009033,-0.4843749701976776,0.5926220417022705,-0.4079936146736145,3.808022975921631,71.43875122070312,25.73,2
-0.6464827060699463,-0.4843749701976776,0.5930261611938477,-0.4946942329406738,3.808077812194824,71.43920135498047,25.73,2
-0.6499819159507751,-0.4843749701976776,0.5932855010032654,-0.3067185580730438,3.8081130981445312,71.43949127197266,25.73,2
-0.652227520942688,-0.4843749701976776,0.5934519171714783,-0.0929396227002143,3.804922342300415,71.4396743774414,25.73,2
-0.6480708122253418,-0.4843749701976776,0.5935587286949158,-0.0023220940493047,3.802874803543091,71.43978881835938,25.73,2
-0.6510010957717896,-0.4843749701976776,0.5936272740364075,0.0056749647483229,3.801560878753662,71.43986511230469,25.73,2
-0.6528815627098083,-0.4843749701976776,0.5936712622642517,-0.0644270703196525,3.80071759223938,71.43991088867188,25.73,2
-0.6540883183479309,-0.4843749701976776,0.5936994552612305,-0.1488228589296341,3.8001763820648193,71.43994140625,25.73,2
-0.6548627614974976,-0.4843749701976776,0.5937175750732422,-0.0381847321987152,3.799829006195069,71.4399642944336,25.73,2
-0.6553597450256348,-0.4843749701976776,0.5937291979789734,0.2656838595867157,3.799606084823608,71.43997955322266,25.73,2
-0.6500809192657471,-0.4787771999835968,0.5937366485595703,0.3854551613330841,3.799463033676148,71.43998718261719,25.73,2
-0.6522910594940186,-0.4807826578617096,0.5937414169311523,0.1363030821084976,3.798912286758423,71.43999481201172,25.73,2
-0.6481115818023682,-0.4820696413516998,0.5937445163726807,-0.148978516459465,3.7985589504241934,71.43999481201172,25.73,2
-0.6510272026062012,-0.48289555311203,0.5937464833259583,-0.1529270410537719,3.7983322143554688,71.43999481201172,25.73,2
-0.6528983116149902,-0.477827787399292,0.5937477350234985,-0.0085753817111253,3.798186779022217,71.43999481201172,25.73,2
-0.6485012769699097,-0.4801733791828155,0.5937485694885254,0.044652871787548,3.798093318939209,71.43999481201172,25.73,2
-0.6456795334815979,-0.4816786348819732,0.5937491059303284,0.0465685203671455,3.798033475875856,71.43999481201172,25.73,2
-0.6494664549827576,-0.4826446175575256,0.5937494039535522,0.1552751362323761,3.79799485206604,71.43999481201172,25.73,2
-0.6518967151641846,-0.4832645356655121,0.5937496423721313,0.3575921058654785,3.7979700565338135,71.43999481201172,25.73,2
-0.6534563302993774,-0.4836623668670654,0.5937497615814209,0.5089229345321655,3.7979543209075928,71.6800308227539,25.73,2
-0.6544572114944458,-0.4839176833629608,0.5937498211860657,0.4842307567596435,3.7979440689086914,71.83406829833984,25.73,2
-0.6495017409324646,-0.484081506729126,0.5937498807907104,0.2749256491661072,3.797937631607056,71.93292236328125,25.73,2
-0.6519193649291992,-0.4841866493225097,0.5937499403953552,-0.0062798969447612,3.797933340072632,71.9963607788086,25.73,2
-0.6534708738327026,-0.4842541217803955,0.5937499403953552,-0.2978012859821319,3.7979307174682617,72.03707122802734,25.73,2
-0.6544665098190308,-0.4842974245548248,0.5937499403953552,-0.6066904664039612,3.797929048538208,72.06320190429688,25.73,2
-0.655105471611023,-0.4843252301216125,0.5937499403953552,-0.7905874848365784,3.797927856445313,72.07997131347656,25.73,2
-0.6555154919624329,-0.4843430519104004,0.5937499403953552,-0.6434913873672485,3.797927141189575,72.09072875976562,25.73,2
-0.6557786464691162,-0.4843544960021972,0.5937499403953552,-0.2589049935340881,3.794254302978516,72.0976333618164,25.73,2
-0.6559475064277649,-0.4843618273735046,0.5937499403953552,0.0559693686664104,3.7918972969055176,72.10206604003906,25.73,2
-0.6560558676719666,-0.4843665361404419,0.5937499403953552,0.2007164061069488,3.790384531021118,72.10491180419922,25.73,2
-0.6561254262924194,-0.4843695759773254,0.5937499403953552,0.3007718622684479,3.7894136905670166,72.10673522949219,25.73,2
-0.6561700701713562,-0.4843715131282806,0.5937499403953552,0.4294680655002594,3.788790702819824,72.10790252685547,25.73,2
-0.6506009101867676,-0.4843727648258209,0.5937499403953552,0.5586313605308533,3.788390874862671,72.10865783691406,25.73,2
-0.6526247262954712,-0.4843735694885254,0.5937499403953552,0.6271906495094299,3.7881343364715576,72.10913848876953,25.73,2
-0.653923511505127,-0.4787763059139251,0.5937499403953552,0.6102842092514038,3.7879698276519775,72.10944366455078,25.73,2
-0.654757022857666,-0.4807820916175842,0.5937499403953552,0.5779392123222351,3.788323163986206,72.1096420288086,25.73,2
-0.6552919149398804,-0.4820692837238312,0.5937499403953552,0.5930078029632568,3.788549900054932,72.10977172851562,25.73,2
-0.6556351780891418,-0.4772975444793701,0.5937499403953552,0.5883476734161377,3.788695335388184,72.10985565185547,25.73,2
-0.6558554172515869,-0.4798330962657928,0.5937499403953552,0.517288088798523,3.788788795471192,72.10990905761719,25.73,2
-0.6559967994689941,-0.4814602732658386,0.5937499403953552,0.4430255591869354,3.788848638534546,72.10993957519531,25.73,2
-0.6504897475242615,-0.4825044870376587,0.5937499403953552,0.3165514767169952,3.788887023925781,72.1099624633789,25.73,2
-0.652553379535675,-0.4831746220588684,0.5881521701812744,0.0025202701799571,3.788911819458008,72.10997772216797,25.73,2
-0.6538777351379395,-0.478006899356842,0.5901576280593872,-0.3853008449077606,3.788927555084229,72.1099853515625,25.73,2
-0.6547276377677917,-0.4802883267402649,0.5914446115493774,-0.6341820955276489,3.7861833572387695,72.10999298095703,25.73,2
-0.6552730202674866,-0.4817523956298828,0.59227055311203,-0.851220965385437,3.784422397613525,72.10999298095703,25.73,2
-0.6556230187416077,-0.4770942032337188,0.5928005576133728,-1.1803804636001587,3.783292293548584,72.10999298095703,25.73,2
-0.6558476686477661,-0.4741048216819763,0.593140721321106,-1.2877213954925537,3.782567024230957,72.10999298095703,25.73,2
-0.6503940224647522,-0.4777841866016388,0.5933589935302734,-0.8872892260551453,3.782101631164551,72.10999298095703,25.73,2
-0.6524919867515564,-0.4801453948020935,0.5934990644454956,-0.3652043342590332,3.781802892684937,72.10999298095703,25.73,2
-0.6538383364677429,-0.4760628938674927,0.5935889482498169,-0.1877936422824859,3.781611204147339,72.10999298095703,25.73,2
-0.6547023057937622,-0.4790407717227936,0.5936466455459595,-0.192166656255722,3.7814881801605225,72.10999298095703,25.73,2
-0.6552568078041077,-0.4753540158271789,0.593683660030365,-0.0588351339101791,3.780950307846069,72.41093444824219,25.73,2
-0.6556126475334167,-0.4729880690574646,0.5937074422836304,0.1413717865943908,3.780605316162109,72.60405731201172,25.73,2
-0.6558409929275513,-0.4770675301551819,0.5937227010726929,0.2591053247451782,3.780383825302124,72.72798919677734,25.73,2
-0.6559875011444092,-0.4796854853630066,0.593732476234436,0.3274947702884674,3.78024172782898,72.80752563476562,25.73,2
-0.6504837870597839,-0.4813655316829681,0.5937387347221375,0.3785483539104461,3.780150413513184,72.85856628417969,25.73,2
-0.6525495648384094,-0.4824436902999878,0.5937427878379822,0.4113115966320038,3.780092000961304,72.89131927490234,25.73,2
-0.6538752913475037,-0.4775378108024597,0.5937453508377075,0.4681629240512848,3.7800543308258057,72.91233825683594,25.73,2
-0.6547260284423828,-0.4743895232677459,0.5937470197677612,0.5333074331283569,3.780030250549317,72.92582702636719,25.73,2
-0.6552720069885254,-0.4779669046401977,0.5937480926513672,0.5213748216629028,3.7781786918640137,72.93448638916016,25.73,2
-0.6556223630905151,-0.4802626669406891,0.5937487483024597,0.4420656263828277,3.776990413665772,72.9400405883789,25.73,2
-0.6558471918106079,-0.4817359447479248,0.5937492251396179,0.3983346819877624,3.7762279510498047,72.94361114501953,25.73,2
-0.6503937244415283,-0.482681393623352,0.5937495231628418,0.4240093231201172,3.775738716125488,72.9458999633789,25.73,2
-0.6468939781188965,-0.4832881391048431,0.5937497019767761,0.4046600759029388,3.775424718856812,72.9473648071289,25.73,2
-0.6502458453178406,-0.4836775064468384,0.5937498211860657,0.1772883087396621,3.775223255157471,72.94831085205078,25.73,2
-0.6523968577384949,-0.4839273989200592,0.5937498807907104,-0.1835803538560867,3.7750937938690186,72.94891357421875,25.73,2
-0.6537773013114929,-0.4840877652168274,0.5937499403953552,-0.4366605281829834,3.775010824203491,72.94930267333984,25.73,2
-0.6546631455421448,-0.4785929024219513,0.5937499403953552,-0.4808478355407715,3.7726621627807617,72.94955444335938,25.73,2
-0.6552316546440125,-0.4806643724441528,0.5937499403953552,-0.419640302658081,3.7711548805236816,72.94971466064453,25.73,2
-0.6555964946746826,-0.4819937348365783,0.5937499403953552,-0.3122918903827667,3.7701876163482666,72.94981384277344,25.73,2
-0.6558306217193604,-0.4828468263149261,0.5881521701812744,-0.186080664396286,3.769567012786865,72.94988250732422,25.73,2
-0.6503831148147583,-0.4833942949771881,0.5901576280593872,-0.1731545031070709,3.7691686153411865,72.94992065429688,25.73,2
-0.6468871831893921,-0.4837456345558166,0.5858468413352966,-0.333240270614624,3.7689130306243896,72.949951171875,25.73,2
-0.6446437239646912,-0.4839711189270019,0.5886781811714172,-0.4682172834873199,3.768748998641968,72.94996643066406,25.73,2
-0.6432039737701416,-0.4841158092021942,0.5904951691627502,-0.3506309688091278,3.768643617630005,72.9499740600586,25.73,2
-0.6478778123855591,-0.4842086732387543,0.5916612148284912,-0.0852943211793899,3.7690353393554688,72.94998168945312,25.73,2
-0.6508772373199463,-0.4842682480812073,0.5924095511436462,0.0384099707007408,3.769286632537842,72.94998931884766,25.73,2
-0.652802050113678,-0.4843064844608307,0.5928897857666016,-0.0075938762165606,3.7694480419158936,72.94998931884766,25.73,2
-0.6540372967720032,-0.4843310415744781,0.5931979417800903,0.0022918381728231,3.769551515579224,72.94998931884766,25.73,2
-0.6492322683334351,-0.4843467772006988,0.5877979397773743,0.1447737962007522,3.769618034362793,72.94998931884766,25.73,2
-0.6517464518547058,-0.4843568801879883,0.5899302959442139,0.257705956697464,3.769660711288452,72.94998931884766,25.73,2
-0.6533598899841309,-0.4843633770942688,0.5912987589836121,0.2370323687791824,3.769688129425049,72.94998931884766,25.73,2
-0.6543952822685242,-0.4843675494194031,0.5921769142150879,0.1879394948482513,3.7697055339813232,72.94998931884766,25.73,2
-0.6550597548484802,-0.4843702316284179,0.5927404761314392,0.2388337552547454,3.768798589706421,73.24018096923828,25.73,2
-0.6554861664772034,-0.4787741601467132,0.5931021571159363,0.3359811007976532,3.768216609954834,73.4264144897461,25.73,2
-0.6557598114013672,-0.4751829206943512,0.5933342576026917,0.344586044549942,3.767843008041382,73.5459213256836,25.73,2
-0.6559354066848755,-0.4784760475158691,0.5934832096099854,0.235465794801712,3.7676033973693848,73.62261962890625,25.73,2
-0.6560481190681458,-0.4805893898010254,0.5935788154602051,0.097369760274887,3.767449617385864,73.67183685302734,25.73,2
-0.6561204195022583,-0.4819456040859222,0.593640148639679,0.0266605541110038,3.767350912094116,73.70342254638672,25.73,2
-0.6561668515205383,-0.4828159511089325,0.5936794877052307,0.0206917840987443,3.767287492752075,73.72369384765625,25.73,2
-0.656196653842926,-0.4777767062187195,0.5937047600746155,-0.0476249903440475,3.767246723175049,73.73670196533203,25.73,2
-0.6562157869338989,-0.4745428264141083,0.5937209725379944,-0.2419349253177642,3.7644662857055664,73.74504852294922,25.73,2
-0.6562280654907227,-0.4724675118923187,0.5937313437461853,-0.4060401916503906,3.7626819610595694,73.75040435791016,25.73,2
-0.656235933303833,-0.471135675907135,0.5937380194664001,-0.4002936780452728,3.7615370750427246,73.75384521484375,25.73,2
-0.6562409996986389,-0.4702809751033783,0.593742311000824,-0.3464498221874237,3.7608022689819336,73.75605010986328,25.73,2
-0.6562442183494568,-0.4697324931621551,0.5937450528144836,-0.4086254835128784,3.760330677032471,73.7574691772461,25.73,2
-0.6562463045120239,-0.4749782681465149,0.5937468409538269,-0.4915171563625335,3.760028123855591,73.75837707519531,25.73,2
-0.656247615814209,-0.4727469384670257,0.5937479734420776,-0.4444001317024231,3.759833812713623,73.75895690917969,25.73,2
-0.6562484502792358,-0.4713149964809418,0.5937486886978149,-0.33176389336586,3.759709119796753,73.75933074951172,25.73,2
-0.6562489867210388,-0.4703960716724396,0.5937491655349731,-0.2021592408418655,3.7568747997283936,73.75957489013672,25.73,2
-0.6562493443489075,-0.4698063433170318,0.593749463558197,0.0780552104115486,3.755055904388428,73.75972747802734,25.73,2
-0.6618473529815674,-0.4694279134273529,0.5937496423721313,0.4549223780632019,3.7538886070251465,73.75982666015625,25.73,2
-0.6598420739173889,-0.4691850543022156,0.5937497615814209,0.5785490274429321,3.75313949584961,73.7598876953125,25.73,2
-0.6585552096366882,-0.4746269583702087,0.5937498211860657,0.3032105267047882,3.7526588439941406,73.75992584228516,25.73,2
-0.6577293276786804,-0.4725214838981628,0.5937498807907104,-0.0848578140139579,3.752350330352783,73.75995635986328,25.73,2
-0.6571993231773376,-0.4711703360080719,0.5937499403953552,-0.2944894433021545,3.752152442932129,73.75997161865234,25.73,2
-0.6568592190742493,-0.4703032374382019,0.5881521701812744,-0.3251242339611053,3.752025365829468,73.75997924804688,25.73,2
-0.6622387170791626,-0.4697467684745788,0.5901576280593872,-0.2265588939189911,3.7514846324920654,73.7599868774414,25.73,2
-0.6656910181045532,-0.4693896770477295,0.5914446115493774,0.0229885969310998,3.7511374950408936,73.75999450683594,25.73,2
-0.6623086929321289,-0.4691604971885681,0.59227055311203,0.3156890869140625,3.7509148120880127,73.75999450683594,25.73,2
-0.6601381301879883,-0.4690134227275848,0.587202787399292,0.4820319712162018,3.750771999359131,73.75999450683594,25.73,2
-0.6643429398536682,-0.468919038772583,0.5895483493804932,0.5457903742790222,3.7506802082061768,73.75999450683594,25.73,2
-0.6614435911178589,-0.4688584804534912,0.5910536050796509,0.5759590864181519,3.750621318817138,73.75999450683594,25.73,2
-0.6595829725265503,-0.4688196182250976,0.5920196175575256,0.4448514580726623,3.7505836486816406,73.75999450683594,25.73,2
-0.6583889126777649,-0.4687946736812591,0.5926395654678345,0.1027687042951583,3.750559329986572,73.75999450683594,25.73,2
-0.6576226353645325,-0.4687786698341369,0.5930373668670654,-0.2600633502006531,3.7477893829345694,73.9749526977539,25.73,2
-0.6571308970451355,-0.4687683880329132,0.5932926535606384,-0.4320042729377746,3.746011972427368,74.11289978027344,25.73,2
-0.6568152904510498,-0.4687618017196655,0.593456506729126,-0.3954604864120483,3.744871139526367,74.20142364501953,25.73,2
-0.656612753868103,-0.4687575697898865,0.5935616493225098,-0.296774685382843,3.744139194488525,74.25823211669922,25.73,2
-0.6564828157424927,-0.4687548577785492,0.5936291217803955,-0.2047832161188125,3.7436695098876953,74.29469299316406,25.73,2
-0.6563994288444519,-0.4687531292438507,0.5936724543571472,-0.0131930746138095,3.743367910385132,74.3180923461914,25.73,2
-0.6563459038734436,-0.4687519967556,0.5937002301216125,0.242313727736473,3.743174552917481,74.3331069946289,25.73,2
-0.656311571598053,-0.4687512814998626,0.5937180519104004,0.3023886084556579,3.743050336837769,74.34274291992188,25.73,2
-0.6562895178794861,-0.4687508344650268,0.5937294960021973,0.1510646939277649,3.742511749267578,74.34892272949219,25.73,2
-0.6618731617927551,-0.468750536441803,0.5937368273735046,0.1041097715497016,3.742166042327881,74.35289001464844,25.73,2
-0.6654564142227173,-0.4687503576278686,0.5937415361404419,0.260270744562149,3.741944313049317,74.35543823242188,25.73,2
-0.6621581315994263,-0.4687502384185791,0.5881468057632446,0.3927290439605713,3.7418019771575928,74.35707092285156,25.73,2
-0.6600415110588074,-0.4687501490116119,0.5901541709899902,0.3487604260444641,3.741710662841797,74.35812377929688,25.73,2
-0.658683180809021,-0.4687500894069671,0.5914424061775208,0.205901488661766,3.741652011871338,74.35879516601562,25.73,2
-0.6634092330932617,-0.4687500596046448,0.5922691226005554,0.0389887541532516,3.74161434173584,74.3592300415039,25.73,2
-0.6608443856239319,-0.4687500298023224,0.5927996635437012,-0.139777734875679,3.741590261459351,74.35950469970703,25.73,2
-0.6591984033584595,-0.4687500298023224,0.5931401252746582,-0.2903255522251129,3.74203372001648,74.35968017578125,25.73,2
-0.65814208984375,-0.4687500298023224,0.5933586359024048,-0.3546952903270721,3.742318153381348,74.35979461669922,25.73,2
-0.6574642062187195,-0.4687500298023224,0.5934988260269165,-0.3530131578445434,3.74250078201294,74.35987091064453,25.73,2
-0.6626269817352295,-0.4687500298023224,0.5935888290405273,-0.3447685241699219,3.7426180839538574,74.35991668701172,25.73,2
-0.6603423953056335,-0.4687500298023224,0.5936465859413147,-0.282156378030777,3.7426931858062735,74.35994720458984,25.73,2
-0.6588762402534485,-0.4687500298023224,0.593683660030365,-0.0735944360494613,3.742741346359253,74.35997009277344,25.73,2
-0.657935380935669,-0.4687500298023224,0.5937074422836304,0.1999690532684326,3.742772340774536,74.35997772216797,25.73,2
-0.662929356098175,-0.4687500298023224,0.5937227010726929,0.3504483103752136,3.7427921295166016,74.3599853515625,25.73,2
-0.6605364084243774,-0.4687500298023224,0.593732476234436,0.3610354363918304,3.739591836929321,74.35999298095703,25.73,2
-0.6590007543563843,-0.4687500298023224,0.5937387347221375,0.3606644868850708,3.737538099288941,74.35999298095703,25.73,2
-0.658015251159668,-0.4687500298023224,0.5937427878379822,0.3855044543743133,3.736220121383667,74.35999298095703,25.73,2
-0.6573828458786011,-0.4687500298023224,0.5937453508377075,0.3548718392848968,3.735374212265015,74.35999298095703,25.73,2
-0.6569769978523254,-0.4687500298023224,0.5937470197677612,0.2707272171974182,3.7348313331604,74.35999298095703,25.73,2
-0.656716525554657,-0.4687500298023224,0.5937480926513672,0.1988151669502258,3.734483003616333,74.35999298095703,25.73,2
-0.6565493941307068,-0.4743478000164032,0.5937487483024597,0.1526661515235901,3.734259366989136,74.35999298095703,25.73,2
-0.6564421057701111,-0.4723423421382904,0.5937492251396179,0.112302653491497,3.7341158390045166,74.35999298095703,25.73,2
-0.6563732624053955,-0.4710553586483001,0.5937495231628418,0.0183307398110628,3.734023809432984,74.90096282958984,25.73,2
-0.6563290953636169,-0.4702294468879699,0.5937497019767761,-0.1602000147104263,3.733964681625366,75.24813079833984,25.73,2
-0.6563007831573486,-0.4696994125843048,0.5937498211860657,-0.3428397178649902,3.733926773071289,75.4709243774414,25.73,2
-0.6562826037406921,-0.4749570488929748,0.5937498807907104,-0.4421344995498657,3.7339024543762207,75.61389923095703,25.73,2
-0.6562709212303162,-0.4783310890197754,0.5937499403953552,-0.4485349655151367,3.733886957168579,75.70565032958984,25.73,2
-0.6562634110450745,-0.4804963767528534,0.5937499403953552,-0.3559128642082214,3.733876943588257,75.76453399658203,25.73,2
-0.6562585830688477,-0.4818859100341797,0.5937499403953552,-0.1889960467815399,3.733870506286621,75.80232238769531,25.73,2
-0.6562554836273193,-0.4771798849105835,0.5937499403953552,-0.0782958716154098,3.733866453170776,75.82656860351562,25.73,2
-0.6506557464599609,-0.4797575771808624,0.5937499403953552,-0.0932366922497749,3.730650663375856,75.84213256835938,25.73,2
-0.6470621824264526,-0.4814118146896362,0.5881521701812744,-0.1171551495790481,3.728586912155152,75.85211944580078,25.73,2
-0.6503537893295288,-0.4824734032154083,0.5901576280593872,-0.1002614572644233,3.727262496948242,75.85852813720703,25.73,2
-0.6524661779403687,-0.4831546545028686,0.5914446115493774,-0.0894200578331947,3.726412534713745,75.86264038085938,25.73,2
-0.6538217663764954,-0.4835918545722961,0.59227055311203,0.0106842871755361,3.7258670330047607,75.86528015136719,25.73,2
-0.6546916961669922,-0.4838724136352539,0.5928005576133728,0.2898800373077392,3.72551703453064,75.86697387695312,25.73,2
-0.6552499532699585,-0.4840524792671203,0.593140721321106,0.4762169420719147,3.725292444229126,75.86805725097656,25.73,2
-0.6556082367897034,-0.4785702526569366,0.5933589935302734,0.2912783324718475,3.7251482009887695,75.8687515258789,25.73,2
-0.6502403616905212,-0.48064985871315,0.5879012942314148,-0.0638546124100685,3.723219156265259,75.86920166015625,25.75,2
-0.6467955708503723,-0.481984406709671,0.5899966359138489,-0.209359273314476,3.721981287002564,75.86949157714844,25.75,2
-0.6445848941802979,-0.4828408658504486,0.5913413166999817,-0.1630153357982635,3.721186876296997,75.86967468261719,25.75,2
-0.6431662440299988,-0.4833904802799225,0.5922042727470398,-0.1547699123620987,3.720677137374878,75.86978912353516,25.75,2
-0.6478536128997803,-0.4837431907653808,0.592758059501648,-0.1530610620975494,3.720350027084351,75.86986541748047,25.75,2
-0.6452639102935791,-0.4839695394039154,0.5931134223937988,0.0271643660962581,3.720139980316162,75.86991119384766,25.75,2
-0.6491997838020325,-0.484114795923233,0.5933414697647095,0.3004560172557831,3.7200052738189697,75.86994171142578,25.75,2
-0.6517255902290344,-0.4842080175876617,0.5934877991676331,0.4221002161502838,3.719918727874756,75.86996459960938,25.75,2
-0.6533464789390564,-0.4842678308486938,0.5935817360877991,0.3855220377445221,3.718027114868164,75.86997985839844,25.75,2
-0.6543866991996765,-0.4843062162399292,0.593641996383667,0.3727959990501404,3.716813325881958,75.86998748779297,25.75,2
-0.6550542116165161,-0.4843308627605438,0.5936806797981262,0.4326981008052826,3.716034412384033,75.8699951171875,25.75,2
-0.6554825901985168,-0.4843466877937317,0.5937055349349976,0.4460617899894714,3.715534448623657,75.8699951171875,25.75,2
-0.6557575464248657,-0.4843568205833435,0.5937214493751526,0.3471605777740478,3.7152135372161865,75.8699951171875,25.75,2
-0.6559339761734009,-0.4787655472755432,0.593731701374054,0.1905445009469986,3.715007781982422,75.8699951171875,25.75,2
-0.6560471653938293,-0.4751774072647095,0.5937382578849792,0.0721244364976883,3.7148756980896,75.8699951171875,25.75,2
-0.6561198234558105,-0.4728747308254242,0.5937424898147583,0.0606156140565872,3.71479082107544,75.8699951171875,25.75,2
-0.6561664342880249,-0.4769947826862335,0.5937451720237732,0.1141337007284164,3.716113567352295,76.3034896850586,25.75,2
-0.6561963558197021,-0.4740410149097442,0.5937469005584717,0.0410012565553188,3.716962337493897,76.58168029785156,25.75,2
-0.6562155485153198,-0.4777432382106781,0.5937480330467224,-0.2423809319734573,3.717507123947144,76.76020812988281,25.75,2
-0.6562278866767883,-0.4745213389396667,0.5937487483024597,-0.5102211236953735,3.7178566455841056,76.8747787475586,25.75,2
-0.6562358140945435,-0.4724537134170532,0.5937492251396179,-0.5459676384925842,3.718080997467041,76.94830322265625,25.75,2
-0.6562408804893494,-0.4767245948314667,0.5937495231628418,-0.4757607579231262,3.7182250022888175,76.9954833984375,25.75,2
-0.656244158744812,-0.4738676249980926,0.5881519317626953,-0.4916097819805145,3.7183175086975098,77.02576446533203,25.75,2
-0.6562462449073792,-0.4720341861248016,0.5901575088500977,-0.5698497295379639,3.718376874923706,77.04519653320312,25.75,2
-0.656247615814209,-0.4708575904369354,0.5914445519447327,-0.5806512832641602,3.716578722000122,77.05766296386719,25.75,2
-0.6562484502792358,-0.4701025187969208,0.5922704935073853,-0.4335323572158813,3.715424776077272,77.06566619873047,25.75,2
-0.6562489867210388,-0.4696179628372192,0.5928005576133728,-0.14207823574543,3.714684247970581,77.07080078125,25.75,2
-0.6562493443489075,-0.469307005405426,0.593140721321106,0.1201943159103393,3.714209079742432,77.0740966796875,25.75,2
-0.6562495827674866,-0.469107449054718,0.5933589935302734,0.1989413648843765,3.7139041423797607,77.07621002197266,25.75,2
-0.6562497615814209,-0.4689793884754181,0.5934990644454956,0.1599123030900955,3.7137084007263184,77.07756805419922,25.75,2
-0.6562498211860657,-0.474494993686676,0.5935889482498169,0.1205353885889053,3.713582754135132,77.07843780517578,25.75,2
-0.6562498807907104,-0.4724368155002594,0.5936466455459595,0.1346738785505294,3.713502168655396,77.07899475097656,25.75,2
-0.6562499403953552,-0.4767137467861175,0.593683660030365,0.2010683566331863,3.7134504318237305,77.07935333251953,25.73,2
-0.6562499403953552,-0.4794584512710571,0.5937074422836304,0.2400939464569091,3.7134172916412354,77.07958221435547,25.73,2
-0.6562499403953552,-0.4756220579147339,0.5937227010726929,0.1648261994123459,3.7133960723876953,77.0797348022461,25.73,2
-0.6562499403953552,-0.4731600880622864,0.593732476234436,0.0699502080678939,3.713382482528688,77.079833984375,25.73,2
-0.661847710609436,-0.4715801477432251,0.5937387347221375,0.1344544142484665,3.71337366104126,77.07989501953125,25.73,2
-0.659842312335968,-0.4705662131309509,0.5937427878379822,0.3621434271335602,3.713367938995361,77.0799331665039,25.73,2
-0.6585553288459778,-0.4699155390262604,0.5937453508377075,0.5834952592849731,3.713364362716675,77.0799560546875,25.73,2
-0.65772944688797,-0.4694979786872864,0.5937470197677612,0.628816545009613,3.713361978530884,77.07997131347656,25.73,2
-0.6571994423866272,-0.4692299962043762,0.5881503224372864,0.4429466128349304,3.712442398071289,77.0799789428711,25.73,2
-0.656859278678894,-0.4690580368041992,0.5901564359664917,0.151702344417572,3.7118520736694336,77.07998657226562,25.73,2
-0.6566410064697266,-0.4689476788043976,0.5914438366889954,-0.0280363019555807,3.711473226547241,77.07999420166016,25.73,2
-0.6565009355545044,-0.4688768684864044,0.592270016670227,-0.0645655691623687,3.7112302780151367,77.07999420166016,25.73,2
-0.6620088219642639,-0.4688314199447632,0.5928002595901489,-0.1560768783092498,3.711074352264404,77.07999420166016,25.73,2
-0.6599456667900085,-0.4688022434711456,0.5931404829025269,-0.3760194480419159,3.7109742164611816,77.07999420166016,25.73,2
-0.6586216688156128,-0.4687835276126861,0.5933588743209839,-0.5243310928344727,3.7109100818634033,77.07999420166016,25.73,2
-0.6577720046043396,-0.4687715172767639,0.5934990048408508,-0.4762059450149536,3.7108688354492174,77.07999420166016,25.73,2
-0.6572267413139343,-0.4687637984752655,0.5935889482498169,-0.3629227876663208,3.710383415222168,77.49557495117188,25.73,2
-0.656876802444458,-0.4687588512897491,0.5936466455459595,-0.2436506748199463,3.710071802139282,77.76226806640625,25.73,2
-0.6566522717475891,-0.468755692243576,0.593683660030365,0.0120200859382748,3.709872007369995,77.93341827392578,25.73,2
-0.6565081477165222,-0.4687536656856537,0.5937074422836304,0.3444758951663971,3.70974373817444,78.04325103759766,25.73,2
-0.6564156413078308,-0.4687523543834686,0.5937227010726929,0.4754276573657989,3.709661483764648,78.11373901367188,25.73,2
-0.6563562750816345,-0.4687515199184418,0.593732476234436,0.3265975713729858,3.709608554840088,78.15897369384766,25.73,2
-0.6619159579277039,-0.4687509834766388,0.5937387347221375,0.0842013657093048,3.709574699401856,78.18800354003906,25.73,2
-0.665483832359314,-0.4687506258487701,0.5937427878379822,-0.0856848508119583,3.709553003311157,78.20663452148438,25.73,2
-0.662175714969635,-0.468750387430191,0.5937453508377075,-0.1445519924163818,3.7099978923797607,78.21858978271484,25.73,2
-0.6656505465507507,-0.4687502384185791,0.5937470197677612,-0.0999303013086319,3.710283517837525,78.22625732421875,25.73,2
-0.6678804755210876,-0.4687501490116119,0.5937480926513672,-0.0784598141908645,3.7104666233062735,78.2311782836914,25.73,2
-0.6637137532234192,-0.4687500894069671,0.5937487483024597,-0.2258972078561782,3.710584163665772,78.23433685302734,25.73,2
-0.6610398292541504,-0.4687500596046448,0.5937492251396179,-0.4351564645767212,3.710659742355346,78.23636627197266,25.73,2
-0.6593238115310669,-0.4687500298023224,0.5937495231628418,-0.4225614070892334,3.710708141326904,78.2376708984375,25.73,2
-0.6582226157188416,-0.4687500298023224,0.5937497019767761,-0.1278725713491439,3.710739135742188,78.2385025024414,25.73,2
-0.6575158834457397,-0.4687500298023224,0.5937498211860657,0.2403705418109893,3.710759162902832,78.2390365600586,25.73,2
-0.6570623517036438,-0.4687500298023224,0.5937498807907104,0.4695226550102234,3.7089359760284415,78.2393798828125,25.73,2
-0.6567713022232056,-0.4687500298023224,0.5937499403953552,0.5198497176170349,3.707766056060791,78.2396011352539,25.73,2
-0.6621823310852051,-0.4687500298023224,0.5937499403953552,0.4804952144622803,3.7070152759552,78.23974609375,25.73,2
-0.660057008266449,-0.4687500298023224,0.5937499403953552,0.5053958296775818,3.706533432006836,78.23983764648438,25.73,2
-0.6586931347846985,-0.4687500298023224,0.5937499403953552,0.6324354410171509,3.706224203109741,78.23989868164062,25.73,2
-0.6522200703620911,-0.4687500298023224,0.5937499403953552,0.6996318697929382,3.7060256004333496,78.23993682861328,25.73,2
-0.6536638140678406,-0.4687500298023224,0.5881521701812744,0.5206349492073059,3.705898284912109,78.23995971679688,25.73,2
-0.6545903086662292,-0.4687500298023224,0.5901576280593872,0.1370718777179718,3.7058165073394775,78.23997497558594,25.73,2
-0.6551849246025085,-0.4687500298023224,0.5914446115493774,-0.2058063745498657,3.703468799591065,78.23998260498047,25.73,2
-0.6555665135383606,-0.4687500298023224,0.59227055311203,-0.3613595068454742,3.701961994171143,78.239990234375,25.73,2
-0.6558113694190979,-0.4687500298023224,0.5928005576133728,-0.4540194272994995,3.7009952068328857,78.239990234375,25.73,2
-0.6559684872627258,-0.4687500298023224,0.593140721321106,-0.5922998785972595,3.700374603271485,78.239990234375,25.73,2
-0.6560693383216858,-0.4687500298023224,0.5933589935302734,-0.6308842301368713,3.6999764442443848,78.239990234375,25.73,2
-0.6561340689659119,-0.4687500298023224,0.5934990644454956,-0.4191955029964447,3.699720859527588,78.239990234375,25.73,2
-0.6561756134033203,-0.4687500298023224,0.5935889482498169,-0.1185473725199699,3.699556827545166,78.239990234375,25.73,2
-0.6562022566795349,-0.4687500298023224,0.5936466455459595,-0.0223382413387298,3.6994516849517822,78.239990234375,25.73,2
-0.6562193632125854,-0.4687500298023224,0.593683660030365,-0.1648035645484924,3.7003023624420166,78.60900115966797,25.73,2
-0.6562303304672241,-0.4687500298023224,0.5937074422836304,-0.3278811275959015,3.700848340988159,78.84580993652344,25.73,2
-0.6562373638153076,-0.4687500298023224,0.5937227010726929,-0.3752137124538421,3.7011985778808594,78.9977798461914,25.73,2
-0.6562418937683105,-0.4743478000164032,0.593732476234436,-0.359015554189682,3.701423406600952,79.09530639648438,25.73,2
-0.6562448143959045,-0.4779401123523712,0.5937387347221375,-0.3378728032112121,3.7015676498413086,79.15789031982422,25.73,2
-0.6562466621398926,-0.4746476709842682,0.5937427878379822,-0.2598182260990143,3.70166015625,79.19805145263672,25.73,2
-0.6562478542327881,-0.4725347757339477,0.5937453508377075,-0.095084860920906,3.701719522476196,79.22382354736328,25.73,2
-0.6562486290931702,-0.4711788594722748,0.5881492495536804,0.1216913610696792,3.701757669448853,79.24036407470703,25.73,2
-0.6562491059303284,-0.4703086912631988,0.5901557803153992,0.2966316342353821,3.7054543495178223,79.2509765625,25.73,2
-0.6562494039535522,-0.4697502851486206,0.5914434194564819,0.3014209568500519,3.707826614379883,79.2577896118164,25.73,2
-0.6562496423721313,-0.4749897122383117,0.592269778251648,0.0895399302244186,3.7093489170074463,79.26216125488281,25.73,2
-0.6562497615814209,-0.4783520698547363,0.5928000807762146,-0.1789884269237518,3.710325956344605,79.26496887207031,25.73,2
-0.6562498211860657,-0.4749120473861694,0.5931404232978821,-0.2474197745323181,3.7109529972076416,79.26676940917969,25.73,2
-0.6562498807907104,-0.4727044403553009,0.5933588147163391,-0.072797954082489,3.711355209350586,79.26792907714844,25.73,2
-0.6562499403953552,-0.471287727355957,0.593498945236206,0.1037506312131881,3.711613416671753,79.26866912841797,25.73,2
-0.6562499403953552,-0.470378577709198,0.5935888886451721,0.0379205793142318,3.711779117584229,79.2691421508789,25.73,2
-0.6562499403953552,-0.4697951376438141,0.5936465859413147,-0.2085321694612503,3.7132625579833984,79.26944732666016,25.73,2
-0.6562499403953552,-0.4694207012653351,0.593683660030365,-0.3523610532283783,3.714214563369751,79.26964569091797,25.73,2
-0.6562499403953552,-0.4691804051399231,0.5937074422836304,-0.2153773158788681,3.714825630187988,79.26976776123047,25.73,2
-0.6562499403953552,-0.4690262079238891,0.5937227010726929,0.0301642846316099,3.7152175903320312,79.26985168457031,25.73,2
-0.6562499403953552,-0.468927264213562,0.593732476234436,0.09817436337471,3.715469121932984,79.26990509033203,25.73,2
-0.6562499403953552,-0.4688637554645538,0.5937387347221375,0.0128465965390205,3.715630531311035,79.26993560791016,25.73,2
-0.6562499403953552,-0.4688230156898498,0.5937427878379822,0.026157084852457,3.715734243392944,79.26995849609375,25.73,2
-0.661847710609436,-0.4687968492507934,0.5937453508377075,0.1994974613189697,3.7158007621765137,79.26997375488281,25.73,2
-0.6654400825500488,-0.4631823003292084,0.5937470197677612,0.4003017246723175,3.714007377624512,79.26998138427734,25.73,2
-0.6621476411819458,-0.4651769697666168,0.5937480926513672,0.5578269362449646,3.712856531143189,79.26998901367188,25.73,2
-0.6600347757339478,-0.4664570391178131,0.5937487483024597,0.6087614893913269,3.712117910385132,79.26998901367188,25.73,2
-0.6586788296699524,-0.4672785103321075,0.5937492251396179,0.5268059372901917,3.711643934249878,79.26998901367188,25.73,2
-0.6634064316749573,-0.4678056836128235,0.5937495231628418,0.4777941703796386,3.711339712142944,79.26998901367188,25.73,2
-0.6608425974845886,-0.4681439995765686,0.5937497019767761,0.5788965225219727,3.71114444732666,79.26998901367188,25.73,2
-0.6591972708702087,-0.4683611094951629,0.5937498211860657,0.5900396108627319,3.711019277572632,79.26998901367188,25.73,2
-0.6581413745880127,-0.4685004353523254,0.5937498807907104,0.292671650648117,3.7109389305114746,79.26998901367188,25.73,2
-0.6630615592002869,-0.4685898423194885,0.5937499403953552,-0.1274468451738357,3.7131826877594,79.62467193603516,25.73,2
-0.6606212854385376,-0.4686472117900848,0.5937499403953552,-0.3934721350669861,3.714622735977173,79.85228729248047,25.73,2
-0.659055233001709,-0.468684047460556,0.5937499403953552,-0.4638797342777252,3.7155468463897705,79.99835205078125,25.73,2
-0.6580502390861511,-0.4687076807022095,0.5937499403953552,-0.4051685929298401,3.716139793395996,80.09208679199219,25.73,2
-0.6630030870437622,-0.4687228500843048,0.5937499403953552,-0.3173350989818573,3.716520309448242,80.1522445678711,25.73,2
-0.6605837345123291,-0.4687325656414032,0.5937499403953552,-0.3541155755519867,3.716764450073242,80.19084930419922,25.73,2
-0.6590311527252197,-0.4687388241291046,0.5937499403953552,-0.5210222005844116,3.716921091079712,80.21562194824219,25.73,2
-0.6636325716972351,-0.4687428176403045,0.5937499403953552,-0.628133237361908,3.7170217037200928,80.23152160644531,25.73,2
-0.6665855050086975,-0.4687453806400299,0.5937499403953552,-0.5607330799102783,3.715709209442138,80.2417221069336,25.73,2
-0.6684805154800415,-0.4631492495536804,0.5937499403953552,-0.4386628866195678,3.714866876602173,80.2482681274414,25.73,2
-0.664098858833313,-0.4595579802989959,0.5881521701812744,-0.3639078438282013,3.7143263816833496,80.25247192382812,25.73,2
-0.66688472032547,-0.4628510773181915,0.5901576280593872,-0.2227873802185058,3.713979482650757,80.25517272949219,25.73,2
-0.6630747318267822,-0.4649644196033478,0.5914446115493774,0.0182437822222709,3.713756799697876,80.25690460205078,25.73,2
-0.6662275195121765,-0.4663206338882446,0.5866727828979492,0.1729236990213394,3.713613986968994,80.25801086425781,25.73,2
-0.6682507991790771,-0.4615932106971741,0.5892082452774048,0.146798238158226,3.71352219581604,80.25872802734375,25.73,2
-0.6695491671562195,-0.4585594236850738,0.5908353924751282,0.1157021149992942,3.713463306427002,80.25918579101562,25.73,2
-0.6703824400901794,-0.4622102677822113,0.5918795466423035,0.2068062573671341,3.715261697769165,80.25947570800781,25.75,2
-0.6653193831443787,-0.4645531773567199,0.5925496220588684,0.3010973930358886,3.7164156436920166,80.2596664428711,25.75,2
-0.6676679849624634,-0.4660567343235016,0.5929796695709229,0.2756262123584747,3.717156171798706,80.2597885131836,25.75,2
-0.6691752076148987,-0.4614238440990448,0.5932556390762329,0.1625507324934005,3.7176315784454346,80.2598648071289,25.75,2
-0.670142412185669,-0.4640485048294067,0.5878349542617798,0.0792376697063446,3.7179365158081055,80.2599105834961,25.75,2
-0.6707631349563599,-0.4601350724697113,0.5843563079833984,0.1225016862154007,3.718132257461548,80.25994110107422,25.75,2
-0.6711614727973938,-0.4576236605644226,0.582123875617981,0.2469955831766128,3.7182579040527344,80.25996398925781,25.75,2
-0.6714171171188354,-0.4560119807720184,0.5806912779808044,0.2910628616809845,3.718338489532471,80.25997924804688,25.75,2
-0.6715811491012573,-0.4549776911735534,0.579771876335144,0.2011176943778991,3.715177059173584,80.2599868774414,25.75,2
-0.6716864109039307,-0.4543139636516571,0.5791818499565125,0.1004051640629768,3.7131481170654297,80.25999450683594,25.75,2
-0.671754002571106,-0.4538879990577698,0.5788032412528992,0.0715994089841842,3.711846113204956,80.25999450683594,25.75,2
-0.6717973351478577,-0.4536146521568298,0.5785602331161499,0.110434740781784,3.711010694503784,80.25999450683594,25.75,2
-0.6718251705169678,-0.4534392356872558,0.5784043073654175,0.1568524688482284,3.7104744911193848,80.25999450683594,25.75,2
-0.6718430519104004,-0.4533266723155975,0.5839020013809204,0.1329020708799362,3.710130453109741,80.25999450683594,25.75,2
-0.6718544960021973,-0.4532544314861297,0.5818323493003845,0.0422979965806007,3.709909677505493,80.25999450683594,25.75,2
-0.6718618273735046,-0.4532080590724945,0.5805041790008545,0.0020663901232182,3.709767818450928,80.25999450683594,25.75,2
-0.6718665361404419,-0.4531783163547516,0.5796518325805664,0.0514821484684944,3.708758592605591,80.600341796875,25.75,2
-0.6718695759773254,-0.4531592130661011,0.5791048407554626,0.1333504021167755,3.708111047744751,80.81875610351562,25.75,2
-0.671871542930603,-0.4531469643115997,0.5787538290023804,0.2396273612976074,3.707695484161377,80.95892333984375,25.75,2
-0.6718727946281433,-0.4531390964984894,0.5785285234451294,0.3221600949764251,3.7074286937713614,81.04887390136719,25.75,2
-0.6718735694885254,-0.4531340599060058,0.5783839821815491,0.2783953249454498,3.707257509231568,81.10659790039062,25.75,2
-0.6774718761444092,-0.4531308114528656,0.5782911777496338,0.1535800695419311,3.7071475982666016,81.14363861083984,25.75,2
-0.675466775894165,-0.4531287252902984,0.5782316327095032,0.0806459710001945,3.707077026367188,81.16741180419922,25.75,2
-0.6741799712181091,-0.4587251543998718,0.5781934261322021,0.0159281846135854,3.707031726837158,81.18267059326172,25.75,2
-0.6733542084693909,-0.4567188620567322,0.5781689286231995,-0.1223335042595863,3.706084966659546,81.19245910644531,25.75,2
-0.6728242635726929,-0.4554313421249389,0.5781531929969788,-0.207479327917099,3.705477476119995,81.19874572753906,25.75,2
-0.6724841594696045,-0.4602028429508209,0.5781431198120117,-0.140313446521759,3.705087661743164,81.20277404785156,25.75,2
-0.6722659468650818,-0.4576671421527862,0.5781366229057312,-0.025558728724718,3.7048373222351074,81.20536041259766,25.75,2
-0.6721258759498596,-0.4560398757457733,0.5781324505805969,0.0194236375391483,3.704676628112793,81.20702362060547,25.75,2
-0.6720359921455383,-0.4605933725833893,0.578129768371582,0.0196301229298114,3.704573631286621,81.20809173583984,25.75,2
-0.6719782948493958,-0.4635155498981476,0.5781280398368835,0.0340929366648197,3.70450758934021,81.20877838134766,25.75,2
-0.6719412803649902,-0.4653908312320709,0.5781269669532776,0.1257735788822174,3.70446515083313,81.20921325683594,25.75,2
-0.6719175577163696,-0.4665942788124084,0.5781262516975403,0.3099990785121918,3.699388265609741,81.2094955444336,25.73,2
-0.6719022989273071,-0.4673665761947632,0.5781257748603821,0.421059250831604,3.6961302757263184,81.20967864990234,25.73,2
-0.671892523765564,-0.4678621888160705,0.5781254768371582,0.2630464434623718,3.6940393447875977,81.20979309082031,25.73,2
-0.6718862652778625,-0.468180239200592,0.5781252980232239,-0.0497290529310703,3.692697525024414,81.20986938476562,25.73,2
-0.6718822121620178,-0.4683843553066253,0.5781251788139343,-0.1859640032052993,3.691836357116699,81.20991516113281,25.73,2
-0.6718796491622925,-0.4685153365135193,0.5781251192092896,-0.0870978087186813,3.691283702850342,81.20994567871094,25.73,2
-0.6718779802322388,-0.468599408864975,0.5781250596046448,-0.0845549628138542,3.6909291744232178,81.20996856689453,25.73,2
-0.6718769073486328,-0.4686533510684967,0.5781250596046448,-0.3516162633895874,3.690701723098755,81.20997619628906,25.73,2
-0.6718762516975403,-0.4686879813671112,0.5781250596046448,-0.6376432776451111,3.6896374225616455,81.2099838256836,25.73,2
-0.6718757748603821,-0.4687102138996124,0.5781250596046448,-0.7137216925621033,3.68895435333252,81.20999145507812,25.73,2
-0.6718754768371582,-0.4687244594097137,0.5781250596046448,-0.6335716843605042,3.688516139984131,81.20999145507812,25.73,2
-0.6718752980232239,-0.4687336087226867,0.5781250596046448,-0.478241354227066,3.688234806060791,81.20999145507812,25.73,2
-0.6718751788139343,-0.4687394797801971,0.5781250596046448,-0.2639168798923492,3.688054323196411,81.20999145507812,25.73,2
-0.6718751192092896,-0.468743234872818,0.5781250596046448,-0.0654719695448875,3.687938451766968,81.20999145507812,25.73,2
-0.6718750596046448,-0.4631478786468506,0.5781250596046448,0.0475482530891895,3.687864065170288,81.20999145507812,25.73,2
-0.6718750596046448,-0.4595571160316467,0.5781250596046448,0.1057478189468383,3.687816381454468,81.20999145507812,25.73,2
-0.6718750596046448,-0.4572527706623077,0.5781250596046448,0.089358314871788,3.684572458267212,81.4930191040039,25.73,2
-0.6718750596046448,-0.4613717496395111,0.5781250596046448,0.0107715418562293,3.682490825653076,81.67465209960938,25.73,2
-0.6718750596046448,-0.4640150666236877,0.5781250596046448,0.0463208854198455,3.68115496635437,81.79121398925781,25.73,2
-0.6718750596046448,-0.4601136147975921,0.5781250596046448,0.219602569937706,3.680297613143921,81.86601257324219,25.73,2
-0.6718750596046448,-0.4576098918914795,0.5781250596046448,0.2304926812648773,3.6797473430633545,81.91401672363281,25.73,2
-0.6774728298187256,-0.4616009294986725,0.5781250596046448,-0.0921156257390976,3.679394245147705,81.94482421875,25.73,2
-0.6754673719406128,-0.464162141084671,0.5781250596046448,-0.5069364309310913,3.679167747497559,81.96459197998047,25.73,2
-0.6741803884506226,-0.4658057689666748,0.5781250596046448,-0.697910487651825,3.679022312164306,81.97727966308594,25.73,2
-0.67335444688797,-0.4668605625629425,0.5781250596046448,-0.6090946793556213,3.6812243461608887,81.98542022705078,25.73,2
-0.6728244423866272,-0.4675374627113342,0.5781250596046448,-0.3944644629955292,3.682637453079224,81.99064636230469,25.73,2
-0.672484278678894,-0.4623740911483764,0.5781250596046448,-0.1958233714103698,3.683544397354126,81.9939956665039,25.73,2
-0.6778637766838074,-0.4590605199337005,0.5781250596046448,-0.0611818023025989,3.684126377105713,81.99614715576172,25.73,2
-0.6757182478904724,-0.4569340646266937,0.5781250596046448,0.0288059804588556,3.684499979019165,81.99752807617188,25.73,2
-0.6743413805961609,-0.4611672163009643,0.5781250596046448,0.1116329804062843,3.684739589691162,81.9984130859375,25.73,2
-0.6734578013420105,-0.4582860171794891,0.5781250596046448,0.1970297694206237,3.6848933696746826,81.99898529052734,25.73,2
-0.6728907227516174,-0.4564370512962341,0.5781250596046448,0.2303370535373687,3.684992074966431,81.99935150146484,25.73,2
-0.6725268363952637,-0.455250471830368,0.5781250596046448,0.1299041807651519,3.6818418502807617,81.99958038330078,25.73,2
-0.6722933053970337,-0.45448899269104,0.5781250596046448,-0.0241122469305992,3.67982029914856,81.9997329711914,25.73,2
-0.6721434593200684,-0.454000324010849,0.5781250596046448,0.016769329085946,3.678522825241089,81.99983215332031,25.73,2
-0.6720472574234009,-0.4536867439746856,0.5781250596046448,0.2472115904092788,3.677690267562866,81.99989318847656,25.73,2
-0.6719855666160583,-0.4534854888916015,0.5781250596046448,0.3270272314548492,3.6771559715271,81.99993133544922,25.73,2
-0.6719459295272827,-0.4533563554286957,0.5781250596046448,0.1417983025312423,3.676813125610352,81.99995422363281,25.73,2
-0.6719205379486084,-0.4532734751701355,0.5781250596046448,-0.0343921519815921,3.676593065261841,81.99996948242188,25.73,2
-0.6719042062759399,-0.4532202780246734,0.5781250596046448,-0.0256534796208143,3.6764519214630127,81.9999771118164,25.73,2
-0.6718937158584595,-0.4587839245796203,0.5781250596046448,0.1626658588647842,3.675902366638184,81.99998474121094,25.73,2
-0.6718870401382446,-0.4567565619945526,0.5781250596046448,0.4984729290008545,3.675549745559693,81.99999237060547,25.73,2
-0.6718827486038208,-0.4554555416107178,0.5781250596046448,0.7748783230781555,3.675323486328125,81.99999237060547,25.73,2
-0.6718799471855164,-0.4546205997467041,0.5781250596046448,0.7301397323608398,3.675178289413452,81.99999237060547,25.73,2
-0.6718781590461731,-0.4540847837924957,0.5781250596046448,0.3933275640010834,3.675085067749024,81.99999237060547,25.73,2
-0.6718770265579224,-0.4537409245967865,0.5781250596046448,-0.0485213436186313,3.675025224685669,81.99999237060547,25.73,2
-0.6718763113021851,-0.453520268201828,0.5781250596046448,-0.4180563688278198,3.6749868392944336,81.99999237060547,25.73,2
-0.6718758344650269,-0.4533786475658417,0.5781250596046448,-0.5118996500968933,3.674962043762207,81.99999237060547,25.73,2
-0.671875536441803,-0.4532877802848816,0.5781250596046448,-0.2353607714176178,3.671273708343506,82.26152801513672,25.73,2
-0.6718753576278687,-0.4588272273540497,0.5781250596046448,0.1570605039596557,3.6689066886901855,82.42935943603516,25.73,2
-0.6718752384185791,-0.4567843675613403,0.5781250596046448,0.3300772309303283,3.6673877239227295,82.53706359863281,25.73,2
-0.6718751788139343,-0.4554733633995056,0.5781250596046448,0.2261548638343811,3.6664130687713614,82.60618591308594,25.73,2
-0.6774728894233704,-0.454632043838501,0.5781250596046448,0.0054127294570207,3.6657874584198,82.65054321289062,25.73,2
-0.6754674315452576,-0.4540921449661255,0.5837228298187256,-0.1219165623188018,3.6653859615325928,82.67900848388672,25.73,2
-0.6797782182693481,-0.4537456631660461,0.5817173719406128,-0.0245003961026668,3.665128231048584,82.69728088378906,25.73,2
-0.6825445890426636,-0.4535233080387115,0.5804303884506226,0.2243096232414245,3.6649630069732666,82.7090072631836,25.73,2
-0.6787221431732178,-0.4533806145191192,0.57960444688797,0.3696512579917907,3.664397954940796,82.7165298461914,25.73,2
-0.6762691140174866,-0.4532890319824219,0.5790744423866272,0.2408034652471542,3.6640355587005615,82.72135925292969,25.73,2
-0.6746948957443237,-0.4532302618026733,0.578734278678894,-0.0102646732702851,3.6638028621673584,82.72445678710938,25.73,2
-0.6792824268341064,-0.4531925618648529,0.5785160064697266,-0.0674910619854927,3.663653612136841,82.7264404296875,25.73,2
-0.6766286492347717,-0.4531683623790741,0.5783759355545044,0.1107388734817504,3.663557767868042,82.72771453857422,25.73,2
-0.6749256253242493,-0.4531528353691101,0.5782860517501831,0.2681075036525726,3.663496255874634,82.72853088378906,25.73,2
-0.6738327145576477,-0.4587406516075134,0.5782283544540405,0.2508726119995117,3.663456678390503,82.72905731201172,25.73,2
-0.6731313467025757,-0.4567288160324096,0.578191339969635,0.1144221201539039,3.663431406021118,82.7293930053711,25.73,2
-0.6726812720298767,-0.4554377198219299,0.5781675577163696,-0.0447954684495925,3.6620380878448486,82.7296142578125,25.73,2
-0.6723924279212952,-0.4546091556549072,0.5781522989273071,-0.1003986671566963,3.661143779754639,82.72975158691406,25.73,2
-0.6722070574760437,-0.4540774524211883,0.5837402939796448,0.0537949129939079,3.660569906234741,82.72984313964844,25.73,2
-0.672088086605072,-0.4537362158298492,0.5817285776138306,0.2530595958232879,3.660201787948608,82.72990417480469,25.73,2
-0.6720117330551147,-0.4535172283649444,0.5804375410079956,0.205389991402626,3.659965515136719,82.72994232177734,25.73,2
-0.6719627380371094,-0.4533767104148865,0.5796090364456177,-0.0294084195047616,3.65981388092041,82.72996520996094,25.73,2
-0.6775290966033936,-0.4532865285873413,0.5790773630142212,-0.1693408042192459,3.6597166061401367,82.72998046875,25.73,2
-0.6811012625694275,-0.4532286524772644,0.5787361860275269,-0.1695769727230072,3.659654140472412,82.72998809814453,25.73,2
-0.683393657207489,-0.4531915187835693,0.5785171985626221,-0.2198845893144607,3.655482530593872,82.72999572753906,25.73,2
-0.6792669892311096,-0.4587654769420624,0.5783767104148865,-0.363228976726532,3.6528053283691406,82.72999572753906,25.73,2
-0.676618754863739,-0.4623425006866455,0.5782865285873413,-0.4158107936382293,3.651087284088135,82.72999572753906,25.73,2
-0.6749192476272583,-0.4590402543544769,0.5782286524772644,-0.3026691973209381,3.649984836578369,82.72999572753906,25.73,2
-0.6738286018371582,-0.4625188410282135,0.5837892889976501,-0.1225841492414474,3.649277448654175,82.72999572753906,25.73,2
-0.6731287240982056,-0.4647512137889862,0.5817599892616272,0.1076264828443527,3.648823499679565,82.72999572753906,25.73,2
-0.6726795434951782,-0.4661838114261627,0.5804577469825745,0.4165783226490021,3.6485321521759033,82.72999572753906,25.73,2
-0.6723912954330444,-0.4615053832530975,0.5796220302581787,0.6327586770057678,3.6483449935913086,82.72999572753906,25.73,2
-0.6722063422203064,-0.4641008079051971,0.5790857076644897,0.5350407958030701,3.6505203247070312,82.95211791992188,25.73,2
-0.6720876097679138,-0.465766429901123,0.5787415504455566,0.2573765516281128,3.651916265487671,83.09465789794922,25.73,2
-0.6720114350318909,-0.4668353199958801,0.578520655632019,0.1150134056806564,3.652812242507935,83.1861343383789,25.73,2
-0.671962559223175,-0.4675212800502777,0.5783789157867432,0.0881392881274223,3.653387069702149,83.24484252929688,25.73,2
-0.6663334369659424,-0.4679614901542663,0.5782879590988159,-0.0831577256321907,3.6537561416625977,83.28251647949219,25.73,2
-0.6683187484741211,-0.4682439863681793,0.5782296061515808,-0.3256416022777557,3.6539928913116455,83.30669403076172,25.73,2
-0.6695927977561951,-0.4684252738952636,0.5781921148300171,-0.3200378715991974,3.654144763946533,83.32220458984375,25.73,2
-0.6704103946685791,-0.4685416221618652,0.5781680941581726,-0.0979046002030372,3.6542422771453857,83.33216094970703,25.73,2
-0.6709350943565369,-0.4686162769794464,0.5781526565551758,0.0410651490092277,3.65292763710022,83.33855438232422,25.73,2
-0.671271800994873,-0.4686641991138458,0.5781427621841431,0.0478487014770507,3.6520841121673584,83.3426513671875,25.73,2
-0.6714879274368286,-0.4686949253082275,0.5781363844871521,0.0127936657518148,3.6515426635742174,83.34528350830078,25.73,2
-0.671626627445221,-0.4687146544456482,0.5781323313713074,-0.0670238435268402,3.651195287704468,83.34696960449219,25.73,2
-0.6717156171798706,-0.4687273204326629,0.5781297087669373,-0.1289938539266586,3.650972366333008,83.34805297851562,25.73,2
-0.6717727184295654,-0.4687354564666748,0.5781280398368835,-0.0827808305621147,3.650829315185547,83.34874725341797,25.73,2
-0.6718093752861023,-0.4687406718730926,0.5781269669532776,-0.0387936681509017,3.6507375240325928,83.34919738769531,25.73,2
-0.6718328595161438,-0.4687440097332001,0.5781262516975403,-0.1287902444601059,3.650678634643554,83.3494873046875,25.73,2
-0.671847939491272,-0.468746155500412,0.5781257748603821,-0.251031219959259,3.651099681854248,83.34967041015625,25.73,2
-0.6662598848342896,-0.4687475264072418,0.5781254768371582,-0.2255837470293045,3.651370048522949,83.34978485107422,25.73,2
-0.668271541595459,-0.4687484204769134,0.5725275278091431,-0.0516197048127651,3.651543378829956,83.34986114501953,25.73,2
-0.6695625185966492,-0.4687489867210388,0.5689350962638855,0.1245067715644836,3.651654720306397,83.34990692138672,25.73,2
-0.6703909635543823,-0.4687493443489074,0.5722274780273438,0.2052914202213287,3.651726245880127,83.34993743896484,25.73,2
-0.6709226369857788,-0.4687495827674866,0.574340283870697,0.224891185760498,3.6517720222473145,83.34996032714844,25.73,2
-0.6712638139724731,-0.4687497317790985,0.5756961703300476,0.3019555509090423,3.651801347732544,83.3499755859375,25.73,2
-0.6714828014373779,-0.4687498211860657,0.5765663385391235,0.4373928308486938,3.651820182800293,83.34998321533203,25.73,2
-0.6716232895851135,-0.4687498807907104,0.5715269446372986,0.4239965677261352,3.649536848068237,83.34999084472656,25.73,2
-0.6717134714126587,-0.4687499105930328,0.5682929754257202,0.118045836687088,3.648071527481079,83.34999084472656,25.73,2
-0.6717713475227356,-0.4687499403953552,0.5718153715133667,-0.332658588886261,3.647131204605103,83.34999084472656,25.73,2
-0.6718084812164307,-0.4687499701976776,0.5684780478477478,-0.7293720841407776,3.646527767181397,83.34999084472656,25.73,2
-0.6774300932884216,-0.4687499701976776,0.571934163570404,-0.9588818550109864,3.646140575408936,83.34999084472656,25.73,2
-0.6810377240180969,-0.4687499701976776,0.5685542821884155,-0.8983786702156067,3.645892143249512,83.34999084472656,25.73,2
-0.6777551174163818,-0.4687499701976776,0.5663852691650391,-0.6087709069252014,3.6457326412200928,83.34999084472656,25.73,2
-0.6756485104560852,-0.4687499701976776,0.5705910921096802,-0.3512657880783081,3.645630359649658,83.34999084472656,25.73,2
-0.6742966175079346,-0.4687499701976776,0.5732901692390442,-0.1466054916381836,3.6483190059661865,83.56136322021484,25.73,2
-0.6790268421173096,-0.4687499701976776,0.575022280216217,0.1602798998355865,3.650044441223145,83.69701385498047,25.73,2
-0.6820623874664307,-0.4631521999835968,0.5761338472366333,0.4432030916213989,3.651151657104492,83.78406524658203,25.73,2
-0.6840104460716248,-0.4595598876476288,0.5768471956253052,0.4814639091491699,3.651862144470215,83.83992767333984,25.73,2
-0.6852605938911438,-0.4572545289993286,0.5773049592971802,0.3089758157730102,3.652318239212036,83.87577819824219,25.73,2
-0.6804651021957397,-0.4557750821113586,0.5775987505912781,0.0764753073453903,3.6526107788085938,83.89878845214844,25.73,2
-0.6773876547813416,-0.4548256695270538,0.5777872800827026,-0.0655649751424789,3.652798652648926,83.9135513305664,25.73,2
-0.6754127144813538,-0.4542163908481598,0.5779082775115967,0.0080802319571375,3.652919292449951,83.92302703857422,25.73,2
-0.6741452813148499,-0.4538253843784332,0.577985942363739,0.212974801659584,3.6548330783844,83.92910766601562,25.73,2
-0.6733319163322449,-0.459172248840332,0.5780357718467712,0.3014734387397766,3.656061172485352,83.93301391601562,25.73,2
-0.6728099584579468,-0.4626035392284393,0.5780677199363708,0.1039039120078086,3.656849384307861,83.93551635742188,25.73,2
-0.6724749803543091,-0.464805543422699,0.5780882239341736,-0.2879954278469085,3.657355070114136,83.93712615966797,25.73,2
-0.6778578162193298,-0.4606209099292755,0.578101396560669,-0.5645718574523926,3.657679557800293,83.93815612792969,25.73,2
-0.6757144331932068,-0.4579354524612427,0.578109860420227,-0.4733695685863495,3.657887935638428,83.9388198852539,25.73,2
-0.6743389368057251,-0.4618098437786102,0.5781152844429016,-0.1174874082207679,3.658021688461304,83.93924713134766,25.73,2
-0.6734561920166016,-0.4642962217330932,0.5781187415122986,0.1503056138753891,3.65810751914978,83.93951416015625,25.73,2
-0.6728897094726562,-0.4658918082714081,0.5781210064888,0.1358658224344253,3.660916805267334,83.93968963623047,25.73,2
-0.6725261807441711,-0.4613180160522461,0.5781224370002747,0.0047916234470903,3.6627197265625,83.93980407714844,25.73,2
-0.6778906583786011,-0.4583828151226043,0.5781233310699463,0.0138227147981524,3.66387677192688,83.93987274169922,25.73,2
-0.6813333034515381,-0.4564991593360901,0.578123927116394,0.1342607736587524,3.664619207382202,83.9399185180664,25.73,2
-0.6835425496101379,-0.4552903473377228,0.5781242847442627,0.1649775058031082,3.665095567703247,83.93994903564453,25.73,2
-0.6793625354766846,-0.4601123631000519,0.5781245231628418,0.0772124603390693,3.6654014587402335,83.93997192382812,25.73,2
-0.6766800880432129,-0.457609087228775,0.5781247019767761,-0.0364313013851642,3.665597677230835,83.93997955322266,25.73,2
-0.6805564165115356,-0.4616003930568695,0.5725270509719849,-0.1523522287607193,3.6657235622406006,83.93998718261719,25.73,2
