acc_x,acc_y,acc_z,bvp,eda,hr,temp,label
0.0,0.0,0.0,0.0,0.0,0.0,28.89,0
-0.0729166641831398,-0.1484374850988388,0.0260416641831398,1.7116665840148926,0.1151576563715934,12.374999046325684,28.89,0
-0.1665396392345428,-0.3475609719753265,0.0651676878333091,4.18219518661499,0.2696374654769897,28.975608825683597,28.89,0
-0.2579422891139984,-0.5307309031486511,0.1041839718818664,6.634119510650635,0.4040082991123199,43.415283203125,28.89,0
-0.3353018462657928,-0.6430104374885559,0.1326484531164169,10.014995574951172,0.5020390748977661,53.94980239868164,28.89,0
-0.3163111507892608,-0.7135387063026428,0.1409406661987304,14.56312084197998,0.5684100389480591,61.08211898803711,28.89,0
-0.3316158950328827,-0.7764745950698853,0.1463815569877624,18.393190383911133,0.611958920955658,65.7619400024414,28.89,0
-0.3750040531158447,-0.8339731097221375,0.1499053537845611,20.47738265991211,0.6401634216308594,68.79283142089844,28.89,0
-0.4085436463356018,-0.8766022324562073,0.1354047656059265,22.367351531982425,0.6624581217765808,70.74524688720703,28.89,0
-0.3965331017971039,-0.8704339265823364,0.1316792666912078,26.19951057434082,0.6767879128456116,72.00015258789062,28.89,0
-0.4168029129505157,-0.8832623362541199,0.1236904338002204,32.310150146484375,0.6859897971153259,72.80599212646484,28.89,0
-0.4354115724563598,-0.9026915431022644,0.1185623109340667,38.99454879760742,0.6918966174125671,73.32327270507812,28.89,0
-0.4473548531532287,-0.9095638990402222,0.1152710169553756,44.6961555480957,0.6956877112388611,73.65526580810547,28.89,0
-0.4326289594173431,-0.8915836215019226,0.1187564432621002,51.30369567871094,0.6981207132339478,73.86833190917969,28.89,0
-0.439971774816513,-0.8968379497528076,0.1153954938054084,65.04145812988281,0.6996821165084839,74.00506591796875,28.89,0
-0.4446839988231659,-0.911405384540558,0.118836373090744,87.23493194580078,0.700684130191803,74.09281158447266,28.89,0
-0.4365125000476837,-0.8927651047706604,0.1154467687010765,110.27984619140624,0.7669745683670044,74.14912414550781,28.89,0
-0.4536595940589905,-0.908791720867157,0.107673741877079,125.43777465820312,0.8095160126686096,74.18526458740234,28.89,0
-0.4478702843189239,-0.9022833704948424,0.1082832291722297,129.48329162597656,0.836816668510437,74.20845794677734,28.89,0
-0.4497528374195099,-0.9037044644355774,0.1030765920877456,120.07785034179688,0.854336678981781,74.22334289550781,28.89,0
-0.4509609341621399,-0.9046164155006408,0.1053330451250076,93.43859100341795,0.8655800223350525,74.23289489746094,28.89,0
-0.4461384415626526,-0.8996039032936096,0.1011833325028419,52.38636016845703,0.8727953433990479,74.23902130126953,28.89,0
-0.4486414194107055,-0.901984930038452,0.0985202863812446,4.330997467041016,0.8774257302284241,74.24295806884766,28.89,0
-0.4502477049827575,-0.9035128951072692,0.096811294555664,-46.26607131958008,0.8803972005844116,74.2454833984375,28.89,0
-0.4512785077095032,-0.8988956809043884,0.0957145616412162,-101.2098617553711,0.8391513228416443,74.24710083007812,28.89,0
-0.4519400298595428,-0.9015304446220398,0.0950107425451278,-158.88580322265625,0.8126820921897888,74.24813842773438,28.89,0
-0.4523645639419555,-0.9032212495803832,0.0945590734481811,-212.6474456787109,0.7956956624984741,74.2488021850586,28.89,0
-0.4526369869709015,-0.8987085223197937,0.0942692160606384,-255.77540588378903,0.7847947478294373,74.24922943115234,28.89,0
-0.4472140371799469,-0.9014103412628174,0.0996809750795364,-264.6331787109375,0.777799129486084,74.24950408935547,28.89,0
-0.449331670999527,-0.9031441807746888,0.1031539291143417,-233.3454132080078,0.7733097672462463,74.24967956542969,28.89,0
-0.4506906569004059,-0.8986591100692749,0.1053826734423637,-180.9662170410156,0.7704287767410278,74.24979400634766,28.89,0
-0.4459649920463562,-0.8957808017730713,0.1068129539489746,-124.13001251220705,0.76857990026474,74.24987030029297,28.89,0
-0.4485301077365875,-0.8939337134361267,0.1077308282256126,-72.44060516357422,0.7609662413597107,81.97036743164062,28.79,0
-0.4501762688159942,-0.8983461260795593,0.1083198636770248,-34.84484100341797,0.7560802102088928,86.92494201660156,28.79,0
-0.4456349015235901,-0.895579993724823,0.1086978763341903,-13.45871353149414,0.7529446482658386,90.10449981689452,28.79,0
-0.442720502614975,-0.8882070779800415,0.1089404597878456,-1.2067651748657229,0.7509324550628662,92.14495849609376,28.79,0
-0.4408502280712127,-0.8834755420684814,0.1090961396694183,8.9737548828125,0.7496411204338074,93.45440673828124,28.79,0
-0.4340521991252899,-0.8860368728637695,0.1091960445046424,16.983049392700195,0.7488124370574951,94.29473114013672,28.79,0
-0.4296896159648895,-0.8932783603668213,0.109260156750679,18.10330390930176,0.7482806444168091,94.8340072631836,28.79,0
-0.426889955997467,-0.8979255557060242,0.1037035286426544,13.516423225402832,0.7479393482208252,95.18008422851562,28.79,0
-0.4306910932064056,-0.9009078741073608,0.1057353764772415,9.157710075378418,0.7454249858856201,95.40217590332033,28.79,0
-0.4331304430961609,-0.902821719646454,0.1126370728015899,5.550877094268799,0.7438114285469055,95.5447006225586,28.79,0
-0.4402936398983001,-0.9040499329566956,0.1282617300748825,-4.090147972106934,0.7427759170532227,95.63616180419922,28.79,0
-0.456086128950119,-0.8936426043510437,0.1494842916727066,-25.68227767944336,0.7421113848686218,95.69486236572266,28.79,0
-0.471818596124649,-0.8925614953041077,0.168701484799385,-54.732566833496094,0.7416849136352539,95.73252868652344,28.79,0
-0.5155014395713806,-0.8806721568107605,0.1642406433820724,-75.39594268798828,0.7414112687110901,95.75669860839844,28.79,0
-0.5603278875350952,-0.8618467450141907,0.1557801663875579,-71.46014404296875,0.741235613822937,95.77220916748048,28.79,0
-0.6002904772758484,-0.8329723477363586,0.139155164361,-41.04402542114258,0.7411229014396667,95.78216552734376,28.79,0
-0.6427295207977295,-0.8088446259498596,0.0948995500802993,-5.173836708068848,0.7438048720359802,95.78855895996094,28.79,0
-0.6811599731445312,-0.7989586591720581,0.0664988458156585,19.26786994934082,0.7455260157585144,95.79265594482422,28.79,0
-0.7002246379852295,-0.7926144003868103,0.0314795821905136,32.337867736816406,0.7466305494308472,95.7952880859375,28.79,0
-0.6956659555435181,-0.7773474454879761,0.0146040096879005,38.841007232666016,0.7473393678665161,95.7969741821289,28.79,0
-0.6815448999404907,-0.7563544511795044,0.0149697875604033,40.4169807434082,0.7477942109107971,95.79805755615234,28.79,0
-0.6668850183486938,-0.7540779113769531,0.0152045227587223,42.45654678344727,0.7480860948562622,95.79875183105467,28.79,0
-0.6518793702125549,-0.7582147717475891,0.0209529362618923,50.79085540771485,0.7482734322547913,95.79920196533205,28.79,0
-0.6198585629463196,-0.760869562625885,0.030239712446928,63.12894058227539,0.7483936548233032,95.79949188232422,28.79,0
-0.5881139039993286,-0.7681710124015808,0.0417972058057785,71.30117797851562,0.7493889927864075,95.79967498779295,28.79,0
-0.5621442198753357,-0.7728566527366638,0.0548119135200977,71.2720947265625,0.7500277757644653,95.79978942871094,28.79,0
-0.5398805737495422,-0.7814614176750183,0.0687617808580398,63.47924423217773,0.7504376769065857,95.79986572265624,28.79,0
-0.5143975019454956,-0.8261678814888,0.0945073217153549,52.03318786621094,0.7507007718086243,95.79991149902344,28.79,0
-0.486848384141922,-0.8716512322425842,0.1166271045804023,39.21358871459961,0.7508695721626282,95.79994201660156,28.79,0
-0.4579733908176422,-0.9176331758499146,0.1308223009109497,25.89228630065918,0.7509779334068298,95.79996490478516,28.79,0
-0.4338453114032745,-1.019912838935852,0.11194309592247,14.774735450744627,0.7510474324226379,95.79998016357422,28.79,0
-0.4127635359764099,-1.1247344017028809,0.0886319577693939,8.195430755615234,0.7510920763015747,95.79998779296876,28.79,0
-0.4048322439193725,-1.136025071144104,0.0624766647815704,4.646735191345215,0.7511206865310669,93.36383819580078,28.97,0
-0.4109379351139068,-1.1096841096878052,0.0456917025148868,1.5597245693206787,0.7511390447616577,91.80046081542967,28.97,0
-0.3980628848075866,-1.064791202545166,0.0181267578154802,-1.334897756576538,0.7511508464813232,90.79717254638672,28.97,0
-0.367409348487854,-1.0135903358459473,0.006034935824573,-2.776921272277832,0.7511584162712097,90.1533203125,28.97,0
-0.3477376699447632,-0.9863303899765016,0.0038728744257241,-2.9714832305908203,0.7511633038520813,89.7401351928711,28.97,0
-0.3463090658187866,-0.940847635269165,-0.0031123866792768,-3.304131507873535,0.7511664032936096,89.4749755859375,28.97,0
-0.3565877974033355,-0.8724750280380249,-0.0019973507151007,-4.097983360290527,0.751168429851532,89.3048095703125,28.97,0
-0.3631840944290161,-0.8174018859863281,0.0043159900233149,-4.603848934173584,0.7511696815490723,89.19561004638672,28.97,0
-0.3618194460868835,-0.7764613032341003,0.0139653021469712,-4.4842448234558105,0.7502523064613342,89.12553405761719,28.97,0
-0.3665414750576019,-0.7501879930496216,0.03135322406888,-4.368081569671631,0.7496635913848877,89.08055877685547,28.97,0
-0.3807673454284668,-0.761316180229187,0.0649028941988945,-4.533567428588867,0.7492857575416565,89.05169677734375,28.97,0
-0.3842989206314087,-0.7852509617805481,0.0864331349730491,-4.636184215545654,0.7490432858467102,89.03317260742188,28.97,0
-0.3921630680561065,-0.8006108999252319,0.1058477833867073,-4.31153678894043,0.7488877177238464,89.02128601074219,28.97,0
-0.4084053635597229,-0.8216635584831238,0.1351003050804138,-3.3866817951202397,0.7487878799438477,89.01365661621094,28.97,0
-0.4300242960453033,-0.8463695049285889,0.1538728922605514,-1.721972942352295,0.7487238049507141,89.0087661743164,28.97,0
-0.4606913924217224,-0.9126043319702148,0.1659200638532638,0.6503989696502686,0.7486826777458191,89.00562286376953,28.97,0
-0.4859695434570312,-1.033478856086731,0.1568579226732254,3.322857141494751,0.7468202114105225,89.00360870361328,28.97,0
-0.513387143611908,-1.1558313369750977,0.1510423570871353,5.854714870452881,0.7456250190734863,89.0023193359375,28.97,0
-0.564568817615509,-1.161579132080078,0.141712486743927,8.063474655151367,0.7448579668998718,89.0014877319336,28.97,0
-0.6086098551750183,-1.1036921739578247,0.130127340555191,9.885760307312012,0.7443657517433167,89.0009536743164,28.97,0
-0.620079517364502,-1.0777392387390137,0.122692659497261,11.055198669433594,0.7440498471260071,89.0006103515625,28.97,0
-0.6106467843055725,-1.1506484746932983,0.1123237311840057,11.117822647094728,0.743847131729126,89.0003890991211,28.97,0
-0.571006715297699,-1.2030352354049685,0.1000717803835868,9.707067489624023,0.7437170147895813,89.00025177001953,28.97,0
-0.4951880574226379,-1.152687430381775,0.0978069528937339,6.881465911865234,0.7436335682868958,89.00016021728516,28.97,0
-0.4353364408016205,-1.0811927318572998,0.0963535159826278,3.3234431743621826,0.7440388798713684,89.0000991821289,28.97,0
-0.3969271183013916,-0.9905292987823486,0.0674319118261337,-0.1636364758014679,0.7442989945411682,89.00006103515625,28.97,0
-0.3778760135173797,-0.9155533909797668,0.0320783704519271,-3.311417579650879,0.7444659471511841,89.00003814697266,28.97,0
-0.3600523471832275,-0.8674381971359253,-0.0018050459912046,-6.227126121520996,0.7445730566978455,89.0000228881836,28.97,0
-0.3150274753570556,-0.8477561473846436,-0.0347450226545333,-8.925835609436035,0.7446418404579163,89.00001525878906,28.97,0
-0.2749375700950622,-0.8183320164680481,-0.0558840036392211,-11.40647029876709,0.74468594789505,89.00000762939453,28.97,0
-0.2548079490661621,-0.8218404054641724,-0.0582542344927787,-13.686253547668455,0.7447142601013184,89.00000762939453,28.97,0
-0.2530854642391205,-0.8408852219581604,-0.0709708631038665,-15.468135833740234,0.7447324395179749,89.00000762939453,28.97,0
-0.2519800662994385,-0.8643026351928711,-0.0791316628456115,-16.317874908447266,0.7442851662635803,88.9498519897461,28.93,0
-0.2624662518501282,-0.985688328742981,-0.1011621132493019,-16.186080932617188,0.7439981698989868,88.91766357421875,28.93,0
-0.2635979056358337,-1.119564414024353,-0.1152999922633171,-15.313336372375488,0.7438139915466309,88.89700317382812,28.93,0
-0.2923130095005035,-1.082327365875244,-0.0571995712816715,-13.714312553405762,0.7436957955360413,88.88374328613281,28.93,0
-0.327534019947052,-1.0360395908355713,-0.0031207471620291,-10.886115074157717,0.7436199188232422,88.87523651123047,28.93,0
-0.3277457356452942,-1.0567147731781006,0.042779479175806,-6.215827941894531,0.7435712218284607,88.86978149414062,28.93,0
-0.3446749448776245,-1.0811784267425537,0.1002244725823402,-0.0982832387089729,0.7435399889945984,88.86627960205078,28.93,0
-0.3499413430690765,-1.057693362236023,0.1426871418952942,5.704874515533447,0.7435199618339539,88.86402893066406,28.93,0
-0.3645165562629699,-0.947459876537323,0.16433946788311,9.493494033813477,0.7435070872306824,88.86258697509766,28.93,0
-0.3962612152099609,-0.8655228614807129,0.1838324517011642,10.964680671691896,0.7434988021850586,88.86166381835938,28.93,0
-0.4278286397457123,-0.8241358995437622,0.1851463764905929,10.844779014587402,0.7434934973716736,88.86106872558594,28.93,0
-0.4368912577629089,-0.8143694996833801,0.1803918033838272,9.936675071716309,0.7434900999069214,88.86068725585938,28.93,0
-0.4427071213722229,-0.8136997222900391,0.188536137342453,8.662468910217285,0.7434878945350647,88.86044311523438,28.93,0
-0.4632327258586883,-0.8244654536247253,0.1993604749441146,6.977773666381836,0.7434865236282349,88.86028289794922,28.93,0
-0.5155892968177795,-0.8369720578193665,0.2007091492414474,4.760956764221191,0.7434856295585632,88.86018371582031,28.93,0
-0.5659820437431335,-0.8673892021179199,0.1959768682718277,2.177577018737793,0.7434850335121155,88.86011505126953,28.93,0
-0.6039189696311951,-0.9372891187667848,0.1817444115877151,-0.5478948950767517,0.7434846758842468,88.86007690429688,28.93,0
-0.6226669549942017,-0.993342399597168,0.1670130640268325,-3.142433881759644,0.7434844374656677,88.86004638671875,28.93,0
-0.6402961015701294,-1.0740963220596311,0.157559335231781,-5.051074504852295,0.7434842586517334,88.86003112792969,28.93,0
-0.679598331451416,-1.1035284996032717,0.1514924764633178,-5.828108310699463,0.7434841990470886,88.86002349853516,28.93,0
-0.7216135859489441,-1.1168185472488403,0.1364035755395889,-5.721308708190918,0.7434841394424438,88.86001586914062,28.93,0
-0.7093921303749084,-1.1589339971542358,0.1211226060986518,-5.513050556182861,0.7434840798377991,88.8600082397461,28.93,0
-0.6791580319404602,-1.2139501571655271,0.1225117146968841,-5.687503814697266,0.7434840798377991,88.8600082397461,28.93,0
-0.6037777662277222,-1.226865291595459,0.1178053840994834,-5.584503650665283,0.7434840798377991,88.8600082397461,28.93,0
-0.5274142026901245,-1.1679801940917969,0.0923940390348434,-3.727116107940674,0.7439429759979248,88.8600082397461,28.93,0
-0.4672128856182098,-1.0966044664382937,0.0704887211322784,0.4204732477664947,0.74423748254776,88.8600082397461,28.93,0
-0.41738361120224,-1.0116151571273804,0.0452356040477752,5.435909748077393,0.7444264888763428,88.8600082397461,28.93,0
-0.3854060471057892,-0.9458784461021424,0.0234318319708108,9.324470520019531,0.7445477843284607,88.8600082397461,28.93,0
-0.3536891341209411,-0.8868990540504456,-0.0017561215208843,11.25745964050293,0.7446255683898926,88.8600082397461,28.93,0
-0.3109439313411712,-0.8378539085388184,-0.0179203022271394,11.587966918945312,0.7446755170822144,88.8600082397461,28.93,0
-0.2779147624969482,-0.7951840162277222,-0.0282935425639152,11.06563949584961,0.7447075843811035,88.8600082397461,28.93,0
-0.2623163163661957,-0.7678009271621704,-0.0293527152389287,10.329191207885742,0.744728147983551,88.8600082397461,28.93,0
-0.2635016739368438,-0.7670213580131531,-0.024434657767415,9.47324562072754,0.7433642148971558,88.82059478759766,28.89,0
-0.2698601484298706,-0.7777166366577148,-0.0268763061612844,7.953070640563965,0.7424889206886292,88.79530334472656,28.89,0
-0.2795384228229522,-0.8517535328865051,-0.0172476656734943,5.282951831817627,0.7419272065162659,88.7790756225586,28.89,0
-0.2913471460342407,-0.938450574874878,-0.0110685592517256,1.7172317504882812,0.7415667176246643,88.76866149902344,28.89,0
-0.2989253103733063,-1.0388699769973757,0.0096901590004563,-1.878682374954224,0.741335391998291,88.76197814941406,28.89,0
-0.3205818831920624,-1.0977156162261963,0.0454030074179172,-4.723719596862793,0.7411869168281555,88.7576904296875,28.89,0
-0.3512731194496155,-1.045914888381958,0.1019081026315689,-6.728629112243652,0.7410916686058044,88.75493621826172,28.89,0
-0.3653712272644043,-1.0518566370010376,0.1493653655052185,-8.208724021911621,0.7410305142402649,88.75316619873047,28.89,0
-0.3800163567066192,-1.0668652057647705,0.1686251610517501,-9.004512786865234,0.7414501905441284,88.75202941894531,28.89,0
-0.3782192170619964,-1.026116967201233,0.1809849888086319,-8.454761505126953,0.7417195439338684,88.75130462646484,28.89,0
-0.3714681267738342,-0.9607826471328736,0.1889168173074722,-6.307092666625977,0.741892397403717,88.75083923339844,28.89,0
-0.3839289844036102,-0.9020615220069884,0.1884092390537262,-3.0014169216156006,0.742003321647644,88.75054168701172,28.89,0
-0.4255123138427734,-0.8755732178688049,0.1768879443407058,0.9650018811225892,0.7420744895935059,88.75035095214844,28.89,0
-0.4689914286136627,-0.8697701096534729,0.1638964712619781,5.484420299530029,0.7421201467514038,88.75022888183594,28.89,0
-0.5080893635749817,-0.8828393220901489,0.1555592864751815,10.656075477600098,0.7421494722366333,88.7501449584961,28.89,0
-0.5387779474258423,-0.8856285810470581,0.1614045202732086,16.26779556274414,0.7421683073043823,88.75009155273438,28.89,0
-0.5528743267059326,-0.8650274872779846,0.1707534193992614,21.33076477050781,0.7430985569953918,88.75006103515625,28.89,0
-0.5675183534622192,-0.8686001896858215,0.1655574589967727,24.250289916992188,0.7436955571174622,88.75003814697266,28.89,0
-0.5825138092041016,-0.8932840824127197,0.156625211238861,24.11763000488281,0.7440786957740784,88.7500228881836,28.89,0
-0.5809414982795715,-0.9539069533348083,0.1508930176496505,21.872203826904297,0.7443245649337769,88.75001525878906,28.89,0
-0.579932451248169,-1.0040067434310913,0.1304211020469665,19.53915786743164,0.7444823384284973,88.75000762939453,28.89,0
-0.5848826766014099,-1.06974458694458,0.1228811740875244,18.1494197845459,0.7445836067199707,88.75000762939453,28.89,0
-0.6328416466712952,-1.0951380729675293,0.1236402615904808,17.02469825744629,0.7446485757827759,88.75000762939453,28.89,0
-0.6692167520523071,-1.1058363914489746,0.1129318475723266,15.124250411987305,0.7446902990341187,88.75000762939453,28.89,0
-0.6477779746055603,-1.1127018928527832,0.1004620343446731,12.500282287597656,0.7447170615196228,88.75000762939453,28.89,0
-0.5948354005813599,-1.1506943702697754,0.1092529445886612,10.336305618286133,0.7447342276573181,88.75000762939453,28.89,0
-0.5440665483474731,-1.1694780588150024,0.1092966720461845,9.52080249786377,0.7447452545166016,88.75000762939453,28.89,0
-0.4834971725940704,-1.136750102043152,0.0981291830539703,9.31630802154541,0.7447523474693298,88.75000762939453,28.89,0
-0.4278339147567749,-1.0877583026885986,0.0909625366330146,8.074477195739746,0.7447568774223328,88.75000762939453,28.89,0
-0.3697213530540466,-1.0227315425872805,0.0639722943305969,5.235473155975342,0.7447597980499268,88.75000762939453,28.89,0
-0.3324280381202698,-0.9698055982589722,0.0410537347197532,1.7763266563415527,0.7447616457939148,88.75000762939453,28.89,0
-0.3196908831596374,-0.9134497046470642,0.0207481496036052,-1.109913349151611,0.7447628378868103,88.75000762939453,28.89,0
-0.3059191405773163,-0.8436970710754395,-0.0034783564042299,-2.944223165512085,0.7438454031944275,88.72134399414062,28.85,0
-0.291483461856842,-0.7821404933929443,-0.019025532528758,-3.888510227203369,0.7432566285133362,88.70294952392578,28.85,0
-0.2766216993331909,-0.742637038230896,-0.0234050396829843,-4.60197639465332,0.742878794670105,88.69114685058594,28.85,0
-0.2726820409297943,-0.7340793013572693,-0.0262155551463365,-5.883830547332764,0.7426363229751587,88.6835708618164,28.85,0
-0.2813493609428406,-0.7509785890579224,-0.0336169563233852,-7.924526214599609,0.7424806952476501,88.6787109375,28.85,0
-0.2981070876121521,-0.8122035264968872,-0.0327689759433269,-10.1548490524292,0.7423808574676514,88.67559051513672,28.85,0
-0.3144589960575104,-0.8962763547897339,-0.0378225669264793,-12.030381202697754,0.7423167824745178,88.673583984375,28.85,0
-0.3305504918098449,-1.0341960191726685,-0.0354678966104984,-13.441779136657717,0.7422756552696228,88.67230224609375,28.85,0
-0.3520726263523102,-1.13390052318573,-0.0171634797006845,-14.229308128356934,0.7404131889343262,88.67147827148438,28.85,0
-0.3938731849193573,-1.0915274620056152,0.0337676629424095,-13.95369815826416,0.73921799659729,88.67094421386719,28.85,0
-0.4151006042957306,-1.05873703956604,0.0776478871703147,-12.329466819763184,0.7384509444236755,88.67060852050781,28.85,0
-0.4287231266498565,-1.0712807178497314,0.1002099141478538,-9.399110794067385,0.7379587292671204,88.6703872680664,28.85,0
-0.4206719696521759,-1.0457438230514526,0.1146889254450798,-5.275885105133057,0.7376428246498108,88.67024993896484,28.85,0
-0.4043096303939819,-0.9957690834999084,0.1407740414142608,-0.1399455368518829,0.7374401092529297,88.67015838623047,28.85,0
-0.3882114589214325,-0.9077204465866088,0.1575139760971069,5.574243545532227,0.737309992313385,88.67009735107422,28.85,0
-0.4058694541454315,-0.8512158989906311,0.1570611447095871,11.150793075561523,0.7372265458106995,88.67005920410156,28.85,0
-0.4339946508407593,-0.8205522894859314,0.1511727720499038,15.850848197937012,0.7394683361053467,88.67003631591797,28.85,0
-0.4632393419742584,-0.8232652544975281,0.1417961716651916,19.2575740814209,0.7409070134162903,88.6700210571289,28.85,0
-0.4820069074630737,-0.8417996168136597,0.1469743698835373,21.33275413513184,0.7418302297592163,88.67001342773438,28.85,0
-0.488453060388565,-0.8480961322784424,0.1670907586812973,22.152177810668945,0.7424226999282837,88.67000579833984,28.85,0
-0.4981876015663147,-0.840941309928894,0.1744025200605392,21.732236862182617,0.7428029179573059,88.67000579833984,28.85,0
-0.5100324749946594,-0.847545325756073,0.1734970211982727,20.280492782592773,0.7430469393730164,88.67000579833984,28.85,0
-0.5288293361663818,-0.8965656161308289,0.1729159206151962,18.28840446472168,0.7432035207748413,88.67000579833984,28.85,0
-0.5352943539619446,-0.9504150748252868,0.1669452339410781,16.07494354248047,0.7433040142059326,88.67000579833984,28.85,0
-0.5394431948661804,-1.0521458387374878,0.1575158089399337,13.364745140075684,0.7419909834861755,88.67000579833984,28.85,0
-0.575692355632782,-1.1286263465881348,0.1514645516872406,9.784051895141602,0.7411483526229858,88.67000579833984,28.85,0
-0.6101505160331726,-1.1497182846069336,0.1363856494426727,5.848932266235352,0.7406076192855835,88.67000579833984,28.85,0
-0.5930793285369873,-1.118471622467041,0.1155133321881294,2.936680793762207,0.7402606010437012,88.67000579833984,28.85,0
-0.5709285140037537,-1.1152126789093018,0.1133142262697219,2.060138940811157,0.7400379180908203,88.67000579833984,28.85,0
-0.5343222618103027,-1.1411101818084717,0.1175007447600364,2.687039852142334,0.7398949861526489,88.67000579833984,28.85,0
-0.4828416407108307,-1.1129474639892578,0.0977963134646415,3.053523063659668,0.7398032546043396,88.67000579833984,28.85,0
-0.433010995388031,-1.055689811706543,0.0795533657073974,1.9309147596359253,0.7397444248199463,88.67000579833984,28.85,0
-0.3898370265960693,-0.9909563064575196,0.0510527715086936,-0.247619017958641,0.7401659488677979,88.57327270507812,28.83,0
-0.3565326631069183,-0.949414074420929,0.0271649565547704,-2.4051826000213623,0.7404364347457886,88.51119995117188,28.83,0
-0.3351598680019378,-0.900363564491272,-0.0049581928178668,-4.094301223754883,0.7406100630760193,88.47135925292969,28.83,0
-0.321444034576416,-0.852092444896698,-0.0311707556247711,-5.32874870300293,0.7407214641571045,88.44579315185547,28.83,0
-0.3070442080497741,-0.8155170679092407,-0.0535902418196201,-6.167519569396973,0.7407929301261902,88.42938995361328,28.83,0
-0.2866076827049255,-0.7920450568199158,-0.0679777786135673,-7.08912992477417,0.7408388257026672,88.41886138916016,28.83,0
-0.2790904641151428,-0.7937754392623901,-0.0716130957007408,-8.844903945922852,0.7408682703971863,88.41210174560547,28.83,0
-0.2798641324043274,-0.8340703248977661,-0.0683482587337493,-11.623226165771484,0.7408871650695801,88.40776824951172,28.83,0
-0.2859584093093872,-0.8879181146621704,-0.0550575256347656,-14.867883682250977,0.7399810552597046,88.40498352050781,28.83,0
-0.2954671382904053,-0.9504634141921996,-0.0409305244684219,-17.766944885253906,0.7393996119499207,88.4031982421875,28.83,0
-0.3071670532226562,-1.01299250125885,-0.0206690803170204,-19.63456153869629,0.7390264272689819,88.40205383300781,28.83,0
-0.3202731609344482,-1.0643155574798584,-0.0020686772186309,-20.11299133300781,0.7387869358062744,88.40132141113281,28.83,0
-0.3454772531986236,-1.0300785303115845,0.0378568619489669,-19.22344017028809,0.7386332750320435,88.40084838867188,28.83,0
-0.3616517782211303,-0.9689226746559144,0.0746743232011795,-17.101322174072266,0.738534688949585,88.40054321289062,28.83,0
-0.3720316588878631,-0.9800563454627992,0.0983016490936279,-13.63649845123291,0.7384713888168335,88.40035247802734,28.83,0
-0.3898884057998657,-1.0039945840835571,0.1246598586440086,-8.640059471130371,0.7384307980537415,88.40023040771484,28.83,0
-0.4013478457927704,-0.9913679361343384,0.1471728086471557,-2.3275396823883057,0.7393229603767395,88.400146484375,28.83,0
-0.4031040668487549,-0.9272871613502502,0.1616203337907791,4.517880916595459,0.7398954629898071,88.40009307861328,28.83,0
-0.4322199821472168,-0.8917615413665771,0.1764896959066391,10.816807746887209,0.7402628660202026,88.40006256103516,28.83,0
-0.4676982462406158,-0.874561071395874,0.1860319972038269,15.672341346740724,0.7404986619949341,88.40003967285156,28.83,0
-0.4904661476612091,-0.8803160786628723,0.1977534741163253,18.766847610473636,0.7406499981880188,88.4000244140625,28.83,0
-0.4994795024394989,-0.8896071314811707,0.2108734101057052,20.233251571655277,0.7407470941543579,88.40001678466797,28.83,0
-0.4940682053565979,-0.8731784820556641,0.2248908132314682,20.16043472290039,0.7408093810081482,88.40000915527344,28.83,0
-0.4961933195590973,-0.8514399528503418,0.2226908206939697,18.472885131835938,0.7408493757247925,88.40000915527344,28.83,0
-0.5087526440620422,-0.8486849665641785,0.2156812101602554,15.390836715698242,0.7408750653266907,88.40000915527344,28.83,0
-0.5224102735519409,-0.8861014246940613,0.2055850774049759,11.646745681762695,0.7408915162086487,88.40000915527344,28.83,0
-0.5199794173240662,-0.9157109260559082,0.1935081928968429,7.9936842918396,0.7409020662307739,88.40000915527344,28.83,0
-0.5072238445281982,-0.9738969802856444,0.168964609503746,4.699977397918701,0.7409088611602783,88.40000915527344,28.83,0
-0.5046358704566956,-1.0280307531356812,0.1364206373691558,1.6368833780288696,0.7409132122993469,88.40000915527344,28.83,0
-0.5253661274909973,-1.1075528860092163,0.1211335584521293,-1.2388081550598145,0.7409160137176514,88.40000915527344,28.83,0
-0.549865186214447,-1.0802167654037476,0.0945298671722412,-3.5428311824798584,0.7409178018569946,88.40000915527344,28.83,0
-0.5320006012916565,-1.040282964706421,0.0662616044282913,-4.451791286468506,0.7409189343452454,88.40000915527344,28.83,0
-0.4869495034217834,-1.0762312412261963,0.0537184327840805,-3.293977737426758,0.7404603958129883,88.35343170166016,28.85,0
-0.4412449598312378,-1.144083023071289,0.0232778489589691,-0.6020384430885315,0.7401661276817322,88.32353973388672,28.85,0
-0.3951210975646972,-1.154039740562439,-0.0130504881963133,2.0318849086761475,0.7399773001670837,88.30435943603516,28.85,0
-0.3431303799152374,-1.0932561159133911,-0.0419616997241973,3.5143959522247314,0.7398561239242554,88.29204559326172,28.85,0
-0.3041679561138153,-1.048650860786438,-0.0605152510106563,3.914069652557373,0.7397783398628235,88.28414916992188,28.85,0
-0.2847618758678436,-0.980841338634491,-0.1004107221961021,3.540023803710937,0.7397283911705017,88.2790756225586,28.85,0
-0.2891014814376831,-0.9261295795440674,-0.1260133385658264,2.440164566040039,0.7396963834762573,88.27582550048828,28.85,0
-0.2862886190414428,-0.8798231482505798,-0.1424436271190643,0.759877622127533,0.7396758198738098,88.27373504638672,28.85,0
-0.2676901817321777,-0.8389108180999756,-0.1417920887470245,-1.2570686340332031,0.7405808568000793,88.27239227294922,28.85,0
-0.2557547688484192,-0.8238511681556702,-0.1245806440711021,-3.5832104682922363,0.7411616444587708,88.27153778076172,28.85,0
-0.2592908442020416,-0.8253822922706604,-0.0911442339420318,-6.233166217803955,0.7415343523025513,88.27098846435547,28.85,0
-0.2727556526660919,-0.8207671046257019,-0.0528933480381965,-9.090927124023438,0.7417735457420349,88.2706298828125,28.85,0
-0.2757988274097442,-0.840196430683136,-0.0339439064264297,-12.03547191619873,0.7419270277023315,88.27040100097656,28.85,0
-0.2777517437934875,-0.9478272199630736,0.0118034007027745,-14.84941577911377,0.7420255541801453,88.27025604248047,28.85,0
-0.3013961315155029,-1.0113006830215454,0.0579547099769115,-16.999170303344727,0.7420887351036072,88.2701644897461,28.85,0
-0.3557541370391845,-0.9904587864875792,0.0987675115466117,-17.89869499206543,0.7421293258666992,88.27010345458984,28.85,0
-0.390637993812561,-0.9938769936561584,0.1249588206410408,-17.30803680419922,0.743073582649231,88.27006530761719,28.85,0
-0.4242199957370758,-1.0072661638259888,0.1417668908834457,-15.137699127197266,0.7436795234680176,88.2700424194336,28.85,0
-0.4513687491416931,-0.9822719097137452,0.1749444454908371,-11.30158519744873,0.7440683841705322,88.27002716064453,28.85,0
-0.4743890464305877,-0.955036461353302,0.1794425696134567,-6.199429988861084,0.7443179488182068,88.27001953125,28.85,0
-0.4835643768310547,-0.915167272090912,0.1767314374446869,-0.7899450063705444,0.7444781064987183,88.27001190185547,28.85,0
-0.4838548004627228,-0.9007770419120787,0.1637960374355316,4.24713659286499,0.744580864906311,88.27000427246094,28.85,0
-0.4672478437423706,-0.8971399664878845,0.1554948389530182,8.962831497192383,0.7446468472480774,88.27000427246094,28.85,0
-0.4286015927791595,-0.8780125975608826,0.13897205889225,13.47944450378418,0.7446891665458679,88.27000427246094,28.85,0
-0.3926050961017608,-0.8601399660110474,0.1171731427311897,17.39898109436035,0.7447163462638855,88.27000427246094,28.85,0
-0.335917979478836,-0.8430725932121277,0.0807927548885345,20.061199188232425,0.7447337508201599,88.27000427246094,28.85,0
-0.2659527957439422,-0.8433153033256531,0.0294570419937372,21.017316818237305,0.7447449564933777,88.27000427246094,28.85,0
-0.1874665170907974,-0.8602643609046936,-0.0258783642202615,20.16920661926269,0.7447521090507507,88.27000427246094,28.85,0
-0.1203052178025245,-0.8879346251487732,-0.0725849866867065,17.855146408081055,0.7447566986083984,88.27000427246094,28.85,0
-0.0772049650549888,-0.8721051216125488,-0.1137541607022285,14.82602596282959,0.7447596788406372,88.27000427246094,28.85,0
-0.0495457015931606,-0.9347177743911744,-0.1345763951539993,11.782259941101074,0.74476158618927,88.27000427246094,28.85,0
-0.0317955799400806,-0.9916922450065612,-0.1591344475746154,8.890312194824219,0.7447627782821655,88.27000427246094,28.85,0
-0.014806798659265,-1.039450764656067,-0.1748943924903869,5.902332305908203,0.7447635531425476,88.29149627685547,28.85,0
-0.0150999259203672,-1.042110562324524,-0.1906059980392456,2.695091485977173,0.7447640895843506,88.30529022216797,28.85,0
-0.0264835860580205,-1.0494152307510376,-0.1782976984977722,-0.2946007549762726,0.7447643876075745,88.31414031982422,28.85,0
-0.0169956404715776,-1.0317118167877195,-0.1592033952474594,-2.1881349086761475,0.7447646260261536,88.31982421875,28.85,0
-0.0221023727208375,-0.9755686521530152,-0.1413519978523254,-2.511234760284424,0.7447647452354431,88.32347106933594,28.85,0
-0.025379579514265,-0.9171480536460876,-0.1075048968195915,-1.9232499599456787,0.7447648048400879,88.32581329345703,28.85,0
0.0172994937747716,-0.868461549282074,-0.0969793274998664,-1.606818914413452,0.7447648644447327,88.32731628417969,28.85,0
0.0446884669363498,-0.8260217905044556,-0.0958223938941955,-1.980546474456787,0.7447649240493774,88.32827758789062,28.85,0
0.0398740358650684,-0.8491663932800293,-0.0838843956589698,-2.643127202987671,0.7452242374420166,88.32889556884766,28.85,0
0.059175506234169,-0.8584215044975281,-0.0986143723130226,-3.3800172805786133,0.7455189824104309,88.32929229736328,28.85,0
0.05476875603199,-0.8643608689308167,-0.1248605474829673,-4.347306251525879,0.745708167552948,88.32954406738281,28.85,0
0.0911251753568649,-0.9017590880393982,-0.1528993844985962,-5.48394775390625,0.7458295822143555,88.32970428466797,28.85,0
0.1088588610291481,-0.8977702260017395,-0.1932841837406158,-6.657618522644043,0.7459074854850769,88.3298110961914,28.85,0
0.1314348727464676,-0.9231992959976196,-0.2303963750600814,-8.095084190368652,0.7459574937820435,88.32987976074219,28.85,0
0.1235317587852478,-0.9339203834533693,-0.2989950478076935,-9.906045913696287,0.7459895610809326,88.32992553710938,28.85,0
0.2136221528053283,-0.9687894582748412,-0.3989954590797424,-11.652176856994627,0.7460101246833801,88.3299560546875,28.85,0
0.1035037562251091,-1.1535018682479858,-0.6870809197425842,-12.75124740600586,0.7441869378089905,88.32997131347656,28.85,0
0.1391938179731369,-1.3783973455429075,-0.670437753200531,-12.90843391418457,0.7430168986320496,88.3299789428711,28.85,0
0.2124776244163513,-1.220442533493042,-0.5198127627372742,-12.049177169799805,0.742266058921814,88.32998657226562,28.85,0
0.1251603662967682,-0.9287518858909608,-0.389563649892807,-10.186532974243164,0.7417842149734497,88.32999420166016,28.85,0
-0.1995679885149002,-0.9150926470756532,-0.3339661359786987,-7.336044788360596,0.741474986076355,88.32999420166016,28.85,0
-0.0497024096548557,-1.0238802433013916,-0.247906893491745,-3.5291836261749268,0.7412765026092529,88.32999420166016,28.85,0
0.1584281772375106,-1.0769004821777344,-0.1367012709379196,0.9021698832511902,0.7411491274833679,88.32999420166016,28.85,0
0.0065079145133495,-1.0885347127914429,-0.1101181060075759,5.250638961791992,0.7410674095153809,88.32999420166016,28.85,0
0.0377630516886711,-1.006436467170715,-0.1490363031625747,8.901054382324219,0.7332106828689575,88.32999420166016,28.85,0
0.0410274751484394,-1.0265216827392578,-0.1516206711530685,11.422809600830078,0.7281686663627625,88.32999420166016,28.85,0
-0.0352464467287063,-1.0618022680282593,-0.0973014160990715,12.195639610290527,0.7249330282211304,88.32999420166016,28.85,0
-0.0841946601867675,-0.9948789477348328,-0.1240179687738418,10.925387382507324,0.7228565812110901,88.32999420166016,28.85,0
-0.1771823167800903,-1.047093629837036,-0.0348053984344005,8.254438400268555,0.7215240001678467,88.32999420166016,28.85,0
-0.1528898328542709,-0.9630486965179444,-0.1174982637166976,5.171833038330078,0.7206688523292542,88.32999420166016,28.85,0
-0.238060250878334,-0.98188453912735,-0.1313813626766204,2.383932590484619,0.7201200723648071,88.32999420166016,28.85,0
-0.1975555568933487,-0.9939723014831544,0.0332402661442756,-0.046462595462799,0.7197678685188293,88.32999420166016,28.85,0
-0.1995508521795272,-0.9457517862319946,0.0101361405104398,-2.3513259887695312,0.70760577917099,88.32283020019531,28.83,0
-0.307189017534256,-0.987577736377716,0.1016669645905494,-5.062860488891602,0.6998008489608765,88.31822967529297,28.83,0
-0.3258850276470184,-0.9024637341499328,0.1492106318473816,-8.823540687561035,0.6947920918464661,88.31527709960938,28.83,0
-0.405056357383728,-0.9150157570838928,0.2468947023153305,-13.766226768493652,0.6915777921676636,88.31338500976562,28.83,0
-0.4446684122085571,-0.9286686778068542,0.2144205570220947,-18.53240394592285,0.6895149946212769,88.31217193603516,28.83,0
-0.4253069460391998,-0.9654192328453064,0.1655916422605514,-21.060840606689453,0.6881912350654602,88.31139373779297,28.83,0
-0.4072841107845306,-0.9778080582618712,0.173440471291542,-21.397300720214844,0.6873416900634766,88.3108901977539,28.83,0
-0.3845225274562835,-0.946574091911316,0.2512484788894653,-21.057924270629883,0.6867965459823608,88.3105697631836,28.83,0
-0.3475243747234344,-0.9377254843711852,0.273192286491394,-19.922990798950195,0.6777245402336121,88.31036376953125,28.83,0
-0.2957921922206878,-1.0440024137496948,0.3320567607879638,-14.852575302124023,0.6719026565551758,88.31023406982422,28.83,0
-0.2793867886066437,-1.117802619934082,0.3418437242507934,-5.802066802978516,0.6681665182113647,88.31015014648438,28.83,0
-0.1680988073348999,-1.131576657295227,0.3817110955715179,3.1837735176086426,0.6657688617706299,88.31009674072266,28.83,0
-0.2366249561309814,-1.0284606218338013,0.3401223719120025,9.330121994018556,0.6642301678657532,88.31005859375,28.83,0
-0.3085899651050567,-0.9007111191749573,0.3414219915866852,14.95472240447998,0.663242757320404,88.3100357055664,28.83,0
-0.2820018827915191,-0.7459577918052673,0.4038315415382385,23.472394943237305,0.6626091003417969,88.31002044677734,28.83,0
-0.28733029961586,-0.618657112121582,0.43268683552742,31.847599029541016,0.6622024178504944,88.31001281738281,28.83,0
-0.4474874436855316,-0.592940628528595,0.4624000489711761,36.405494689941406,0.6587278842926025,88.31000518798828,28.83,0
-0.6790158748626709,-0.6380127668380737,0.3863061368465423,37.47829818725586,0.6564981341362,88.31000518798828,28.83,0
-0.872379720211029,-0.644546389579773,0.3598645329475403,41.50930404663086,0.6550672054290771,88.31000518798828,28.83,0
-0.9125028848648072,-0.5759682059288025,0.4548513293266296,50.06474304199219,0.6541489362716675,88.31000518798828,28.83,0
-0.8710783123970032,-0.4479920864105224,0.5046128034591675,60.36294937133789,0.6535596251487732,88.31000518798828,28.83,0
-0.7157456278800964,-0.2762999832630157,0.5085580348968506,68.82035064697266,0.6531814336776733,88.31000518798828,28.83,0
-0.6272575855255127,0.1361619383096695,0.4103298783302307,71.93348693847656,0.652938723564148,88.31000518798828,28.83,0
-0.6600354313850403,0.3672696053981781,0.4368571043014526,73.27928924560547,0.6527829766273499,88.31000518798828,28.83,0
-0.8881880044937134,0.1461280882358551,0.7001827955245972,82.28614044189453,0.6545190811157227,88.31000518798828,28.83,0
-0.8330833315849304,-0.046167753636837,0.9699300527572632,106.5451431274414,0.6556332111358643,88.31000518798828,28.83,0
-0.5738093256950378,-0.2199521362781524,1.2382004261016846,119.06798553466795,0.6563482284545898,88.31000518798828,28.83,0
-0.5529643297195435,-0.3426724970340729,0.9849300980567932,92.22088623046876,0.6568070650100708,88.31000518798828,28.83,0
-0.461218386888504,-0.3654496073722839,0.8335913419723511,55.2698860168457,0.6571015119552612,88.31000518798828,28.83,0
-0.5534810423851013,-0.5871843099594116,0.6525042057037354,24.75713157653809,0.657290518283844,88.31000518798828,28.83,0
-0.5511143803596497,-0.5055698752403259,0.6762372851371765,-1.7170751094818115,0.6574118137359619,88.31000518798828,28.83,0
-0.4152489900588989,-0.6323232650756836,0.6522833704948425,-23.661399841308597,0.6574895977973938,88.31000518798828,28.83,0
-0.4400139153003692,-0.7024707198143005,0.5585422515869141,-34.05036926269531,0.629535973072052,88.2240219116211,28.85,0
-0.399928867816925,-0.7250962257385254,0.5879490375518799,-35.87018585205078,0.611596941947937,88.16883850097656,28.85,0
-0.1279025226831436,-0.7508115172386169,0.6124183535575867,-35.37572479248047,0.6000847220420837,88.13343048095703,28.85,0
-0.0540916062891483,-0.7225319147109985,0.6057302951812744,-35.10498046875,0.5926968455314636,88.11070251464844,28.85,0
-0.0235173311084508,-0.6260148286819458,0.7301870584487915,-30.162824630737305,0.5879557132720947,88.09612274169922,28.85,0
-0.0038965200074017,-0.5136957764625549,0.6869052052497864,-19.08807182312012,0.5849131345748901,88.08676147460938,28.85,0
-0.0472827591001987,-0.3968336582183838,0.7934759855270386,-4.253316402435303,0.5829606056213379,88.08075714111328,28.85,0
-0.0975166484713554,-0.4170004427433014,0.9458336234092712,13.166353225708008,0.5817075371742249,88.076904296875,28.85,0
-0.1185583174228668,-0.4019534587860107,0.9204569458961488,32.06574630737305,0.6116616129875183,88.07443237304688,28.85,0
-0.2440171390771865,-0.4314815998077392,0.8369983434677124,47.046016693115234,0.6308844089508057,88.07284545898438,28.85,0
-0.3301271498203277,-0.439235508441925,0.8282216191291809,46.76441955566406,0.6432204842567444,88.07182312011719,28.85,0
-0.3070187568664551,-0.4386137425899505,0.8729692101478577,26.535614013671875,0.651137113571167,88.0711669921875,28.85,0
-0.381753534078598,-0.3710414469242096,0.845707893371582,-6.877498626708984,0.6562175154685974,88.07074737548828,28.85,0
-0.5024850368499756,-0.3332751989364624,0.8953864574432373,-41.35351943969727,0.6594778299331665,88.07048034667969,28.85,0
-0.4568125605583191,-0.353821188211441,0.8712895512580872,-69.49339294433594,0.661570131778717,88.07030487060547,28.85,0
-0.4610892236232757,-0.3390175700187683,0.8558255434036255,-87.79197692871094,0.6629128456115723,88.07019805908203,28.85,0
-0.2399227619171142,-0.2903330326080322,0.8291082978248596,-92.27664947509766,0.6366891860961914,88.07012939453125,28.85,0
-0.3274996280670166,-0.303872287273407,0.7951693534851074,-79.63135528564453,0.6198603510856628,88.07008361816406,28.85,0
-0.3837014138698578,-0.2565832734107971,0.7509981989860535,-52.64332962036133,0.609060525894165,88.07005310058594,28.85,0
-0.4029751718044281,-0.2374314367771148,0.7618361115455627,-21.677934646606445,0.6021298170089722,88.07003021240234,28.85,0
-0.5440927743911743,-0.1691631525754928,0.7855846285820007,0.3470007479190826,0.5976821184158325,88.07002258300781,28.85,0
-0.6178606152534485,-0.1029613986611366,0.856802761554718,8.190333366394043,0.5948278307914734,88.07001495361328,28.85,0
-0.6875916719436646,-0.0156947318464517,0.7513665556907654,8.183049201965332,0.5929961204528809,88.07000732421875,28.85,0
-0.7939165234565735,0.006721347104758,0.7060948014259338,7.5442585945129395,0.5918206572532654,88.07000732421875,28.85,0
-0.7725853323936462,-0.0236754976212978,0.7050308585166931,3.035852670669556,0.5786712765693665,88.07000732421875,28.85,0
-0.8092761635780334,0.0463819466531276,0.681956946849823,-16.029129028320312,0.5702328085899353,88.07000732421875,28.85,0
-0.8328222036361694,0.074547454714775,0.6839427947998047,-49.390384674072266,0.564817488193512,88.07000732421875,28.85,0
-0.7807594537734985,0.0366447158157825,0.6684238910675049,-82.01318359375,0.5613422393798828,88.07000732421875,28.85,0
-0.7697396278381348,0.029114244505763,0.6752580404281616,-98.11572265625,0.559112012386322,88.07000732421875,28.85,0
-0.7514722347259521,0.0186838470399379,0.7188282608985901,-100.03751373291016,0.5576807856559753,88.07000732421875,28.85,0
-0.7453470230102539,0.0287835411727428,0.7299957871437073,-103.79652404785156,0.5567622780799866,88.07000732421875,28.85,0
-0.7526117563247681,0.0296671688556671,0.7315647006034851,-119.57901763916016,0.5561728477478027,88.07000732421875,28.85,0
-0.7068938612937927,0.0246364548802375,0.6933870911598206,-141.1822967529297,0.5590081214904785,87.99835205078125,28.89,0
-0.6607614159584045,0.0270058065652847,0.6968757510185242,-133.02395629882812,0.5608276724815369,87.9523696899414,28.89,0
-0.6535474061965942,0.0565151944756507,0.7438967823982239,-87.00435638427734,0.5619953274726868,87.92285919189453,28.89,0
-0.7048956155776978,0.0586592964828014,0.7348877787590027,-38.59861755371094,0.562744677066803,87.90392303466797,28.89,0
-0.7098590731620789,0.0320463851094245,0.7179107666015625,-7.771050930023193,0.5632255673408508,87.89176940917969,28.89,0
-0.7186421155929565,0.0429566241800785,0.707015872001648,5.907598495483398,0.5635342001914978,87.88397216796875,28.89,0
-0.7074851989746094,0.0331648625433445,0.7168174982070923,8.720780372619629,0.5637322068214417,87.87896728515625,28.89,0
-0.6667386889457703,0.0268810745328664,0.7175098061561584,5.403035640716553,0.5638592839241028,87.8757553100586,28.89,0
-0.6629810333251953,0.0116529511287808,0.7291496396064758,3.180751085281372,0.5685315728187561,87.87369537353516,28.89,0
-0.671765148639679,0.0186737421900033,0.7310216426849365,8.242661476135254,0.5715299844741821,87.87237548828125,28.89,0
-0.6885977983474731,0.0343748293817043,0.7266252636909485,18.61684799194336,0.5734542012214661,87.87152862548828,28.89,0
-0.6994000673294067,0.0500486604869365,0.7238038778305054,25.79745864868164,0.5746890306472778,87.87097930908203,28.89,0
-0.700734555721283,0.0377161242067813,0.7499821782112122,30.527368545532227,0.5754814743995667,87.8706283569336,28.89,0
-0.6791998744010925,0.018606262281537,0.7219997048377991,38.47446441650391,0.5759900212287903,87.87040710449219,28.89,0
-0.6429890394210815,0.006342654582113,0.7040421366691589,46.68770980834961,0.5763164162635803,87.8702621459961,28.89,0
-0.6253488063812256,-0.0071251979097723,0.7205069065093994,46.38759231567383,0.576525866985321,87.87017059326172,28.89,0
-0.6252238154411316,-0.0045725419186055,0.7366707921028137,36.672508239746094,0.6051227450370789,87.87010955810547,28.89,0
-0.6587302684783936,0.0306522510945796,0.7862282991409302,25.66951942443848,0.6234745979309082,87.87007141113281,28.89,0
-0.6690372228622437,0.0252686254680156,0.812433660030365,19.034761428833008,0.6352517604827881,87.87004852294922,28.89,0
-0.6700538992881775,0.0162159483879804,0.8012619018554688,16.940832138061523,0.6428096294403076,87.87003326416016,28.89,0
-0.6595107913017273,0.0216020103543996,0.777299165725708,17.42059898376465,0.6476598381996155,87.87002563476562,28.89,0
-0.6471470594406128,0.0194607004523277,0.7787145972251892,19.953266143798828,0.6507724523544312,87.8700180053711,28.89,0
-0.6560060381889343,0.0124887572601437,0.7684273719787598,23.68155670166016,0.652769923210144,87.87001037597656,28.89,0
-0.6784845590591431,0.0304056629538536,0.739434540271759,25.748146057128903,0.6540517807006836,87.87001037597656,28.89,0
-0.6929099559783936,0.0475014746189117,0.7208285927772522,24.050668716430664,0.6617605090141296,87.87001037597656,28.89,0
-0.696569561958313,0.0472770370543003,0.6920950412750244,20.1418399810791,0.6667075157165527,87.87001037597656,28.89,0
-0.7157114148139954,0.0471330024302005,0.6848510503768921,16.795055389404297,0.6698822379112244,87.87001037597656,28.89,0
-0.6944088935852051,0.0358450226485729,0.7081911563873291,13.479361534118652,0.671919584274292,87.87001037597656,28.89,0
-0.7087270617485046,0.039796594530344,0.6951805949211121,8.292020797729492,0.6732270121574402,87.87001037597656,28.89,0
-0.7459045052528381,0.0423324853181839,0.7763955593109131,2.104188919067383,0.6740660667419434,87.87001037597656,28.89,0
-0.7081873416900635,0.0271665528416633,0.7949280142784119,-3.049055337905884,0.6746044754981995,87.87001037597656,28.89,0
-0.5944182276725769,0.0342272520065307,0.7564411163330078,-7.710324764251709,0.6749500036239624,87.87001037597656,28.89,0
-0.4766255617141723,0.0331606306135654,0.8101112842559814,-13.807751655578612,0.6788442730903625,87.7374496459961,28.99,0
-0.5913573503494263,0.0100850360468029,0.8501514792442322,-21.56483268737793,0.6813433766365051,87.65238189697266,28.99,0
-0.6817789077758789,0.0008742215577512,0.8478580713272095,-29.83526992797852,0.6829471588134766,87.59779357910156,28.99,0
-0.6670352220535278,0.0061587993986904,0.8072019219398499,-37.66847610473633,0.6839763522148132,87.56275939941406,28.99,0
-0.6239868998527527,0.0207456871867179,0.7811111211776733,-43.7808952331543,0.6846368312835693,87.54027557373047,28.99,0
-0.6019587516784668,0.024508936330676,0.77556312084198,-46.12357711791992,0.6850606799125671,87.52584838867188,28.99,0
-0.6493978500366211,0.0213261991739273,0.7720026969909668,-43.24190521240234,0.685332715511322,87.51658630371094,28.99,0
-0.6798415780067444,0.0360770262777805,0.7417289614677429,-35.334476470947266,0.6855072975158691,87.5106430053711,28.99,0
-0.6154119968414307,0.0455432571470737,0.7838765382766724,-23.98685646057129,0.6915875673294067,87.50682830810547,28.99,0
-0.5684670209884644,0.0516181401908397,0.8221200108528137,-11.556445121765137,0.6954895257949829,87.50437927246094,28.99,0
-0.5999159216880798,0.0387233272194862,0.8242713212966919,-0.5054722428321838,0.6979935765266418,87.5028076171875,28.99,0
-0.6256958246231079,0.0416437238454818,0.803260862827301,7.732829570770264,0.6996005177497864,87.50180053710938,28.99,0
-0.6366420984268188,0.0323223210871219,0.7897775173187256,13.349294662475586,0.7006317377090454,87.50115203857422,28.99,0
-0.6604601144790649,0.0319381542503833,0.7699291706085205,17.32262420654297,0.7012935280799866,87.50074005126953,28.99,0
-0.6701473593711853,0.0372893922030925,0.7571915984153748,20.359708786010746,0.7017182111740112,87.50047302246094,28.99,0
-0.670766294002533,0.0407235100865364,0.7546151280403137,22.778051376342773,0.7019907832145691,87.50030517578125,28.99,0
-0.6655657291412354,0.0429273284971714,0.75855952501297,24.706174850463867,0.7095106840133667,87.50019836425781,28.99,0
-0.6566305160522461,0.0443416126072406,0.7610907554626465,25.82889175415039,0.7143365144729614,87.50012969970703,28.99,0
-0.6452986598014832,0.0396514423191547,0.768312931060791,25.435205459594727,0.7174334526062012,87.50008392333984,28.99,0
-0.6436243057250977,0.0366415604948997,0.7673499584197998,23.34469985961914,0.7194209098815918,87.50005340576172,28.99,0
-0.6425497531890869,0.040307767689228,0.7611342072486877,20.562936782836918,0.7206963300704956,87.50003051757812,28.99,0
-0.6474579572677612,0.0370627529919147,0.7571452856063843,18.301279067993164,0.7215148210525513,87.5000228881836,28.99,0
-0.6562055349349976,0.0405780635774135,0.7545854449272156,16.731653213500977,0.722040057182312,87.50001525878906,28.99,0
-0.6562214493751526,0.0428339876234531,0.752942681312561,15.341021537780762,0.7223771214485168,87.50000762939453,28.99,0
-0.6506339311599731,0.0442817099392414,0.7518884539604187,13.88612937927246,0.729938805103302,87.50000762939453,28.99,0
-0.658243715763092,0.045210774987936,0.7512118816375732,12.536885261535645,0.7347914576530457,87.50000762939453,28.99,0
-0.6575294733047485,0.051404770463705,0.7563754916191101,11.599366188049316,0.7379056215286255,87.50000762939453,28.99,0
-0.6570711135864258,0.0497819446027278,0.7540914416313171,11.316570281982422,0.7399041056632996,87.50000762939453,28.99,0
-0.6567769646644592,0.0487405098974704,0.7582234144210815,11.837272644042969,0.7411866188049316,87.50000762939453,28.99,0
-0.6565881967544556,0.0480721779167652,0.7608751058578491,13.615206718444824,0.742009699344635,87.50000762939453,28.99,0
-0.6508692502975464,0.0476432815194129,0.7569789886474609,17.303394317626953,0.7425379157066345,87.50000762939453,28.99,0
-0.6527969241142273,0.0473680384457111,0.7600764632225037,22.29987144470215,0.7428768873214722,87.50000762939453,28.99,0
-0.6540340185165405,0.0471914038062095,0.7620642781257629,26.58109474182129,0.7499804496765137,87.4068603515625,28.99,0
-0.654827892780304,0.0470780506730079,0.757742166519165,28.90579414367676,0.7545391321182251,87.34708404541016,28.99,0
-0.655337393283844,0.0470053069293499,0.760566234588623,29.40169715881348,0.7574646472930908,87.3087158203125,28.99,0
-0.655664324760437,0.0469586253166198,0.7623785734176636,28.39080238342285,0.7593420743942261,87.28409576416016,28.99,0
-0.6558741331100464,0.0469286665320396,0.757943868637085,26.850008010864254,0.760546863079071,87.26829528808594,28.99,0
-0.656008780002594,0.0469094403088092,0.7550979256629944,25.35965347290039,0.7613200545310974,87.2581558227539,28.99,0
-0.6616929769515991,0.0468971021473407,0.7588693499565125,21.544334411621094,0.7618162035942078,87.25164794921875,28.99,0
-0.6597430109977722,0.0468891821801662,0.7612895965576172,12.887279510498049,0.7621346116065979,87.24747467041016,28.99,0
-0.6584916114807129,0.0468841008841991,0.7572450041770935,1.237717866897583,0.769225001335144,87.24479675292969,28.99,0
-0.657688558101654,0.0468808412551879,0.7602472305297852,-10.630537033081056,0.7737752199172974,87.24308013916016,28.99,0
-0.6571731567382812,0.0468787476420402,0.7565760612487793,-23.172941207885746,0.7766953110694885,87.24197387695312,28.99,0
-0.6568424105644226,0.0468774065375328,0.759817898273468,-35.664329528808594,0.778569221496582,87.24126434326172,28.99,0
-0.6622279286384583,0.0468765459954738,0.7563005685806274,-43.47279357910156,0.7797718048095703,87.24081420898438,28.99,0
-0.6600862741470337,0.0468759909272193,0.7540433406829834,-44.50357437133789,0.7805435657501221,87.24052429199219,28.99,0
-0.6587119102478027,0.046875637024641,0.7525947690010071,-41.96224594116211,0.7810388207435608,87.2403335571289,28.99,0
-0.6578299403190613,0.0468754097819328,0.7516651749610901,-37.7232551574707,0.7813566327095032,87.2402114868164,28.99,0
-0.6572639346122742,0.0468752644956111,0.7510685920715332,-29.78310203552246,0.7866102457046509,87.2401351928711,28.99,0
-0.6569007039070129,0.0468751713633537,0.7506857514381409,-18.45388603210449,0.7899817228317261,87.2400894165039,28.99,0
-0.6566675901412964,0.0468751117587089,0.7560378313064575,-7.944799900054932,0.792145311832428,87.24005889892578,28.99,0
-0.6565179824829102,0.0468750707805156,0.7538747191429138,-0.322942167520523,0.7935338020324707,87.24003601074219,28.99,0
-0.656421959400177,0.0468750447034835,0.7524865865707397,5.865220546722412,0.794424831867218,87.24002075195312,28.99,0
-0.6563603281974792,0.0468750298023223,0.7571935057640076,10.710575103759766,0.7949966788291931,87.2400131225586,28.99,0
-0.6563208103179932,0.0468750186264514,0.754616379737854,12.283120155334473,0.7953636646270752,87.24000549316406,28.99,0
-0.6562954187393188,0.0468750111758708,0.7529625296592712,10.433393478393556,0.7955991625785828,87.24000549316406,28.99,0
-0.6562791466712952,0.0468750074505806,0.7519012093544006,7.207859992980957,0.8021774291992188,87.24000549316406,28.99,0
-0.6618664860725403,0.0468750037252903,0.7512201070785522,4.0344648361206055,0.8063989877700806,87.24000549316406,28.99,0
-0.6654521226882935,0.0468750037252903,0.7507829666137695,0.9446850419044496,0.8091081380844116,87.24000549316406,28.99,0
-0.6621553897857666,0.0468750037252903,0.7561002373695374,-1.919471383094788,0.810846745967865,87.24000549316406,28.99,0
-0.6600397229194641,0.0468750037252903,0.7539147734642029,-3.839921474456787,0.8119624853134155,87.24000549316406,28.99,0
-0.6586820483207703,0.0468750037252903,0.7581100463867188,-4.642446517944336,0.8126784563064575,87.24000549316406,28.99,0
-0.6578107476234436,0.0468750037252903,0.7608023285865784,-5.096557140350342,0.813137948513031,87.24000549316406,28.99,0
-0.6572515964508057,0.0468750037252903,0.7625300884246826,-5.925365447998047,0.8134328126907349,87.24000549316406,28.99,0
-0.6568927764892578,0.0468750037252903,0.7580410838127136,-6.976720333099365,0.8182127475738525,86.91398620605469,28.91,0
-0.6566625237464905,0.0468750037252903,0.7551603317260742,-7.744566440582275,0.8212802410125732,86.70477294921875,28.91,0
-0.6565147042274475,0.0468750037252903,0.7533115744590759,-8.2301607131958,0.8232488036155701,86.57051086425781,28.91,0
-0.6564198732376099,0.0468750037252903,0.7521252036094666,-8.674342155456543,0.8245121240615845,86.48434448242188,28.91,0
-0.6563590168952942,0.0468750037252903,0.7513638138771057,-8.787428855895996,0.8253228068351746,86.42904663085938,28.91,0
-0.6563199758529663,0.0468750037252903,0.7508752346038818,-8.10407829284668,0.825843095779419,86.39356231689453,28.91,0
-0.6562948822975159,0.0468750037252903,0.7561594247817993,-6.855880737304688,0.8261769413948059,86.37078857421875,28.91,0
-0.6562787890434265,0.0468750037252903,0.7539527416229248,-5.635698318481445,0.8263912200927734,86.3561782836914,28.91,0
-0.6562684774398804,0.0468750037252903,0.7525366544723511,-4.526640892028809,0.8297422528266907,86.3468017578125,28.91,0
-0.6562618613243103,0.0468750037252903,0.7572256326675415,-3.3133511543273926,0.8318927884101868,86.34078216552734,28.91,0
-0.6562576293945312,0.0468750037252903,0.7546370029449463,-2.054666519165039,0.8332728743553162,86.33692169189453,28.91,0
-0.6562548875808716,0.0468750037252903,0.7529757618904114,-0.9029879570007324,0.8341585397720337,86.33444213867188,28.91,0
-0.6618509292602539,0.0468750037252903,0.7519096732139587,0.0797082781791687,0.834726870059967,86.33284759521484,28.91,0
-0.6654421091079712,0.0468750037252903,0.7512255311012268,0.6136165857315063,0.8350915908813477,86.33182525634766,28.91,0
-0.6677467226982117,0.0468750037252903,0.7507864832878113,0.4367747008800506,0.8353256583213806,86.33116912841797,28.91,0
-0.6692256927490234,0.0468750037252903,0.750504732131958,-0.0349698029458522,0.8354758620262146,86.33074951171875,28.91,0
-0.664577066898346,0.0468750037252903,0.7503238916397095,-0.1084234192967414,0.8341951370239258,86.33048248291016,28.91,0
-0.6615938544273376,0.0468750037252903,0.7502078413963318,0.1561223566532135,0.8333732485771179,86.33030700683594,28.91,0
-0.6652771234512329,0.0468750037252903,0.7501333951950073,0.1969198882579803,0.8328458070755005,86.3302001953125,28.91,0
-0.6676408648490906,0.0468750037252903,0.7500855922698975,-0.0097660329192876,0.832507312297821,86.33013153076172,28.91,0
-0.6635599732398987,0.0468750037252903,0.7500549554824829,-0.1746483296155929,0.8322901129722595,86.33008575439453,28.91,0
-0.6609411239624023,0.0468750037252903,0.750035285949707,-0.5169102549552917,0.8321506977081299,86.3300552368164,28.91,0
-0.6592605113983154,0.0468750037252903,0.7500226497650146,-1.3061838150024414,0.832061231136322,86.33003234863281,28.91,0
-0.6637797355651855,0.0468750037252903,0.7500145435333252,-2.1100478172302246,0.8320038318634033,86.33002471923828,28.91,0
-0.6666799187660217,0.0468750037252903,0.7500093579292297,-2.4718708992004395,0.831507682800293,86.33001708984375,28.91,0
-0.6685410737991333,0.0468750037252903,0.7500060200691223,-2.567930221557617,0.8311892747879028,86.33000946044922,28.91,0
-0.6697354912757874,0.0524727776646614,0.7500038743019104,-2.5006027221679688,0.8309849500656128,86.33000946044922,28.91,0
-0.6705020070075989,0.0560651049017906,0.7556002736091614,-1.8877663612365725,0.8308538198471069,86.33000946044922,28.91,0
-0.6653960943222046,0.052772682160139,0.7591916918754578,-0.7134818434715271,0.8307696580886841,86.33000946044922,28.91,0
-0.662119448184967,0.0506597943603992,0.7558987140655518,0.4306071996688843,0.8307156562805176,86.33000946044922,28.91,0
-0.6656144261360168,0.049303863197565,0.7537854313850403,1.2436343431472778,0.8306810259819031,86.33000946044922,28.91,0
-0.6678573489189148,0.04843370616436,0.7524292469024658,1.8943610191345213,0.8306587934494019,86.33000946044922,28.91,0
-0.6636989116668701,0.0478752888739109,0.7515589594841003,2.304794788360596,0.8306445479393005,86.0792236328125,28.89,0
-0.6610302925109863,0.0475169271230697,0.7510004639625549,2.249338388442993,0.8306353688240051,85.91828155517578,28.89,0
-0.6649155020713806,0.0472869500517845,0.7506420612335205,1.8913178443908687,0.8306294679641724,85.81500244140625,28.89,0
-0.66740882396698,0.0471393652260303,0.7504120469093323,1.5791616439819336,0.8306257128715515,85.74872589111328,28.89,0
-0.6634110808372498,0.0470446534454822,0.7558621764183044,1.4325764179229736,0.8306233286857605,85.70619201660156,28.89,0
-0.6608455777168274,0.0469838753342628,0.7537620067596436,1.3241760730743408,0.8306217789649963,85.67889404296875,28.89,0
-0.6591991782188416,0.0469448715448379,0.7524142265319824,1.0396565198898315,0.8306207656860352,85.661376953125,28.89,0
-0.6637403964996338,0.0469198413193225,0.7515493035316467,0.5597144365310669,0.8306201100349426,85.65013122558594,28.89,0
-0.6666547060012817,0.0469037778675556,0.7509942650794983,0.1406553834676742,0.8301607966423035,85.6429214477539,28.89,0
-0.6629271507263184,0.0468934662640094,0.7506380677223206,-0.1211074292659759,0.8298660516738892,85.63829040527344,28.89,0
-0.6605350375175476,0.0468868501484394,0.7504094839096069,-0.4574727714061737,0.8296768665313721,85.63532257080078,28.89,0
-0.6645976901054382,0.0468826033174991,0.7502627968788147,-0.956356167793274,0.8295554518699646,85.63341522216797,28.89,0
-0.6672048568725586,0.0468798801302909,0.7501686215400696,-1.4413093328475952,0.8294775485992432,85.63219451904297,28.89,0
-0.663280189037323,0.046878132969141,0.7501081824302673,-1.838506102561951,0.8294275403022766,85.63140869140625,28.89,0
-0.6607615947723389,0.0468770116567611,0.7500694394111633,-2.0862390995025635,0.8293954730033875,85.63090515136719,28.89,0
-0.6647430658340454,0.0468762926757335,0.750044584274292,-1.869049310684204,0.8293749094009399,85.63057708740234,28.89,0
-0.6617003679275513,0.0468758307397365,0.755626380443573,-1.0024065971374512,0.8289027810096741,85.63037109375,28.89,0
-0.6597477197647095,0.0468755327165126,0.7536106705665588,0.1627926677465438,0.828599750995636,85.63023376464844,28.89,0
-0.6584946513175964,0.0468753427267074,0.7579149007797241,1.150583028793335,0.8284053206443787,85.6301498413086,28.89,0
-0.6632882356643677,0.0468752197921276,0.7550793290138245,1.888384699821472,0.828280508518219,85.63009643554688,28.89,0
-0.6663644909858704,0.0468751415610313,0.7532595992088318,2.4729232788085938,0.8282004594802856,85.63005828857422,28.89,0
-0.6627408862113953,0.0468750894069671,0.7520918250083923,2.754899501800537,0.8281490802764893,85.63003540039062,28.89,0
-0.6604154706001282,0.0468750558793544,0.7513424158096313,2.6134238243103027,0.8281160593032837,85.63002014160156,28.89,0
-0.6645209193229675,0.0468750372529029,0.7508614659309387,2.275434970855713,0.8280948996543884,85.63001251220703,28.89,0
-0.6671555638313293,0.0468750223517417,0.7505528330802917,1.9259779453277588,0.8257859945297241,85.6300048828125,28.89,0
-0.6632485389709473,0.0468750149011611,0.7559525370597839,1.4043627977371216,0.8243042826652527,85.6300048828125,28.89,0
-0.6607412695884705,0.0468750111758708,0.75382000207901,0.7006149291992188,0.8233533501625061,85.6300048828125,28.89,0
-0.6591322422027588,0.0468750074505806,0.752451479434967,0.2382424026727676,0.8227431178092957,85.6300048828125,28.89,0
-0.6636974215507507,0.0468750037252903,0.7515732049942017,0.2102114707231521,0.8223515152931213,85.6300048828125,28.89,0
-0.6610293388366699,0.0468750037252903,0.7510095834732056,0.2029705643653869,0.8221002221107483,85.6300048828125,28.89,0
-0.6593170762062073,0.0468750037252903,0.7506479024887085,-0.1706815212965011,0.8219389319419861,85.6300048828125,28.89,0
-0.658218264579773,0.0468750037252903,0.7504158020019531,-0.7472320199012756,0.821835458278656,85.6300048828125,28.89,0
-0.6631109118461609,0.0468750037252903,0.7502668499946594,-1.1817153692245483,0.8213097453117371,85.72673034667969,28.87,0
-0.6662507057189941,0.0468750037252903,0.7501712441444397,-1.4892022609710691,0.8209723830223083,85.78880310058594,28.87,0
-0.6626678705215454,0.0468750037252903,0.7557076811790466,-1.7474335432052612,0.8207558393478394,85.82864379882812,28.87,0
-0.6603686213493347,0.0468750037252903,0.7536628842353821,-1.6981968879699707,0.8206169009208679,85.85420989990234,28.87,0
-0.6644908785820007,0.0468750037252903,0.7523506283760071,-1.1077178716659546,0.8205277323722839,85.87061309814453,28.87,0
-0.6671363115310669,0.0468750037252903,0.7571062445640564,-0.234386995434761,0.8204705119132996,85.88114166259766,28.87,0
-0.6632362008094788,0.0468750037252903,0.7601581811904907,0.5231081247329712,0.8204337954521179,85.88790130615234,28.87,0
-0.6607333421707153,0.0468750037252903,0.7509211897850037,1.1955188512802124,0.8204101920127869,85.8922348022461,28.87,0
-0.6647249460220337,0.0468750037252903,0.7505911588668823,1.9387173652648928,0.8185589909553528,85.89501953125,28.87,0
-0.6672865152359009,0.0468750037252903,0.7503793835639954,2.4765632152557373,0.8173710107803345,85.89680480957031,28.87,0
-0.6633325815200806,0.0468750037252903,0.7502434849739075,2.4957072734832764,0.8166086077690125,85.89794921875,28.87,0
-0.6607952117919922,0.0468750037252903,0.7557540535926819,2.250047445297241,0.816119372844696,85.898681640625,28.87,0
-0.6647646427154541,0.0468750037252903,0.753692626953125,2.078066825866699,0.8158054351806641,85.89915466308594,28.87,0
-0.66731196641922,0.0468750037252903,0.7523697018623352,1.856639742851257,0.8156039118766785,85.89945983886719,28.87,0
-0.663348913192749,0.0468750037252903,0.7515207529067993,1.510333776473999,0.8154746294021606,85.89965057373047,28.87,0
-0.6608057022094727,0.0468750037252903,0.7509759068489075,1.2558513879776,0.8153916597366333,85.89977264404297,28.87,0
-0.6591736078262329,0.0468750037252903,0.750626266002655,1.0567134618759155,0.8153384327888489,85.89985656738281,28.87,0
-0.6637240052223206,0.0468750037252903,0.7504019141197205,0.6924681663513184,0.8153042197227478,85.89990997314453,28.87,0
-0.6666441559791565,0.0468750037252903,0.7502579092979431,0.2652574181556701,0.8152822852134705,85.89994049072266,28.87,0
-0.662920355796814,0.0468750037252903,0.7501655220985413,-0.0518927462399005,0.8152682185173035,85.89996337890625,28.87,0
-0.6605306267738342,0.0468750037252903,0.7501062154769897,-0.405889630317688,0.8152591586112976,85.89997863769531,28.87,0
-0.6589970588684082,0.0468750037252903,0.750068187713623,-0.9268356561660768,0.8152533769607544,85.89998626708984,28.87,0
-0.6580129265785217,0.0468750037252903,0.7500437498092651,-1.418782114982605,0.8152496814727783,85.89999389648438,28.87,0
-0.6573813557624817,0.0468750037252903,0.7500280737876892,-1.6270078420639038,0.8152472972869873,85.89999389648438,28.87,0
-0.6625738143920898,0.0468750037252903,0.7500180006027222,-1.5170199871063232,0.8124911189079285,85.89999389648438,28.87,0
-0.6603082418441772,0.0468750037252903,0.7500115633010864,-1.188490629196167,0.8107223510742188,85.89999389648438,28.87,0
-0.6588543653488159,0.0468750037252903,0.7500073909759521,-0.6588101983070374,0.8095872402191162,85.89999389648438,28.87,0
-0.6635190844535828,0.0468750037252903,0.750004768371582,0.1289301514625549,0.8088588118553162,85.89999389648438,28.87,0
-0.6609148979187012,0.0468750037252903,0.7556008100509644,1.0321224927902222,0.8083913326263428,85.89999389648438,28.87,0
-0.659243643283844,0.0468750037252903,0.7535942792892456,1.665477991104126,0.8080913424491882,85.89999389648438,28.87,0
-0.6637689471244812,0.0468750037252903,0.7579043507575989,1.889217734336853,0.8078988194465637,85.89999389648438,28.87,0
-0.6666730046272278,0.0468750037252903,0.7550725340843201,1.9109934568405151,0.8077752590179443,85.89999389648438,28.87,0
-0.6629388928413391,0.0468750037252903,0.7532552480697632,1.7386739253997805,0.8081552982330322,85.97164916992188,28.85,0
-0.6605425477027893,0.0468750037252903,0.7520890235900879,1.1802672147750854,0.8083991408348083,86.01763153076172,28.85,0
-0.6646024584770203,0.0468750037252903,0.7513406276702881,0.51739501953125,0.8085556626319885,86.0471420288086,28.85,0
-0.6672078967094421,0.0468750037252903,0.750860333442688,0.2818782925605774,0.8086560964584351,86.06607818603516,28.85,0
-0.6632821559906006,0.0468750037252903,0.7505521178245544,0.4460038542747497,0.8087205290794373,86.07823181152344,28.85,0
-0.6607628464698792,0.0468750037252903,0.7503542900085449,0.5441650748252869,0.8087618947029114,86.08602905273438,28.85,0
-0.6591460704803467,0.0468750037252903,0.7502273917198181,0.3456312417984009,0.8087884187698364,86.09103393554688,28.85,0
-0.6637063026428223,0.0468750037252903,0.7501459121704102,-0.0504695065319538,0.8088054656982422,86.09424591064453,28.85,0
-0.6666327714920044,0.0468750037252903,0.7500936388969421,-0.4802103638648987,0.8065207004547119,86.09630584716797,28.85,0
-0.6629130840301514,0.0468750037252903,0.7500600814819336,-0.8240622878074646,0.8050544857978821,86.09762573242188,28.85,0
-0.6661237478256226,0.0468750037252903,0.7500385642051697,-1.0984653234481812,0.804113507270813,86.09847259521484,28.85,0
-0.6681841611862183,0.0468750037252903,0.7500247359275818,-1.446524977684021,0.8035096526145935,86.0990219116211,28.85,0
-0.6695064306259155,0.0468750037252903,0.7500158548355103,-1.9385827779769895,0.8031221628189087,86.09937286376953,28.85,0
-0.6647571921348572,0.0468750037252903,0.7500101923942566,-2.447816133499145,0.8028734922409058,86.09959411621094,28.85,0
-0.6617094278335571,0.0468750037252903,0.7500065565109253,-2.5596582889556885,0.8027138710021973,86.09973907470703,28.85,0
-0.6597535610198975,0.0468750037252903,0.750004231929779,-1.836100459098816,0.8026114702224731,86.0998306274414,28.85,0
-0.6584984064102173,0.0468750037252903,0.7500027418136597,-0.4474581182003021,0.8007096648216248,86.09989166259766,28.85,0
-0.6632906794548035,0.0468750037252903,0.7500017881393433,0.8592713475227356,0.7994892001152039,86.09992980957031,28.85,0
-0.6607683300971985,0.0468750037252903,0.7500011324882507,1.6548641920089722,0.7987059950828552,86.0999526977539,28.85,0
-0.6591495871543884,0.0468750037252903,0.7555984854698181,2.122438907623291,0.7982033491134644,86.09996795654297,28.85,0
-0.6581107974052429,0.0468750037252903,0.7535927891731262,2.429666757583618,0.7978808283805847,86.0999755859375,28.85,0
-0.6630419492721558,0.0468750037252903,0.7523056268692017,2.476359605789185,0.7976738214492798,86.09998321533203,28.85,0
-0.6662064790725708,0.0468750037252903,0.7514796257019043,2.2770395278930664,0.7975409626960754,86.09999084472656,28.85,0
-0.6626394987106323,0.0468750037252903,0.7509495615959167,1.980746388435364,0.7974557280540466,86.09999084472656,28.85,0
-0.6603504419326782,0.0468750037252903,0.7506093978881836,1.5362396240234375,0.7978599071502686,86.09999084472656,28.85,0
-0.6644791960716248,0.0468750037252903,0.7503910660743713,0.8891406059265137,0.798119306564331,86.09999084472656,28.85,0
-0.6615310311317444,0.0468750037252903,0.7502509355545044,0.3771401941776275,0.7982857823371887,86.09999084472656,28.85,0
-0.6596390604972839,0.0468750037252903,0.7501610517501831,0.2706874907016754,0.7983925938606262,86.09999084472656,28.85,0
-0.6584249138832092,0.0468750037252903,0.7501033544540405,0.1593813449144363,0.7984611392021179,86.09999084472656,28.85,0
-0.6576457619667053,0.0468750037252903,0.750066339969635,-0.3885311186313629,0.7985051274299622,86.09999084472656,28.85,0
-0.6627435088157654,0.0468750037252903,0.7500425577163696,-0.9837648868560792,0.7985333800315857,86.09999084472656,28.85,0
-0.6604171395301819,0.0468750037252903,0.7500272989273071,-1.1866228580474854,0.7985514998435974,86.09999084472656,28.85,0
-0.6589242219924927,0.0468750037252903,0.750017523765564,-1.3347183465957642,0.7967270612716675,86.40451049804688,28.85,0
-0.6635639071464539,0.0468750037252903,0.7500112652778625,-1.809510588645935,0.7955562472343445,86.59993743896484,28.85,0
-0.6665413975715637,0.0468750037252903,0.7500072121620178,-2.393645763397217,0.7948048710823059,86.72534942626953,28.85,0
-0.6628544330596924,0.0468750037252903,0.7500046491622925,-2.7470147609710693,0.7943227291107178,86.80583190917969,28.85,0
-0.6604883670806885,0.0468750037252903,0.7500029802322388,-2.6728501319885254,0.794013261795044,86.85748291015625,28.85,0
-0.6589699387550354,0.0468750037252903,0.7500019073486328,-2.0699563026428223,0.7938147187232971,86.890625,28.85,0
-0.6635932922363281,0.0468750037252903,0.7500012516975403,-1.113424301147461,0.7936872839927673,86.91189575195312,28.85,0
-0.6665602922439575,0.0468750037252903,0.7500007748603821,-0.1162414699792862,0.7936055064201355,86.92554473876953,28.85,0
-0.6684643030166626,0.0468750037252903,0.7500004768371582,0.7852210998535156,0.7926347851753235,86.9343032836914,28.85,0
-0.6696861982345581,0.0468750037252903,0.7500002980232239,1.460457444190979,0.7920118570327759,86.93992614746094,28.85,0
-0.6648725867271423,0.0468750037252903,0.7555979490280151,1.7719776630401611,0.7916120886802673,86.94353485107422,28.85,0
-0.667381227016449,0.0468750037252903,0.7535924315452576,1.8751637935638428,0.791355550289154,86.94584655761719,28.85,0
-0.6689911484718323,0.0468750037252903,0.7523053884506226,1.8625661134719849,0.7911909222602844,86.94733428955078,28.85,0
-0.6644265651702881,0.0524727776646614,0.75147944688797,1.5463801622390747,0.7910852432250977,86.94828796386719,28.85,0
-0.6614972352981567,0.0504673309624195,0.7509494423866272,0.942221701145172,0.791017472743988,86.94889831542969,28.85,0
-0.6596173644065857,0.0491803511977195,0.750609278678894,0.4434477388858795,0.790973961353302,86.94929504394531,28.85,0
-0.6640087366104126,0.0483544431626796,0.7503910064697266,0.2559186220169067,0.7918642163276672,86.94954681396484,28.85,0
-0.6668269038200378,0.0478244200348854,0.7502509355545044,0.2573808133602142,0.7924355864524841,86.94970703125,28.85,0
-0.6686354279518127,0.0474842824041843,0.7501610517501831,0.3407183885574341,0.7928022146224976,86.94981384277344,28.85,0
-0.6641982793807983,0.0472660027444362,0.7501033544540405,0.4156951010227203,0.7930375337600708,86.94988250732422,28.85,0
-0.6613507270812988,0.0471259243786335,0.750066339969635,0.23094342648983,0.7931885123252869,86.94992065429688,28.85,0
-0.6651211380958557,0.0470360293984413,0.7500425577163696,-0.335441529750824,0.7932854294776917,86.949951171875,28.85,0
-0.6675407886505127,0.0469783395528793,0.7500272989273071,-0.938947319984436,0.7933475971221924,86.94996643066406,28.85,0
-0.6634957790374756,0.0469413176178932,0.750017523765564,-1.2223479747772217,0.7933875322341919,86.9499740600586,28.85,0
-0.6608999371528625,0.0469175577163696,0.7500112652778625,-1.447209119796753,0.7915766835212708,86.94998168945312,28.85,0
-0.664831817150116,0.046902310103178,0.7500072121620178,-2.0035080909729004,0.7904146313667297,86.94998931884766,28.85,0
-0.6617572903633118,0.0468925274908542,0.7500046491622925,-2.5862112045288086,0.7896688580513,86.94998931884766,28.85,0
-0.6597842574119568,0.046886246651411,0.7500029802322388,-2.5804033279418945,0.7891902923583984,86.94998931884766,28.85,0
-0.664115846157074,0.0468822158873081,0.7500019073486328,-1.9497255086898804,0.7888831496238708,86.94998931884766,28.85,0
-0.6668956279754639,0.0468796305358409,0.7500012516975403,-1.0792579650878906,0.7886860370635986,86.94998931884766,28.85,0
-0.6686795353889465,0.0468779727816581,0.7500007748603821,-0.1552193015813827,0.7885595560073853,86.94998931884766,28.85,0
-0.6698243618011475,0.0468769073486328,0.7500004768371582,0.7817028164863586,0.7884783744812012,86.94998931884766,28.85,0
-0.6705589890480042,0.0468762256205081,0.7555980682373047,1.5441814661026,0.7870491147041321,87.21868896484375,28.81,0
-0.6654326915740967,0.0468757860362529,0.7535924911499023,1.961844801902771,0.7861319184303284,87.39112091064453,28.81,0
-0.6621429324150085,0.0468755029141902,0.7467076778411865,2.1582255363464355,0.7855433225631714,87.50177764892578,28.81,0
-0.665629506111145,0.0468753241002559,0.7478871941566467,2.3129119873046875,0.7851656079292297,87.57279205322266,28.81,0
-0.6622692346572876,0.0468752086162567,0.7486441135406494,2.272460460662842,0.7849231958389282,87.61836242675781,28.81,0
-0.6601127982139587,0.0468751341104507,0.7491298913955688,1.895408511161804,0.7847676277160645,87.6476058959961,28.81,0
-0.6643266677856445,0.0468750856816768,0.7494416236877441,1.5674564838409424,0.7846677899360657,87.66637420654297,28.81,0
-0.667030930519104,0.0468750558793544,0.7496416568756104,1.6794275045394895,0.7846037149429321,87.67842102050781,28.81,0
-0.6687663793563843,0.0468750372529029,0.7497700452804565,1.8695091009140012,0.7845625877380371,87.68614959716797,28.81,0
-0.6642822623252869,0.0468750223517417,0.7498524188995361,1.5615835189819336,0.7845362424850464,87.69110870361328,28.81,0
-0.6614046692848206,0.0468750149011611,0.7499052882194519,0.815840482711792,0.7845193147659302,87.69429016113281,28.81,0
-0.6595579981803894,0.0468750111758708,0.7499392032623291,0.082902655005455,0.784508466720581,87.69633483886719,28.81,0
-0.6639706492424011,0.0468750074505806,0.7499609589576721,-0.4447758495807647,0.7845014929771423,87.69764709472656,28.81,0
-0.6668024659156799,0.0468750037252903,0.7499749660491943,-0.8335655927658081,0.7844970226287842,87.698486328125,28.81,0
-0.663021981716156,0.0468750037252903,0.7499839067459106,-1.1869632005691528,0.784494161605835,87.69902801513672,28.81,0
-0.6605958938598633,0.0468750037252903,0.7499896883964539,-1.6251254081726074,0.7844923138618469,87.69937133789062,28.81,0
-0.6646367311477661,0.0468750037252903,0.7499933838844299,-2.189336061477661,0.7831140160560608,87.69959259033203,28.81,0
-0.6672298908233643,0.0468750037252903,0.749995768070221,-2.5836572647094727,0.782229483127594,87.69973754882812,28.81,0
-0.6632962822914124,0.0468750037252903,0.7499972581863403,-2.388887882232666,0.7816618084907532,87.6998291015625,28.81,0
-0.6663696765899658,0.0468750037252903,0.7499982118606567,-1.694266676902771,0.781297504901886,87.69989013671875,28.81,0
-0.6627442240715027,0.0468750037252903,0.7499988675117493,-0.9726403951644896,0.7810637354850769,87.6999282836914,28.81,0
-0.6660153865814209,0.0468750037252903,0.7499992847442627,-0.3196656703948974,0.7809137105941772,87.699951171875,28.81,0
-0.6681146621704102,0.0468750037252903,0.7499995231628418,0.4647986590862274,0.780817449092865,87.69996643066406,28.81,0
-0.6694618463516235,0.0468750037252903,0.7499997019767761,1.2942370176315308,0.7807556986808777,87.6999740600586,28.81,0
-0.664728581905365,0.0468750037252903,0.7499998211860657,1.8121925592422483,0.7811749577522278,87.69998168945312,28.81,0
-0.6616910696029663,0.0468750037252903,0.7499998807907104,1.854397892951965,0.7814440131187439,87.69998931884766,28.81,0
-0.6653395295143127,0.0468750037252903,0.7499999403953552,1.6163723468780518,0.7816166877746582,87.69998931884766,28.81,0
-0.6620831489562988,0.0468750037252903,0.7499999403953552,1.3561439514160156,0.7817274928092957,87.69998931884766,28.81,0
-0.6599933505058289,0.0468750037252903,0.7499999403953552,1.1425708532333374,0.7817986011505127,87.69998931884766,28.81,0
-0.6642500162124634,0.0468750037252903,0.7499999403953552,0.984016478061676,0.7818442583084106,87.69998931884766,28.81,0
-0.6669816970825195,0.0468750037252903,0.7499999403953552,1.0076555013656616,0.7818735241889954,87.69998931884766,28.81,0
-0.6687347888946533,0.0468750037252903,0.7499999403953552,1.1446332931518557,0.7818922996520996,87.69998931884766,28.81,0
-0.6642619967460632,0.0468750037252903,0.755597710609436,1.0498263835906982,0.7800679206848145,87.9722671508789,28.81,0
-0.6613916158676147,0.0468750037252903,0.753592312335968,0.6486400961875916,0.7788971662521362,88.14700317382812,28.81,0
-0.6651473641395569,0.0468750037252903,0.7523053288459778,0.2837046086788177,0.7781458497047424,88.25914001464844,28.81,0
-0.6675575971603394,0.0468750037252903,0.75147944688797,0.1354918032884597,0.7776637077331543,88.33110046386719,28.81,0
-0.6635065674781799,0.0468750037252903,0.756547212600708,-0.0312741659581661,0.7773542404174805,88.37728118896484,28.81,0
-0.6609068512916565,0.0468750037252903,0.7542016506195068,-0.4356487095355987,0.7771556973457336,88.40691375732422,28.81,0
-0.6592385172843933,0.0468750037252903,0.7526963949203491,-1.0354976654052734,0.7770282626152039,88.42593383789062,28.81,0
-0.6637656092643738,0.0468750037252903,0.7517303824424744,-1.7142174243927002,0.776946485042572,88.43814086914062,28.81,0
-0.6666708588600159,0.0468750037252903,0.7511104345321655,-2.386230707168579,0.7768939733505249,88.44596862792969,28.81,0
-0.6685352921485901,0.0468750037252903,0.7507126331329346,-2.76375150680542,0.7768602967262268,88.45099639892578,28.81,0
-0.6641339659690857,0.0468750037252903,0.7560551166534424,-2.4148976802825928,0.7768386602401733,88.4542236328125,28.81,0
-0.6613094806671143,0.0468750037252903,0.753885805606842,-1.3312052488327026,0.7768247723579407,88.45629119873047,28.81,0
-0.6650946736335754,0.0468750037252903,0.752493679523468,-0.026715911924839,0.7768158912658691,88.4576187133789,28.81,0
-0.6675238013267517,0.0524727776646614,0.7516003251075745,1.071958303451538,0.7768101692199707,88.4584732055664,28.81,0
-0.6634848713874817,0.0504673309624195,0.75102698802948,1.8737536668777464,0.7768065333366394,88.45902252197266,28.81,0
-0.660892903804779,0.0491803511977195,0.7506590485572815,2.3273959159851074,0.7768042087554932,88.4593734741211,28.81,0
-0.6648273468017578,0.0483544431626796,0.7504229545593262,2.364154577255249,0.7758848667144775,88.4595947265625,28.81,0
-0.6617544293403625,0.0478244200348854,0.7502714395523071,2.1333813667297363,0.775294840335846,88.4597396850586,28.81,0
-0.6597824096679688,0.0474842824041843,0.7501741647720337,1.8849722146987915,0.7749162316322327,88.45983123779297,28.81,0
-0.6641146540641785,0.0472660027444362,0.7501117587089539,1.628828048706055,0.7746732234954834,88.45989227294922,28.81,0
-0.6668948531150818,0.0471259243786335,0.7500717043876648,1.242329716682434,0.774517297744751,88.45993041992188,28.81,0
-0.6630812287330627,0.0470360293984413,0.7500460147857666,0.815168559551239,0.7744172215461731,88.45995330810547,28.81,0
-0.6606338620185852,0.0469783395528793,0.7556272745132446,0.5302934050559998,0.77435302734375,88.45996856689453,28.81,0
-0.6590633392333984,0.0469413176178932,0.7536112666130066,0.3582246601581573,0.7743118405342102,88.45997619628906,28.81,0
-0.6636531949043274,0.0469175577163696,0.752317488193512,0.1474887281656265,0.7752032279968262,88.4599838256836,28.81,0
-0.6665987372398376,0.046902310103178,0.7514872550964355,-0.1883736997842788,0.7757752537727356,88.45999145507812,28.81,0
-0.6628912091255188,0.0468925274908542,0.7509544491767883,-0.6475260257720947,0.7761423587799072,88.45999145507812,28.81,0
-0.6605119705200195,0.046886246651411,0.7506124973297119,-1.1392252445220947,0.7763779759407043,88.45999145507812,28.81,0
-0.6589850783348083,0.0468822158873081,0.7503930926322937,-1.5658292770385742,0.7765291333198547,88.45999145507812,28.81,0
-0.6636030077934265,0.0468796305358409,0.7502522468566895,-2.011562824249268,0.7766261696815491,88.45999145507812,28.81,0
-0.6665664911270142,0.0468779727816581,0.75016188621521,-2.5340590476989746,0.7766884565353394,88.45999145507812,28.81,0
-0.6628705263137817,0.0468769073486328,0.7501038908958435,-2.8478715419769287,0.7767283916473389,88.45999145507812,28.81,0
-0.6660964488983154,0.0468762256205081,0.7500666975975037,-2.5476977825164795,0.7749179601669312,88.56747436523438,28.81,0
-0.6681666374206543,0.0468757860362529,0.7500427961349487,-1.6242181062698364,0.7737561464309692,88.6364517211914,28.81,0
-0.6638973951339722,0.0468755029141902,0.7500274777412415,-0.4977782368659973,0.7730105519294739,88.68071746826172,28.81,0
-0.6667554378509521,0.0468753241002559,0.7500176429748535,0.4651386439800262,0.7725321054458618,88.70912170410156,28.81,0
-0.6629917621612549,0.0468752086162567,0.7556090950965881,1.2514643669128418,0.772225022315979,88.72734832763672,28.81,0
-0.6605764627456665,0.0468751341104507,0.7535995841026306,1.831316947937012,0.7720279693603516,88.73904418945312,28.81,0
-0.6646242737770081,0.0468750856816768,0.7523099780082703,2.0028088092803955,0.7719014883041382,88.74655151367188,28.81,0
-0.6672219038009644,0.0468750558793544,0.7514824271202087,1.8083434104919436,0.7718203663825989,88.75137329101562,28.81,0
-0.6632911562919617,0.0468750372529029,0.75095134973526,1.561739206314087,0.7722272276878357,88.75446319580078,28.81,0
-0.6607686281204224,0.0468750223517417,0.7506105303764343,1.399900197982788,0.7724882960319519,88.7564468383789,28.81,0
-0.6647475957870483,0.0468750149011611,0.7503917813301086,1.2458852529525757,0.7726558446884155,88.75772094726562,28.81,0
-0.6673010587692261,0.0468750111758708,0.7502514123916626,1.1398820877075195,0.7727633714675903,88.75853729248047,28.81,0
-0.6633419394493103,0.0468750074505806,0.750161349773407,1.1650023460388184,0.7728323936462402,88.75906372070312,28.81,0
-0.6608011722564697,0.0468750037252903,0.7557013034820557,1.1703753471374512,0.7728766798973083,88.7593994140625,28.81,0
-0.6591706871986389,0.0468750037252903,0.7536587715148926,0.9194605946540833,0.7729051113128662,88.75961303710938,28.81,0
-0.6637220978736877,0.0468750037252903,0.752348005771637,0.3965978026390075,0.7729233503341675,88.75975036621094,28.81,0
-0.666642963886261,0.0468750037252903,0.7515068054199219,-0.2577946186065674,0.7715579271316528,88.75984191894531,28.81,0
-0.6629195809364319,0.0468750037252903,0.7509669661521912,-0.9392741322517396,0.7706816792488098,88.75990295410156,28.81,0
-0.660530149936676,0.0468750037252903,0.7506205439567566,-1.5772327184677124,0.770119309425354,88.75994110107422,28.81,0
-0.6645945310592651,0.0468750037252903,0.7503982186317444,-2.1550188064575195,0.769758403301239,88.75996398925781,28.81,0
-0.6616050601005554,0.0468750037252903,0.7502555251121521,-2.679859399795532,0.7695268392562866,88.75997924804688,28.81,0
-0.6596865653991699,0.0468750037252903,0.7501639723777771,-2.9486029148101807,0.7693782448768616,88.7599868774414,28.81,0
-0.6640531420707703,0.0468750037252903,0.7501052021980286,-2.6338367462158203,0.769282877445221,88.75999450683594,28.81,0
-0.6668553948402405,0.0468750037252903,0.7500675320625305,-1.7511485815048218,0.7692216634750366,88.75999450683594,28.81,0
-0.6686537265777588,0.0468750037252903,0.7500433325767517,-0.6437212228775024,0.7696412801742554,88.75999450683594,28.81,0
-0.6642100214958191,0.0468750037252903,0.7500278353691101,0.4502975642681122,0.7699105739593506,88.75999450683594,28.81,0
-0.6613582968711853,0.0468750037252903,0.7500178813934326,1.435399293899536,0.7700834274291992,88.75999450683594,28.81,0
-0.6651259660720825,0.0468750037252903,0.7556092739105225,2.1571452617645264,0.7701943516731262,88.75999450683594,28.81,0
-0.6619460582733154,0.0468750037252903,0.7535997033119202,2.4447741508483887,0.770265519618988,88.75999450683594,28.81,0
-0.6599053740501404,0.0468750037252903,0.7523100972175598,2.346334218978882,0.770311176776886,88.75999450683594,28.81,0
-0.6641935706138611,0.0468750037252903,0.7514824867248535,2.13627552986145,0.7703405022621155,88.75999450683594,28.81,0
-0.6613477468490601,0.0468750037252903,0.75095134973526,2.044462919235229,0.7703593373298645,88.75999450683594,28.81,0
-0.6595214605331421,0.0468750037252903,0.7506105303764343,1.999873161315918,0.7703713774681091,88.83164978027344,28.81,0
-0.6583494544029236,0.0468750037252903,0.7503917813301086,1.8566155433654783,0.7703791260719299,88.87763214111328,28.81,0
-0.6631950736045837,0.0468750037252903,0.7502514123916626,1.689447045326233,0.7703840732574463,88.90714263916016,28.81,0
-0.6663047075271606,0.0468750037252903,0.750161349773407,1.557089924812317,0.7703872919082642,88.92607879638672,28.81,0
-0.6683003306388855,0.0468750037252903,0.7501035332679749,1.2786915302276611,0.7703893184661865,88.938232421875,28.81,0
-0.6639832258224487,0.0468750037252903,0.7500664591789246,0.7525216341018677,0.7703906297683716,88.94602966308594,28.81,0
-0.6612127423286438,0.0468750037252903,0.7500426769256592,0.0995894595980644,0.7703914642333984,88.95103454589844,28.81,0
-0.6650325655937195,0.0468750037252903,0.7500273585319519,-0.616778552532196,0.7703920006752014,88.9542465209961,28.81,0
-0.6618861556053162,0.0468750037252903,0.7500175833702087,-1.3917689323425293,0.7685562968254089,88.95630645751953,28.81,0
-0.6654647588729858,0.0468750037252903,0.7500112652778625,-2.132728338241577,0.7673782706260681,88.95762634277344,28.81,0
-0.6677612662315369,0.0468750037252903,0.7500072121620178,-2.7766144275665283,0.7666222453117371,88.9584732055664,28.81,0
-0.6692350506782532,0.0468750037252903,0.7500046491622925,-3.343874216079712,0.7661370635032654,88.95902252197266,28.81,0
-0.6645830869674683,0.0468750037252903,0.7500029802322388,-3.650587797164917,0.7658257484436035,88.9593734741211,28.81,0
-0.6671954989433289,0.0468750037252903,0.7500019073486328,-3.310032606124878,0.7656259536743164,88.9595947265625,28.81,0
-0.6688719391822815,0.0468750037252903,0.7500012516975403,-2.2746565341949463,0.7654977440834045,88.9597396850586,28.81,0
-0.6643500328063965,0.0468750037252903,0.7500007748603821,-1.019086837768555,0.7654154300689697,88.95983123779297,28.81,0
-0.6614481210708618,0.0468750037252903,0.7500004768371582,-0.0771965458989143,0.766280472278595,88.95989227294922,28.81,0
-0.6595858335494995,0.0468750037252903,0.7500002980232239,0.4556028842926025,0.766835629940033,88.95993041992188,28.81,0
-0.6639885306358337,0.0468750037252903,0.7500001788139343,0.8369311690330505,0.7671918869018555,88.95995330810547,28.81,0
-0.6668139100074768,0.0524727776646614,0.7500001192092896,1.3037654161453247,0.7674205303192139,88.95996856689453,28.81,0
-0.6630293130874634,0.0504673309624195,0.7500000596046448,1.8541330099105835,0.7675672173500061,88.95997619628906,28.81,0
-0.6661983728408813,0.0491803511977195,0.7500000596046448,2.2467355728149414,0.7676613926887512,88.9599838256836,28.81,0
-0.6682320833206177,0.0483544431626796,0.7500000596046448,2.255070209503174,0.7677218317985535,88.95999145507812,28.81,0
-0.6639394164085388,0.0478244200348854,0.7500000596046448,2.006056070327759,0.7677605748176575,88.95999145507812,28.81,0
-0.6611846089363098,0.0474842824041843,0.7500000596046448,1.8426705598831177,0.7659493684768677,88.95999145507812,28.81,0
-0.6650145053863525,0.0472660027444362,0.7500000596046448,1.8202183246612549,0.7647870779037476,88.95999145507812,28.81,0
-0.6674723029136658,0.0471259243786335,0.7500000596046448,1.6517590284347534,0.7640411853790283,88.95999145507812,28.81,0
-0.6690496206283569,0.0470360293984413,0.7500000596046448,1.1961417198181152,0.7635625004768372,88.95999145507812,28.81,0
-0.6700618267059326,0.0469783395528793,0.7555978298187256,0.5669906735420227,0.7632552981376648,88.95999145507812,28.81,0
-0.665113627910614,0.0469413176178932,0.7535923719406128,-0.1771069169044494,0.7630581855773926,88.95999145507812,28.81,0
-0.6619381904602051,0.0469175577163696,0.7523053884506226,-0.9233191609382628,0.7629316449165344,88.95999145507812,28.81,0
-0.6654981374740601,0.046902310103178,0.75147944688797,-1.4451861381530762,0.7628504633903503,88.95999145507812,28.81,0
-0.667782723903656,0.0468925274908542,0.7509494423866272,-1.755012273788452,0.7632572650909424,89.02806091308594,28.81,0
-0.6636510491371155,0.046886246651411,0.750609278678894,-2.168795347213745,0.7635183334350586,89.07174682617188,28.81,0
-0.6665973663330078,0.0468822158873081,0.7503910064697266,-2.76751708984375,0.7636858820915222,89.09978485107422,28.81,0
-0.6684881448745728,0.0468796305358409,0.7502509355545044,-3.191150665283203,0.763793408870697,89.1177749633789,28.81,0
-0.6697015166282654,0.0468779727816581,0.7501610517501831,-3.111921787261963,0.7638624310493469,89.12931823730469,28.81,0
-0.6648824214935303,0.0468769073486328,0.7501033544540405,-2.552351474761963,0.763906717300415,89.13672637939453,28.81,0
-0.6617897748947144,0.0468762256205081,0.750066339969635,-1.709603786468506,0.7639350891113281,89.1414794921875,28.81,0
-0.6598051190376282,0.0468757860362529,0.7500425577163696,-0.7352851629257202,0.7639533281326294,89.14453125,28.81,0
-0.6585314869880676,0.0468755029141902,0.7500272989273071,0.3234680593013763,0.7625879049301147,89.14649200439453,28.81,0
-0.6577141284942627,0.0468753241002559,0.750017523765564,1.4328241348266602,0.7617116570472717,89.14775085449219,28.81,0
-0.6627873778343201,0.0468752086162567,0.7500112652778625,2.4635941982269287,0.7611493468284607,89.1485595703125,28.81,0
-0.6660431027412415,0.0468751341104507,0.7556049823760986,3.171656608581543,0.7607884407043457,89.14907836914062,28.81,0
-0.6625346541404724,0.0468750856816768,0.7591947317123413,3.368104696273804,0.7605568766593933,89.14940643310547,28.81,0
-0.6658809185028076,0.0468750558793544,0.7559006214141846,3.1430814266204834,0.7604082822799683,89.14962005615234,28.81,0
-0.6680283546447754,0.0468750372529029,0.7537866830825806,2.783720016479492,0.7603129148483276,89.1497573852539,28.81,0
-0.6638086438179016,0.0468750223517417,0.7524300813674927,2.499363899230957,0.7602517008781433,89.14984130859375,28.81,0
-0.6611006855964661,0.0468750149011611,0.7515594959259033,2.341958522796631,0.7606713175773621,89.14990234375,28.81,0
-0.6593629121780396,0.0468750111758708,0.7510008215904236,2.287518262863159,0.7609406113624573,89.14994049072266,28.81,0
-0.6638454794883728,0.0468750074505806,0.7506422400474548,2.2418339252471924,0.7611134052276611,89.14996337890625,28.81,0
-0.6667221188545227,0.0468750037252903,0.7504121661186218,2.0548830032348637,0.7612243294715881,89.14997863769531,28.81,0
-0.6685681939125061,0.0468750037252903,0.7502645254135132,1.6984586715698242,0.76129549741745,89.14998626708984,28.81,0
-0.664155125617981,0.0468750037252903,0.7501697540283203,1.2583540678024292,0.7613411545753479,89.14999389648438,28.81,0
-0.661323070526123,0.0468750037252903,0.7501089572906494,0.7752960324287415,0.7613704800605774,89.14999389648438,28.81,0
-0.6651033759117126,0.0524727776646614,0.7500699162483215,0.2324297875165939,0.7613893151283264,89.14999389648438,28.81,0
-0.6675293445587158,0.0504673309624195,0.7500448822975159,-0.3452353477478027,0.7604835033416748,89.14999389648438,28.81,0
-0.6634884476661682,0.0491803511977195,0.7500287890434265,-0.9201544523239136,0.7599022388458252,89.14999389648438,28.81,0
-0.6608952283859253,0.0483544431626796,0.7500184774398804,-1.6079535484313965,0.7595292329788208,89.14999389648438,28.81,0
-0.6648288369178772,0.0478244200348854,0.7500118613243103,-2.454174518585205,0.7592898607254028,89.14999389648438,28.81,0
-0.661755383014679,0.0474842824041843,0.7500076293945312,-3.022308588027954,0.7591361999511719,89.14999389648438,28.81,0
-0.6653808355331421,0.0472660027444362,0.7500048875808716,-2.699049711227417,0.7590376138687134,89.14999389648438,28.81,0
-0.6621096730232239,0.0471259243786335,0.7500031590461731,-1.5350531339645386,0.7589743137359619,89.14999389648438,28.81,0
-0.6656081676483154,0.0470360293984413,0.7500020265579224,-0.2148549109697342,0.7589337229728699,89.14999389648438,28.81,0
-0.6622555255889893,0.0469783395528793,0.7500013113021851,0.8759873509407043,0.7593666315078735,89.21089935302734,28.79,0
-0.6657017469406128,0.0469413176178932,0.7500008344650269,1.8697984218597408,0.7596444487571716,89.24998474121094,28.79,0
-0.6623156070709229,0.0469175577163696,0.750000536441803,2.6866979598999023,0.7598227262496948,89.27507019042969,28.79,0
-0.6657403111457825,0.046902310103178,0.7500003576278687,2.9601566791534424,0.7599371075630188,89.29116821289062,28.79,0
-0.6623403429985046,0.0468925274908542,0.7500002384185791,2.702155113220215,0.7600105404853821,89.30149841308594,28.79,0
-0.6657562255859375,0.046886246651411,0.7500001788139343,2.318047523498535,0.7600576281547546,89.3081283569336,28.79,0
-0.667948305606842,0.0468822158873081,0.7500001192092896,2.0321409702301025,0.7600878477096558,89.3123779296875,28.79,0
-0.6693550944328308,0.0468796305358409,0.7500000596046448,1.830749750137329,0.7601072788238525,89.31510925292969,28.79,0
-0.6646600961685181,0.0468779727816581,0.7500000596046448,1.7158386707305908,0.7601197361946106,89.31686401367188,28.79,0
-0.6672449111938477,0.0468769073486328,0.7500000596046448,1.656425714492798,0.7601277232170105,89.31798553466797,28.79,0
-0.668903648853302,0.0468762256205081,0.7500000596046448,1.5072380304336548,0.7601328492164612,89.31871032714844,28.79,0
-0.6699681282043457,0.0468757860362529,0.7500000596046448,1.128474473953247,0.7601361274719238,89.31917572021484,28.79,0
-0.6706512570381165,0.0468755029141902,0.7500000596046448,0.5522263050079346,0.760138213634491,89.31947326660156,28.79,0
-0.6654918789863586,0.0468753241002559,0.7500000596046448,-0.0540265589952468,0.7601395845413208,89.31966400146484,28.79,0
-0.6621809005737305,0.0468752086162567,0.7500000596046448,-0.5935528874397278,0.7601404786109924,89.31978607177734,28.79,0
-0.6656538844108582,0.0468751341104507,0.7500000596046448,-1.1583269834518433,0.7601410150527954,89.31986236572266,28.79,0
-0.6678826212882996,0.0468750856816768,0.7500000596046448,-1.7930423021316528,0.7601413726806641,89.31990814208984,28.79,0
-0.663715124130249,0.0468750558793544,0.7500000596046448,-2.4260683059692383,0.7601416110992432,89.31993865966797,28.79,0
-0.6610406637191772,0.0468750372529029,0.7500000596046448,-3.05801010131836,0.7601417899131775,89.31996154785156,28.79,0
-0.6649221181869507,0.0468750223517417,0.7500000596046448,-3.682091236114502,0.7601418495178223,89.31997680664062,28.79,0
-0.667413055896759,0.0468750149011611,0.7500000596046448,-4.036016941070557,0.760141909122467,89.31998443603516,28.79,0
-0.6634138226509094,0.0468750111758708,0.7500000596046448,-3.8547325134277344,0.7601419687271118,89.31999206542969,28.79,0
-0.6608473062515259,0.0468750074505806,0.7500000596046448,-3.186677932739258,0.7601419687271118,89.31999206542969,28.79,0
-0.6592003107070923,0.0468750037252903,0.7500000596046448,-2.2205727100372314,0.7601419687271118,89.31999206542969,28.79,0
-0.6637411117553711,0.0468750037252903,0.7500000596046448,-1.0631955862045288,0.7601419687271118,89.31999206542969,28.79,0
-0.6610573530197144,0.0468750037252903,0.7500000596046448,0.1918507814407348,0.7601419687271118,89.31999206542969,28.79,0
-0.6649328470230103,0.0468750037252903,0.7500000596046448,1.3447771072387695,0.7601419687271118,89.31999206542969,28.79,0
-0.6618221402168274,0.0468750037252903,0.7500000596046448,2.131232261657715,0.7601419687271118,89.31999206542969,28.79,0
-0.6654236316680908,0.0468750037252903,0.7500000596046448,2.3994839191436768,0.7601419687271118,89.31999206542969,28.79,0
-0.6621370911598206,0.0468750037252903,0.7500000596046448,2.2778611183166504,0.7601419687271118,89.31999206542969,28.79,0
-0.6656257510185242,0.0468750037252903,0.7500000596046448,2.0350122451782227,0.7601419687271118,89.31999206542969,28.79,0
-0.6678646206855774,0.0468750037252903,0.7500000596046448,1.7967666387557983,0.7601419687271118,89.31999206542969,28.79,0
-0.6637036204338074,0.0468750037252903,0.7500000596046448,1.629544019699097,0.7587648630142212,89.35224151611328,28.81,0
-0.6666311025619507,0.0468750037252903,0.7500000596046448,1.601046800613403,0.7578811049461365,89.37293243408203,28.81,0
-0.6685097813606262,0.0468750037252903,0.7500000596046448,1.6006717681884766,0.7573139667510986,89.38621520996094,28.81,0
-0.669715404510498,0.0468750037252903,0.7500000596046448,1.4392151832580566,0.7569499611854553,89.39473724365234,28.81,0
-0.6704890727996826,0.0468750037252903,0.7500000596046448,1.1349774599075315,0.7567163705825806,89.40020751953125,28.81,0
-0.6709855794906616,0.0468750037252903,0.7500000596046448,0.757023811340332,0.7565664649009705,89.40371704101562,28.81,0
-0.66570645570755,0.0468750037252903,0.7500000596046448,0.1490521728992462,0.756470263004303,89.40596771240234,28.81,0
-0.6679163575172424,0.0468750037252903,0.7500000596046448,-0.7964082360267639,0.7564085721969604,89.40741729736328,28.81,0
-0.6693345904350281,0.0468750037252903,0.7500000596046448,-1.7757381200790403,0.7554507255554199,89.40834045410156,28.81,0
-0.6646469235420227,0.0468750037252903,0.7500000596046448,-2.4973626136779785,0.7548360824584961,89.408935546875,28.81,0
-0.6616386771202087,0.0468750037252903,0.7500000596046448,-3.2076575756073,0.7544416189193726,89.40931701660156,28.81,0
-0.6597081422805786,0.0468750037252903,0.7500000596046448,-4.175792217254639,0.7541884779930115,89.40956115722656,28.81,0
-0.6640670299530029,0.0468750037252903,0.7500000596046448,-4.922475337982178,0.7540259957313538,89.40972137451172,28.81,0
-0.666864275932312,0.0468750037252903,0.7500000596046448,-4.731711864471436,0.7539217472076416,89.40982055664062,28.81,0
-0.6630616188049316,0.0468750037252903,0.7500000596046448,-3.6634910106658936,0.7538548707962036,89.4098892211914,28.81,0
-0.6606212854385376,0.0468750037252903,0.7500000596046448,-2.297278881072998,0.7538119554519653,89.40992736816406,28.81,0
-0.6646530032157898,0.0468750037252903,0.7500000596046448,-0.951205313205719,0.754702627658844,89.40995788574219,28.81,0
-0.6672403216362,0.0468750037252903,0.7500000596046448,0.2458067685365677,0.7552741765975952,89.40997314453125,28.81,0
-0.6633029580116272,0.0468750037252903,0.7500000596046448,1.0318931341171265,0.755640983581543,89.40998077392578,28.81,0
-0.6607761979103088,0.0468750037252903,0.7500000596046448,1.3787246942520142,0.755876362323761,89.40998840332031,28.81,0
-0.6647524237632751,0.0468750037252903,0.7500000596046448,1.6837005615234375,0.7560274004936218,89.40999603271484,28.81,0
-0.6617063879966736,0.0468750037252903,0.7555978298187256,2.191100597381592,0.7561243176460266,89.40999603271484,28.81,0
-0.6653493642807007,0.0468750037252903,0.7535923719406128,2.609867572784424,0.7561865448951721,89.40999603271484,28.81,0
-0.6676872372627258,0.0524727776646614,0.7467076182365417,2.638575553894043,0.7562264800071716,89.40999603271484,28.81,0
-0.6691875457763672,0.0504673309624195,0.7534849047660828,2.359644889831543,0.756252110004425,89.40999603271484,28.81,0
-0.6645525693893433,0.0491803511977195,0.7522364258766174,1.9943493604660036,0.7562685608863831,89.40999603271484,28.81,0
-0.6615781188011169,0.0483544431626796,0.7570329904556274,1.702602505683899,0.7562791109085083,89.40999603271484,28.81,0
-0.6652670502662659,0.0478244200348854,0.7545133829116821,1.497463345527649,0.7562859058380127,89.40999603271484,28.81,0
-0.6676344275474548,0.0474842824041843,0.7528964281082153,1.1866880655288696,0.7562902569770813,89.40999603271484,28.81,0
-0.6635558605194092,0.0472660027444362,0.7518587708473206,0.639740526676178,0.7562930583953857,89.40999603271484,28.81,0
-0.666536271572113,0.0471259243786335,0.7511928677558899,0.0379608161747455,0.756294846534729,89.40999603271484,28.81,0
-0.6628511548042297,0.0470360293984413,0.7507655024528503,-0.4342085719108581,0.7562959790229797,89.40999603271484,28.81,0
-0.6604862213134766,0.0469783395528793,0.7504912614822388,-0.7587152123451233,0.7558374404907227,89.41716003417969,28.79,0
-0.6589685678482056,0.0469413176178932,0.750315248966217,-0.9956254959106444,0.7555431723594666,89.42176055908203,28.79,0
-0.6635923981666565,0.0469175577163696,0.7502022981643677,-1.412771463394165,0.7553543448448181,89.42471313476562,28.79,0
-0.660961925983429,0.046902310103178,0.7501298189163208,-2.2536838054656982,0.7552331686019897,89.42660522460938,28.79,0
-0.6648716330528259,0.0468925274908542,0.750083327293396,-3.094269275665283,0.7551553845405579,89.42781829833984,28.79,0
-0.6673806309700012,0.046886246651411,0.7500534653663635,-3.193051815032959,0.7551054358482361,89.42859649658203,28.79,0
-0.6633930206298828,0.0468822158873081,0.7500343322753906,-2.5148515701293945,0.7550734281539917,89.4291000366211,28.79,0
-0.6608339548110962,0.0468796305358409,0.7500220537185669,-1.6246347427368164,0.7550528645515442,89.4294204711914,28.79,0
-0.6591917276382446,0.0468779727816581,0.7500141263008118,-0.6915046572685242,0.7541217803955078,89.42962646484375,28.79,0
-0.6637356281280518,0.0468769073486328,0.7500090599060059,0.6417525410652161,0.7535243034362793,89.42976379394531,28.79,0
-0.6610538363456726,0.0468762256205081,0.750005841255188,2.3392655849456787,0.7531408667564392,89.42984771728516,28.79,0
-0.659332811832428,0.0468757860362529,0.7500037550926208,3.6435861587524414,0.7528947591781616,89.42990112304688,28.79,0
-0.6638261675834656,0.0468755029141902,0.750002384185791,4.068627834320068,0.7527368664741516,89.42993927001953,28.79,0
-0.6667097210884094,0.0468753241002559,0.7500015497207642,3.968807220458984,0.7526355385780334,89.42996215820312,28.79,0
-0.6685602068901062,0.0468752086162567,0.7500010132789612,3.7292020320892334,0.7525705099105835,89.42997741699219,28.79,0
-0.6641499996185303,0.0468751341104507,0.7500006556510925,3.303161382675171,0.7525287866592407,89.42998504638672,28.79,0
-0.6613197922706604,0.0468750856816768,0.7500004172325134,2.721651554107666,0.7525019645690918,89.42999267578125,28.79,0
-0.6651012897491455,0.0468750558793544,0.7500002384185791,2.17650842666626,0.7524847984313965,89.42999267578125,28.79,0
-0.6675280332565308,0.0468750372529029,0.7500001788139343,1.575886607170105,0.752473771572113,89.42999267578125,28.79,0
-0.6634876132011414,0.0468750223517417,0.7500001192092896,0.7139595150947571,0.7524666786193848,89.42999267578125,28.79,0
-0.6664924621582031,0.0468750149011611,0.7500000596046448,-0.236841544508934,0.7524621486663818,89.42999267578125,28.79,0
-0.6684207916259766,0.0468750111758708,0.7500000596046448,-0.965235948562622,0.7524592280387878,89.42999267578125,28.79,0
-0.6640605330467224,0.0468750074505806,0.7500000596046448,-1.6297191381454468,0.752457320690155,89.42999267578125,28.79,0
-0.6612623333930969,0.0468750037252903,0.7500000596046448,-2.58278489112854,0.7524561285972595,89.42999267578125,28.79,0
-0.6594666242599487,0.0468750037252903,0.7500000596046448,-3.660142421722412,0.7519960999488831,89.42999267578125,28.79,0
-0.6583142280578613,0.0468750037252903,0.7500000596046448,-4.426762580871582,0.7517008781433105,89.42999267578125,28.79,0
-0.6631724834442139,0.0468750037252903,0.7500000596046448,-4.986804008483887,0.7515113949775696,89.42999267578125,28.79,0
-0.6662902235984802,0.0468750037252903,0.7500000596046448,-5.779698371887207,0.7513898015022278,89.42999267578125,28.79,0
-0.6682910323143005,0.0468750037252903,0.7500000596046448,-6.800840377807617,0.7513117790222168,89.42999267578125,28.79,0
-0.669575035572052,0.0468750037252903,0.7500000596046448,-7.7427568435668945,0.7512617111206055,89.42999267578125,28.79,0
-0.670399010181427,0.0468750037252903,0.7500000596046448,-8.236165046691895,0.7512295842170715,89.42999267578125,28.79,0
-0.6709278225898743,0.0468750037252903,0.7500000596046448,-7.474450588226318,0.7512089610099792,89.42999267578125,28.79,0
-0.6656693816184998,0.0468750037252903,0.7500000596046448,-4.689194679260254,0.7525728940963745,89.4371566772461,28.77,0
-0.667892575263977,0.0468750037252903,0.7500000596046448,-0.4405484795570373,0.7534481883049011,89.44175720214844,28.77,0
-0.6693193316459656,0.0468750037252903,0.7500000596046448,3.564967632293701,0.7540099024772644,89.44470977783203,28.77,0
-0.6702349185943604,0.0468750037252903,0.7500000596046448,6.11039924621582,0.7543703317642212,89.44660186767578,28.77,0
-0.6708225011825562,0.0468750037252903,0.7500000596046448,7.134872913360596,0.7546016573905945,89.44781494140625,28.77,0
-0.6711995601654053,0.0468750037252903,0.7500000596046448,7.032814979553223,0.75475013256073,89.44859313964844,28.77,0
-0.6658437848091125,0.0468750037252903,0.7500000596046448,6.161240577697754,0.754845380783081,89.4490966796875,28.77,0
-0.6680045127868652,0.0468750037252903,0.7500000596046448,4.989294052124023,0.7549065351486206,89.44941711425781,28.77,0
-0.6637933850288391,0.0468750037252903,0.7555978298187256,4.040164470672607,0.7540279030799866,89.44962310791016,28.77,0
-0.6610909104347229,0.0468750037252903,0.7591901421546936,3.463310956954956,0.7534640431404114,89.44976043701172,28.77,0
-0.6649543642997742,0.0468750037252903,0.7558977007865906,2.935486078262329,0.75310218334198,89.44984436035156,28.77,0
-0.6674337387084961,0.0468750037252903,0.7537847757339478,2.195510149002075,0.7528699636459351,89.44989776611328,28.77,0
-0.6634270548820496,0.0468750037252903,0.7524288296699524,1.3516308069229126,0.7527209520339966,89.44993591308594,28.77,0
-0.6608558297157288,0.0468750037252903,0.7515586614608765,0.5987057089805603,0.7526252865791321,89.44995880126953,28.77,0
-0.6592057347297668,0.0468750037252903,0.7510002851486206,-0.0027032995130866,0.7525638937950134,89.4499740600586,28.77,0
-0.6637445688247681,0.0468750037252903,0.750641942024231,-0.5212082862854004,0.7525244951248169,89.44998168945312,28.77,0
-0.6666573286056519,0.0468750037252903,0.7504119873046875,-1.0223360061645508,0.7524992227554321,89.44998931884766,28.77,0
-0.6685265898704529,0.0468750037252903,0.7502644062042236,-1.4979816675186155,0.7524830102920532,89.44998931884766,28.77,0
-0.6641284227371216,0.0468750037252903,0.7501696944236755,-1.957274436950684,0.7524726390838623,89.44998931884766,28.77,0
-0.6613059043884277,0.0468750037252903,0.7501088976860046,-2.5529584884643555,0.7524659633636475,89.44998931884766,28.77,0
-0.6650923490524292,0.0468750037252903,0.7500698566436768,-3.3758909702301025,0.7524616718292236,89.44998931884766,28.77,0
-0.6675223112106323,0.0468750037252903,0.7500448226928711,-4.18344259262085,0.752458930015564,89.44998931884766,28.77,0
-0.6634839177131653,0.0468750037252903,0.7500287890434265,-4.637196063995361,0.7524571418762207,89.44998931884766,28.77,0
-0.6608923077583313,0.0468750037252903,0.7500184774398804,-4.631035327911377,0.75245600938797,89.44998931884766,28.77,0
-0.6648269295692444,0.0468750037252903,0.7500118613243103,-4.19717264175415,0.7515370845794678,89.44998931884766,28.77,0
-0.6673519611358643,0.0468750037252903,0.7500076293945312,-3.281046152114868,0.7509473562240601,89.44998931884766,28.77,0
-0.668972373008728,0.0468750037252903,0.7500048875808716,-1.861971378326416,0.7505689263343811,89.44998931884766,28.77,0
-0.6644144654273987,0.0468750037252903,0.7500031590461731,-0.1953674703836441,0.7503260374069214,89.44998931884766,28.77,0
-0.6614894866943359,0.0468750037252903,0.7500020265579224,1.2539159059524536,0.7501701712608337,89.44998931884766,28.77,0
-0.6652101874351501,0.0468750037252903,0.7500013113021851,2.1159136295318604,0.7500701546669006,89.44998931884766,28.77,0
-0.6675978899002075,0.0468750037252903,0.7500008344650269,2.2893412113189697,0.7500059604644775,89.44998931884766,28.77,0
-0.6691302061080933,0.0468750037252903,0.750000536441803,1.9814757108688357,0.7499647736549377,89.44998931884766,28.77,0
-0.6645157933235168,0.0468750037252903,0.7500003576278687,1.6406023502349854,0.7485612034797668,89.45716094970703,28.77,0
-0.6671522855758667,0.0468750037252903,0.7500002384185791,1.658299446105957,0.7476604580879211,89.46176147460938,28.77,0
-0.6688442230224609,0.0468750037252903,0.7555979490280151,1.9741753339767456,0.7470824122428894,89.46471405029297,28.77,0
-0.6643322706222534,0.0468750037252903,0.7535924315452576,2.2055468559265137,0.7467114925384521,89.46660614013672,28.77,0
-0.6670345067977905,0.0468750037252903,0.7467076182365417,2.2071423530578613,0.7464734315872192,89.46781921386719,28.77,0
-0.6687686443328857,0.0468750037252903,0.7534849047660828,2.136514663696289,0.7463206648826599,89.46859741210938,28.77,0
-0.6642837524414062,0.0468750037252903,0.7522364258766174,2.0625290870666504,0.7462226152420044,89.46910095214844,28.77,0
-0.661405622959137,0.0468750037252903,0.7514352202415466,1.8215904235839844,0.7461597323417664,89.46942138671875,28.77,0
-0.665156364440918,0.0468750037252903,0.7509210705757141,1.3302078247070312,0.7461193799972534,89.4696273803711,28.77,0
-0.6675633788108826,0.0468750037252903,0.7505910992622375,0.7318432331085205,0.7460934519767761,89.46976470947266,28.77,0
-0.663510262966156,0.0468750037252903,0.7503793239593506,0.1257275938987732,0.7460768222808838,89.4698486328125,28.77,0
-0.6609092354774475,0.0468750037252903,0.7502434253692627,-0.5462660193443298,0.746066153049469,89.46990203857422,28.77,0
-0.6592400074005127,0.0468750037252903,0.7501562237739563,-1.1709718704223633,0.7460592985153198,89.46994018554688,28.77,0
-0.6581687927246094,0.0468750037252903,0.7501002550125122,-1.5324639081954956,0.7460548877716064,89.46996307373047,28.77,0
-0.6630791425704956,0.0468750037252903,0.7500643134117126,-1.8432652950286863,0.746052086353302,89.46997833251953,28.77,0
-0.6606325507164001,0.0468750037252903,0.7500412464141846,-2.583688735961914,0.7460502982139587,89.46998596191406,28.77,0
-0.6590624451637268,0.0468750037252903,0.7500264644622803,-3.6105663776397705,0.7469669580459595,89.4699935913086,28.77,0
-0.6636526584625244,0.0468750037252903,0.7556147575378418,-4.16924524307251,0.7475552558898926,89.4699935913086,28.77,0
-0.666598379611969,0.0468750037252903,0.7536032199859619,-3.868579149246216,0.7479327917098999,89.4699935913086,28.77,0
-0.6684887409210205,0.0468750037252903,0.7523123621940613,-2.9734442234039307,0.7481750249862671,89.4699935913086,28.77,0
-0.6641041040420532,0.0468750037252903,0.7514839172363281,-1.8616119623184204,0.7483304738998413,89.4699935913086,28.77,0
-0.6612902879714966,0.0468750037252903,0.7509523034095764,-0.7038625478744507,0.7484302520751953,89.4699935913086,28.77,0
-0.6650823354721069,0.0468750037252903,0.7506111264228821,0.3615462481975555,0.7484942674636841,89.4699935913086,28.77,0
-0.6675158739089966,0.0468750037252903,0.7503921985626221,1.1670717000961304,0.7485353946685791,89.4699935913086,28.77,0
-0.6690775752067566,0.0468750037252903,0.7502517104148865,1.6732639074325562,0.7476438879966736,89.4699935913086,28.77,0
-0.6644819974899292,0.0468750037252903,0.7501615285873413,1.9336225986480715,0.7470718026161194,89.4699935913086,28.77,0
-0.6615328192710876,0.0468750037252903,0.7501036524772644,1.9609854221343996,0.746704638004303,89.4699935913086,28.77,0
-0.6596401929855347,0.0468750037252903,0.7500665187835693,1.860320210456848,0.7464690208435059,89.4699935913086,28.77,0
-0.6584256291389465,0.0468750037252903,0.7500426769256592,1.953352451324463,0.7463178634643555,89.4699935913086,28.77,0
-0.6576461791992188,0.0468750037252903,0.7500273585319519,2.3533997535705566,0.7462208271026611,89.4699935913086,28.77,0
-0.6627437472343445,0.0468750037252903,0.7500175833702087,2.631622791290283,0.7461585402488708,89.4699935913086,28.77,0
-0.666015088558197,0.0468750037252903,0.7500112652778625,2.340852737426758,0.7461186051368713,89.4699935913086,28.77,0
-0.6625166535377502,0.0468750037252903,0.7500072121620178,1.6849359273910522,0.7502244114875793,89.47357940673828,28.79,0
-0.6658693552017212,0.0468750037252903,0.7500046491622925,1.217432737350464,0.7528592348098755,89.47588348388672,28.79,0
-0.6680209040641785,0.0468750037252903,0.7500029802322388,1.0499714612960815,0.7545501589775085,89.47735595703125,28.79,0
-0.6694016456604004,0.0468750037252903,0.7500019073486328,0.8027839660644531,0.7556352615356445,89.47830200195312,28.79,0
-0.6702877283096313,0.0524727776646614,0.7500012516975403,0.3109737634658813,0.7563316226005554,89.47891235351562,28.79,0
-0.6652585864067078,0.0504673309624195,0.7555986046791077,-0.2124311327934265,0.7567785382270813,89.47930145263672,28.79,0
-0.6620311737060547,0.0491803511977195,0.753592848777771,-0.7095382213592529,0.7570652961730957,89.47955322265625,28.79,0
-0.6599600315093994,0.0483544431626796,0.7523056864738464,-1.3294892311096191,0.7572493553161621,89.4797134399414,28.79,0
-0.6642286777496338,0.0478244200348854,0.7514796853065491,-2.0533523559570312,0.7559903264045715,89.47982025146484,28.79,0
-0.666968047618866,0.0474842824041843,0.7509495615959167,-2.747170925140381,0.7551823258399963,89.47988891601562,28.79,0
-0.6631281971931458,0.0472660027444362,0.7506093978881836,-3.342891931533813,0.7546638250350952,89.47992706298828,28.79,0
-0.6662617921829224,0.0471259243786335,0.7503910660743713,-3.610549211502075,0.7543310523033142,89.4799575805664,28.79,0
-0.6682727932929993,0.0470360293984413,0.7502509355545044,-3.2771730422973637,0.754117488861084,89.47997283935547,28.79,0
-0.6695632934570312,0.0469783395528793,0.7501610517501831,-2.475688934326172,0.7539804577827454,89.47998046875,28.79,0
-0.6703914999961853,0.0469413176178932,0.7501033544540405,-1.6460758447647097,0.7538925409317017,89.47998809814453,28.79,0
-0.6653252243995667,0.0469175577163696,0.750066339969635,-0.8808104991912842,0.7538360953330994,89.47999572753906,28.79,0
-0.6676717400550842,0.046902310103178,0.7500425577163696,0.0867752581834793,0.7524227499961853,89.47999572753906,28.79,0
-0.6691775918006897,0.0468925274908542,0.7500272989273071,1.2630152702331543,0.7515157461166382,89.47999572753906,28.79,0
-0.6645461916923523,0.046886246651411,0.750017523765564,2.189822196960449,0.7509336471557617,89.47999572753906,28.79,0
-0.6615740060806274,0.0468822158873081,0.7500112652778625,2.458579063415528,0.7505601048469543,89.47999572753906,28.79,0
-0.6652644276618958,0.0468796305358409,0.7500072121620178,2.251298666000366,0.7503203749656677,89.47999572753906,28.79,0
-0.6676326990127563,0.0468779727816581,0.7500046491622925,2.025131225585937,0.7501665353775024,89.47999572753906,28.79,0
-0.6635547876358032,0.0468769073486328,0.7500029802322388,1.83341646194458,0.7500678300857544,89.47999572753906,28.79,0
-0.6665355563163757,0.0468762256205081,0.7500019073486328,1.4524394273757937,0.7500044703483582,89.47999572753906,28.79,0
-0.6684484481811523,0.052473559975624,0.7500012516975403,1.057482123374939,0.7504227757453918,89.47999572753906,28.79,0
-0.6640782356262207,0.0504678338766098,0.7500007748603821,0.958072066307068,0.7506911754608154,89.47999572753906,28.79,0
-0.661273717880249,0.0491806752979755,0.7500004768371582,0.8799461126327515,0.7508634328842163,89.47999572753906,28.79,0
-0.6650717258453369,0.048354648053646,0.7500002980232239,0.4070654511451721,0.7509739995002747,89.47999572753906,28.79,0
-0.6675090789794922,0.0478245541453361,0.7500001788139343,-0.2403294295072555,0.7510449290275574,89.47999572753906,28.79,0
-0.669073224067688,0.0474843680858612,0.7500001192092896,-0.6486250162124634,0.7510904669761658,89.47999572753906,28.79,0
-0.6700769662857056,0.0528638325631618,0.7500000596046448,-0.8676547408103943,0.7511196732521057,89.47999572753906,28.79,0
-0.6651233434677124,0.0507182888686656,0.7500000596046448,-1.1336055994033811,0.75113844871521,89.47999572753906,28.79,0
-0.6619443893432617,0.0493414029479026,0.7500000596046448,-1.4081721305847168,0.7493144273757935,89.50865936279297,28.79,0
-0.66550213098526,0.0484577938914299,0.7500000596046448,-1.6381118297576904,0.7481438517570496,89.52705383300781,28.79,0
-0.6677852869033813,0.0478907451033592,0.7500000596046448,-1.997045874595642,0.7473926544189453,89.53885650634766,28.79,0
-0.6636526584625244,0.0475268475711345,0.7500000596046448,-2.53907322883606,0.746910572052002,89.54643249511719,28.79,0
-0.6610006093978882,0.0472933165729045,0.7500000596046448,-2.9084105491638184,0.7466012239456177,89.5512924194336,28.79,0
-0.6592986583709717,0.0527412258088588,0.7500000596046448,-2.758511781692505,0.7464026808738708,89.55441284179688,28.79,0
-0.6638042330741882,0.0506396070122718,0.7500000596046448,-2.2144935131073,0.7462752461433411,89.55641174316406,28.79,0
-0.6666956543922424,0.049290906637907,0.7500000596046448,-1.5751852989196775,0.7461934685707092,89.55769348144531,28.79,0
-0.6629534363746643,0.0484253913164138,0.7500000596046448,-0.7744132280349731,0.7470588684082031,89.55851745605469,28.79,0
-0.660551905632019,0.0478699505329132,0.7500000596046448,0.3664269745349884,0.7476142048835754,89.55905151367188,28.79,0
-0.6590107083320618,0.0475135035812854,0.7500000596046448,1.585782766342163,0.7479705810546875,89.55938720703125,28.79,0
-0.6580216884613037,0.0472847558557987,0.7500000596046448,2.3575472831726074,0.7481992840766907,89.55960845947266,28.79,0
-0.6573869585990906,0.0471379570662975,0.7500000596046448,2.512476682662964,0.7483460903167725,89.55974578857422,28.79,0
-0.6625773906707764,0.04704375192523,0.7500000596046448,2.2966349124908447,0.7484402656555176,89.5598373413086,28.79,0
-0.6603105664253235,0.0469832941889762,0.7500000596046448,1.928835153579712,0.7485007047653198,89.55989837646484,28.79,0
-0.6644536256790161,0.0525422729551792,0.7500000596046448,1.5889078378677368,0.7485395073890686,89.5599365234375,28.79,0
-0.6615146398544312,0.0505119301378726,0.7500000596046448,1.5212302207946775,0.7462690472602844,89.5599594116211,28.79,0
-0.6652263402938843,0.0548067465424537,0.7500000596046448,1.674840211868286,0.74481201171875,89.55997467041016,28.79,0
-0.6676082611083984,0.0519651398062706,0.7500000596046448,1.615785002708435,0.7438769340515137,89.55998229980469,28.79,0
-0.6691368818283081,0.0501415580511093,0.7500000596046448,1.1981337070465088,0.7432768940925598,89.55998992919922,28.79,0
-0.6645200848579407,0.0489712879061698,0.7500000596046448,0.8011364340782166,0.742891788482666,89.55998992919922,28.79,0
-0.6671550273895264,0.0482202768325805,0.7500000596046448,0.6359308362007141,0.7426446676254272,89.55998992919922,28.79,0
-0.6688460111618042,0.0477383211255073,0.7500000596046448,0.3901909291744232,0.7424860596656799,89.55998992919922,28.79,0
-0.6643334031105042,0.0474290288984775,0.7500000596046448,-0.1436812579631805,0.7423843145370483,89.55998992919922,28.79,0
-0.6670352220535278,0.0472305454313755,0.7500000596046448,-0.7191570997238159,0.7427783012390137,89.55998992919922,28.79,0
-0.668769121170044,0.0471031703054904,0.7555978298187256,-1.145785570144653,0.7430311441421509,89.55998992919922,28.79,0
