acc_x,acc_y,acc_z,bvp,eda,hr,temp,label
0.0,0.0,0.0,0.0,0.0,0.0,27.79,0
-0.0624999962747097,-0.1406249850988388,0.0624999962747097,5.224999904632568,0.533322274684906,12.338332176208496,27.79,0
-0.1463414579629898,-0.316692054271698,0.1463414579629898,11.936341285705566,1.2487547397613523,28.88975524902344,27.79,0
-0.2242524921894073,-0.4648567140102386,0.2242524921894073,15.669069290161133,1.871057748794556,43.2866439819336,27.79,0
-0.2971073985099792,-0.6103182435035706,0.2490635961294174,16.684072494506836,2.325061321258545,53.78995132446289,27.79,0
-0.3519229590892792,-0.70331209897995,0.2548823058605194,18.47097396850586,2.63244104385376,60.9011344909668,27.79,0
-0.3878898620605469,-0.7532232999801636,0.2642532885074615,22.86333274841309,2.834126234054565,65.56709289550781,27.79,0
-0.4000251889228821,-0.7967069745063782,0.2703224420547485,28.60751724243164,2.964747905731201,68.58900451660156,27.79,0
-0.4022522568702698,-0.8247179388999939,0.2686418294906616,33.670867919921875,3.0048820972442627,70.53563690185547,27.79,0
-0.4036836922168731,-0.837127149105072,0.2675616443157196,37.17951965332031,3.030678033828736,71.78681945800781,27.79,0
-0.4046028852462768,-0.8506922721862793,0.266867995262146,39.52215576171875,3.0472428798675537,72.59027099609375,27.79,0
-0.3995956778526306,-0.83701092004776,0.2608254849910736,41.41280364990234,3.0578761100769043,73.10601806640625,27.79,0
-0.4131746590137481,-0.8506202697753906,0.2625448703765869,42.941497802734375,3.0647006034851074,73.43702697753906,27.79,0
-0.3939008414745331,-0.8537566661834717,0.274843692779541,43.72553253173828,3.069080352783203,73.64945983886719,27.79,0
-0.3983249962329864,-0.8613672256469727,0.265943318605423,43.62682342529297,3.0718910694122314,73.7857894897461,27.79,0
-0.401164174079895,-0.8662512302398682,0.2658292651176452,42.61051177978516,3.073694944381714,73.87327575683594,27.79,0
-0.4029861986637115,-0.8637877702713013,0.2601583302021026,40.51810836791992,3.1276426315307617,73.9294204711914,27.79,0
-0.4041554927825928,-0.8622068762779236,0.2621168196201324,37.71721267700195,3.1622633934021,73.9654541015625,27.79,0
-0.4049058556556701,-0.8611923456192017,0.2633736431598663,35.149505615234375,3.184480905532837,73.98857879638672,27.79,0
-0.4053874015808105,-0.8605412840843201,0.2641802132129669,33.20792770385742,3.198738813400269,74.00341796875,27.79,0
-0.4056964218616485,-0.8601234555244446,0.2702955901622772,31.24183654785156,3.2078888416290283,74.012939453125,27.79,0
-0.4058947563171386,-0.8598552942276001,0.2742200791835785,28.149415969848636,3.2137606143951416,74.01905059814453,27.79,0
-0.4116198122501373,-0.8596832156181335,0.2711408138275146,23.048036575317383,3.217528820037842,74.0229721069336,27.79,0
-0.41529381275177,-0.8595727682113647,0.2747625112533569,16.00897789001465,3.219947099685669,74.0254898071289,27.79,0
-0.4176515638828277,-0.8595018982887268,0.2770867049694061,8.428614616394043,3.228843688964844,74.02710723876953,27.79,0
-0.419164627790451,-0.8594564199447632,0.2729804515838623,1.7870159149169922,3.234553098678589,74.02814483642578,27.79,0
-0.4201356470584869,-0.859427273273468,0.2703453004360199,-3.926123142242432,3.2382168769836426,74.02880859375,27.79,0
-0.4207587838172912,-0.8594085574150085,0.2686542272567749,-9.68112850189209,3.240568161010742,74.02923583984375,27.79,0
-0.4211586713790893,-0.8593965172767639,0.267568975687027,-15.75319004058838,3.242077112197876,74.02951049804688,27.79,0
-0.4214152991771698,-0.8593888282775879,0.2668725252151489,-21.57731437683105,3.2430455684661865,74.0296859741211,27.79,0
-0.4215799868106842,-0.8593838810920715,0.2664255797863006,-26.912731170654297,3.243666887283325,74.02980041503906,27.79,0
-0.4216856658458709,-0.8593807220458984,0.2661387622356415,-32.09932327270508,3.244065761566162,74.02986907958984,27.79,0
-0.4217534959316253,-0.8537809252738953,0.2603569328784942,-37.01485824584961,3.2461581230163574,74.04066467285156,27.79,0
-0.4217970371246338,-0.8389917016029358,0.2566464841365814,-40.692420959472656,3.2475008964538574,74.04759216308594,27.79,0
-0.421824961900711,-0.8183053135871887,0.2598631083965301,-42.36819839477539,3.2483625411987305,74.05204010009766,27.79,0
-0.4218429028987884,-0.8106277585029602,0.2619273364543915,-41.89952850341797,3.248915433883667,74.05489349365234,27.79,0
-0.4218544065952301,-0.8392874002456665,0.2688498198986053,-38.67538070678711,3.249270439147949,74.05672454833984,27.79,0
-0.427459567785263,-0.8688750267028809,0.2676945030689239,-31.633691787719727,3.249498128890991,74.05789947509766,27.79,0
-0.4254588484764099,-0.8934604525566101,0.261355310678482,-21.2142391204834,3.2496442794799805,74.05865478515625,27.79,0
-0.4241749048233032,-0.8980423808097839,0.2628849446773529,-9.834460258483888,3.2497379779815674,74.05913543701172,27.79,0
-0.4233509600162506,-0.8953850269317627,0.269464373588562,-0.016604907810688,3.250715970993042,74.05944061279297,27.81,0
-0.4004310965538025,-0.8656908273696899,0.2792844474315643,6.248103618621826,3.2513437271118164,74.05963897705078,27.81,0
-0.3857224285602569,-0.8186459541320801,0.2967819571495056,6.789752006530762,3.251746654510498,74.05976867675781,27.81,0
-0.3706854879856109,-0.7996507883071899,0.308010846376419,0.5024209022521973,3.252005100250244,74.05985260009766,27.81,0
-0.3778289556503296,-0.8714274168014526,0.3264124393463135,-10.787141799926758,3.252171039581299,74.05990600585938,27.81,0
-0.382413238286972,-0.917489528656006,0.3438192903995514,-23.230449676513672,3.252277374267578,74.0599365234375,27.81,0
-0.3741596043109894,-0.9190606474876404,0.3493922352790832,-33.83113098144531,3.2523458003997803,74.0599594116211,27.81,0
-0.3632651269435882,-0.8752866983413696,0.3529686331748962,-41.73030471801758,3.252389669418335,74.05997467041016,27.81,0
-0.3450781404972076,-0.8304017782211304,0.3552637696266174,-47.268856048583984,3.2496633529663086,74.05998229980469,27.81,0
-0.3390045464038849,-0.7792061567306519,0.3399433195590973,-50.79452133178711,3.2479138374328613,74.05998992919922,27.81,0
-0.3463024199008941,-0.7463517189025879,0.3245137631893158,-52.433719635009766,3.246791124343872,74.05998992919922,27.81,0
-0.3621813058853149,-0.7252676486968994,0.3146119713783264,-52.439552307128906,3.246070623397827,74.05998992919922,27.81,0
-0.3779692351818084,-0.7229326367378235,0.3138553500175476,-51.51182556152344,3.245608329772949,74.05998992919922,27.81,0
-0.3936988115310669,-0.7326297163963318,0.3189675509929657,-50.62627410888672,3.245311498641968,74.05998992919922,27.81,0
-0.4149886965751648,-0.7556460499763489,0.3278460502624511,-50.26218795776367,3.2451210021972656,74.05998992919922,27.81,0
-0.4286513030529022,-0.7816121578216553,0.3391415476799011,-49.86373901367188,3.2449989318847656,74.05998992919922,27.81,0
-0.4318214058876037,-0.7870801687240601,0.340792566537857,-48.44728088378906,3.2444615364074707,74.05998992919922,27.81,0
-0.4506491422653198,-0.7905892133712769,0.3418520987033844,-45.58219528198242,3.24411678314209,74.05998992919922,27.81,0
-0.4683294594287872,-0.7928411364555359,0.3369342684745788,-41.583251953125,3.243895530700684,74.05998992919922,27.81,0
-0.468480110168457,-0.8110796213150024,0.3225827217102051,-37.08953857421875,3.243753433227539,74.05998992919922,27.81,0
-0.4741745889186859,-0.8451751470565796,0.3133727312088012,-32.66522216796875,3.2436623573303223,74.05998992919922,27.81,0
-0.5282089114189148,-0.9902067184448242,0.3242556154727936,-28.604293823242188,3.2436039447784424,74.05998992919922,27.81,0
-0.6020694971084595,-1.1224640607833862,0.3032507598400116,-24.966442108154297,3.2435662746429443,74.05998992919922,27.81,0
-0.5990889668464661,-1.1289703845977783,0.2729777097702026,-21.750564575195312,3.243542194366455,74.05998992919922,27.81,0
-0.496416300535202,-1.054776906967163,0.2535502314567566,-18.95595359802246,3.239854335784912,74.04924774169922,27.81,0
-0.4305268824100494,-1.0687392950057983,0.2522783279418945,-16.535581588745117,3.237487554550171,74.04235076904297,27.81,0
-0.4386228322982788,-1.0888950824737549,0.2346687763929367,-14.387619018554688,3.235968589782715,74.03792572021484,27.81,0
-0.3934383690357208,-1.057047724723816,0.1841835528612136,-12.396559715270996,3.234993934631348,74.03508758544922,27.81,0
-0.3420504927635193,-0.9862299561500548,0.1517850458621978,-10.542017936706545,3.234368324279785,74.03326416015625,27.81,0
-0.3202682435512543,-0.9015988111495972,0.1421891003847122,-9.01153564453125,3.233967065811157,74.03209686279297,27.81,0
-0.3230829834938049,-0.8360918164253235,0.1360309720039367,-8.136837005615234,3.2337093353271484,74.03134155273438,27.81,0
-0.3472804129123688,-0.7660643458366394,0.1208834946155548,-7.93376350402832,3.233544111251831,74.0308609008789,27.81,0
-0.3404178321361542,-0.7155269980430603,0.1167604923248291,-7.903754711151123,3.228388786315918,74.03055572509766,27.81,0
-0.3192205131053924,-0.6998883485794067,0.1253101378679275,-7.637299060821533,3.2250802516937256,74.03035736083984,27.81,0
-0.3000195026397705,-0.7122434377670288,0.1363945752382278,-7.315834999084473,3.222957134246826,74.03022766113281,27.81,0
-0.2988929748535156,-0.736965537071228,0.1491057127714157,-7.252840518951416,3.2215945720672607,74.03014373779297,27.81,0
-0.3149633407592773,-0.7864174246788025,0.1572629809379577,-7.312726497650146,3.2207202911376958,74.03009033203125,27.81,0
-0.3364719152450561,-0.9077171683311462,0.1736933887004852,-7.096795082092285,3.2201590538024902,74.03005981445312,27.81,0
-0.3446771204471588,-0.9967559576034546,0.1898352652788162,-6.266785621643066,3.219799041748047,74.03003692626953,27.81,0
-0.3443449735641479,-1.1154714822769165,0.1889986395835876,-4.813411712646484,3.219568014144897,74.03002166748047,27.81,0
-0.3553273677825928,-1.191656231880188,0.1884617358446121,-3.3361682891845703,3.2180426120758057,74.03001403808594,27.81,0
-0.4015596508979797,-1.1397873163223269,0.2105082869529724,-2.5637047290802,3.217063665390014,74.0300064086914,27.81,0
-0.4256311058998108,-1.050523042678833,0.2246564924716949,-2.3044321537017822,3.216435432434082,74.0300064086914,27.81,0
-0.4018943607807159,-1.0380206108093262,0.2225404530763626,-1.63290274143219,3.2160322666168213,74.0300064086914,27.81,0
-0.3362815082073211,-1.002008318901062,0.2267802655696869,-0.2883970439434051,3.215773582458496,74.0300064086914,27.81,0
-0.2885771691799164,-0.9509088397026062,0.2350989133119583,0.907608926296234,3.2156076431274414,74.0300064086914,27.81,0
-0.280354380607605,-0.850942850112915,0.2236440181732177,1.0625163316726685,3.215501070022583,74.0300064086914,27.81,0
-0.3142618834972381,-0.7420082688331604,0.1994996070861816,0.0728239044547081,3.215432643890381,74.0300064086914,27.81,0
-0.347217321395874,-0.6609047651290894,0.1896028816699981,-1.371965765953064,3.206207513809204,74.0300064086914,27.81,0
-0.3683662116527557,-0.6312482953071594,0.1888495087623596,-2.3851304054260254,3.2002875804901123,74.0300064086914,27.81,0
-0.3707428276538849,-0.6178142428398132,0.1995615810155868,-2.64482045173645,3.196488380432129,74.0300064086914,27.81,0
-0.3778657615184784,-0.6203885674476624,0.2120337486267089,-2.4854602813720703,3.1940503120422363,74.0300064086914,27.81,0
-0.3880346417427063,-0.6276383996009827,0.2256354391574859,-2.2219760417938232,3.1924855709075928,74.0300064086914,27.81,0
-0.4001581966876983,-0.6322909593582153,0.2455597817897796,-1.8164371252059937,3.191481590270996,74.0300064086914,27.81,0
-0.4471228122711181,-0.7304388284683228,0.2807371616363525,-1.298240065574646,3.190837144851685,74.0300064086914,27.81,0
-0.4828597903251648,-0.8494022488594055,0.3033119738101959,-0.9692736268043518,3.1904237270355225,74.0300064086914,27.81,0
-0.4778048396110534,-1.0041149854660034,0.2898103296756744,-0.9659512639045716,3.189699411392212,73.97985076904297,27.81,0
-0.5025497674942017,-1.1929651498794556,0.2979390621185303,-0.9172456860542296,3.189234495162964,73.94766235351562,27.81,0
-0.5576140284538269,-1.2805715799331665,0.3143511712551117,-0.1945521384477615,3.188936233520508,73.927001953125,27.81,0
-0.553766667842865,-1.13527250289917,0.2521124482154846,1.541045308113098,3.1887447834014893,73.91374206542969,27.81,0
-0.4729288220405578,-1.1483856439590454,0.228964552283287,3.786945819854736,3.188621997833252,73.90523529052734,27.81,0
-0.4322473108768463,-1.151203155517578,0.2420984357595443,5.153001308441162,3.1885430812835693,73.8997802734375,27.81,0
-0.4229335784912109,-1.1026312112808228,0.2169403582811355,4.560801029205322,3.1884925365448,73.89627838134766,27.81,0
-0.3889676928520202,-1.015482783317566,0.189599797129631,2.7548959255218506,3.188460111618042,73.89402770996094,27.81,0
-0.3503770232200622,-0.8811871409416199,0.1664564311504364,1.488492727279663,3.18476676940918,73.89258575439453,27.77,0
-0.3312095105648041,-0.7782106399536133,0.1460065841674804,1.0304630994796753,3.182396650314331,73.89166259765625,27.77,0
-0.3468977808952331,-0.7065284252166748,0.1384808123111724,0.1203230321407318,3.180875539779663,73.89106750488281,27.77,0
-0.3513678312301636,-0.666124701499939,0.1224556639790535,-1.5707683563232422,3.1798994541168213,73.89068603515625,27.77,0
-0.3318453729152679,-0.6569892168045044,0.1121716424822807,-2.978445291519165,3.179273128509521,73.89044189453125,27.77,0
-0.2969258725643158,-0.6847132444381714,0.1223652735352516,-3.6131181716918954,3.178871154785156,73.8902816772461,27.77,0
-0.2801143229007721,-0.7304938435554504,0.1289069652557373,-3.948763132095337,3.1786131858825684,73.89018249511719,27.77,0
-0.2917167246341705,-0.8102531433105469,0.1331050395965576,-3.9742841720581055,3.1784474849700928,73.8901138305664,27.77,0
-0.3215535879135132,-0.939806878566742,0.1357991248369217,-3.2204084396362305,3.173750877380371,73.89007568359375,27.77,0
-0.3351033926010132,-1.0677292346954346,0.1375280320644378,-1.8947091102600095,3.170737028121948,73.89004516601562,27.77,0
-0.3661899864673614,-1.200202465057373,0.1442353129386901,-0.4994001090526581,3.1688027381896973,73.89002990722656,27.77,0
-0.4085306525230407,-1.2292383909225464,0.1653329879045486,1.0623878240585327,3.1675615310668945,73.89002227783203,27.77,0
-0.4636913239955902,-1.0183632373809814,0.2292522341012954,2.7919163703918457,3.166764974594116,73.8900146484375,27.77,0
-0.4319169819355011,-1.0005888938903809,0.2366852760314941,3.823011636734009,3.1662538051605225,73.89000701904297,27.77,0
-0.3723416328430176,-1.0395623445510864,0.2246620506048202,3.4815878868103027,3.1659257411956787,73.89000701904297,27.77,0
-0.3061207234859466,-1.0085954666137695,0.2449351102113723,2.3453426361083984,3.165715217590332,73.89000701904297,27.77,0
-0.2580261826515198,-0.9551361203193665,0.25794517993927,1.6018354892730713,3.1623666286468506,73.89000701904297,27.77,0
-0.277541846036911,-0.8536556959152222,0.2439032047986984,1.8698710203170776,3.160217523574829,73.89000701904297,27.77,0
-0.3404458463191986,-0.7045647501945496,0.2236963361501693,2.740483045578003,3.1588385105133057,73.89000701904297,27.77,0
-0.3920095562934875,-0.6088867783546448,0.2051309496164322,3.155888795852661,3.1579535007476807,73.89000701904297,27.77,0
-0.425100177526474,-0.5754750370979309,0.2044122964143753,2.4336814880371094,3.1573855876922607,73.89000701904297,27.77,0
-0.423944741487503,-0.5708266496658325,0.2151466608047485,0.8846899271011353,3.1570210456848145,73.89000701904297,27.77,0
-0.4008121490478515,-0.6014302372932434,0.2220353633165359,-0.6395848393440247,3.156787157058716,73.89000701904297,27.77,0
-0.3915647566318512,-0.6490586996078491,0.2376516759395599,-1.4422305822372437,3.156636953353882,73.89000701904297,27.77,0
-0.4080213904380798,-0.7300038933753967,0.2588688731193542,-1.2157292366027832,3.154245615005493,73.85417938232422,27.77,0
-0.4801578521728515,-0.8939053416252136,0.2724848687648773,-0.0851653516292572,3.1527109146118164,73.83118438720703,27.77,0
-0.5264508724212646,-1.0214788913726809,0.2588317096233368,1.4356971979141235,3.151726007461548,73.8164291381836,27.77,0
-0.5393657684326172,-1.1985105276107788,0.2724609971046448,2.881016731262207,3.1510939598083496,73.80696105957031,27.77,0
-0.5700448751449585,-1.2113592624664309,0.2924030423164367,4.360256195068359,3.150688409805298,73.80088806152344,27.77,0
-0.5617440938949585,-1.1692248582839966,0.266016274690628,6.334163665771484,3.150428056716919,73.79698944091797,27.77,0
-0.494841605424881,-1.1589787006378174,0.2434850037097931,8.818979263305664,3.150261163711548,73.79448699951172,27.77,0
-0.4463096559047699,-1.1412078142166138,0.2458190470933914,11.076367378234863,3.150153875350952,73.79287719726562,27.77,0
-0.3983713388442993,-1.068228006362915,0.2305235862731933,12.044963836669922,3.1445765495300293,73.7918472290039,27.77,0
-0.3620094954967499,-0.9206337928771972,0.2039145082235336,10.97199535369873,3.1409974098205566,73.79118347167969,27.77,0
-0.3386745750904083,-0.7979274392127991,0.1812405586242675,8.151793479919434,3.138700485229492,73.79075622558594,27.77,0
-0.3404928743839264,-0.7079859972000122,0.1666897237300872,5.109544277191162,3.1372265815734863,73.79048919677734,27.77,0
-0.347257524728775,-0.6502667665481567,0.1517540663480758,3.207360029220581,3.1362805366516118,73.79031372070312,27.77,0
-0.3348053693771362,-0.6468125581741333,0.1365714520215988,2.1729414463043213,3.1356735229492188,73.79019927978516,27.77,0
-0.2932276427745819,-0.6949757933616638,0.1324258893728256,0.9287339448928832,3.135283946990967,73.79013061523438,27.77,0
-0.2665454745292663,-0.7538730502128601,0.129765510559082,-0.6507282853126526,3.1350338459014893,73.79008483886719,27.77,0
-0.2662157118320465,-0.8196588158607483,0.1336560100317001,-1.915116548538208,3.12477445602417,73.79005432128906,27.77,0
-0.2827973961830139,-0.8842673897743225,0.1305549293756485,-2.59397292137146,3.1181905269622803,73.79003143310547,27.77,0
-0.3102318942546844,-1.0040982961654663,0.1229670569300651,-2.725104808807373,3.1139652729034424,73.79002380371094,27.77,0
-0.3390333354473114,-1.1537699699401855,0.112499825656414,-2.146481275558472,3.1112537384033203,73.7900161743164,27.77,0
-0.3687119781970978,-1.2050384283065796,0.1281736493110656,-0.7326245307922363,3.109513759613037,73.79000854492188,27.77,0
-0.4269424676895141,-1.0308219194412231,0.2054055035114288,1.3999481201171875,3.1083970069885254,73.79000854492188,27.77,0
-0.4419203400611877,-0.9190198183059692,0.2437729239463806,4.0546555519104,3.107680559158325,73.79000854492188,27.77,0
-0.3787612020969391,-0.9704226851463318,0.2292104959487915,6.618111610412598,3.1072206497192383,73.79000854492188,27.77,0
-0.3214359879493713,-0.9250412583351136,0.2478540390729904,7.840446472167969,3.1096794605255127,73.79000854492188,27.77,0
-0.267854630947113,-0.873526930809021,0.2710139453411102,6.86582612991333,3.111257314682007,73.79000854492188,27.77,0
-0.2894469499588012,-0.7844902873039246,0.2634855508804321,4.424005031585693,3.1122701168060303,73.79000854492188,27.77,0
-0.336890310049057,-0.6937650442123413,0.2530564665794372,2.384084701538086,3.112920045852661,73.79000854492188,27.77,0
-0.4009233713150024,-0.6299450397491455,0.2575592398643493,1.934799313545227,3.1133370399475098,73.79000854492188,27.77,0
-0.425222784280777,-0.616977870464325,0.2660466432571411,2.581526041030884,3.1136045455932617,73.79000854492188,27.77,0
-0.4240234196186065,-0.6142540574073792,0.2770911455154419,3.057461977005005,3.113776206970215,73.79000854492188,27.77,0
-0.4120581746101379,-0.612506091594696,0.2841788530349731,2.925816059112549,3.113886594772339,73.79000854492188,27.77,0
-0.398781806230545,-0.6281777024269104,0.2943251132965088,2.708777904510498,3.107071876525879,73.76493072509766,27.77,0
-0.4238484501838684,-0.7389947772026062,0.3008364140987396,2.748624086380005,3.102698802947998,73.74883270263672,27.77,0
-0.467923641204834,-0.9388595819473268,0.2938194274902344,2.870924472808838,3.0998923778533936,73.7385025024414,27.77,0
-0.4962085485458374,-1.1286967992782593,0.2781207859516144,3.024643898010254,3.0980913639068604,73.73187255859375,27.77,0
-0.5423490405082703,-1.2281323671340942,0.3016329407691955,3.3991506099700928,3.096935510635376,73.72762298583984,27.77,0
-0.5831549167633057,-1.2247710227966309,0.3111239075660705,4.098057270050049,3.096193790435791,73.72489166259766,27.77,0
-0.5533640384674072,-1.2058206796646118,0.2500413954257965,5.366984844207764,3.095717668533325,73.72313690185547,27.77,0
-0.4838660061359405,-1.204854965209961,0.2388310134410858,7.625087738037109,3.095412254333496,73.72201538085938,27.77,0
-0.4224728345870971,-1.1986373662948608,0.2372346073389053,10.675619125366213,3.104856252670288,73.7212905883789,27.77,0
-0.3662809133529663,-1.0826917886734009,0.197025716304779,13.270973205566406,3.11091685295105,73.7208251953125,27.77,0
-0.3358179330825805,-0.9635024666786194,0.1712219566106796,13.883244514465332,3.1148061752319336,73.72052764892578,27.77,0
-0.3274641036987304,-0.831035852432251,0.1602603644132614,11.836431503295898,3.117302179336548,73.7203369140625,27.77,0
-0.3444941937923431,-0.7180375456809998,0.1420302987098693,7.886129379272461,3.118903875350952,73.72021484375,27.77,0
-0.3554231226444244,-0.6399239301681519,0.1247335150837898,3.8177101612091056,3.119931697845459,73.72013854980469,27.77,0
-0.3288500308990478,-0.6065884232521057,0.1136334389448165,1.0671124458312988,3.120591402053833,73.7200927734375,27.77,0
-0.2950036227703094,-0.6075867414474487,0.106510043144226,-0.4186219274997711,3.1210148334503174,73.72006225585938,27.77,0
-0.2732829749584198,-0.6809984445571899,0.1131342127919197,-1.540461778640747,3.1125643253326416,73.72003936767578,27.77,0
-0.292930543422699,-0.8120765089988708,0.1229829937219619,-2.65447735786438,3.107141256332397,73.72002410888672,27.77,0
-0.3111369907855987,-0.92418372631073,0.1293033808469772,-3.3443102836608887,3.103661060333252,73.72001647949219,27.77,0
-0.3284186124801636,-1.0633009672164917,0.138957217335701,-3.203045606613159,3.1014275550842285,73.72000885009766,27.77,0
-0.3451067507266998,-1.1749695539474487,0.1563480347394943,-2.338553667068481,3.09999418258667,73.72000885009766,27.77,0
-0.3894028663635254,-1.2018498182296753,0.1843017786741256,-0.945449948310852,3.099074363708496,73.72000885009766,27.77,0
-0.4066340327262878,-1.0623623132705688,0.2470230907201767,1.145143985748291,3.0984840393066406,73.72000885009766,27.77,0
-0.3841053545475006,-0.9672494530677797,0.2872740030288696,3.9735357761383057,3.098105192184448,73.72000885009766,27.77,0
-0.3136700093746185,-0.962189257144928,0.2795180976390838,6.712939262390137,3.1024529933929443,73.72000885009766,27.77,0
-0.2684686481952667,-0.9477463960647584,0.2689430117607116,8.177159309387207,3.105242967605591,73.72000885009766,27.77,0
-0.2562543451786041,-0.9104889035224916,0.267754316329956,7.891571044921875,3.107033491134644,73.72000885009766,27.77,0
-0.2931981086730957,-0.8306014537811279,0.2557959258556366,6.450812816619873,3.108182668685913,73.72000885009766,27.77,0
-0.3392975926399231,-0.7513453960418701,0.2537194788455963,5.124968528747559,3.108920097351074,73.72000885009766,27.77,0
-0.3856748938560486,-0.6892879009246826,0.2523869574069977,4.82583475112915,3.109393358230591,73.72000885009766,27.77,0
-0.421034961938858,-0.6550607085227966,0.2459340393543243,4.999290466308594,3.109697103500366,73.72000885009766,27.77,0
-0.421335905790329,-0.6442912220954895,0.2529884874820709,4.272281646728516,3.109891891479492,73.72000885009766,27.77,0
-0.4047357141971588,-0.6541733145713806,0.2631133794784546,2.404942274093628,3.105885505676269,73.655517578125,27.77,0
-0.3940826654434204,-0.6661128401756287,0.2752087414264679,0.6118839979171753,3.1033143997192383,73.6141357421875,27.77,0
-0.4096372425556183,-0.7185571193695068,0.2941663861274719,0.0666575580835342,3.1016645431518555,73.58757781982422,27.77,0
-0.4420103728771209,-0.785799503326416,0.3063323199748993,1.049480676651001,3.100605726242065,73.5705337524414,27.77,0
-0.4627856016159057,-0.896125078201294,0.2861508429050445,3.041578769683838,3.099926233291626,73.5595932006836,27.77,0
-0.4705201685428619,-1.0229034423828125,0.2676017582416534,4.989933967590332,3.099490165710449,73.55257415771484,27.77,0
-0.4978748559951782,-1.1546424627304075,0.2836869060993194,6.25102424621582,3.099210262298584,73.5480728149414,27.77,0
-0.5378206372261047,-1.1328272819519043,0.2772160768508911,7.565462589263916,3.0990307331085205,73.54518127441406,27.77,0
-0.5242711305618286,-1.0964365005493164,0.2282812893390655,10.114299774169922,3.1007513999938965,73.54332733154297,27.75,0
-0.4540002942085266,-1.1178650856018066,0.2024755328893661,13.612935066223145,3.101855754852295,73.5421371459961,27.75,0
-0.4033067524433136,-1.148410081863403,0.197110429406166,16.108938217163086,3.1025643348693848,73.54137420654297,27.75,0
-0.3707745373249054,-1.1232298612594604,0.1824718713760376,15.665079116821287,3.1030192375183105,73.54088592529297,27.75,0
-0.3442994654178619,-1.0175063610076904,0.1506865918636322,12.087848663330078,3.103311061859131,73.54056549072266,27.75,0
-0.3217115104198456,-0.916072428226471,0.1302886307239532,7.076596260070801,3.1034984588623047,73.54035949707031,27.75,0
-0.3240091800689697,-0.8229891061782837,0.1227961629629135,2.5422749519348145,3.103618621826172,73.54022979736328,27.75,0
-0.3142881691455841,-0.7632535696029663,0.1067923828959465,-1.06977641582489,3.103695869445801,73.54014587402344,27.75,0
-0.2912564575672149,-0.7361142635345459,0.0909243002533912,-4.4410600662231445,3.100532054901123,73.54009246826172,27.75,0
-0.2484871447086334,-0.7242956161499023,0.0863388553261756,-7.804718971252441,3.098501920700073,73.5400619506836,27.75,0
-0.2266380339860916,-0.7111133337020874,0.0833961814641952,-10.454133987426758,3.097198963165283,73.5400390625,27.75,0
-0.2406054139137268,-0.730642557144165,0.0815077424049377,-11.581164360046388,3.096362829208374,73.54002380371094,27.75,0
-0.2719599604606628,-0.7991530299186707,0.0858936235308647,-11.036195755004885,3.0958261489868164,73.5400161743164,27.75,0
-0.2976792752742767,-0.8599124550819397,0.1055015549063682,-9.199697494506836,3.0954818725585938,73.54000854492188,27.75,0
-0.3253799974918365,-0.9604798555374146,0.1292803436517715,-6.351658344268799,3.0952608585357666,73.54000854492188,27.75,0
-0.3543522953987121,-1.092191457748413,0.1557357460260391,-2.431726694107056,3.095118999481201,73.54000854492188,27.75,0
-0.4177272319793701,-1.1319342851638794,0.2230932712554931,2.473438024520874,3.0927326679229736,73.54000854492188,27.75,0
-0.4527998566627502,-1.0062990188598633,0.2943083345890045,7.552298545837402,3.0912013053894043,73.54000854492188,27.75,0
-0.4417207837104797,-0.9760534763336182,0.3232167363166809,11.295266151428224,3.090218544006348,73.54000854492188,27.75,0
-0.3842309117317199,-1.02381694316864,0.3137796223163605,12.368152618408203,3.089587926864624,73.54000854492188,27.75,0
-0.3305439054965973,-1.0376754999160769,0.3133211731910705,10.950114250183104,3.0891830921173096,73.54000854492188,27.75,0
-0.2960906624794006,-0.9849935173988342,0.3074291944503784,8.904422760009766,3.088923454284668,73.54000854492188,27.75,0
-0.3243605196475982,-0.88401198387146,0.2924525141716003,7.763579368591309,3.088756799697876,73.54000854492188,27.75,0
-0.3648935854434967,-0.7968167662620544,0.2828413546085357,6.934721946716309,3.08864974975586,73.54000854492188,27.75,0
-0.402100920677185,-0.7520554065704346,0.2542823553085327,5.01276969909668,3.0660877227783203,73.45760345458984,27.75,0
-0.4203806817531585,-0.7289279699325562,0.2247592955827713,2.1528820991516118,3.051608800888061,73.40472412109375,27.75,0
-0.4041227102279663,-0.7196838855743408,0.1946175545454025,-0.3344579041004181,3.0423171520233154,73.37078857421875,27.75,0
-0.3824937343597412,-0.7417404055595398,0.1752743124961853,-1.9486024379730225,3.0363543033599854,73.34900665283203,27.75,0
-0.3742112815380096,-0.7670905590057373,0.1572631597518921,-2.99879789352417,3.0325276851654053,73.33502960205078,27.75,0
-0.3856894075870514,-0.8281410336494446,0.1401068717241287,-3.404059648513794,3.030071973800659,73.32606506347656,27.75,0
-0.3986531794071197,-0.9065041542053224,0.1234991699457168,-2.7720718383789062,3.028496026992798,73.3203125,27.75,0
-0.406972587108612,-0.9791841506958008,0.10164575278759,-1.2236568927764893,3.027484655380249,73.31661987304688,27.75,0
-0.3619315326213836,-0.9754460453987122,0.0708281695842742,0.8877902030944824,3.0346391201019287,73.31424713134766,27.77,0
-0.3162334263324737,-0.9674493670463562,0.0566489920020103,3.711651563644409,3.0392305850982666,73.3127212524414,27.77,0
-0.2925047874450683,-0.9567197561264038,0.0363540612161159,7.390364646911621,3.042176961898804,73.3117446899414,27.77,0
-0.2716793417930603,-0.9666274785995485,0.0121343936771154,11.019383430480955,3.044067859649658,73.31111907958984,27.77,0
-0.2583147883415222,-0.9953767657279968,-0.0202017165720462,13.129741668701172,3.045281410217285,73.31071472167969,27.77,0
-0.2441404014825821,-0.980239748954773,-0.0465509481728076,12.857558250427246,3.046060085296631,73.31045532226562,27.77,0
-0.2350440919399261,-0.9649279117584229,-0.0634603649377822,10.13209342956543,3.046559810638428,73.31029510498047,27.77,0
-0.2348043918609619,-0.9886882901191713,-0.0799096301198005,5.76060152053833,3.04688048362732,73.31018829345703,27.77,0
-0.2402483373880386,-1.015131950378418,-0.0904658213257789,1.5472772121429443,3.0535130500793457,73.31011962890625,27.77,0
-0.2381441742181778,-1.0041130781173706,-0.0860446318984031,-1.2282434701919556,3.057769536972046,73.31007385253906,27.77,0
-0.2311960607767105,-0.985846221446991,-0.0664140433073043,-3.184959173202514,3.0605010986328125,73.31004333496094,27.77,0
-0.2267371714115142,-0.9741235971450806,-0.048218484967947,-5.347058296203613,3.062253952026367,73.31002807617188,27.77,0
-0.2406690269708633,-0.9666007161140442,-0.042139396071434,-7.458249092102051,3.0633788108825684,73.31002044677734,27.77,0
-0.2496096938848495,-0.9729684591293336,-0.0326404124498367,-8.852498054504395,3.064100742340088,73.31001281738281,27.77,0
-0.2553473114967346,-0.9770549535751344,-0.0209467373788356,-9.42839813232422,3.0645639896392822,73.31000518798828,27.77,0
-0.2646271586418152,-0.9684818387031556,-0.0134424101561307,-9.081461906433104,3.064861297607422,73.31000518798828,27.77,0
-0.2705824077129364,-0.9573823809623718,-0.0142243392765522,-7.483109474182129,3.075151205062866,73.31000518798828,27.77,0
-0.2632085978984833,-0.9502593874931335,-0.0203239116817712,-4.572944164276123,3.081754684448242,73.31000518798828,27.77,0
-0.2528787553310394,-0.945688247680664,-0.0298360399901866,-0.5199962854385376,3.0859923362731934,73.31000518798828,27.77,0
-0.2350540906190872,-0.95395028591156,-0.0583314709365367,4.398879051208496,3.088711738586426,73.31000518798828,27.77,0
-0.2348107993602752,-0.9704479575157166,-0.0878137499094009,9.58326816558838,3.090456962585449,73.31000518798828,27.77,0
-0.2402524501085281,-1.0090240240097046,-0.1123315542936325,14.110472679138184,3.0915768146514893,73.31000518798828,27.77,0
-0.2493423521518707,-1.0841599702835083,-0.1392612159252166,16.922624588012695,3.0922956466674805,73.31000518798828,27.77,0
-0.2607735097408294,-1.1435734033584597,-0.1509453505277633,17.40891456604004,3.092756986618042,73.31000518798828,27.77,0
-0.268109381198883,-1.1201260089874268,-0.1192591339349746,16.187644958496094,3.103152275085449,73.31716918945312,27.77,0
-0.295208215713501,-1.0435032844543457,-0.065338097512722,14.307636260986328,3.109823226928711,73.32176971435547,27.77,0
-0.3405875563621521,-0.98313570022583,-0.0139413550496101,11.392266273498535,3.1141042709350586,73.32472229003906,27.77,0
-0.414491593837738,-0.955590844154358,0.0694220811128616,6.461830139160156,3.116851568222046,73.32661437988281,27.77,0
-0.4731144905090332,-0.949109673500061,0.150908812880516,0.6430721282958984,3.118614673614502,73.32782745361328,27.77,0
-0.4603553414344787,-0.9393526315689088,0.2143978476524353,-3.617710828781128,3.119746208190918,73.32860565185547,27.77,0
-0.3905917108058929,-0.9162977933883668,0.2663370072841644,-5.918544292449951,3.1204724311828613,73.32910919189453,27.77,0
-0.3290281295776367,-0.8847092390060425,0.310864120721817,-7.979046821594238,3.120938301086426,73.32942962646484,27.77,0
-0.2895201444625854,-0.8756330609321594,0.3394390642642975,-10.70214557647705,3.120778083801269,73.32963562011719,27.75,0
-0.2753617465496063,-0.8977973461151123,0.3353857100009918,-13.248587608337402,3.1206753253936768,73.32976531982422,27.75,0
-0.2718734741210937,-0.8952277898788452,0.2936000823974609,-14.578228950500488,3.1206092834472656,73.32984924316406,27.75,0
-0.2752326726913452,-0.8599921464920044,0.2667844891548157,-14.381821632385254,3.120566844940185,73.32990264892578,27.75,0
-0.2885839641094208,-0.8485754728317261,0.2495757639408111,-12.81200122833252,3.120539665222168,73.32994079589844,27.75,0
-0.2859565019607544,-0.8580422401428223,0.2105433344841003,-10.436036109924316,3.1205222606658936,73.32996368408203,27.75,0
-0.2842703759670257,-0.8585197329521179,0.1742990165948867,-8.40255355834961,3.120511054992676,73.3299789428711,27.75,0
-0.2887860834598541,-0.842032790184021,0.1342461705207824,-7.613471984863281,3.1205039024353027,73.32998657226562,27.75,0
-0.3028795421123504,-0.8538435697555542,0.1309336572885513,-7.683879375457764,3.113154649734497,73.32999420166016,27.75,0
-0.295130580663681,-0.8670207858085632,0.1232101023197174,-7.542768955230713,3.10843825340271,73.32999420166016,27.75,0
-0.2677666544914245,-0.8306949734687805,0.1014602482318878,-6.94348669052124,3.105411529541016,73.32999420166016,27.75,0
-0.2614016234874725,-0.801785409450531,0.0875024423003196,-6.437094688415527,3.103469133377075,73.32999420166016,27.75,0
-0.2909035384654999,-0.8504061698913574,0.0841429010033607,-6.065547943115234,3.102222681045532,73.32999420166016,27.75,0
-0.2874450981616974,-0.8984014987945557,0.0763891711831092,-5.210907459259033,3.1014227867126465,73.32999420166016,27.75,0
-0.2796278893947601,-0.8956155180931091,0.0714132711291313,-3.677239894866944,3.100909471511841,73.32999420166016,27.75,0
-0.313795655965805,-0.9833920001983644,0.0794155746698379,-2.069652318954468,3.1005799770355225,73.32999420166016,27.75,0
-0.3693092167377472,-1.0845041275024414,0.0957465395331382,-0.9233527183532716,3.1045000553131104,73.32999420166016,27.75,0
-0.4161301851272583,-1.1102076768875122,0.1006290391087532,-0.119654580950737,3.107015609741211,73.32999420166016,27.75,0
-0.4237860739231109,-1.0315405130386353,0.1149578914046287,0.6146496534347534,3.108629941940308,73.32999420166016,27.75,0
-0.43429696559906,-0.958665370941162,0.1297511011362075,1.286508083343506,3.109666109085083,73.32999420166016,27.75,0
-0.4802266657352447,-0.8951049447059631,0.1280489861965179,1.8824666738510127,3.1103310585021973,73.32999420166016,27.75,0
-0.5264950394630432,-0.8487177491188049,0.1157611161470413,2.5228641033172607,3.11075758934021,73.32999420166016,27.75,0
-0.5393940806388855,-0.8021557927131653,0.0854843705892562,3.313587188720703,3.1110315322875977,73.32999420166016,27.75,0
-0.5308786034584045,-0.7778728008270264,0.0772500485181808,4.243771553039551,3.1112072467803955,73.32999420166016,27.75,0
-0.5254138708114624,-0.7734849452972412,0.0663679540157318,5.163142204284668,3.1012210845947266,73.31925201416016,27.75,0
-0.482722520828247,-0.7706690430641174,0.0313955843448638,5.9107747077941895,3.094812631607056,73.3123550415039,27.75,0
-0.4273367822170257,-0.7576664090156555,0.0089523298665881,6.6055169105529785,3.0906999111175537,73.30792999267578,27.75,0
-0.3638045489788055,-0.7437242865562439,0.0113428644835948,7.477688789367676,3.0880606174468994,73.30509185791016,27.75,0
-0.2894465625286102,-0.706788182258606,0.0016814230475574,8.427899360656738,3.086366891860962,73.30326843261719,27.75,0
-0.2585211992263794,-0.739062488079071,0.0010790405794978,9.324295997619627,3.085279941558838,73.3021011352539,27.75,0
-0.1826973408460617,-0.8885230422019958,-0.0049053085967898,10.386781692504885,3.0845823287963867,73.30134582519531,27.75,0
-0.1228424087166786,-0.922862708568573,0.0136453788727521,11.749313354492188,3.084134817123413,73.30086517333984,27.75,0
-0.0900287330150604,-0.9281066060066224,0.0367456898093223,13.22916316986084,3.0994551181793213,73.3005599975586,27.73,0
-0.0577752590179443,-0.9370696544647216,0.0739612355828285,14.748475074768066,3.1092867851257324,73.30036163330078,27.73,0
-0.0034901890903711,-0.9428216218948364,0.1034418046474456,16.250120162963867,3.115596055984497,73.30023193359375,27.73,0
0.0537379421293735,-1.0080883502960205,0.1167629659175872,17.23528480529785,3.119645118713379,73.3001480102539,27.73,0
0.0624747909605503,-1.0443750619888306,0.0973228514194488,17.176069259643555,3.122243642807007,73.30009460449219,27.73,0
0.1072660163044929,-1.0956506729125977,0.0736517533659935,16.113452911376953,3.123911142349243,73.30006408691406,27.73,0
0.1416082233190536,-1.1509474515914917,0.0192765817046165,14.467813491821287,3.124981164932251,73.30004119873047,27.73,0
0.1860381662845611,-1.141651630401611,-0.0044227228499948,12.372790336608888,3.1256678104400635,73.3000259399414,27.73,0
0.2369418442249298,-1.1300883293151855,-0.0476204454898834,9.527225494384766,3.160077810287476,73.30001831054688,27.73,0
0.230424478650093,-1.122667670249939,-0.0641467049717903,5.938478946685791,3.1821601390838623,73.30001068115234,27.73,0
0.1926553547382354,-1.078721046447754,-0.0747523084282875,2.453177690505981,3.196331262588501,73.30001068115234,27.73,0
0.1908084154129028,-1.1008986234664917,-0.1263405680656433,-0.0700939446687698,3.205425500869751,73.30001068115234,27.73,0
0.1280476301908493,-1.1207287311553955,-0.0754803270101547,-1.9186692237854004,3.211261749267578,73.30001068115234,27.73,0
0.0821736007928848,-1.0774767398834229,-0.009254508651793,-3.893145084381104,3.215007066726685,73.30001068115234,27.73,0
0.0527342855930328,-1.010535717010498,-0.0283301081508398,-5.823026657104492,3.2174105644226074,73.30001068115234,27.73,0
0.1346017718315124,-0.9563812613487244,-0.0573650524020195,-6.821480751037598,3.2189528942108154,73.30001068115234,27.73,0
0.1255640834569931,-0.9272258281707764,-0.0927913337945938,-6.756464004516602,3.246567726135254,73.30001068115234,27.73,0
0.0917753502726554,-0.8917222023010254,-0.1547103077173233,-6.291996002197266,3.264289379119873,73.30001068115234,27.73,0
0.0980805605649948,-0.8577424883842468,-0.1888485550880432,-5.782555103302002,3.2756621837615967,73.30001068115234,27.73,0
0.0853335559368133,-0.8415340185165405,-0.1883654296398162,-5.129611015319824,3.2829606533050537,73.30001068115234,27.73,0
0.0491643883287906,-0.92069673538208,-0.182457610964775,-4.434730529785156,3.287644386291504,73.30001068115234,27.73,0
0.0987241715192794,-1.1002476215362549,-0.066710814833641,-3.741598606109619,3.2906501293182373,73.30001068115234,27.73,0
0.0857465863227844,-1.176288604736328,-0.0148222893476486,-2.8776252269744877,3.292578935623169,73.30001068115234,27.73,0
0.0550272241234779,-1.1747074127197266,-0.0654898360371589,-2.416323661804199,3.2938168048858643,73.30001068115234,27.73,0
0.0521066263318061,-1.106519341468811,-0.1259942203760147,-3.392101287841797,3.333630084991455,73.28926086425781,27.73,0
-0.0113431587815284,-1.0011847019195557,-0.1536269038915634,-5.297278881072998,3.359179973602295,73.28235626220703,27.73,0
-0.0296704843640327,-0.9895647168159484,-0.1601644158363342,-6.168819427490234,3.3755762577056885,73.2779312133789,27.73,0
-0.0414319075644016,-1.0156943798065186,-0.1475664973258972,-5.133878231048584,3.386098623275757,73.27508544921875,27.73,0
-0.0545774847269058,-0.993278443813324,-0.1506774276494979,-3.065342664718628,3.3928511142730717,73.27326202392578,27.73,0
-0.096600204706192,-0.9620998501777648,-0.1302827447652816,-0.8171535730361938,3.3971846103668213,73.2720947265625,27.73,0
-0.1291657388210296,-1.0092644691467283,-0.1115968376398086,1.50691819190979,3.399965524673462,73.2713394165039,27.73,0
-0.133271113038063,-0.9891520738601683,-0.1163986250758171,3.944173812866211,3.401750087738037,73.27085876464844,27.73,0
-0.1806878894567489,-0.9874406456947328,-0.102686807513237,6.593784332275391,3.218817710876465,73.27055358886719,27.73,0
-0.2111172527074813,-1.025526762008667,-0.0435073859989643,9.666278839111328,3.1014223098754883,73.27035522460938,27.73,0
-0.258633941411972,-1.0331748723983765,6.833472434664145e-05,12.9313383102417,3.0260846614837646,73.27022552490234,27.73,0
-0.2387474477291107,-1.0212897062301636,0.028032723814249,15.757511138916016,2.9777371883392334,73.2701416015625,27.73,0
-0.2483765333890915,-0.991271436214447,0.0795653089880943,17.968852996826172,2.946710586547852,73.27008819580078,27.73,0
-0.276947021484375,-0.977605164051056,0.129429280757904,20.06507110595703,2.9267995357513428,73.27005767822266,27.73,0
-0.2728908360004425,-0.991226077079773,0.1782224327325821,22.517318725585938,2.9140217304229736,73.27003479003906,27.73,0
-0.2534944713115692,-0.966380536556244,0.1871439665555954,25.097734451293945,2.9058218002319336,73.27001953125,27.73,0
-0.2578403353691101,-0.911251664161682,0.2040648460388183,26.8325138092041,2.8452627658843994,73.27001190185547,27.73,0
-0.2550314664840698,-0.8422864675521851,0.2541081011295318,26.974916458129883,2.806399345397949,73.27000427246094,27.73,0
-0.2644244432449341,-0.7700397372245789,0.331005185842514,26.09542465209961,2.781459093093872,73.27000427246094,27.73,0
-0.315234512090683,-0.8244358897209167,0.31317999958992,25.212167739868164,2.765453815460205,73.27000427246094,27.73,0
-0.2974615395069122,-0.8537464141845703,0.3241319358348846,23.97540283203125,2.7551827430725098,73.27000427246094,27.73,0
-0.2972514033317566,-0.8221762776374817,0.3535513579845428,21.30803108215332,2.748591184616089,73.27000427246094,27.73,0
-0.3530943095684051,-0.7571341395378113,0.4116154611110687,17.607934951782227,2.744361162185669,73.27000427246094,27.73,0
-0.3273555338382721,-0.7377849817276001,0.4096932411193847,14.441678047180176,2.7416465282440186,73.27000427246094,27.73,0
-0.3052400946617126,-0.7981388568878174,0.2461242228746414,12.058664321899414,2.919850826263428,73.27000427246094,27.73,0
-0.4365898072719574,-0.8592615723609924,0.3874571025371551,8.455071449279785,3.034212112426758,73.27000427246094,27.73,0
-0.4369159042835235,-0.7697378396987915,0.5117430686950684,1.4170762300491333,3.107602596282959,73.27000427246094,27.73,0
-0.341962993144989,-0.7738621830940247,0.4795471429824829,-8.702651977539062,3.15470027923584,73.27000427246094,27.73,0
-0.3258098661899566,-0.7989000082015991,0.4308967888355255,-19.152074813842773,3.184924840927124,73.27000427246094,27.73,0
-0.2986504137516022,-0.8429567217826843,0.4556535482406616,-27.80325126647949,3.204321384429932,73.27000427246094,27.73,0
-0.3595898747444153,-0.8880231380462646,0.4883343279361725,-34.6627197265625,3.216768980026245,73.27000427246094,27.73,0
-0.2643507421016693,-0.8217819929122925,0.5316980481147766,-40.60523986816406,3.224756956100464,73.27000427246094,27.73,0
-0.3375783264636993,-0.7960655689239502,0.4307775795459747,-46.29965972900391,3.26982045173645,73.26641845703125,27.73,0
-0.4125604331493377,-0.9083110690116882,0.3268282115459442,-52.02115631103516,3.2987396717071533,73.26412200927734,27.73,0
-0.3263330459594726,-0.7620305418968201,0.4840304851531982,-57.179649353027344,3.317298173904419,73.26264953613281,27.73,0
-0.3101817071437835,-0.7633183002471924,0.5121427774429321,-60.62263107299805,3.3292081356048584,73.26170349121094,27.73,0
-0.2382411807775497,-0.797731339931488,0.485401451587677,-61.43135070800781,3.336851119995117,73.26109313964844,27.73,0
-0.2368560880422592,-0.7638378739356995,0.5074248313903809,-58.92306518554688,3.3417561054229736,73.26070404052734,27.73,0
-0.2639560997486114,-0.8092603087425232,0.465580403804779,-52.90324020385742,3.3449037075042725,73.26045227050781,27.73,0
-0.275749534368515,-0.799225389957428,0.466715931892395,-44.35405349731445,3.346923589706421,73.26029205322266,27.73,0
-0.2777201235294342,-0.7871878147125244,0.495433509349823,-34.66173553466797,3.311955213546753,73.26018524169922,27.69,0
-0.2901802659034729,-0.8018538951873779,0.4746783971786499,-24.47585105895996,3.289514541625977,73.26011657714844,27.69,0
-0.3093720376491546,-0.7720813155174255,0.4781522750854492,-14.188179969787598,3.275113344192505,73.26007843017578,27.69,0
-0.3160904347896576,-0.7809638381004333,0.4803816080093384,-4.419147968292236,3.265871524810791,73.26004791259766,27.69,0
-0.3092063665390014,-0.865032970905304,0.43143230676651,4.633715152740479,3.2599406242370605,73.2600326538086,27.69,0
-0.2600063681602478,-0.8630059361457825,0.3888238966464996,12.976202964782717,3.256134510040283,73.26002502441406,27.69,0
-0.2788126170635223,-0.8225207328796387,0.4734357595443725,19.977916717529297,3.253692150115967,73.26001739501953,27.69,0
-0.2908813655376434,-0.8581151366233826,0.4325726330280304,24.76498413085937,3.252124786376953,73.260009765625,27.69,0
-0.2594419717788696,-0.8921531438827515,0.3559690713882446,27.2495059967041,3.131307601928711,73.260009765625,27.69,0
-0.3232326209545135,-0.8748123645782471,0.3627870380878448,27.908876419067383,3.053774118423462,73.260009765625,27.69,0
-0.2130298614501953,-0.8916729092597961,0.4007490575313568,27.199928283691406,3.0040175914764404,73.260009765625,27.69,0
-0.3158390820026397,-0.8577108383178711,0.3691331744194031,25.55196952819824,2.9720866680145264,73.260009765625,27.69,0
-0.2922517359256744,-0.8918936848640442,0.4384083151817322,23.27274513244629,2.9515953063964844,73.260009765625,27.69,0
-0.2379303127527237,-0.919428050518036,0.4156917929649353,20.24448585510254,2.9384450912475586,73.260009765625,27.69,0
-0.2982321083545685,-0.8923158049583435,0.4011136591434479,16.25905418395996,2.93000602722168,73.260009765625,27.69,0
-0.3369303345680237,-0.897307813167572,0.4085515737533569,11.53039264678955,2.924590349197388,73.260009765625,27.69,0
-0.3057868778705597,-0.8893158435821533,0.3853359222412109,6.607792854309082,2.8481266498565674,73.260009765625,27.69,0
-0.3809629678726196,-0.8561981916427612,0.3704374432563782,1.9476524591445925,2.7990565299987797,73.260009765625,27.69,0
-0.4404022097587585,-0.8405429720878601,0.4392453134059906,-2.379257917404175,2.767566204071045,73.260009765625,27.69,0
-0.4337646961212158,-0.8640829920768738,0.3826422989368438,-6.581884860992432,2.7473576068878174,73.260009765625,27.69,0
-0.4239073395729065,-0.7952229976654053,0.3463177382946014,-10.815814018249512,2.734388828277588,73.260009765625,27.69,0
-0.4679614305496216,-0.8573903441429138,0.3230067193508148,-15.184473037719728,2.7260661125183105,73.260009765625,27.69,0
-0.4682439267635345,-0.8972857594490051,0.3416337072849273,-20.01934814453125,2.7207252979278564,73.260009765625,27.69,0
-0.4516319036483764,-0.8165306448936462,0.3535874485969543,-25.26447296142578,2.7172977924346924,73.260009765625,27.69,0
-0.5473290085792542,-0.781499981880188,0.3724541962146759,-29.92380142211914,2.7733969688415527,73.23493194580078,27.69,0
-0.6143396496772766,-0.770214855670929,0.3957573473453522,-33.33663558959961,2.809398412704468,73.21883392333984,27.69,0
-0.6013655066490173,-0.6342239379882812,0.3659297823905945,-36.35078811645508,2.8325018882751465,73.20850372314453,27.69,0
-0.7833637595176697,-0.5749416351318359,0.2740170955657959,-40.051307678222656,2.847328424453736,73.20187377929688,27.69,0
-0.8385842442512512,-0.5816798806190491,0.2934016585350036,-44.40366744995117,2.8568432331085205,73.19762420654297,27.69,0
-0.8348371386528015,-0.5580152273178101,0.3450259864330292,-48.51873397827149,2.86294937133789,73.19489288330078,27.69,0
-0.9052035212516784,-0.5260353088378906,0.2997866570949554,-50.8406982421875,2.866867780685425,73.1931381225586,27.69,0
-0.9727517366409302,-0.5167079567909241,0.2819502055644989,-49.69402313232422,2.869382381439209,73.1920166015625,27.69,0
-0.7642004489898682,-0.5387110710144043,0.3880570530891418,-45.078224182128906,2.9582149982452397,73.19129180908203,27.67,0
-0.5519953966140747,-0.5360381007194519,0.4505525529384613,-38.73053741455078,3.015222787857056,73.19082641601562,27.67,0
-0.5669543147087097,-0.5175294280052185,0.4402785897254944,-31.765817642211918,3.051807165145874,73.1905288696289,27.67,0
-0.6549229025840759,-0.5672271251678467,0.4168920516967773,-24.15076065063477,3.075284719467163,73.19033813476562,27.67,0
-0.5994206070899963,-0.6271091103553772,0.4298727810382843,-16.43720245361328,3.0903513431549072,73.19021606445312,27.67,0
-0.6141824126243591,-0.5983646512031555,0.3934208750724792,-9.659972190856934,3.100020170211792,73.19013977050781,27.67,0
-0.483711302280426,-0.5631247758865356,0.4316036403179168,-3.6627509593963614,3.1062252521514893,73.19009399414062,27.67,0
-0.6182956695556641,-0.5573031902313232,0.5904537439346313,2.485934019088745,3.110207319259644,73.1900634765625,27.67,0
-0.8837929368019104,-0.4472095072269439,0.6364168524742126,8.72823715209961,3.21237587928772,73.1900405883789,27.67,0
-0.8134695291519165,-0.2981888651847839,0.6155333518981934,14.099149703979492,3.2779417037963867,73.19002532958984,27.67,0
-0.7795355319976807,-0.2921203970909118,0.590936005115509,18.28032112121582,3.3200180530548096,73.19001770019531,27.67,0
-0.8753119111061096,-0.2658348977565765,0.5415641665458679,21.67290496826172,3.347020387649536,73.19001007080078,27.67,0
-0.8416135311126709,-0.2209775000810623,0.599444568157196,24.434030532836918,3.364348888397217,73.19001007080078,27.67,0
-0.8535745143890381,-0.1418106406927108,0.6309911012649536,26.6358699798584,3.375469207763672,73.19001007080078,27.67,0
-0.8556525707244873,-0.1189947798848152,0.651235818862915,28.654340744018555,3.38260555267334,73.19001007080078,27.67,0
-0.8345950841903687,-0.0931573212146759,0.5914566516876221,30.47989845275879,3.3871853351593018,73.19001007080078,27.67,0
-0.9050481915473938,-0.0094030369073152,0.5083116292953491,31.733835220336918,3.436028957366944,73.19001007080078,27.67,0
-0.9278698563575744,0.0219545438885688,0.4661495089530945,32.66034698486328,3.467373847961426,73.19001007080078,27.67,0
-0.8249621987342834,-0.0083019351586699,0.5566455721855164,33.84605407714844,3.4874892234802246,73.19001007080078,27.67,0
-0.8093019723892212,-0.0053277038969099,0.5867318511009216,35.30557632446289,3.5003981590271,73.19001007080078,27.67,0
-0.8776209950447083,-0.0090167885646224,0.5220728516578674,36.962310791015625,3.5086824893951416,73.19001007080078,27.67,0
-0.9158664345741272,-0.0001886811369331,0.4861762225627899,39.343894958496094,3.513998746871948,73.19001007080078,27.67,0
-0.87883460521698,-0.0001210846894537,0.5191175937652588,43.10420227050781,3.517410516738892,73.19001007080078,27.67,0
-0.8270808458328247,-7.77051827753894e-05,0.5570507645606995,48.13979721069336,3.519599914550781,73.19001007080078,27.67,0
-0.8778349161148071,-0.0168431904166936,0.5142207741737366,53.49223709106445,3.399109363555908,73.13626861572266,27.67,0
-0.9160037040710448,-0.0276023130863904,0.5091260671615601,58.03055953979492,3.321785449981689,73.1017837524414,27.67,0
-0.8621293902397156,-0.0233113504946231,0.5506387948989868,61.161529541015625,3.272163391113281,73.07965087890625,27.67,0
-0.8443492650985718,-0.0205576568841934,0.577279269695282,63.03824996948242,3.240318775177002,73.06544494628906,27.67,0
-0.8273412585258484,-0.0243882704526186,0.6111689209938049,64.24262237548828,3.2198827266693115,73.05632781982422,27.67,0
-0.8052309155464172,-0.015650987625122,0.6441128849983215,65.01910400390625,3.206768035888672,73.05047607421875,27.67,0
-0.7014774084091187,0.0291405171155929,0.6316677927970886,64.58235168457031,3.1983518600463867,73.04672241210938,27.67,0
-0.713263213634491,0.0242984816431999,0.6516700983047485,61.654544830322266,3.19295072555542,73.0443115234375,27.67,0
-0.732022225856781,0.032386690378189,0.6868975162506104,55.86705780029297,3.3616273403167725,73.04277038574219,27.59,0
-0.7216695547103882,0.0375772379338741,0.6983088850975037,48.1010856628418,3.469874382019043,73.04177856445312,27.59,0
-0.7206236124038696,0.0577015541493892,0.6832409501075745,39.82136535644531,3.53934097290039,73.04114532470703,27.59,0
-0.719952404499054,0.0594206340610981,0.7015601396560669,32.132667541503906,3.58392071723938,73.04073333740234,27.59,0
-0.6915327906608582,0.0381327420473098,0.7189140915870667,25.08120346069336,3.6125295162200928,73.04047393798828,27.59,0
-0.7292724251747131,0.0132758496329188,0.7020620107650757,18.26313018798828,3.6308889389038086,73.0403060913086,27.59,0
-0.77028489112854,0.0085196765139698,0.6968450546264648,12.035491943359377,3.6426708698272714,73.04019927978516,27.59,0
-0.6958444118499756,0.0390540845692157,0.7270837426185608,6.774303436279297,3.6502318382263184,73.04013061523438,27.59,0
-0.6704638600349426,0.0418559871613979,0.7464892268180847,1.7141647338867188,3.720268726348877,73.04008483886719,27.59,0
-0.6709694266319275,0.060447409749031,0.747747004032135,-3.575208902359009,3.765214443206787,73.04005432128906,27.59,0
-0.6209138631820679,0.0555849894881248,0.7709452509880066,-8.101717948913574,3.794058084487915,73.04003143310547,27.59,0
-0.5999866724014282,0.0356712453067302,0.7858325242996216,-11.57261848449707,3.812568187713623,73.04002380371094,27.59,0
-0.6537300944328308,0.0452828481793403,0.7673974633216858,-14.817493438720703,3.8244469165802,73.0400161743164,27.59,0
-0.621046245098114,0.0402554757893085,0.7891535758972168,-17.15064811706543,3.8320698738098153,73.04000854492188,27.59,0
-0.5888760685920715,0.0426269695162773,0.8087131381034851,-16.842315673828125,3.8369619846344,73.04000854492188,27.59,0
-0.579426646232605,0.0385510846972465,0.804472029209137,-14.770757675170898,3.840101480484009,73.04000854492188,27.59,0
-0.5733625292778015,0.0359354168176651,0.8017503619194031,-13.724373817443848,3.843034029006958,73.04000854492188,27.59,0
-0.5638731718063354,0.0510501526296138,0.8167970776557922,-13.916266441345217,3.844915866851807,73.04000854492188,27.59,0
-0.5633811950683594,0.0607499219477176,0.8320509195327759,-12.721023559570312,3.846123695373535,73.04000854492188,27.59,0
-0.5686632990837097,0.0669746771454811,0.8250466585159302,-8.47530460357666,3.8468987941741934,73.04000854492188,27.59,0
-0.577650785446167,0.0709693655371666,0.809356153011322,-1.5518676042556765,3.8473961353302,73.04000854492188,27.59,0
-0.572222888469696,0.0791307017207145,0.8104824423789978,7.301346302032471,3.847715377807617,73.04000854492188,27.59,0
-0.5519462823867798,0.0899659469723701,0.8279985785484314,17.21743392944336,3.8479201793670654,73.04000854492188,27.59,0
-0.5557272434234619,0.0913216099143028,0.8112505674362183,26.636943817138672,3.8480515480041504,73.04000854492188,27.59,0
-0.5693491697311401,0.0753982737660408,0.8005026578903198,33.83185195922852,3.8573169708251953,72.97551727294922,27.59,0
-0.5612976551055908,0.065179593861103,0.8271918892860413,37.34211349487305,3.863262891769409,72.93413543701172,27.59,0
-0.5449351072311401,0.0586218349635601,0.838721752166748,36.126861572265625,3.8670787811279297,72.90757751464844,27.59,0
-0.551227867603302,0.0656089931726455,0.8237298130989075,30.392282485961918,3.869527578353882,72.89053344726562,27.59,0
-0.5664617419242859,0.0588973984122276,0.8253044486045837,21.90076065063477,3.87109899520874,72.87959289550781,27.59,0
-0.5426512956619263,0.0545902848243713,0.8431082367897034,12.804328918457031,3.87210750579834,72.87257385253906,27.59,0
-0.5329689383506775,0.0518262274563312,0.843338131904602,4.570019245147705,3.8727548122406006,72.86807250976562,27.59,0
-0.5323531031608582,0.0668457373976707,0.8490834832191467,-1.8213025331497192,3.873170137405396,72.86518096923828,27.59,0
-0.5487512350082397,0.0708866193890571,0.8415749669075012,-5.85123348236084,3.892257690429688,72.86332702636719,27.67,0
-0.5592746138572693,0.0734798237681388,0.8423541784286499,-8.150805473327637,3.904506921768189,72.86213684082031,27.67,0
-0.560430109500885,0.0639484450221061,0.8372564911842346,-10.199749946594238,3.912367820739746,72.86137390136719,27.67,0
-0.5555738806724548,0.0634295269846916,0.8339850902557373,-12.951257705688477,3.917412519454956,72.86088562011719,27.67,0
-0.5524574518203735,0.0630965158343315,0.8374834656715393,-16.35783576965332,3.920650005340576,72.86056518554688,27.67,0
-0.5560552477836609,0.0628828108310699,0.8341307044029236,-19.83012580871582,3.922727584838867,72.86035919189453,27.67,0
-0.5527663826942444,0.0683434382081031,0.8263813257217407,-22.49193382263184,3.924060821533203,72.8602294921875,27.67,0
-0.5562535524368286,0.0662499815225601,0.8270059823989868,-23.752307891845703,3.924916505813599,72.86014556884766,27.67,0
-0.5584914088249207,0.0649065226316452,0.8274068832397461,-23.844627380371094,3.9383187294006343,72.86009216308594,27.67,0
-0.5599275231361389,0.0696421414613723,0.8276641368865967,-23.294836044311523,3.946919441223145,72.86006164550781,27.67,0
-0.560849130153656,0.072681188583374,0.8222314715385437,-22.32222557067871,3.952439069747925,72.86003875732422,27.67,0
-0.5614405870437622,0.0690336972475051,0.8243428468704224,-21.060361862182617,3.9559812545776367,72.86002349853516,27.67,0
-0.5618201494216919,0.0666929483413696,0.8312956094741821,-19.698854446411133,3.958254337310791,72.86001586914062,27.67,0
-0.5564659237861633,0.0707885697484016,0.8301597237586975,-18.251903533935547,3.9597129821777344,72.8600082397461,27.67,0
-0.5530298948287964,0.0734169036149978,0.8294307589530945,-16.57815933227539,3.960649251937866,72.8600082397461,27.67,0
-0.5620204210281372,0.0751036182045936,0.8233652114868164,-14.486594200134276,3.961250066757202,72.8600082397461,27.67,0
-0.5621922612190247,0.0761860534548759,0.8194726705551147,-11.876116752624512,3.97526741027832,72.8600082397461,27.67,0
-0.5623025298118591,0.0768806934356689,0.8169746398925781,-8.972039222717285,3.9842629432678223,72.8600082397461,27.67,0
-0.5623732805252075,0.077326476573944,0.8209693431854248,-6.305872440338135,3.990035533905029,72.8600082397461,27.67,0
-0.5568209290504456,0.0720147788524627,0.8235329389572144,-4.336934566497803,3.993740081787109,72.8600082397461,27.67,0
-0.5588554739952087,0.0686060339212417,0.8195803165435791,-3.291920661926269,3.99611759185791,72.8600082397461,27.67,0
-0.5713567137718201,0.0720162764191627,0.8170437216758728,-3.341388702392578,3.997643232345581,72.8600082397461,27.67,0
-0.5681837201118469,0.0798025503754615,0.8210136890411377,-4.634201049804688,3.998622417449951,72.8600082397461,27.67,0
-0.5605497360229492,0.0792015567421913,0.8123658299446106,-6.857475280761719,3.999250650405884,72.8600082397461,27.67,0
-0.5556506514549255,0.0844136476516723,0.7956205606460571,-9.093907356262209,4.007916450500488,72.8170166015625,27.67,0
-0.5972889065742493,0.0765629187226295,0.8072655200958252,-10.59718894958496,4.013477802276611,72.78942108154297,27.67,0
-0.5624344348907471,0.0771225467324256,0.8427274823188782,-11.52966594696045,4.017046928405762,72.77171325683594,27.67,0
-0.5400668382644653,0.0718839094042778,0.8263005018234253,-12.368108749389648,4.019337177276611,72.7603530883789,27.67,0
-0.5313103795051575,0.0741198286414146,0.832551896572113,-13.067388534545898,4.020806789398193,72.75305938720703,27.67,0
-0.5088976621627808,0.0755547136068344,0.8477592468261719,-13.620040893554688,4.021749973297119,72.74838256835938,27.67,0
-0.4441345036029815,0.0652799904346466,0.8967028856277466,-14.805858612060549,4.022355556488037,72.74537658691406,27.67,0
-0.4641487300395965,0.0418929420411586,0.8889276385307312,-17.21125030517578,4.022744178771973,72.74344635009766,27.67,0
-0.4490038454532623,0.0828622207045555,0.934317946434021,-20.11627197265625,4.020698070526123,72.7422103881836,27.69,0
-0.4840669333934784,0.0755672976374626,0.8682846426963806,-22.388959884643555,4.019384860992432,72.74141693115234,27.69,0
-0.5121662020683289,0.0764836147427558,0.8594949245452881,-23.851022720336918,4.018542289733887,72.74090576171875,27.69,0
-0.5246008634567261,0.0770716518163681,0.8650497198104858,-24.979167938232425,4.018001556396484,72.7405776977539,27.69,0
-0.5101896524429321,0.0718512460589408,0.857418954372406,-26.036325454711918,4.0176544189453125,72.74037170410156,27.69,0
-0.5065391063690186,0.0740988627076149,0.8525219559669495,-26.890295028686523,4.017431735992432,72.740234375,27.69,0
-0.5153919458389282,0.0755412578582763,0.8549771308898926,-27.212621688842773,4.017288684844971,72.74015045166016,27.69,0
-0.5210732221603394,0.0764669030904769,0.8565527200698853,-26.867755889892575,4.017197132110596,72.74009704589844,27.69,0
-0.5247191190719604,0.0770609304308891,0.8463682532310486,-26.159210205078125,4.004285335540772,72.74005889892578,27.69,0
-0.5270588397979736,0.0774421393871307,0.8510280251502991,-25.43222999572754,3.9959990978240967,72.74003601074219,27.69,0
-0.5285603404045105,0.0776867792010307,0.8540183901786804,-24.53578758239746,3.990681409835816,72.74002075195312,27.69,0
-0.5239261388778687,0.0778437778353691,0.8503396511077881,-22.97529411315918,3.987268924713135,72.7400131225586,27.69,0
-0.5209521651268005,0.0779445245862007,0.8479788303375244,-20.3617000579834,3.985079050064087,72.74000549316406,27.69,0
-0.5190436840057373,0.0780091807246208,0.8520615696907043,-16.617300033569336,3.983673572540283,72.74000549316406,27.69,0
-0.5178189277648926,0.078050673007965,0.8490839004516602,-12.061230659484863,3.982771635055542,72.74000549316406,27.69,0
-0.5170329213142395,0.0780773013830185,0.8471729755401611,-7.328207492828369,3.9821927547454834,72.74000549316406,27.69,0
-0.5165285468101501,0.0780943930149078,0.8515444397926331,-2.968855142593384,3.9887070655822754,72.74000549316406,27.69,0
-0.516204833984375,0.0781053602695465,0.8487520217895508,0.8067695498466492,3.992887735366821,72.74000549316406,27.69,0
-0.5215948820114136,0.07811239361763,0.8525577783584595,4.021497249603272,3.995570659637451,72.74000549316406,27.69,0
-0.5250539183616638,0.0781169086694717,0.8550000786781311,6.711474895477295,3.997292280197144,72.74000549316406,27.69,0
-0.5104804039001465,0.0781198069453239,0.8565674424171448,8.874822616577148,3.9983971118927,72.74000549316406,27.69,0
-0.5067257285118103,0.0781216695904731,0.8575732707977295,10.528244972229004,3.999106168746948,72.74000549316406,27.69,0
-0.509913980960846,0.0781228616833686,0.8582187294960022,11.68604564666748,3.999561071395874,72.74000549316406,27.69,0
-0.5175577998161316,0.0781236290931701,0.8530352115631104,12.504289627075195,3.9998531341552734,72.74000549316406,27.69,0
-0.5168653726577759,0.0781241208314895,0.8497087359428406,13.358988761901855,3.9986631870269775,72.707763671875,27.69,0
-0.5164210200309753,0.0781244337558746,0.8531717658042908,14.469948768615724,3.9978997707366943,72.68707275390625,27.69,0
-0.5105380415916443,0.0725268647074699,0.8553941249847412,15.47667121887207,3.9974098205566406,72.67378997802734,27.69,0
-0.5123604536056519,0.0745324417948722,0.856820285320282,15.92210292816162,3.9970953464508057,72.66526794433594,27.69,0
-0.5135300159454346,0.0758194997906684,0.8465399742126465,15.985836029052734,3.996893405914306,72.65979766845703,27.69,0
-0.5198783278465271,0.0766454637050628,0.8511382341384888,16.098386764526367,3.9967639446258554,72.65628814697266,27.69,0
-0.523952305316925,0.0771755203604698,0.8540891408920288,15.95924472808838,3.996680736541748,72.65403747558594,27.69,0
-0.5153712034225464,0.0775156766176223,0.8559828400611877,14.419007301330566,3.996627330780029,72.652587890625,27.69,0
-0.5154621005058289,0.0777339711785316,0.8571981191635132,10.442704200744627,3.9965932369232178,72.65166473388672,27.71,0
-0.5211182236671448,0.077874056994915,0.8523802161216736,3.996681690216065,3.996571302413941,72.65106964111328,27.71,0
-0.5191502571105957,0.0779639557003974,0.8548861742019653,-3.9948554039001465,3.996557235717773,72.65068817138672,27.71,0
-0.51788729429245,0.07802165299654,0.8564943075180054,-12.36917781829834,3.996548175811768,72.65044403076172,27.71,0
-0.5170767903327942,0.0780586749315261,0.8575263619422913,-20.11858367919922,3.996542453765869,72.65028381347656,27.71,0
-0.5165566802024841,0.0780824348330497,0.8525908589363098,-26.374269485473636,3.996538639068604,72.65018463134766,27.71,0
-0.5162228941917419,0.0780976861715316,0.8550213575363159,-30.603761672973636,3.996536254882813,72.65011596679688,27.71,0
-0.5104109048843384,0.0781074687838554,0.8565810918807983,-32.68747329711914,3.996534824371338,72.65007781982422,27.71,0
-0.5122789144515991,0.0781137496232986,0.8519842624664307,-32.5844841003418,3.993779420852661,72.6500473022461,27.71,0
-0.5190754532814026,0.0781177803874015,0.8490342497825623,-30.38675880432129,3.992011308670044,72.65003204345703,27.71,0
-0.5234370827674866,0.0781203657388687,0.8471411466598511,-26.76593589782715,3.9908766746521,72.6500244140625,27.71,0
-0.5206383466720581,0.0781220272183418,0.8515239953994751,-22.78714942932129,3.990148305892944,72.65001678466797,27.71,0
-0.5188422799110413,0.0781230926513671,0.8487389087677002,-19.15543937683105,3.989681005477905,72.65000915527344,27.71,0
-0.5232874155044556,0.0781237781047821,0.8469516038894653,-15.861104011535645,3.989381074905396,72.65000915527344,27.71,0
-0.5261400938034058,0.0781242176890373,0.8514024019241333,-12.403523445129396,3.989188671112061,72.65000915527344,27.71,0
-0.5223729610443115,0.0781245008111,0.85425865650177,-8.50441837310791,3.989065170288086,72.65000915527344,27.71,0
-0.5199554562568665,0.0781246796250343,0.8560916185379028,-4.597827911376953,3.983018398284912,72.65000915527344,27.71,0
-0.5240018367767334,0.0781247913837432,0.8516701459884644,-1.28114116191864,3.979137897491455,72.65000915527344,27.71,0
-0.5210007429122925,0.0781248658895492,0.8488326668739319,1.4312773942947388,3.9766476154327393,72.65000915527344,27.71,0
-0.5190748572349548,0.0781249105930328,0.8526095151901245,3.806067705154419,3.9750494956970215,72.65000915527344,27.71,0
-0.5178388953208923,0.0781249403953552,0.855033278465271,5.849544525146484,3.9740240573883057,72.65000915527344,27.71,0
-0.522643506526947,0.078124962747097,0.8565887212753296,7.461866855621338,3.973366022109986,72.65000915527344,27.71,0
-0.525726854801178,0.0781249776482582,0.8519891500473022,8.690021514892578,3.9729435443878174,72.65000915527344,27.71,0
-0.5221077799797058,0.0781249850988388,0.8546351790428162,9.52833652496338,3.972672462463379,72.65000915527344,27.71,0
-0.5253830552101135,0.0781249925494194,0.8507354855537415,9.704479217529297,3.963317394256592,72.61775970458984,27.71,0
-0.5218871831893921,0.0781249925494194,0.8482328653335571,8.817977905273438,3.9573140144348153,72.5970687866211,27.71,0
-0.5196437239646912,0.0781249925494194,0.8466268181800842,6.808877468109131,3.953461170196533,72.58378601074219,27.71,0
-0.5238017439842224,0.0781249925494194,0.8399984240531921,4.104434967041016,3.95098876953125,72.57526397705078,27.71,0
-0.5208723545074463,0.0837227702140808,0.8469402194023132,1.2188727855682373,3.949402093887329,72.56979370117188,27.71,0
-0.5189924240112305,0.0817173272371292,0.8457973003387451,-1.5357239246368408,3.9483838081359854,72.5662841796875,27.71,0
-0.5177860260009766,0.0804303511977195,0.8506616353988647,-3.9304165840148926,3.947730302810669,72.56403350830078,27.71,0
-0.5226095914840698,0.0796044394373893,0.8537832498550415,-5.750216007232666,3.947310924530029,72.56258392333984,27.71,0
-0.5201073288917542,0.0790744200348854,0.8557865619659424,-6.796250820159912,3.9419925212860103,72.56166076660156,27.71,0
-0.5129037499427795,0.0843320563435554,0.8514743447303772,-6.876410484313965,3.938579559326172,72.56106567382812,27.71,0
-0.5194764137268066,0.0821083337068557,0.8543047904968262,-5.906818389892578,3.936389446258545,72.56068420410156,27.71,0
-0.5236943960189819,0.0806812718510627,0.8505234718322754,-4.184739112854004,3.934983968734741,72.56044006347656,27.71,0
-0.5264012217521667,0.0797654688358306,0.8536946177482605,-2.3236844539642334,3.934081792831421,72.5602798461914,27.71,0
-0.5225405693054199,0.0847755298018455,0.8445340991020203,-0.7639440894126892,3.9335029125213614,72.5601806640625,27.71,0
-0.520063042640686,0.0767951533198356,0.838655412197113,0.4412142932415008,3.933131456375122,72.56011199951172,27.71,0
-0.5240708589553833,0.0828693583607673,0.8460783362388611,1.357918620109558,3.932893037796021,72.56007385253906,27.71,0
-0.5266428589820862,0.0811696574091911,0.8508419394493103,1.9282938241958616,3.920804738998413,72.56004333496094,27.71,0
-0.5226956009864807,0.0800788849592208,0.8483011722564697,2.1044514179229736,3.9130470752716064,72.56002807617188,27.71,0
-0.5201625227928162,0.0793788880109787,0.8522684574127197,1.945223331451416,3.9080686569213863,72.56002044677734,27.71,0
-0.5241346955299377,0.0789296701550483,0.8548144102096558,1.5492687225341797,3.904873847961426,72.56001281738281,27.71,0
-0.5210860371589661,0.0786413922905922,0.850850522518158,0.9906489253044128,3.902823686599731,72.56000518798828,27.71,0
-0.5191295742988586,0.0784563943743705,0.8483067154884338,0.306144505739212,3.90150785446167,72.56000518798828,27.71,0
-0.5234718322753906,0.0783376693725586,0.8466742634773254,-0.4269022345542907,3.9006636142730713,72.56000518798828,27.71,0
-0.5262584090232849,0.0782614797353744,0.851224422454834,-1.015554428100586,3.900121688842773,72.56000518798828,27.71,0
-0.5224488973617554,0.0838103592395782,0.8597422242164612,-1.19627583026886,3.895183563232422,72.56000518798828,27.71,0
-0.5088086128234863,0.0817735344171524,0.8540129065513611,-0.782031238079071,3.892014503479004,72.56000518798828,27.71,0
-0.5056528449058533,0.0804664194583892,0.8503361344337463,0.1931570768356323,3.889980792999268,72.56000518798828,27.71,0
-0.5148231983184814,0.0852253660559654,0.8591721653938293,1.4710055589675903,3.8886756896972656,72.56000518798828,27.71,0
-0.515110433101654,0.0826816037297248,0.8592448234558105,2.742459774017334,3.887838125228882,72.56000518798828,27.71,0
-0.5096970200538635,0.0866469368338584,0.8592914342880249,3.830681562423706,3.887300729751587,72.56000518798828,27.71,0
-0.5118207931518555,0.0835938900709152,0.864919126033783,4.607856273651123,3.886955738067627,72.56000518798828,27.71,0
-0.5131836533546448,0.0872323960065841,0.8629329204559326,4.927473545074463,3.8867344856262207,72.56000518798828,27.71,0
-0.5196560621261597,0.0839696004986763,0.8448649644851685,4.817318916320801,3.878329515457153,72.52059173583984,27.71,0
-0.5182119011878967,0.1042668223381042,0.8668566346168518,4.481517314910889,3.8729357719421382,72.49530029296875,27.71,0
-0.5172851085662842,0.08930354565382,0.8473829627037048,4.011656284332275,3.869474411010742,72.47907257080078,27.71,0
-0.5222881436347961,0.0908965244889259,0.8516792058944702,3.376946926116944,3.867253065109253,72.46865844726562,27.71,0
-0.5199010372161865,0.0863210260868072,0.8544362783432007,2.7833330631256104,3.8658275604248047,72.46197509765625,27.71,0
-0.5183691382408142,0.0833847373723983,0.8506078124046326,2.552854061126709,3.864912748336792,72.45768737792969,27.71,0
-0.5173860192298889,0.0815003961324691,0.8537487387657166,2.537501335144043,3.864325761795044,72.4549331665039,27.71,0
-0.5167551040649414,0.080291137099266,0.8557643890380859,2.119235038757324,3.863949060440064,72.45316314697266,27.71,0
-0.5163502097129822,0.0795150995254516,0.8514601588249207,1.0124932527542114,3.8568215370178223,72.4520263671875,27.69,0
-0.5160903930664062,0.079017087817192,0.8486979603767395,-0.3354483544826507,3.852247476577759,72.45130157470703,27.69,0
-0.5159236788749695,0.0786974877119064,0.8525230884552002,-1.2613835334777832,3.849312067031861,72.45083618164062,27.69,0
-0.5158166885375977,0.0784923881292343,0.8549778461456299,-1.4794249534606934,3.847428321838379,72.4505386352539,27.69,0
-0.5157480239868164,0.078360766172409,0.8509553670883179,-1.0497218370437622,3.846219539642334,72.45034790039062,27.69,0
-0.5213017463684082,0.0782762989401817,0.8483740091323853,-0.2974805831909179,3.8454437255859375,72.45022583007812,27.69,0
-0.5248658061027527,0.0782220959663391,0.8523151874542236,0.1780993640422821,3.844945907592773,72.45014190673828,27.69,0
-0.5159574151039124,0.078187309205532,0.8548443913459778,-0.0576697066426277,3.844626426696777,72.45008850097656,27.69,0
-0.5102405548095703,0.0781649872660636,0.8508697152137756,-0.8000977635383606,3.837076425552368,72.45005798339844,27.69,0
-0.5177673697471619,0.0837484374642372,0.8539168238639832,-1.588229417800903,3.832231044769287,72.45003509521484,27.69,0
-0.5169998407363892,0.081733800470829,0.8558722734451294,-2.2838833332061768,3.829121589660645,72.45001983642578,27.69,0
-0.5165072679519653,0.0804409235715866,0.8571271300315857,-2.9882595539093018,3.827126264572144,72.45001220703125,27.69,0
-0.5105934143066406,0.0796112269163131,0.857932448387146,-3.691067934036255,3.825845718383789,72.45000457763672,27.69,0
-0.506798267364502,0.079078771173954,0.8640470504760742,-4.192245960235596,3.825023889541626,72.45000457763672,27.69,0
-0.5155583024024963,0.0787370726466178,0.8455799221992493,-4.281005859375,3.824496507644653,72.45000457763672,27.69,0
-0.5155822038650513,0.089713342487812,0.8505221009254456,-4.065690994262695,3.824158191680908,72.45000457763672,27.69,0
-0.5099997520446777,0.0799639597535133,0.8369004130363464,-4.052904605865479,3.816596269607544,72.45000457763672,27.69,0
-0.5176128149032593,0.0849029123783111,0.8449521064758301,-4.567754745483398,3.811743497848511,72.45000457763672,27.69,0
-0.5169006586074829,0.0824746713042259,0.8501192331314087,-5.181179523468018,3.808629274368286,72.45000457763672,27.69,0
-0.51644366979599,0.0809163674712181,0.8478373885154724,-5.130600929260254,3.806630849838257,72.45000457763672,27.69,0
-0.5161503553390503,0.0799163356423378,0.8519708514213562,-4.005456924438477,3.8053483963012695,72.45000457763672,27.69,0
-0.5159621238708496,0.0792745724320411,0.8546234369277954,-1.9721815586090088,3.804525375366211,72.45000457763672,27.69,0
-0.5158413648605347,0.078862726688385,0.8563257455825806,0.3393613696098327,3.803997278213501,72.45000457763672,27.69,0
-0.5157638788223267,0.0785984322428703,0.8574181795120239,2.2025294303894043,3.8036582469940186,72.45000457763672,27.69,0
-0.5157141089439392,0.0784288197755813,0.8581192493438721,3.387455940246582,3.8006863594055176,72.40701293945312,27.69,0
-0.5156821608543396,0.0783199742436409,0.8585691452026367,4.169368743896484,3.798779249191284,72.37942504882812,27.69,0
-0.5156616568565369,0.0782501250505447,0.8588578701019287,4.717729091644287,3.797555446624756,72.3617172241211,27.69,0
-0.5156485438346863,0.078205294907093,0.8590431213378906,4.822437286376953,3.796769857406616,72.35035705566406,27.69,0
-0.5156400799751282,0.0781765282154083,0.8535642623901367,4.24835205078125,3.796265840530396,72.34306335449219,27.69,0
-0.5212324261665344,0.0781580656766891,0.855646014213562,2.9592151641845703,3.7959423065185542,72.33838653564453,27.69,0
-0.5192235112190247,0.0837439969182014,0.851384162902832,1.100139617919922,3.795734643936157,72.33538055419922,27.69,0
-0.5291298627853394,0.0761331766843795,0.8486491441726685,-1.0422906875610352,3.79560136795044,72.33345031738281,27.69,0
-0.5186938643455505,0.0768467634916305,0.8524917364120483,-3.1372766494750977,3.789548397064209,72.33221435546875,27.69,0
-0.5175943970680237,0.0773046985268592,0.849359929561615,-4.904461860656738,3.7856640815734863,72.3314208984375,27.69,0
-0.5168888568878174,0.0775985792279243,0.8529478907585144,-6.142434597015381,3.78317141532898,72.3309097290039,27.69,0
-0.5164361000061035,0.0777871757745742,0.8552504777908325,-6.7147746086120605,3.781571626663208,72.33058166503906,27.69,0
-0.5105477571487427,0.0779082030057907,0.8567281365394592,-6.508857250213623,3.7805449962615967,72.33037567138672,27.69,0
-0.5123667120933533,0.0779858753085136,0.8632741570472717,-5.491815090179443,3.779886245727539,72.33023834228516,27.69,0
-0.5079362392425537,0.0724379420280456,0.850681722164154,-3.7571983337402335,3.779463529586792,72.33015441894531,27.69,0
-0.5162885785102844,0.0856709256768226,0.8705894947052002,-1.5477529764175415,3.7791922092437744,72.3301010131836,27.69,0
-0.5160508751869202,0.0773697644472122,0.8553762435913086,0.8195244073867798,3.77534556388855,72.33006286621094,27.69,0
-0.521496057510376,0.0776403322815895,0.8568088412284851,3.062387228012085,3.772876977920532,72.33003997802734,27.69,0
-0.519392728805542,0.0778139680624008,0.8577281832695007,4.949549198150635,3.7712926864624015,72.33002471923828,27.69,0
-0.5180429220199585,0.0835231691598892,0.8527203798294067,6.300341606140137,3.770276069641113,72.33001708984375,27.69,0
-0.5171766877174377,0.0815892368555069,0.849506676197052,7.031064510345459,3.7696237564086914,72.33000946044922,27.69,0
-0.5166207551956177,0.0803481489419937,0.8474442958831787,7.091587066650391,3.769205093383789,72.33000946044922,27.69,0
-0.516264021396637,0.0795516893267631,0.8629140853881836,6.392416000366211,3.7689363956451416,72.33000946044922,27.69,0
-0.5104373097419739,0.0790405645966529,0.8560484051704407,5.048084735870361,3.768764019012451,72.33000946044922,27.69,0
-0.5122958421707153,0.0843103304505348,0.8572402000427246,3.536923885345459,3.766357898712158,72.33000946044922,27.69,0
-0.5190863013267517,0.0876921638846397,0.8580049872398376,2.2482986450195312,3.764813899993897,72.33000946044922,27.69,0
-0.5122485160827637,0.0842646583914756,0.858495831489563,0.9090248942375184,3.7638230323791504,72.33000946044922,27.69,0
-0.5078604221343994,0.08206507563591,0.864408552646637,-1.1111983060836792,3.7631871700286874,72.33000946044922,27.69,0
-0.5106421113014221,0.0806535109877586,0.8626052737236023,-3.9159255027771,3.7627789974212646,72.33000946044922,27.69,0
-0.5124272704124451,0.0853454247117042,0.8614479899406433,-6.722541809082031,3.762517213821411,72.33000946044922,27.69,0
-0.5135728716850281,0.088356427848339,0.8551075458526611,-8.441267967224121,3.762349128723145,72.33000946044922,27.69,0
-0.5087102651596069,0.0734953954815864,0.8678319454193115,-8.59128189086914,3.762241363525391,72.33000946044922,27.69,0
-0.5055897235870361,0.0975450873374939,0.8815954923629761,-7.483806610107422,3.7580406665802,72.29059600830078,27.69,0
-0.5091849565505981,0.0905876904726028,0.8624392747879028,-5.590842723846436,3.755344867706299,72.26530456542969,27.69,0
-0.5226876735687256,0.0917206108570098,0.8557437062263489,-3.136476516723633,3.753614902496338,72.24907684326172,27.69,0
-0.5201573967933655,0.0924476534128189,0.8570446372032166,-0.4543897211551666,3.752504587173462,72.23866271972656,27.69,0
-0.5129358768463135,0.09291423112154,0.8522817492485046,1.8042055368423464,3.7517921924591056,72.23197937011719,27.69,0
-0.5138992667198181,0.0876158773899078,0.8492251634597778,3.20706844329834,3.7513349056243896,72.22769165039062,27.69,0
-0.5145175457000732,0.0898134708404541,0.8528614044189453,3.960459470748901,3.751041412353516,72.22493743896484,27.69,0
-0.520512044429779,0.0856259912252426,0.8439993858337402,4.504846572875977,3.7508530616760254,72.2231674194336,27.69,0
-0.5131634473800659,0.0885364785790443,0.8551055788993835,4.933019161224365,3.7470602989196777,72.22203063964844,27.69,0
-0.508447527885437,0.0904042646288871,0.8454395532608032,5.071658134460449,3.74462628364563,72.22130584716797,27.69,0
-0.5110189318656921,0.091602899134159,0.8504320383071899,4.888352870941162,3.743064165115357,72.22084045410156,27.69,0
-0.5182668566703796,0.0867743417620658,0.8536359071731567,4.469781398773193,3.7420616149902335,72.22054290771484,27.69,0
-0.5173203945159912,0.0892734229564666,0.850094199180603,3.782005071640015,3.7414183616638175,72.22035217285156,27.69,0
-0.5111152529716492,0.0908771902322769,0.8534191250801086,2.685018539428711,3.7410056591033936,72.22023010253906,27.69,0
-0.5127308964729309,0.0919063985347747,0.8611506223678589,1.0459835529327393,3.740740776062012,72.22014617919922,27.69,0
-0.5137677192687988,0.0925668850541114,0.8661122918128967,-1.102122783660889,3.740570783615112,72.2200927734375,27.69,0
-0.5144330859184265,0.0817951932549476,0.8301119804382324,-3.3368895053863525,3.7354118824005127,72.22006225585938,27.69,0
-0.5092623233795166,0.0860780924558639,0.879780113697052,-4.946580410003662,3.732101202011109,72.22003936767578,27.69,0
-0.505944013595581,0.0776310637593269,0.855676531791687,-5.445783615112305,3.7299766540527344,72.22002410888672,27.69,0
-0.5150100588798523,0.0834057927131652,0.857001543045044,-4.963646411895752,3.728613138198853,72.22001647949219,27.69,0
-0.5152303576469421,0.0871116816997528,0.8634496331214905,-4.005792140960693,3.72773814201355,72.22000885009766,27.69,0
-0.5153717398643494,0.0894899070262909,0.8563920855522156,-2.871623039245605,3.7271766662597656,72.22000885009766,27.69,0
-0.5154624581336975,0.0910161212086677,0.8574607372283936,-1.47741961479187,3.726816415786743,72.22000885009766,27.69,0
-0.5155206918716431,0.0919955521821975,0.8525487780570984,0.2448748797178268,3.726585149765015,72.22000885009766,27.69,0
-0.5155580639839172,0.0926240980625152,0.8493965268135071,2.109650135040283,3.722764253616333,72.22000885009766,27.69,0
-0.5211797952651978,0.0874296873807907,0.8529713749885559,3.825829267501831,3.720312356948853,72.22000885009766,27.69,0
-0.5135919451713562,0.0896939858794212,0.8552654981613159,5.084807395935059,3.7187387943267822,72.22000885009766,27.69,0
-0.5087225437164307,0.085549309849739,0.8511399626731873,5.624053955078125,3.717728853225708,72.22000885009766,27.69,0
-0.5111954212188721,0.0884872674942016,0.8540902137756348,5.414812088012695,3.71708083152771,72.22000885009766,27.69,0
-0.5239778757095337,0.0903726816177368,0.8503857254981995,4.607008457183838,3.716665029525757,72.22000885009766,27.69,0
-0.526583194732666,0.0915826335549354,0.8480084538459778,3.257449150085449,3.716398000717163,72.22000885009766,27.69,0
-0.5226573348045349,0.092359110713005,0.8520805835723877,1.4025888442993164,3.716226816177368,72.22000885009766,27.69,0
-0.5145401954650879,0.0928574055433273,0.8546938896179199,-0.7263885140419006,3.710608720779419,72.18059539794922,27.69,0
-0.5149288177490234,0.0931771844625473,0.8563709259033203,-2.8019936084747314,3.707003355026245,72.15530395507812,27.69,0
-0.5151782035827637,0.0933824032545089,0.851849377155304,-4.664218902587891,3.704689741134644,72.13907623291016,27.69,0
-0.5209360718727112,0.0879163220524787,0.8489477038383484,-6.307109832763672,3.703204870223999,72.128662109375,27.69,0
-0.5190333127975464,0.1067996025085449,0.8694766759872437,-7.65519380569458,3.70225191116333,72.12197875976562,27.69,0
-0.5178122520446777,0.0965267121791839,0.8490643501281738,-8.373431205749512,3.701640367507935,72.11769104003906,27.69,0
-0.5282242298126221,0.0955319330096244,0.8471604585647583,-7.974535942077637,3.701247930526733,72.11493682861328,27.69,0
-0.5237104892730713,0.0948935449123382,0.8571341633796692,-6.210283756256104,3.700996160507202,72.11316680908203,27.69,0
-0.515216052532196,0.0944838598370552,0.8523392081260681,-3.401442766189575,3.6944077014923096,72.11203002929688,27.71,0
-0.515362560749054,0.0886231735348701,0.8548598289489746,-0.3199110031127929,3.6901795864105225,72.1113052368164,27.71,0
-0.5210543274879456,0.0904598981142044,0.8508796691894531,2.35265851020813,3.6874663829803462,72.11083984375,27.71,0
-0.5191092491149902,0.0916386023163795,0.8483254313468933,4.368696212768555,3.685725212097168,72.11054229736328,27.71,0
-0.517861008644104,0.0923950299620628,0.8466862440109253,5.787863254547119,3.684607744216919,72.1103515625,27.71,0
-0.5170599222183228,0.0928804576396942,0.8456343412399292,6.648446559906006,3.683890581130981,72.1102294921875,27.71,0
-0.5109480619430542,0.0931919813156127,0.8561547994613647,6.824549198150635,3.683430433273315,72.11014556884766,27.71,0
-0.5070258378982544,0.087794117629528,0.8517106771469116,6.178055763244629,3.6831350326538086,72.11009216308594,27.71,0
-0.515704333782196,0.0899278596043586,0.8488587141036987,4.863946914672852,3.6801912784576416,72.11006164550781,27.71,0
-0.5156759023666382,0.0912971720099449,0.8526262640953064,3.2647042274475098,3.678302049636841,72.11003875732422,27.71,0
-0.5156576633453369,0.0921759158372879,0.8550440669059753,1.6221991777420044,3.677089691162109,72.11002349853516,27.71,0
-0.5156459808349609,0.0927398428320884,0.8565956354141235,-0.03373858705163,3.676311731338501,72.11001586914062,27.71,0
-0.5156384706497192,0.0931017398834228,0.8575913906097412,-1.8021914958953855,3.6758124828338623,72.1100082397461,27.71,0
-0.5156336426734924,0.0933339819312095,0.863828182220459,-4.004690170288086,3.67549204826355,72.1100082397461,27.71,0
-0.5156305432319641,0.0934830233454704,0.8566350340843201,-6.758010387420654,3.675286293029785,72.1100082397461,27.71,0
-0.5212263464927673,0.0879808962345123,0.8408233523368835,-9.248613357543944,3.675154209136963,72.1100082397461,27.71,0
-0.5248174071311951,0.106841042637825,0.8642629384994507,-10.14833641052246,3.669102191925049,72.1100082397461,27.71,0
-0.5215241312980652,0.0965533033013343,0.8401206731796265,-8.909360885620117,3.665218353271485,72.1100082397461,27.71,0
-0.5306062698364258,0.1011467725038528,0.8414208889007568,-6.043529510498047,3.6627259254455566,72.1100082397461,27.71,0
-0.5308368802070618,0.0984968245029449,0.8478530645370483,-2.26264762878418,3.661126375198364,72.1100082397461,27.71,0
-0.5253871083259583,0.0967962369322776,0.8463830947875977,1.9442445039749143,3.660099744796753,72.1100082397461,27.71,0
-0.5218897461891174,0.095704898238182,0.8510375618934631,6.098511695861816,3.6594409942626953,72.1100082397461,27.71,0
-0.5252431035041809,0.0950045436620712,0.8540245294570923,9.541899681091309,3.659018278121948,72.1100082397461,27.71,0
-0.5217973589897156,0.0945550948381424,0.8503435850143433,11.597617149353027,3.65874695777893,72.1100082397461,27.71,0
-0.5195860862731934,0.0942666605114936,0.8535791635513306,11.95314598083496,3.655818462371826,72.08493041992188,27.71,0
-0.5181670188903809,0.0940815657377243,0.8556555509567261,11.016966819763184,3.653939247131348,72.06883239746094,27.71,0
-0.5172563195228577,0.0939627811312675,0.8513903021812439,9.681753158569336,3.652733325958252,72.05850219726562,27.71,0
-0.516671895980835,0.0938865542411804,0.8430553078651428,8.538283348083496,3.651959419250488,72.05187225341797,27.71,0
-0.5162968635559082,0.0994354039430618,0.8489019870758057,7.52502965927124,3.65146279335022,72.04762268066406,27.71,0
-0.5104584097862244,0.0973985642194747,0.8470562696456909,6.358890533447266,3.651144027709961,72.04489135742188,27.71,0
-0.5123093724250793,0.096091441810131,0.8514695763587952,4.940587997436523,3.650939464569092,72.04313659667969,27.71,0
-0.5134972333908081,0.0952526032924652,0.8543017506599426,3.192080497741699,3.650808095932007,72.0420150756836,27.71,0
-0.5142595171928406,0.0947142839431762,0.8505215048789978,0.941477596759796,3.650723934173584,72.04129028320312,27.67,0
-0.5147486925125122,0.0943688228726387,0.8536933660507202,-1.7424010038375854,3.650669813156128,72.04082489013672,27.67,0
-0.5150626301765442,0.0941471233963966,0.8557288646697998,-4.417724609375,3.650635242462158,72.04052734375,27.67,0
-0.515264093875885,0.0940048545598983,0.8514373302459717,-6.593163013458252,3.650612831115722,72.04033660888672,27.67,0
-0.509795606136322,0.093913547694683,0.8822699189186096,-7.838766098022461,3.650598526000977,72.04021453857422,27.67,0
-0.517481803894043,0.0994527265429496,0.8628720641136169,-7.760391235351562,3.6505894660949703,72.0401382446289,27.67,0
-0.5224143862724304,0.0974096804857254,0.8560214638710022,-6.262734413146973,3.650583505630493,72.04009246826172,27.67,0
-0.5199820399284363,0.0960985720157623,0.8572229146957397,-3.678717851638794,3.650579690933228,72.0400619506836,27.67,0
-0.5184211134910583,0.0952571779489517,0.8523961305618286,-0.4226160943508148,3.645986557006836,72.0400390625,27.67,0
-0.5174193978309631,0.0947172194719314,0.8548963665962219,3.1035754680633545,3.6430389881134033,72.04002380371094,27.67,0
-0.5167765617370605,0.0943707078695297,0.8565008640289307,6.276456356048584,3.641147375106812,72.0400161743164,27.67,0
-0.5163639783859253,0.0941483378410339,0.8519327640533447,8.463096618652344,3.6399333477020255,72.04000854492188,27.67,0
-0.516099214553833,0.0940056294202804,0.8490012288093567,9.51168155670166,3.6391544342041016,72.04000854492188,27.67,0
-0.5159293413162231,0.093914046883583,0.8527176976203918,9.729616165161133,3.6386544704437256,72.04000854492188,27.67,0
-0.515820324420929,0.0938552767038345,0.8551027178764343,9.450312614440918,3.638333559036255,72.04000854492188,27.67,0
-0.5157503485679626,0.0938175618648529,0.8566333055496216,8.83399772644043,3.63812780380249,72.04000854492188,27.67,0
-0.5157054662704468,0.0937933549284935,0.8520177602767944,8.012155532836914,3.630650997161865,72.04000854492188,27.67,0
-0.5212743878364563,0.0937778204679489,0.8490557670593262,7.101408958435059,3.6258528232574463,72.04000854492188,27.67,0
-0.5192504525184631,0.0937678515911102,0.852752685546875,6.079870223999023,3.6227736473083496,72.04000854492188,27.67,0
-0.5179516077041626,0.093761458992958,0.8551251888275146,4.847510814666748,3.620797634124756,72.04000854492188,27.67,0
-0.5171180963516235,0.0937573537230491,0.8510499596595764,3.318642854690552,3.619529485702514,72.04000854492188,27.67,0
-0.52218097448349,0.0937547162175178,0.8540324568748474,1.3558776378631592,3.618715763092041,72.04000854492188,27.67,0
-0.5198322534561157,0.0937530249357223,0.850348711013794,-1.0537189245224,3.6181936264038086,72.04000854492188,27.67,0
-0.5183249711990356,0.0937519446015358,0.8535824418067932,-3.596015214920044,3.617858409881592,72.04000854492188,27.67,0
-0.5173577070236206,0.0937512442469596,0.8500598669052124,-5.840135097503662,3.617184400558472,71.95760345458984,27.67,0
-0.5167369246482849,0.0937507972121238,0.8477993011474609,-7.523897171020508,3.616751909255981,71.90472412109375,27.67,0
-0.5219363570213318,0.0937505140900611,0.8463485836982727,-8.303502082824707,3.6164743900299072,71.87078857421875,27.67,0
-0.5196752548217773,0.0937503278255462,0.8510153889656067,-7.660966396331787,3.6162962913513184,71.84900665283203,27.67,0
-0.5182242393493652,0.0937502086162567,0.854010283946991,-5.47166633605957,3.6161818504333496,71.83502960205078,27.67,0
-0.5172930359840393,0.0937501341104507,0.8503344655036926,-2.3578109741210938,3.6161084175109854,71.82606506347656,27.67,0
-0.5166954398155212,0.0937500894069671,0.8535733222961426,0.7833235263824463,3.6160614490509033,71.8203125,27.67,0
-0.5163119435310364,0.0937500596046447,0.8556517958641052,3.4260737895965576,3.616031169891357,71.81661987304688,27.67,0
-0.5160658359527588,0.0937500372529029,0.8569856882095337,5.419392108917236,3.610044002532959,71.81424713134766,27.71,0
-0.515907883644104,0.0937500223517417,0.8578416705131531,6.691424369812012,3.606201648712158,71.8127212524414,27.71,0
-0.5158065557479858,0.0937500149011612,0.8527932167053223,7.174561977386475,3.60373592376709,71.8117446899414,27.71,0
-0.5157415270805359,0.0937500074505806,0.8551511764526367,7.004546642303467,3.6021535396575928,71.81111907958984,27.71,0
-0.5156998038291931,0.0937500074505806,0.8566644191741943,6.461948871612549,3.601138114929199,71.81071472167969,27.71,0
-0.5156729817390442,0.0937500074505806,0.8520377278327942,5.687414646148682,3.6004862785339355,71.81045532226562,27.71,0
-0.5156558156013489,0.0937500074505806,0.8490685820579529,4.577742576599121,3.6000680923461914,71.81029510498047,27.71,0
-0.5156447887420654,0.0937500074505806,0.852760910987854,3.038043975830078,3.599799633026123,71.81018829345703,27.71,0
-0.5156376957893372,0.0937500074505806,0.8551304340362549,1.208048701286316,3.595955371856689,71.81011962890625,27.71,0
-0.5156331658363342,0.0937500074505806,0.8566510677337646,-0.6756871342658997,3.5934882164001465,71.81007385253906,27.71,0
-0.5156302452087402,0.0937500074505806,0.8576269149780273,-2.525841236114502,3.591904878616333,71.81004333496094,27.71,0
-0.5156283378601074,0.0937500074505806,0.8582531809806824,-4.372357368469238,3.590888977050781,71.81002807617188,27.71,0
-0.5156271457672119,0.0937500074505806,0.8586550951004028,-6.241617202758789,3.5902369022369385,71.81002044677734,27.71,0
-0.5156263709068298,0.0937500074505806,0.858913004398346,-8.053821563720703,3.5898184776306152,71.81001281738281,27.71,0
-0.5156258940696716,0.0937500074505806,0.8590785264968872,-9.456822395324709,3.589550018310547,71.81000518798828,27.71,0
-0.5156255960464478,0.0937500074505806,0.859184741973877,-9.826966285705566,3.5893776416778564,71.81000518798828,27.71,0
-0.5156253576278687,0.0937500074505806,0.8592529296875,-8.72461986541748,3.584676742553711,71.81000518798828,27.71,0
-0.5156252384185791,0.0937500074505806,0.8592966794967651,-6.283230781555176,3.581660032272339,71.81000518798828,27.71,0
-0.5156251788139343,0.0937500074505806,0.8593247532844543,-3.0541725158691406,3.579724073410034,71.81000518798828,27.71,0
-0.5156251192092896,0.0937500074505806,0.8537449836730957,0.3400214612483978,3.578481674194336,71.81000518798828,27.71,0
-0.5156250596046448,0.0937500074505806,0.8501642346382141,3.342212438583374,3.5776844024658203,71.81000518798828,27.71,0
-0.5212228298187256,0.0937500074505806,0.8478662967681885,5.5876946449279785,3.5771727561950684,71.81000518798828,27.71,0
-0.5192173719406128,0.0937500074505806,0.8519893884658813,7.00722074508667,3.5768442153930664,71.81000518798828,27.71,0
-0.5179303884506226,0.0937500074505806,0.8546353578567505,7.821461200714111,3.5766334533691406,71.81000518798828,27.71,0
-0.51710444688797,0.0937500074505806,0.8563333749771118,8.340411186218262,3.573744058609009,71.74909973144531,27.71,0
-0.5165744423866272,0.0937500074505806,0.8574230670928955,8.637618064880371,3.571889638900757,71.71001434326172,27.71,0
-0.516234278678894,0.0937500074505806,0.8581223487854004,8.484420776367188,3.570699691772461,71.68492889404297,27.71,0
-0.5160160064697266,0.0937500074505806,0.8585711121559143,7.773487091064453,3.569936037063598,71.66883087158203,27.71,0
-0.5158759355545044,0.0937500074505806,0.8532613515853882,6.733290672302246,3.569445848464966,71.65850067138672,27.71,0
-0.5157860517501831,0.0937500074505806,0.8498538136482239,5.5534443855285645,3.569131374359131,71.65187072753906,27.71,0
-0.5157283544540405,0.0937500074505806,0.8532648682594299,4.208744525909424,3.568929433822632,71.64762115478516,27.71,0
-0.515691339969635,0.0937500074505806,0.8554538488388062,2.733173131942749,3.56879997253418,71.64488983154297,27.71,0
-0.5156675577163696,0.0937500074505806,0.8512608408927917,1.2488499879837036,3.563667297363281,71.64313507080078,27.71,0
-0.5156522989273071,0.0937500074505806,0.8541678190231323,-0.344984233379364,3.560373306274414,71.64201354980469,27.71,0
-0.515642523765564,0.0937500074505806,0.8560333251953125,-2.2992849349975586,3.5582594871521,71.64128875732422,27.71,0
-0.5156362652778625,0.0937500074505806,0.8572304844856262,-4.531485557556152,3.556902885437012,71.64082336425781,27.71,0
-0.5156322121620178,0.0937500074505806,0.857998788356781,-6.372397422790527,3.556032419204712,71.6405258178711,27.71,0
-0.5156296491622925,0.0937500074505806,0.858491837978363,-6.969828605651856,3.555473804473877,71.64033508300781,27.71,0
-0.5156279802322388,0.0937500074505806,0.8588082194328308,-6.002594470977783,3.555115222930908,71.64021301269531,27.71,0
-0.510029137134552,0.0937500074505806,0.8590112924575806,-3.776885509490967,3.554885149002075,71.64013671875,27.71,0
-0.5120338797569275,0.0937500074505806,0.8591415882110596,-0.8689496517181396,3.551064968109131,71.64009094238281,27.71,0
-0.5133204460144043,0.0937500074505806,0.8592252135276794,2.000317096710205,3.5486135482788086,71.64006042480469,27.71,0
-0.5197438597679138,0.0937500074505806,0.8536810874938965,4.142583847045898,3.5470402240753174,71.6400375366211,27.71,0
-0.5182682275772095,0.0937500074505806,0.8501232266426086,5.406307220458984,3.5460305213928223,71.64002227783203,27.71,0
-0.5173212885856628,0.0937500074505806,0.8478399515151978,6.235205173492432,3.5453827381134038,71.6400146484375,27.71,0
-0.516713559627533,0.0937500074505806,0.8519724607467651,6.95702075958252,3.54496693611145,71.64000701904297,27.71,0
-0.5163235664367676,0.0937500074505806,0.8546244502067566,7.387997150421143,3.5447001457214355,71.64000701904297,27.71,0
-0.5160732865333557,0.0937500074505806,0.8507285714149475,7.295567989349365,3.5445289611816406,71.64000701904297,27.71,0
-0.5159127116203308,0.0937500074505806,0.8538262248039246,6.784847259521484,3.543041944503784,71.64000701904297,27.71,0
-0.5158096551895142,0.0937500074505806,0.8558140993118286,6.106003761291504,3.5420875549316406,71.64000701904297,27.71,0
-0.5157434940338135,0.0937500074505806,0.8570898175239563,5.383755207061768,3.5414750576019287,71.64000701904297,27.71,0
-0.5157010555267334,0.0937500074505806,0.8579084873199463,4.619321346282959,3.5410821437835693,71.64000701904297,27.71,0
-0.515673816204071,0.0937500074505806,0.8528360724449158,3.709590196609497,3.54082989692688,71.64000701904297,27.71,0
-0.5156563520431519,0.0937500074505806,0.855178713798523,2.5704779624938965,3.54066801071167,71.64000701904297,27.71,0
-0.5156451463699341,0.0937500074505806,0.8566820621490479,1.2483363151550293,3.5405640602111816,71.64000701904297,27.71,0
-0.5156379342079163,0.0937500074505806,0.8576468229293823,-0.1482721865177154,3.5404975414276123,71.64000701904297,27.71,0
-0.5156332850456238,0.0937500074505806,0.8582659363746643,-1.5855040550231934,3.534487247467041,71.60059356689453,27.71,0
-0.5212280750274658,0.0937500074505806,0.8530654907226562,-3.184943437576294,3.530630111694336,71.57530212402344,27.71,0
-0.5192207098007202,0.0937500074505806,0.8497281670570374,-5.1249284744262695,3.5281548500061035,71.55907440185547,27.71,0
-0.5179325342178345,0.0937500074505806,0.8531842231750488,-7.150900363922119,3.52656626701355,71.54866027832031,27.71,0
-0.5171058177947998,0.0937500074505806,0.8554021120071411,-8.42597484588623,3.52554702758789,71.54197692871094,27.71,0
-0.516575276851654,0.0937500074505806,0.8512276411056519,-8.226792335510254,3.524892807006836,71.53768920898438,27.71,0
-0.516234815120697,0.0937500074505806,0.8541464805603027,-6.633695125579834,3.524472951889038,71.5349349975586,27.71,0
-0.5160163640975952,0.0937500074505806,0.8560196161270142,-4.249958515167236,3.5242035388946533,71.53316497802734,27.71,0
-0.5158761739730835,0.0937500074505806,0.8516239523887634,-1.6705188751220703,3.5212764739990234,71.53202819824219,27.71,0
-0.5157861709594727,0.0937500074505806,0.8544008135795593,0.6368457078933716,3.5193979740142822,71.53130340576172,27.71,0
-0.5157284140586853,0.0937500074505806,0.856182873249054,2.414933204650879,3.5181925296783447,71.53083801269531,27.71,0
-0.515691339969635,0.0937500074505806,0.8573264479637146,3.7136406898498535,3.51741886138916,71.5305404663086,27.71,0
-0.5156675577163696,0.0937500074505806,0.858060359954834,4.67604923248291,3.516922235488892,71.53034973144531,27.71,0
-0.5156522989273071,0.0937500074505806,0.8529335856437683,5.279337406158447,3.516603708267212,71.53022766113281,27.71,0
-0.5212402939796448,0.0937500074505806,0.8496434688568115,5.379887104034424,3.5163991451263428,71.53014373779297,27.71,0
-0.5192285776138306,0.0937500074505806,0.8475320935249329,4.978679180145264,3.516268014907837,71.53009033203125,27.71,0
-0.5179375410079956,0.0937500074505806,0.8517749309539795,4.291297912597656,3.511593580245972,71.53005981445312,27.71,0
-0.5171090364456177,0.0937500074505806,0.8544977307319641,3.53132700920105,3.508593797683716,71.53003692626953,27.71,0
-0.5165773630142212,0.0937500074505806,0.8506472706794739,2.746267557144165,3.5066685676574707,71.53002166748047,27.71,0
-0.5162361860275269,0.0937500074505806,0.8537740707397461,1.8447957038879397,3.5054330825805664,71.53001403808594,27.71,0
-0.5160171985626221,0.0937500074505806,0.8557806611061096,0.7503920197486877,3.5046403408050537,71.5300064086914,27.71,0
-0.5158767104148865,0.0937500074505806,0.8514705896377563,-0.5000672936439514,3.504131555557251,71.5300064086914,27.71,0
-0.5157865285873413,0.0937500074505806,0.8487046360969543,-1.8864998817443848,3.503804922103882,71.5300064086914,27.71,0
-0.5157286524772644,0.0937500074505806,0.852527379989624,-3.5106606483459477,3.503595352172852,71.5300064086914,27.71,0
-0.5156915187835693,0.0937500074505806,0.8549805879592896,-5.3912763595581055,3.501624584197998,71.5300064086914,27.71,0
-0.5156676769256592,0.0937500074505806,0.8565549254417419,-7.164194107055664,3.5003597736358643,71.5300064086914,27.71,0
-0.5212501883506775,0.0937500074505806,0.851967453956604,-8.212386131286621,3.4995479583740234,71.5300064086914,27.71,0
-0.5192348957061768,0.0937500074505806,0.8490234613418579,-8.043149948120117,3.4990270137786865,71.5300064086914,27.71,0
-0.5179415941238403,0.0937500074505806,0.8527320027351379,-6.598243713378906,3.498692750930786,71.5300064086914,27.71,0
-0.5171116590499878,0.0937500074505806,0.8551118969917297,-4.338267803192139,3.4984781742095947,71.5300064086914,27.71,0
-0.5165790319442749,0.0937500074505806,0.8510414361953735,-1.920649766921997,3.498340606689453,71.5300064086914,27.71,0
-0.5162372589111328,0.0937500074505806,0.8484292030334473,0.3258579671382904,3.498252391815185,71.5300064086914,27.71,0
-0.5160179138183594,0.0937500074505806,0.8523505926132202,2.340749263763428,3.4940643310546875,71.56582641601562,27.71,0
-0.5158771276473999,0.0937500074505806,0.854867160320282,3.895318508148194,3.491376638412476,71.58881378173828,27.71,0
-0.5157868266105652,0.0937500074505806,0.8508843779563904,4.731735706329346,3.489651679992676,71.60356903076172,27.71,0
-0.5157288312911987,0.0937500074505806,0.8483284115791321,4.95323371887207,3.4885447025299072,71.613037109375,27.71,0
-0.5156916379928589,0.0937500074505806,0.8522859215736389,4.880423545837402,3.487834453582764,71.61911010742188,27.71,0
-0.515667736530304,0.0937500074505806,0.8548256158828735,4.6330742835998535,3.487378597259521,71.62300872802734,27.71,0
-0.5156524181365967,0.0937500074505806,0.8564554452896118,4.176985740661621,3.487086057662964,71.6255111694336,27.71,0
-0.5156425833702087,0.0937500074505806,0.8519036173820496,3.5582799911499023,3.486898422241211,71.62712097167969,27.71,0
-0.5156362652778625,0.0937500074505806,0.8489825129508972,2.845963716506958,3.485400676727295,71.6281509399414,27.71,0
-0.5156322121620178,0.0937500074505806,0.852705717086792,2.016252279281616,3.4844396114349365,71.62881469726562,27.71,0
-0.5156296491622925,0.0937500074505806,0.8550950288772583,1.0216388702392578,3.483822822570801,71.62924194335938,27.71,0
-0.5156279802322388,0.0937500074505806,0.8566283583641052,-0.1110422015190124,3.483427047729492,71.62950897216797,27.71,0
-0.5156269073486328,0.0937500074505806,0.8520146012306213,-1.4039785861968994,3.483173131942749,71.62968444824219,27.71,0
-0.5212240219116211,0.0937500074505806,0.8546515107154846,-3.039790153503418,3.483010053634644,71.62979888916016,27.71,0
-0.5192181468009949,0.0937500074505806,0.8563437461853027,-5.103428840637207,3.482905387878418,71.62986755371094,27.71,0
-0.5179308652877808,0.0937500074505806,0.8574297428131104,-7.172929286956787,3.4828381538391118,71.62991333007812,27.71,0
-0.5171047449111938,0.0937500074505806,0.8525288701057434,-8.436529159545898,3.4800407886505127,71.62994384765625,27.71,0
-0.5165746212005615,0.0937500074505806,0.854981541633606,-8.301634788513184,3.478245735168457,71.62996673583984,27.71,0
-0.5162343978881836,0.0937500074505806,0.8565555214881897,-6.796367168426514,3.4770936965942383,71.62997436523438,27.71,0
-0.5160160660743713,0.0937500074505806,0.8575656414031982,-4.311361312866211,3.4763543605804443,71.6299819946289,27.71,0
-0.52147376537323,0.0937500074505806,0.8526160717010498,-1.3373359441757202,3.475879907608032,71.62998962402344,27.71,0
-0.5249761939048767,0.0937500074505806,0.8494397401809692,1.520604968070984,3.4755754470825195,71.62998962402344,27.71,0
-0.5216260552406311,0.0937500074505806,0.8529991507530212,3.723672151565552,3.475379943847656,71.62998962402344,27.71,0
-0.5194761157035828,0.0937500074505806,0.8552833199501038,5.180464744567871,3.475254535675049,71.62998962402344,27.71,0
-0.5236942172050476,0.0937500074505806,0.8511514067649841,6.065194606781006,3.4715020656585693,71.62998962402344,27.71,0
-0.526401162147522,0.0937500074505806,0.8484997749328613,6.360687255859375,3.4690937995910645,71.62998962402344,27.71,0
-0.5225405097007751,0.0937500074505806,0.8523958921432495,6.127573490142822,3.467548370361328,71.62998962402344,27.71,0
-0.5200629830360413,0.0937500074505806,0.8548961877822876,5.816758632659912,3.4665565490722656,71.62998962402344,27.71,0
-0.5184730291366577,0.0937500074505806,0.8565007448196411,5.628043174743652,3.465920209884644,71.62998962402344,27.71,0
-0.5174527168273926,0.0937500074505806,0.8519327044487,5.051949501037598,3.4655117988586426,71.62998962402344,27.71,0
-0.5167979001998901,0.0937500074505806,0.8490011692047119,3.740028381347656,3.46524977684021,71.62998962402344,27.71,0
-0.5163776874542236,0.0937500074505806,0.8527176976203918,2.2245888710021973,3.4650814533233643,71.62998962402344,27.71,0
-0.5161080360412598,0.0937500074505806,0.8551027178764343,1.0801032781600952,3.4645142555236816,71.71955871582031,27.71,0
-0.5159350037574768,0.0937500074505806,0.8510355353355408,0.0841102823615074,3.4641501903533936,71.77703857421875,27.71,0
-0.5214217305183411,0.0937500074505806,0.8484254479408264,-1.2214198112487793,3.463916540145874,71.81392669677734,27.71,0
-0.5193449854850769,0.0937500074505806,0.8467504382133484,-2.876061201095581,3.463766574859619,71.83760070800781,27.71,0
-0.518012285232544,0.0937500074505806,0.8512732982635498,-4.76548957824707,3.463670492172241,71.85279083251953,27.71,0
-0.5171570181846619,0.0937500074505806,0.8541758060455322,-6.744687080383301,3.463608741760254,71.86254119873047,27.71,0
-0.5222059488296509,0.0937500074505806,0.8504406809806824,-8.258437156677246,3.463569164276123,71.8687973022461,27.71,0
-0.5198482871055603,0.0937500074505806,0.8536414504051208,-8.506195068359375,3.463543653488159,71.87281036376953,27.71,0
-0.5183352828025818,0.0937500074505806,0.8556955456733704,-7.110353946685791,3.4580187797546387,71.87538146972656,27.71,0
-0.5173643231391907,0.0937500074505806,0.8570137619972229,-4.455538749694824,3.45447325706482,71.87703704833984,27.71,0
-0.5167412161827087,0.0937500074505806,0.8578596711158752,-1.426277995109558,3.452197790145874,71.87809753417969,27.71,0
-0.5163413286209106,0.0937500074505806,0.8584025502204895,1.223494529724121,3.450737714767456,71.87877655029297,27.71,0
-0.5160846710205078,0.0937500074505806,0.8531531691551208,3.257145643234253,3.449800729751587,71.87921142578125,27.71,0
-0.5215177536010742,0.0937500074505806,0.8497844338417053,4.705528736114502,3.4491994380950928,71.8794937133789,27.71,0
-0.5194066166877747,0.0937500074505806,0.8532203435897827,5.513210296630859,3.448813438415528,71.87967681884766,27.71,0
-0.51805180311203,0.0937500074505806,0.8554252982139587,5.727014541625977,3.448565721511841,71.87979125976562,27.71,0
-0.5171824097633362,0.0937500074505806,0.8568403124809265,5.663597583770752,3.4479477405548096,71.87986755371094,27.71,0
-0.5166244506835938,0.0937500074505806,0.8521506190299988,5.501092910766602,3.447551250457764,71.87991333007812,27.71,0
-0.516266405582428,0.0937500074505806,0.8547388315200806,5.042131423950195,3.4472968578338623,71.87994384765625,27.71,0
-0.5160366296768188,0.0937500074505806,0.8563997745513916,4.149306297302246,3.4471335411071777,71.87996673583984,27.71,0
-0.5158891677856445,0.0937500074505806,0.8518679141998291,3.0067131519317627,3.447028636932373,71.87997436523438,27.71,0
-0.5157945156097412,0.0937500074505806,0.8489596247673035,1.7038332223892212,3.4469614028930664,71.8799819946289,27.71,0
-0.5157337784767151,0.0937500074505806,0.8526909947395325,0.1547873616218567,3.446918249130249,71.87998962402344,27.71,0
-0.515694797039032,0.0937500074505806,0.849487841129303,-1.4805822372436523,3.446890592575073,71.87998962402344,27.71,0
-0.5156697630882263,0.0937500074505806,0.8474321961402893,-3.053124189376831,3.4422824382781982,71.87998962402344,27.71,0
-0.5156537294387817,0.0937500074505806,0.8517107963562012,-4.836127281188965,3.4393250942230225,71.87998962402344,27.71,0
-0.5156434178352356,0.0937500074505806,0.8544565439224243,-6.897495746612549,3.437427282333374,71.87998962402344,27.71,0
-0.5156368017196655,0.0937500074505806,0.8562186360359192,-8.467560768127441,3.4362094402313232,71.87998962402344,27.71,0
-0.5156325697898865,0.0937500074505806,0.8573494553565979,-8.69771957397461,3.4354279041290283,71.87998962402344,27.71,0
-0.5212276577949524,0.0937500074505806,0.8524773716926575,-7.630928993225098,3.434926271438598,71.87998962402344,27.71,0
-0.5192204713821411,0.0937500074505806,0.8549485206604004,-5.7927350997924805,3.4346044063568115,71.87998962402344,27.71,0
-0.5179323554039001,0.0937500074505806,0.8565343618392944,-3.455915927886963,3.4343979358673096,71.87998962402344,27.71,0
-0.5171056985855103,0.0937500074505806,0.8519542813301086,-0.8456814885139465,3.4344048500061035,71.95880889892578,27.71,0
-0.5165752172470093,0.0937500074505806,0.8490150570869446,1.5387667417526243,3.434409141540528,72.00939178466797,27.71,0
-0.516234815120697,0.0937500074505806,0.8527265787124634,3.26242733001709,3.434412002563477,72.04185485839844,27.71,0
-0.5160163640975952,0.0937500074505806,0.8551084399223328,4.314835071563721,3.4344139099121094,72.06268310546875,27.71,0
-0.5158761739730835,0.0937500074505806,0.8566369414329529,4.9006452560424805,3.434415102005005,72.0760498046875,27.71,0
-0.5157861709594727,0.0937500074505806,0.8576178550720215,5.065212726593018,3.434415817260742,72.08463287353516,27.71,0
-0.5157284140586853,0.0937500074505806,0.8582473397254944,4.765991687774658,3.4344162940979004,72.09014129638672,27.71,0
-0.515691339969635,0.0937500074505806,0.858651340007782,4.197798252105713,3.4344165325164795,72.09367370605469,27.71,0
-0.5156675577163696,0.0937500074505806,0.8589106202125549,3.632539987564087,3.432121753692627,72.09593963623047,27.69,0
-0.5156522989273071,0.0937500074505806,0.859076976776123,2.9545233249664307,3.4306490421295166,72.09739685058594,27.69,0
-0.515642523765564,0.0937500074505806,0.8591837286949158,1.964111924171448,3.429703950881958,72.09832763671875,27.69,0
-0.5156362652778625,0.0937500074505806,0.8592522740364075,0.7660585641860962,3.429097414016724,72.09892272949219,27.69,0
-0.5156322121620178,0.0937500074505806,0.8592962622642517,-0.6548119783401489,3.428708076477051,72.09931182861328,27.69,0
-0.5156296491622925,0.0937500074505806,0.8593244552612305,-2.5733487606048584,3.4284582138061523,72.09955596923828,27.69,0
-0.5156279802322388,0.0937500074505806,0.8593425750732422,-4.861414909362793,3.428297996520996,72.09971618652344,27.69,0
-0.5156269073486328,0.0937500074505806,0.8537564277648926,-6.809829235076904,3.4281952381134038,72.09981536865234,27.69,0
-0.5156262516975403,0.0937500074505806,0.8557693362236023,-7.737777233123779,3.4249155521392822,72.09988403320312,27.69,0
-0.5156257748603821,0.0937500074505806,0.8570610880851746,-7.398228645324707,3.4228110313415527,72.09992218017578,27.69,0
-0.5156254768371582,0.0937500074505806,0.8522922992706299,-5.99091100692749,3.4214603900909424,72.0999526977539,27.69,0
-0.5156252980232239,0.0937500074505806,0.8492319583892822,-3.927021026611328,3.420593500137329,72.09996795654297,27.69,0
-0.5156251788139343,0.0937500074505806,0.8472679853439331,-1.4919369220733645,3.420037269592285,72.0999755859375,27.69,0
-0.5156251192092896,0.0937500074505806,0.8460076451301575,1.070298433303833,3.41968035697937,72.09998321533203,27.69,0
-0.5156250596046448,0.0937500074505806,0.8507965803146362,3.269892930984497,3.419451236724853,72.09999084472656,27.69,0
-0.5156250596046448,0.0937500074505806,0.8482720851898193,4.760282516479492,3.419304132461548,72.09999084472656,27.69,0
-0.5212228298187256,0.0937500074505806,0.8466520309448242,5.680903434753418,3.4182920455932617,72.09999084472656,27.69,0
-0.5192173719406128,0.0937500074505806,0.8512101173400879,6.164227485656738,3.417642593383789,72.09999084472656,27.69,0
-0.5179303884506226,0.0937500074505806,0.854135274887085,6.051652908325195,3.4172258377075195,72.09999084472656,27.69,0
-0.51710444688797,0.0937500074505806,0.8504146933555603,5.384701728820801,3.416958332061768,72.09999084472656,27.69,0
-0.5165744423866272,0.0937500074505806,0.8536248207092285,4.530364513397217,3.4167866706848145,72.09999084472656,27.69,0
-0.516234278678894,0.0937500074505806,0.8556848764419556,3.6489202976226807,3.416676521301269,72.09999084472656,27.69,0
-0.5160160064697266,0.0937500074505806,0.8570069074630737,2.5207958221435547,3.4166057109832764,72.09999084472656,27.69,0
-0.5158759355545044,0.0937500074505806,0.8578553199768066,1.080315351486206,3.416560411453247,72.09999084472656,27.69,0
-0.5157860517501831,0.0937500074505806,0.8583997488021851,-0.4459748566150665,3.4133176803588867,72.17164611816406,27.69,0
-0.5157283544540405,0.0937500074505806,0.8587491512298584,-2.0022547245025635,3.4112367630004883,72.2176284790039,27.69,0
-0.515691339969635,0.0937500074505806,0.8589733839035034,-3.860803604125977,3.4099013805389404,72.24713897705078,27.69,0
-0.5156675577163696,0.0937500074505806,0.8591172695159912,-6.113955497741699,3.4090442657470703,72.26607513427734,27.69,0
-0.5156522989273071,0.0937500074505806,0.8592095971107483,-8.262084007263184,3.408494234085083,72.27822875976562,27.69,0
-0.515642523765564,0.0937500074505806,0.8536710739135742,-9.457918167114258,3.4081413745880127,72.28602600097656,27.69,0
-0.5156362652778625,0.0881522297859191,0.8501167893409729,-9.139814376831056,3.407914876937866,72.29103088378906,27.69,0
-0.5156322121620178,0.0901576727628707,0.8534336090087891,-7.388001441955566,3.4077694416046143,72.29424285888672,27.69,0
-0.5156296491622925,0.0914446488022804,0.855562150478363,-4.687455177307129,3.407676219940185,72.29630279541016,27.71,0
-0.5156279802322388,0.0922705605626106,0.8569281101226807,-1.5822736024856567,3.407616376876831,72.2976303100586,27.71,0
-0.5156269073486328,0.0928005799651146,0.8578047156333923,1.399243712425232,3.407577991485596,72.29847717285156,27.71,0
-0.5156262516975403,0.0931407138705253,0.8583672642707825,3.8428313732147217,3.407553195953369,72.29902648925781,27.71,0
-0.5156257748603821,0.0933589935302734,0.858728289604187,5.565035820007324,3.4075374603271484,72.29937744140625,27.71,0
-0.521223247051239,0.0934990718960762,0.8533622026443481,6.609343528747559,3.407527208328247,72.29959869384766,27.71,0
-0.5248153805732727,0.0935889706015586,0.84991854429245,7.13621711730957,3.4075207710266118,72.29974365234375,27.71,0
-0.5215228796005249,0.0936466604471206,0.8533064126968384,7.295205593109131,3.4075164794921875,72.29983520507812,27.71,0
-0.5194098949432373,0.0936836823821067,0.8498827815055847,7.1786980628967285,3.402005195617676,72.29989624023438,27.71,0
-0.5180539488792419,0.0937074422836303,0.847685694694519,6.770750999450684,3.398468494415283,72.29993438720703,27.71,0
-0.5227815508842468,0.0937226861715316,0.8518734574317932,5.932159423828125,3.3961987495422363,72.29995727539062,27.71,0
-0.5202176570892334,0.0937324687838554,0.8545609712600708,4.677484512329102,3.394742250442505,72.29997253417969,27.71,0
-0.5185723304748535,0.0937387496232986,0.8562856316566467,3.2990939617156982,3.393807411193848,72.29998016357422,27.71,0
-0.5231142044067383,0.0937427803874015,0.8517946600914001,1.9774481058120728,3.393207550048828,72.29998779296875,27.71,0
-0.5204311609268188,0.0937453657388687,0.8489125967025757,0.5668275952339172,3.392822504043579,72.29999542236328,27.71,0
-0.5187093019485474,0.0937470272183418,0.8526608347892761,-1.087185978889465,3.39257550239563,72.29999542236328,27.71,0
-0.5176043510437012,0.0937480926513671,0.8550662398338318,-3.001289367675781,3.3914990425109863,72.29999542236328,27.71,0
-0.5168952345848083,0.0937487781047821,0.851012110710144,-5.211276531219482,3.390808343887329,72.29999542236328,27.71,0
-0.5164401531219482,0.0937492176890373,0.8540081977844238,-7.639805316925049,3.3903651237487797,72.29999542236328,27.71,0
-0.5161480903625488,0.0937495008111,0.8559309244155884,-9.714186668395996,3.390080690383911,72.29999542236328,27.71,0
-0.515960693359375,0.0937496796250343,0.8515670299530029,-10.57608699798584,3.38989806175232,72.29999542236328,27.71,0
-0.5158404111862183,0.0937497913837432,0.854364275932312,-9.81798267364502,3.3897807598114014,72.29999542236328,27.71,0
-0.5157632231712341,0.0937498658895492,0.8561593890190125,-7.708568572998047,3.3897056579589844,72.29999542236328,27.71,0
-0.5157136917114258,0.0937499105930328,0.8573114275932312,-4.717630863189697,3.389657497406006,72.29999542236328,27.71,0
-0.5156819224357605,0.0937499403953552,0.8580507040023804,-1.2003904581069946,3.3868722915649414,72.38239288330078,27.71,0
-0.5156615376472473,0.093749962747097,0.8529273867607117,2.278430461883545,3.385084867477417,72.43527221679688,27.71,0
-0.5156484246253967,0.0937499776482582,0.8496395349502563,4.965924263000488,3.38393783569336,72.46920776367188,27.71,0
-0.5156400203704834,0.0937499850988388,0.8531273603439331,6.568795680999756,3.3832015991210938,72.4909896850586,27.71,0
-0.5156346559524536,0.0937499925494194,0.8553656339645386,7.382472038269043,3.3827290534973145,72.50496673583984,27.71,0
-0.5156311988830566,0.0937499925494194,0.8568020462989807,7.736261367797852,3.3824260234832764,72.51393127441406,27.71,0
-0.5156289935112,0.0937499925494194,0.8521260619163513,7.8092522621154785,3.382231473922729,72.51968383789062,27.71,0
-0.5156275629997253,0.0937499925494194,0.8491252660751343,7.8381805419921875,3.3821065425872803,72.52337646484375,27.71,0
-0.5156266689300537,0.0937499925494194,0.8527973294258118,7.867493152618408,3.3806493282318115,72.52574920654297,27.71,0
-0.515626072883606,0.0937499925494194,0.849556028842926,7.54595947265625,3.379714012145996,72.52727508544922,27.71,0
-0.5156257152557373,0.0937499925494194,0.8474759459495544,6.6768412590026855,3.379113912582397,72.52825164794922,27.71,0
-0.5156254768371582,0.0937499925494194,0.8517388701438904,5.477809906005859,3.3787288665771484,72.52887725830078,27.71,0
-0.5156252980232239,0.0937499925494194,0.8544745445251465,4.145876407623291,3.37848162651062,72.52928161621094,27.71,0
-0.5156251788139343,0.0937499925494194,0.8562301993370056,2.5674378871917725,3.3783230781555176,72.529541015625,27.71,0
-0.5212228894233704,0.0937499925494194,0.85735684633255,0.6588429808616638,3.378221273422241,72.52970123291016,27.71,0
-0.5192174315452576,0.0937499925494194,0.8524820804595947,-1.4043060541152954,3.3781559467315674,72.5298080444336,27.71,0
-0.5179303884506226,0.0937499925494194,0.8549515008926392,-3.448414087295532,3.376736879348755,72.52987670898438,27.71,0
-0.51710444688797,0.0937499925494194,0.8565362691879272,-5.587779998779297,3.375826358795166,72.52992248535156,27.71,0
-0.5165744423866272,0.0937499925494194,0.8519554734230042,-7.9745707511901855,3.375241994857788,72.52995300292969,27.71,0
-0.516234278678894,0.0937499925494194,0.8546136021614075,-10.276529312133787,3.3748669624328613,72.52996826171875,27.71,0
-0.5160160064697266,0.0937499925494194,0.8563194274902344,-11.739463806152344,3.3746261596679688,72.52997589111328,27.71,0
-0.5158759355545044,0.0937499925494194,0.8574141263961792,-11.818472862243652,3.374471664428711,72.52998352050781,27.71,0
-0.5157860517501831,0.0937499925494194,0.858116626739502,-10.47197151184082,3.3743724822998047,72.52999114990234,27.71,0
-0.5157283544540405,0.0937499925494194,0.8529696464538574,-7.949131965637207,3.374308824539185,72.52999114990234,27.71,0
-0.515691339969635,0.0937499925494194,0.85526442527771,-4.653473377227783,3.371513843536377,72.52999114990234,27.71,0
-0.5156675577163696,0.0937499925494194,0.8567370772361755,-1.0589054822921753,3.369720220565796,72.52999114990234,27.71,0
-0.5156522989273071,0.0937499925494194,0.8576821088790894,2.394305229187012,3.3685691356658936,72.52999114990234,27.71,0
-0.515642523765564,0.0937499925494194,0.858288586139679,5.265988349914551,3.367830276489258,72.52999114990234,27.71,0
-0.5156362652778625,0.0937499925494194,0.8586778044700623,7.144695281982422,3.367356300354004,72.52999114990234,27.71,0
-0.5156322121620178,0.0937499925494194,0.8589276075363159,7.970588207244873,3.3670520782470703,72.52999114990234,27.71,0
-0.5156296491622925,0.0937499925494194,0.8534901142120361,8.163836479187012,3.366856813430786,72.52999114990234,27.71,0
-0.5156279802322388,0.0937499925494194,0.8555983901023865,8.259191513061523,3.3667314052581787,72.52999114990234,27.71,0
-0.5156269073486328,0.0937499925494194,0.8569514155387878,8.456522941589355,3.365273952484131,72.60881042480469,27.71,0
