acc_x,acc_y,acc_z,bvp,eda,hr,temp,label
0.0,0.0,0.0,0.0,0.0,0.0,34.68,0
-0.0234374981373548,-0.1562499850988388,0.0546874962747097,-0.1349999904632568,0.8236796259880066,12.583333015441896,34.68,0
-0.0548780485987663,-0.3616615831851959,0.1196646317839622,-7.240732192993164,1.928615927696228,29.463415145874023,34.68,0
-0.0722591355443,-0.5353509187698364,0.171200156211853,-12.67199420928955,2.8897202014923096,44.14617919921875,34.68,0
-0.079601377248764,-0.6780812740325928,0.2408273071050644,-9.046462059020996,3.590897560119629,54.85804748535156,34.68,0
-0.0845723822712898,-0.7417774200439453,0.2879678308963775,0.2909689545631408,4.065624237060547,62.11043548583984,34.68,0
-0.11004638671875,-0.7724650502204895,0.3022395670413971,9.804597854614258,4.377113342285156,66.8690414428711,34.68,0
-0.1209653168916702,-0.842553973197937,0.3003239929676056,18.10143280029297,4.578849315643311,69.95095825195312,34.68,0
-0.1279989778995514,-0.8709327578544617,0.3046802282333374,25.055992126464844,4.764729499816895,71.93624877929688,34.68,0
-0.1269251704216003,-0.9003622531890869,0.2962908744812011,28.469711303710938,4.884202480316162,73.21227264404297,34.68,0
-0.126235619187355,-0.9080675840377808,0.2909035980701446,25.518451690673828,4.960922718048096,74.03167724609375,34.68,0
-0.1201957464218139,-0.9298054575920104,0.287445455789566,15.664276123046877,5.0101704597473145,74.55766296386719,34.68,0
-0.1107217296957969,-0.9269644021987916,0.2908235192298889,1.5085407495498655,5.041778087615967,74.89524841308594,34.68,0
-0.1102392598986625,-0.9251410961151124,0.2817960977554321,-13.433618545532228,5.062063217163086,75.11190032958984,34.68,0
-0.1099296361207962,-0.9295687079429626,0.2760027050971985,-26.677017211914062,5.075080871582031,75.25093841552734,34.68,0
-0.1097309365868568,-0.9268124103546144,0.2722848355770111,-39.06301498413086,5.08343505859375,75.34016418457031,34.68,0
-0.1096034198999404,-0.9362390637397766,0.2643011212348938,-54.53506088256836,5.04197359085083,75.39742279052734,34.71,0
-0.1095215901732444,-0.9366908073425292,0.2591776251792907,-74.48818969726562,5.015366077423096,75.43417358398438,34.71,0
-0.1038713008165359,-0.9369807243347168,0.2614874541759491,-91.69236755371094,4.998290538787842,75.45775604248047,34.71,0
-0.1058430448174476,-0.93156898021698,0.2685675323009491,-93.87689208984376,4.987332820892334,75.47289276123047,34.71,0
-0.1071083918213844,-0.9392915964126588,0.2675133347511291,-77.40174102783203,4.980300426483154,75.48260498046875,34.71,0
-0.1023226454854011,-0.944247543811798,0.2724345922470093,-53.83135223388672,4.97578763961792,75.48883819580078,34.71,0
-0.1048492044210434,-0.9418301582336426,0.2699950039386749,-41.53188705444336,4.972891330718994,75.49283599853516,34.71,0
-0.1120683774352073,-0.9514743685722352,0.2684294283390045,-44.0748405456543,4.971033096313477,75.49539947509766,34.71,0
-0.1111034527420997,-0.9352723956108092,0.2730225026607513,-44.8648567199707,4.948724269866943,75.4970474243164,34.71,0
-0.1160819977521896,-0.9304726719856262,0.2703723013401031,-34.13688659667969,4.934407711029053,75.49810791015625,34.71,0
-0.1192769408226013,-0.9329902529716492,0.2686715424060821,-16.407835006713867,4.925220489501953,75.49878692626953,34.71,0
-0.1157294958829879,-0.9346058964729308,0.2675800919532776,3.1128451824188232,4.919324398040772,75.49922180175781,34.71,0
-0.1134529486298561,-0.9356427192687988,0.266879677772522,21.712556838989254,4.91554069519043,75.49950408935547,34.71,0
-0.1119919940829277,-0.9363080859184264,0.2664301693439483,35.57979202270508,4.913112640380859,75.49967956542969,34.71,0
-0.1110544353723526,-0.9367350935935974,0.2661417126655578,42.97071838378906,4.911554336547852,75.49979400634766,34.71,0
-0.110452763736248,-0.9370091557502748,0.2659566104412079,46.72141647338867,4.9105544090271,75.49987030029297,34.71,0
-0.110066644847393,-0.937184989452362,0.2658378183841705,50.49694442749024,4.904862880706787,75.57156372070312,34.71,0
-0.1098188608884811,-0.937297821044922,0.2657615840435028,53.93730926513672,4.901210308074951,75.6175765991211,34.71,0
-0.109659843146801,-0.937370240688324,0.2657126486301422,54.83391571044922,4.898866653442383,75.64710235595703,34.71,0
-0.1151555702090263,-0.9374167323112488,0.2656812369823456,53.7219123840332,4.89736270904541,75.66605377197266,34.71,0
-0.1186824142932891,-0.9374465346336364,0.2600633203983307,53.15876388549805,4.896397113800049,75.67821502685547,34.71,0
-0.1209457367658615,-0.9318678975105286,0.2564580738544464,54.08709335327149,4.895777702331543,75.68601989746094,34.71,0
-0.1279959827661514,-0.9226900935173036,0.2541444301605224,54.90854644775391,4.895380020141602,75.69102478027344,34.71,0
-0.1325204223394394,-0.9279958605766296,0.2526596486568451,54.38959503173828,4.895124912261963,75.6942367553711,34.71,0
-0.135423943400383,-0.9314007759094238,0.2573045790195465,52.533966064453125,4.893584251403809,75.69629669189453,34.71,0
-0.1428850293159485,-0.9335858821868896,0.2602854371070862,49.05386352539063,4.892595291137695,75.69762420654297,34.71,0
-0.1476731300354004,-0.9349881410598756,0.2566005885601043,42.36381149291992,4.891960620880127,75.69847106933594,34.71,0
-0.1507458537817001,-0.9358880519866944,0.2542358636856079,31.79743003845215,4.8915534019470215,75.69902038574219,34.71,0
-0.1471199840307235,-0.9364655613899232,0.2527183294296264,18.213224411010746,4.891292095184326,75.69937133789062,34.71,0
-0.1447931081056594,-0.9368361830711364,0.2461466938257217,2.6565256118774414,4.891124248504639,75.69959259033203,34.71,0
-0.137702077627182,-0.9314762353897096,0.2475271672010421,-13.094815254211426,4.891016483306885,75.69973754882812,34.71,0
-0.1331514567136764,-0.9224387407302856,0.242815300822258,-27.29442024230957,4.890947341918945,75.6998291015625,34.71,0
-0.1302311420440673,-0.9166390299797058,0.2397914975881576,-37.87576675415039,4.888148784637451,75.69989013671875,34.71,0
-0.1171614974737167,-0.9073193073272704,0.2378509938716888,-44.583866119384766,4.886353015899658,75.6999282836914,34.71,0
-0.1143719255924224,-0.9237295389175416,0.231007918715477,-49.50135803222656,4.885200500488281,75.699951171875,34.71,0
-0.1069839671254158,-0.9622495770454408,0.2378119826316833,-54.290775299072266,4.884460926055908,75.69996643066406,34.71,0
-0.0854494720697403,-0.96457839012146,0.2533739805221557,-58.04503631591797,4.883985996246338,75.6999740600586,34.71,0
-0.0660321041941642,-0.9548773765563964,0.2689585387706756,-59.67688751220703,4.883681297302246,75.69998168945312,34.71,0
-0.0535711534321308,-0.9262607097625732,0.2845576107501983,-60.387351989746094,4.883485794067383,75.69998931884766,34.71,0
-0.0623677559196949,-0.8967006206512451,0.2777748703956604,-62.73130416870117,4.883360385894775,75.69998931884766,34.71,0
-0.079208455979824,-0.8833284378051758,0.2734220921993255,-68.6098403930664,4.880984783172607,75.69998931884766,34.71,0
-0.1068091690540313,-0.8803446888923645,0.2706287205219269,-75.54934692382812,4.879460334777832,75.69998931884766,34.71,0
-0.124521717429161,-0.8784298896789551,0.2744338810443878,-74.46764373779297,4.878481864929199,75.69998931884766,34.71,0
-0.1414863914251327,-0.8939944505691528,0.2880713641643524,-58.05312728881836,4.877853870391846,75.69998931884766,34.71,0
-0.1635688841342926,-0.9207761883735656,0.3080186545848846,-31.80247688293457,4.877450942993164,75.69998931884766,34.71,0
-0.1833379417657852,-0.9435609579086304,0.3264174461364746,-8.07419204711914,4.877192497253418,75.69998931884766,34.71,0
-0.1904268115758896,-0.9749762415885924,0.3438225090503692,8.299680709838867,4.877026557922363,75.69998931884766,34.71,0
-0.1949760317802429,-1.0119301080703735,0.349394291639328,19.785531997680664,4.876919746398926,75.69998931884766,34.71,0
-0.1978954672813415,-1.0860248804092407,0.3473721742630005,27.779857635498047,4.878687858581543,75.71790313720703,34.71,0
-0.2109645307064056,-1.155965805053711,0.3572700619697571,32.6522102355957,4.879822731018066,75.72940063476562,34.71,0
-0.219351515173912,-1.1784586906433103,0.3524264097213745,36.294898986816406,4.880550861358643,75.73677825927734,34.71,0
-0.202342689037323,-1.1816978454589844,0.3381224572658539,39.2487678527832,4.881018161773682,75.74151611328125,34.71,0
-0.1802318543195724,-1.1277987957000732,0.3233452439308166,39.657623291015625,4.881318092346191,75.74455261230469,34.71,0
-0.1716401726007461,-1.0484272241592407,0.2746776640415191,36.75658798217773,4.881510257720947,75.74650573730469,34.71,0
-0.1773220747709274,-1.0030889511108398,0.2210545092821121,32.50887680053711,4.881633758544922,75.74775695800781,34.71,0
-0.1921639442443847,-0.979591190814972,0.1698489338159561,28.83355712890625,4.881712913513184,75.7485580444336,34.71,0
-0.201688602566719,-0.9645116925239564,0.1257925927639007,25.328523635864254,4.8785505294799805,75.74907684326172,34.71,0
-0.1966054290533065,-0.9380412101745604,0.1031175404787063,20.822172164916992,4.876521110534668,75.74940490722656,34.71,0
-0.1821477860212326,-0.909858465194702,0.0885659977793693,15.744884490966797,4.875218868255615,75.74961853027344,34.71,0
-0.1784674823284149,-0.869381308555603,0.0736298859119415,11.415383338928224,4.874382972717285,75.749755859375,34.71,0
-0.1705079078674316,-0.8322098255157471,0.0696425214409828,7.73414945602417,4.873846530914307,75.74983978271484,34.71,0
-0.1542043536901474,-0.8139531016349792,0.0782792046666145,3.4550676345825195,4.873502254486084,75.7499008178711,34.71,0
-0.1437416672706604,-0.813432514667511,0.0782239586114883,-1.7593955993652344,4.873281478881836,75.74993896484375,34.71,0
-0.142625093460083,-0.8354895114898682,0.0837862789630889,-6.585341453552246,4.87313985824585,75.74996185302734,34.71,0
-0.1307130008935928,-0.872035562992096,0.098551407456398,-9.209455490112305,4.867999076843262,75.7499771118164,34.71,0
-0.1174707263708114,-0.923477590084076,0.1136245876550674,-9.184572219848633,4.8647003173828125,75.74998474121094,34.71,0
-0.1089725941419601,-1.0012723207473757,0.1512865573167801,-8.061588287353516,4.862583160400391,75.74999237060547,34.71,0
-0.0979212075471878,-1.0903809070587158,0.1754558384418487,-8.03235912322998,4.86122465133667,75.74999237060547,34.71,0
-0.124415710568428,-1.1587611436843872,0.2021618485450744,-9.998348236083984,4.860352516174316,75.74999237060547,34.71,0
-0.1638094633817672,-1.0906882286071775,0.2472891062498092,-13.60301113128662,4.859793186187744,75.74999237060547,34.71,0
-0.1946878731250763,-1.0358073711395264,0.2594558596611023,-18.17329978942871,4.859434127807617,75.74999237060547,34.71,0
-0.1921127587556839,-1.0453702211380005,0.2336771339178085,-23.17339324951172,4.859203815460205,75.74999237060547,34.71,0
-0.1456780135631561,-1.0459092855453491,0.2171338200569152,-28.09105491638184,4.857219696044922,75.74999237060547,34.71,0
-0.076694443821907,-1.001473069190979,0.2233106046915054,-32.35394287109375,4.85594654083252,75.74999237060547,34.71,0
-0.0884025022387504,-0.9001854062080383,0.1936878561973571,-35.286659240722656,4.855129241943359,75.74999237060547,34.71,0
-0.1183071583509445,-0.8295870423316956,0.1578843593597412,-35.83599090576172,4.854605197906494,75.74999237060547,34.71,0
-0.1710848957300186,-0.7842810750007629,0.1237121894955635,-33.75236892700195,4.854268550872803,75.74999237060547,34.71,0
-0.2049546092748642,-0.7496085166931152,0.118575781583786,-29.910999298095703,4.854052543640137,75.74999237060547,34.71,0
-0.2266902327537536,-0.7441509962081909,0.1488661766052246,-25.504074096679688,4.8539137840271,75.74999237060547,34.71,0
-0.2406389117240905,-0.7742353081703186,0.2074892371892929,-21.24651527404785,4.853825092315674,75.74999237060547,34.71,0
-0.2383948117494583,-0.8103350400924683,0.2451101392507553,-17.29976463317871,4.850554943084717,75.73925018310547,34.71,0
-0.2145635932683944,-0.8782839179039001,0.2636553049087524,-13.842663764953612,4.848456382751465,75.73235321044922,34.71,0
-0.2048678547143936,-0.9610740542411804,0.2811542749404907,-11.405557632446287,4.847109317779541,75.7279281616211,34.71,0
-0.2154390066862106,-1.036595106124878,0.309177428483963,-10.540165901184082,4.846245288848877,75.72509002685547,34.71,0
-0.2558096051216125,-1.1578311920166016,0.3383566439151764,-11.532480239868164,4.845690727233887,75.7232666015625,34.71,0
-0.2985104620456695,-1.185253620147705,0.3514844179153442,-14.175532341003418,4.845334529876709,75.72209930419922,34.71,0
-0.3371089696884155,-1.1244828701019287,0.2983335256576538,-17.67372703552246,4.84510612487793,75.72134399414062,34.71,0
-0.3618792593479156,-1.113472580909729,0.2586265802383423,-21.84967422485352,4.844959735870361,75.72086334228516,34.71,0
-0.3553843200206756,-1.134395718574524,0.2387427240610122,-27.119760513305664,4.838438987731934,75.7205581665039,34.71,0
-0.2952384948730469,-1.119834065437317,0.2259823977947235,-32.05305099487305,4.834254264831543,75.7203598022461,34.71,0
-0.2398470342159271,-1.060109257698059,0.2177935689687729,-33.20554733276367,4.831568717956543,75.72023010253906,34.71,0
-0.2042999863624572,-0.9602057933807372,0.1957451254129409,-29.11225891113281,4.829845428466797,75.72014617919922,34.71,0
-0.1870857179164886,-0.8960935473442078,0.1704001426696777,-22.060941696166992,4.828739166259766,75.7200927734375,34.71,0
-0.1928319185972213,-0.8325588703155518,0.1373418718576431,-14.841714859008787,4.828029155731201,75.72006225585938,34.71,0
-0.1853239387273788,-0.8141770958900452,0.104931429028511,-8.335143089294434,4.827573776245117,75.72003936767578,34.71,0
-0.1693102121353149,-0.81917405128479,0.0841322764754295,-2.740900039672852,4.827281475067139,75.72002410888672,34.71,0
-0.1478379666805267,-0.8503696918487549,0.0763823464512825,1.2360812425613403,4.827552795410156,75.72001647949219,34.73,0
-0.1340583115816116,-0.8927803039550781,0.0714088901877403,3.2222321033477783,4.8277268409729,75.72000885009766,34.73,0
-0.1196175515651702,-0.9479858875274658,0.0738149881362915,3.6370112895965576,4.827838897705078,75.72000885009766,34.73,0
-0.0991547554731369,-0.9610225558280944,0.1201412752270698,3.014713764190674,4.827910423278809,75.72000885009766,34.73,0
-0.0916206836700439,-0.9917798638343812,0.1722619235515594,1.461769700050354,4.827956676483154,75.72000885009766,34.73,0
-0.1035790741443634,-0.961138129234314,0.2336988300085067,-1.3834292888641355,4.827986240386963,75.72000885009766,34.73,0
-0.1392421573400497,-0.930278480052948,0.2843210399150848,-5.806681156158447,4.828005313873291,75.72000885009766,34.73,0
-0.1957153081893921,-0.9384633898735046,0.2944163680076599,-10.723164558410645,4.828017234802246,75.72000885009766,34.73,0
-0.203967660665512,-0.999693751335144,0.2785038650035858,-13.484196662902832,4.826647758483887,75.72000885009766,34.73,0
-0.1812746673822403,-1.0389878749847412,0.2626943588256836,-11.816795349121094,4.825768947601318,75.72000885009766,34.73,0
-0.1163316443562507,-1.01942241191864,0.2749398350715637,-6.1861348152160645,4.825204849243164,75.72000885009766,34.73,0
-0.0914482772350311,-0.9676820039749146,0.2716027200222015,-0.0290722288191318,4.824842929840088,75.72000885009766,34.73,0
-0.1202617585659027,-0.8896957635879517,0.2246789634227752,3.159087419509888,4.824610710144043,75.72000885009766,34.73,0
-0.1835347861051559,-0.8228553533554077,0.1665771305561065,3.5642454624176025,4.824461936950684,75.72000885009766,34.73,0
-0.2297375500202179,-0.7743632793426514,0.140486255288124,4.10727596282959,4.824366092681885,75.72000885009766,34.73,0
-0.2481922805309295,-0.7544394135475159,0.1797203868627548,5.079129695892334,4.824304580688477,75.72000885009766,34.73,0
-0.2544376850128174,-0.7528489828109741,0.2160941362380981,3.263075828552246,4.823806285858154,75.70925903320312,34.73,0
-0.275238960981369,-0.7966105341911316,0.2618278264999389,-2.068898677825928,4.823486804962158,75.70236206054688,34.73,0
-0.3109790980815887,-0.9310518503189088,0.2911770641803741,-6.511687278747559,4.823281764984131,75.69793701171875,34.73,0
-0.3395128548145294,-1.0565129518508911,0.3268050253391266,-5.7766547203063965,4.823150157928467,75.6950912475586,34.73,0
-0.3354330658912658,-1.2265911102294922,0.3776578903198242,-0.1675399094820022,4.823065757751465,75.69326782226562,34.73,0
-0.3272171318531036,-1.358128547668457,0.4214878678321838,7.605768203735352,4.82301139831543,75.69210052490234,34.73,0
-0.3163468241691589,-1.2466195821762085,0.3936376869678497,15.743313789367676,4.822976589202881,75.69134521484375,34.73,0
-0.3037731349468231,-1.1806573867797852,0.3085917532444,23.12223243713379,4.822954177856445,75.69086456298828,34.73,0
-0.3236929178237915,-1.1607177257537842,0.2372208386659622,28.420061111450195,4.819267272949219,75.69055938720703,34.73,0
-0.3196829557418823,-1.1479215621948242,0.1914190948009491,31.37566375732422,4.816901206970215,75.69036102294922,34.73,0
-0.2947185039520263,-1.1229164600372314,0.1788195073604583,33.48735427856445,4.815382957458496,75.69023132324219,34.73,0
-0.2451111227273941,-1.0173051357269287,0.187527135014534,35.97819137573242,4.814408302307129,75.69014739990234,34.73,0
-0.2244715094566345,-0.9439321756362916,0.1483329981565475,38.11405563354492,4.813783168792725,75.69009399414062,34.73,0
-0.228019505739212,-0.8968455791473389,0.1119849011301994,38.87569046020508,4.813381671905518,75.6900634765625,34.73,0
-0.2246986329555511,-0.8554325699806213,0.0774632394313812,39.120849609375,4.813124179840088,75.6900405883789,34.73,0
-0.2001763880252838,-0.8288561105728149,0.060906995087862,40.16665649414063,4.81295919418335,75.69002532958984,34.73,0
-0.1676461100578308,-0.8285942077636719,0.0502821505069732,41.00617599487305,4.808262825012207,75.69001770019531,34.71,0
-0.15796560049057,-0.8564149737358093,0.0490615144371986,38.87949752807617,4.805248737335205,75.69001007080078,34.71,0
-0.1517532020807266,-0.8854643106460571,0.0538759529590606,32.59584045410156,4.803314685821533,75.69001007080078,34.71,0
-0.1365708857774734,-0.9432908892631532,0.068161129951477,23.719707489013672,4.8020734786987305,75.69001007080078,34.71,0
-0.1268277466297149,-0.9748029112815856,0.0941218584775924,14.114927291870115,4.801276683807373,75.69001007080078,34.71,0
-0.1317707151174545,-1.0174165964126587,0.1611619293689727,3.827587366104126,4.800765514373779,75.69001007080078,34.71,0
-0.140540599822998,-0.9887858629226683,0.2321732640266418,-7.986883163452148,4.800437450408936,75.69001007080078,34.71,0
-0.1629619300365448,-0.9256300926208496,0.2777442336082458,-21.42982292175293,4.800227165222168,75.69001007080078,34.71,0
-0.1997417509555816,-0.9186870455741882,0.2734024226665497,-35.62046813964844,4.794583320617676,75.69001007080078,34.71,0
-0.2289426922798156,-0.9534158110618592,0.2482250034809112,-48.11990737915039,4.790961742401123,75.69001007080078,34.71,0
-0.2140955328941345,-1.0204849243164062,0.2432631403207779,-54.350040435791016,4.788637638092041,75.69001007080078,34.71,0
-0.1373941898345947,-1.0243415832519531,0.2736655473709106,-50.62773132324219,4.787146091461182,75.69001007080078,34.71,0
-0.0825739055871963,-0.9820343852043152,0.287578284740448,-38.583927154541016,4.78618860244751,75.69001007080078,34.71,0
-0.103371150791645,-0.9156996607780457,0.2349311560392379,-23.65034484863281,4.785574436187744,75.69001007080078,34.71,0
-0.1447065025568008,-0.8731298446655273,0.1787541657686233,-9.230355262756348,4.78518009185791,75.69001007080078,34.71,0
-0.2104175686836242,-0.8178220987319946,0.1538985520601272,4.261751651763916,4.784926891326904,75.69001007080078,34.71,0
-0.2581849098205566,-0.7935243248939514,0.1883276253938675,15.761191368103027,4.782927989959717,75.6828384399414,34.71,0
-0.2888392508029938,-0.7835291624069214,0.2272155433893203,23.255512237548828,4.78164529800415,75.67823791503906,34.71,0
-0.3085114359855652,-0.821897029876709,0.2633671164512634,26.685646057128903,4.780822277069092,75.67528533935547,34.71,0
-0.3267336785793304,-0.9024971127510072,0.2809693515300751,28.05574989318848,4.780293941497803,75.67339324951172,34.71,0
-0.3328298926353454,-1.0437859296798706,0.3090587556362152,28.942169189453125,4.77995491027832,75.67218017578125,34.71,0
-0.3031554520130157,-1.2016303539276123,0.3438782393932342,29.700897216796875,4.77973747253418,75.67140197753906,34.71,0
-0.2785143256187439,-1.297327995300293,0.3774189352989197,30.58189010620117,4.779597759246826,75.6708984375,34.71,0
-0.2962877154350281,-1.2076013088226318,0.3373679220676422,32.34025955200195,4.779508113861084,75.67057800292969,34.71,0
-0.302095890045166,-1.1220309734344482,0.2892743945121765,35.93707275390625,4.777614593505859,75.67037200927734,34.71,0
-0.3226165771484375,-1.1007035970687866,0.2304218560457229,42.200462341308594,4.776399612426758,75.67023468017578,34.71,0
-0.3077966868877411,-1.0870168209075928,0.1982514560222625,51.27495956420898,4.775619983673096,75.67015075683594,34.71,0
-0.2814927995204925,-1.061440110206604,0.1832041144371032,61.53726196289063,4.775119304656982,75.67009735107422,34.71,0
-0.236623615026474,-0.9890487790107728,0.1735475957393646,69.13688659667969,4.7747979164123535,75.67005920410156,34.71,0
-0.2022313922643661,-0.9257988333702089,0.1561550498008728,70.23785400390625,4.77459192276001,75.67003631591797,34.71,0
-0.1969537585973739,-0.8852086663246155,0.1114068701863288,64.38827514648438,4.774459838867188,75.6700210571289,34.71,0
-0.1935668736696243,-0.8535624742507935,0.0714945197105407,54.10689926147461,4.774374961853027,75.67001342773438,34.71,0
-0.1801978200674057,-0.8332537412643433,0.0514788404107093,40.76649856567383,4.76881217956543,75.67000579833984,34.75,0
-0.1604227870702743,-0.8482096791267395,0.0498294793069362,23.908151626586918,4.765242099761963,75.67000579833984,34.75,0
-0.1477323025465011,-0.8634052872657776,0.0487710162997245,5.462131977081299,4.762950897216797,75.67000579833984,34.75,0
-0.1451860517263412,-0.8899502754211426,0.0480917543172836,-9.424233436584473,4.761480808258057,75.67000579833984,34.75,0
-0.1323564648628235,-0.9293764233589172,0.064449168741703,-17.608901977539062,4.760537147521973,75.67000579833984,34.75,0
-0.1185254082083702,-0.9546778798103333,0.0917397364974021,-20.93750762939453,4.759931564331055,75.67000579833984,34.75,0
-0.1376383006572723,-0.9821104407310486,0.1708287745714187,-23.12377166748047,4.759542942047119,75.67000579833984,34.75,0
-0.1499038636684417,-0.966128408908844,0.2271813303232193,-26.38256454467773,4.759293556213379,75.67000579833984,34.75,0
-0.1913618296384811,-0.9278832077980042,0.2745407223701477,-31.04257583618164,4.755461692810059,75.67000579833984,34.75,0
-0.229162722826004,-0.9761106967926024,0.2657488286495209,-35.84230422973633,4.753002643585205,75.67000579833984,34.75,0
-0.231030061841011,-1.0238536596298218,0.2377155870199203,-38.36719512939453,4.751424312591553,75.67000579833984,34.75,0
-0.1762506663799286,-1.0544923543930054,0.2309210151433944,-36.594825744628906,4.750411510467529,75.67000579833984,34.75,0
-0.1187053099274635,-1.057361125946045,0.2489517480134964,-30.524213790893555,4.749761581420898,75.67000579833984,34.75,0
-0.1097648814320564,-0.986431121826172,0.2437295168638229,-22.2469539642334,4.749344348907471,75.67000579833984,34.75,0
-0.1432118564844131,-0.9185212254524232,0.1955959945917129,-13.778836250305176,4.749076843261719,75.67000579833984,34.75,0
-0.1982628405094146,-0.8581472039222717,0.1535111218690872,-4.887300491333008,4.748905181884766,75.67000579833984,34.75,0
-0.2447869479656219,-0.8138048648834229,0.1544923484325409,5.268333911895752,4.749253749847412,75.65925598144531,34.75,0
-0.2746434211730957,-0.796544075012207,0.1719153672456741,14.741260528564451,4.749477386474609,75.65235900878906,34.75,0
-0.3049991428852081,-0.8022603988647461,0.2166831046342849,19.92479515075684,4.7496209144592285,75.64793395996094,34.75,0
-0.313284158706665,-0.8563087582588196,0.2454124540090561,19.97323226928711,4.749712944030762,75.64508819580078,34.75,0
-0.3130032420158386,-0.9301783442497252,0.2638492882251739,17.346046447753906,4.749772071838379,75.64326477050781,34.75,0
-0.3016273975372314,-1.0279635190963743,0.2868765592575073,14.459906578063965,4.749810218811035,75.64209747314453,34.75,0
-0.28313148021698,-1.0907164812088013,0.2960563600063324,11.858989715576172,4.749834537506104,75.64134216308594,34.75,0
-0.2768596410751343,-1.203758716583252,0.3355340659618377,8.943135261535645,4.749850273132324,75.64086151123047,34.75,0
-0.3008236289024353,-1.1643472909927368,0.3216841518878937,5.481244087219238,4.745269298553467,75.64055633544922,34.75,0
-0.3106045424938202,-1.0886752605438232,0.2848072052001953,3.073307752609253,4.7423295974731445,75.6403579711914,34.75,0
-0.3280769288539886,-1.0904933214187622,0.238750621676445,4.852662563323975,4.740443229675293,75.64022827148438,34.75,0
-0.3280941545963287,-1.0972578525543213,0.1979985982179641,12.59007167816162,4.739232540130615,75.64014434814453,34.75,0
-0.2889207899570465,-1.0904033184051514,0.1662485301494598,24.355224609375,4.738455772399902,75.64009094238281,34.75,0
-0.2413904815912246,-1.046820044517517,0.1402753889560699,35.64204788208008,4.737957000732422,75.64006042480469,34.75,0
-0.2108882665634155,-0.9964597821235656,0.1236073151230812,42.67391204833984,4.737637042999268,75.6400375366211,34.75,0
-0.1969114691019058,-0.9473481178283693,0.0905196070671081,44.72174453735352,4.737431526184082,75.64002227783203,34.75,0
-0.1935397386550903,-0.9046355485916138,0.0580902732908725,43.31674957275391,4.731791496276856,75.6400146484375,34.73,0
-0.1857781857252121,-0.8660295009613037,0.0372789949178695,39.3663330078125,4.728172302246094,75.64000701904297,34.73,0
-0.169601708650589,-0.8412543535232544,0.0295212883502244,32.04844665527344,4.725849628448486,75.64000701904297,34.73,0
-0.1536228060722351,-0.8253551125526428,0.0301406122744083,20.87136650085449,4.724359035491943,75.64000701904297,34.73,0
-0.1489662379026413,-0.8095541000366211,0.0305380579084157,7.3215765953063965,4.723402500152588,75.64000701904297,34.73,0
-0.1515756994485855,-0.7994139194488525,0.0307931173592805,-6.636702060699463,4.7227888107299805,75.64000701904297,34.73,0
-0.1420547515153885,-0.8096998929977417,0.0645434483885765,-20.323322296142575,4.722394943237305,75.64000701904297,34.73,0
-0.1527380794286728,-0.8218985795974731,0.1309846639633178,-33.4737663269043,4.722142219543457,75.64000701904297,34.73,0
-0.1539962589740753,-0.8465203642845154,0.1904161274433136,-44.97964859008789,4.719684600830078,75.64000701904297,34.73,0
-0.1715970039367675,-0.9294945001602172,0.2341535985469818,-53.44540023803711,4.718107223510742,75.64000701904297,34.73,0
-0.2052832394838333,-0.9995357990264891,0.2734173238277435,-57.66015625,4.717094898223877,75.64000701904297,34.73,0
-0.2436944544315338,-1.0276910066604614,0.3154078722000122,-56.13034057617188,4.716445446014404,75.64000701904297,34.73,0
-0.2571490108966827,-1.068150520324707,0.2863772213459015,-47.89387512207031,4.716028690338135,75.64000701904297,34.73,0
-0.2601855993270874,-1.105310559272766,0.2509537041187286,-34.16047668457031,4.715761184692383,75.64000701904297,34.73,0
-0.2173521071672439,-1.1235599517822266,0.2282209396362304,-17.992141723632812,4.71558952331543,75.64000701904297,34.73,0
-0.1786684989929199,-1.1184780597686768,0.2192301303148269,-2.4859867095947266,4.715479373931885,75.64000701904297,34.73,0
-0.1762346774339676,-1.0592390298843384,0.2078625708818435,10.266544342041016,4.71173620223999,75.55760955810547,34.73,0
-0.2138572037220001,-0.9708428978919984,0.1837742030620575,19.41409683227539,4.709333896636963,75.50473022460938,34.73,0
-0.260392278432846,-0.9029198288917542,0.1627178937196731,25.46001625061035,4.707792282104492,75.47079467773438,34.73,0
-0.2958535850048065,-0.8313418030738831,0.1548029482364654,29.938230514526367,4.706802845001221,75.44901275634766,34.73,0
-0.3130128383636474,-0.7854071855545044,0.1609191447496414,34.37767791748047,4.706168174743652,75.4350357055664,34.73,0
-0.3184268772602081,-0.7839178442955017,0.1872352659702301,39.29022216796875,4.705760955810547,75.42607116699219,34.73,0
-0.3163035213947296,-0.822146475315094,0.220916748046875,44.14811325073242,4.705499649047852,75.42031860351562,34.73,0
-0.3037453293800354,-0.8578749895095825,0.2425315976142883,48.26875305175781,4.705331802368164,75.4166259765625,34.73,0
-0.2676973342895508,-0.9087923765182496,0.2731960713863373,51.40753555297852,4.701092720031738,75.41425323486328,34.73,0
-0.2333682626485824,-0.9470659494400024,0.2928747832775116,53.52571868896485,4.6983723640441895,75.41272735595703,34.73,0
-0.2169356048107147,-0.9716277718544006,0.2943078875541687,54.32258605957031,4.696626663208008,75.41175079345703,34.73,0
-0.2231833934783935,-0.9873901009559632,0.3064231276512146,53.54065704345703,4.695506095886231,75.41112518310547,34.73,0
-0.2271928638219833,-0.9863099455833436,0.3141979873180389,51.73838424682617,4.69478702545166,75.41072082519531,34.73,0
-0.2409614622592926,-1.0471922159194946,0.3023941218852997,49.87602233886719,4.69432544708252,75.41046142578125,34.73,0
-0.2609929144382477,-1.1086541414260864,0.289221316576004,47.98226547241211,4.694029331207275,75.4103012084961,34.73,0
-0.2738479375839233,-1.120107889175415,0.2695721983909607,45.32676696777344,4.693839550018311,75.41019439697266,34.73,0
-0.270902007818222,-1.060284972190857,0.2401692122220993,41.89939880371094,4.693258762359619,75.41012573242188,34.77,0
-0.2578159272670746,-1.0051007270812988,0.2101045250892639,38.16298675537109,4.692885875701904,75.41007995605469,34.77,0
-0.2438202649354934,-1.025664448738098,0.1684196293354034,33.47590637207031,4.692646503448486,75.41004943847656,34.77,0
-0.2236431092023849,-1.0332633256912231,0.1304731220006942,26.27639579772949,4.692492961883545,75.4100341796875,34.77,0
-0.193901240825653,-1.026944279670715,0.0949256867170333,16.056598663330078,4.692394256591797,75.41002655029297,34.77,0
-0.1916079521179199,-1.0116934776306152,0.0777111649513244,4.31055212020874,4.692330837249756,75.41001892089844,34.77,0
-0.2069295644760131,-0.973917543888092,0.0610661022365093,-6.888777732849121,4.692290306091309,75.4100112915039,34.77,0
-0.2055665552616119,-0.9384796023368835,0.0223953854292631,-16.984912872314453,4.692264556884766,75.4100112915039,34.77,0
-0.1878985315561294,-0.9213353395462036,-0.0024212545249611,-26.88539123535156,4.694083690643311,75.4100112915039,34.77,0
-0.1709624379873275,-0.9159309267997742,-0.0071515962481498,-37.043643951416016,4.69525146484375,75.4100112915039,34.77,0
-0.1600938141345977,-0.9180604219436646,0.0010082916123792,-46.33195877075195,4.696000576019287,75.4100112915039,34.77,0
-0.1475211828947067,-0.9194270372390748,0.0118426121771335,-52.72615432739258,4.696481227874756,75.4100112915039,34.77,0
-0.1338550299406051,-0.9259018301963806,0.0411865562200546,-54.58330535888672,4.696789741516113,75.4100112915039,34.77,0
-0.1250848770141601,-0.9356547594070436,0.0656155794858932,-51.44020462036133,4.696988105773926,75.4100112915039,34.77,0
-0.1138589233160018,-0.9643046855926514,0.0980860441923141,-43.5477180480957,4.697115421295166,75.4100112915039,34.77,0
-0.1066547483205795,-0.9714950323104858,0.1357170492410659,-30.54378700256348,4.697196960449219,75.4100112915039,34.77,0
-0.1076292991638183,-0.964913845062256,0.1710620075464248,-12.145904541015623,4.697708606719971,75.32402801513672,34.77,0
-0.1250480264425277,-0.9327015280723572,0.204939916729927,8.7927827835083,4.698037147521973,75.26884460449219,34.77,0
-0.1418241411447525,-0.9064317345619202,0.2266808003187179,25.80543708801269,4.698247909545898,75.23342895507812,34.77,0
-0.1693834066390991,-0.8951711058616638,0.229437306523323,33.45587158203125,4.69838285446167,75.21070098876953,34.77,0
-0.2150582373142242,-0.904737949371338,0.2200107276439666,31.75920867919922,4.698469638824463,75.19612121582031,34.77,0
-0.249967485666275,-0.9276707768440248,0.2195590585470199,25.33593368530273,4.698525428771973,75.18675994873047,34.77,0
-0.277968019247055,-0.9647788405418396,0.2248669862747192,19.22909927368164,4.698561191558838,75.18075561523438,34.77,0
-0.2903393507003784,-0.9885926246643066,0.2282733023166656,15.997939109802246,4.698584079742432,75.1769027709961,34.77,0
-0.3038763403892517,-0.998277187347412,0.2192637324333191,15.464873313903809,4.696762561798096,75.17443084716797,34.77,0
-0.3293569386005401,-0.9876988530158995,0.207884132862091,16.0399227142334,4.695593357086182,75.17284393310547,34.77,0
-0.351306676864624,-0.980910301208496,0.200581356883049,16.41970443725586,4.694843292236328,75.17182159423828,34.77,0
-0.3597949743270874,-0.970956027507782,0.1958948671817779,16.394731521606445,4.694361686706543,75.1711654663086,34.77,0
-0.3596445024013519,-0.9645678997039796,0.1872895658016204,16.378705978393555,4.694052696228027,75.17074584960938,34.77,0
-0.3483524024486542,-0.9548706412315368,0.1817671805620193,16.045989990234375,4.693854331970215,75.17047882080078,34.77,0
-0.3355080187320709,-0.9542452692985536,0.1670276820659637,13.643518447875977,4.693727016448975,75.17030334472656,34.77,0
-0.3216674327850342,-0.9594417214393616,0.1575687229633331,7.5482964515686035,4.693645477294922,75.17019653320312,34.77,0
-0.3071875870227813,-0.9795697927474976,0.1403029561042785,-1.282142162322998,4.690379619598389,75.17012786865234,34.75,0
-0.2922974824905395,-1.0036823749542236,0.1180272325873375,-9.77207851409912,4.688283920288086,75.17008209228516,34.75,0
-0.2715463042259216,-1.0359498262405396,0.0813408568501472,-15.739904403686523,4.686938762664795,75.17005157470703,34.75,0
-0.2470338493585586,-1.045461654663086,0.0466021038591861,-18.541513442993164,4.686075687408447,75.17002868652344,34.75,0
-0.225705400109291,-1.040370225906372,0.0243087727576494,-17.330060958862305,4.685522079467773,75.1700210571289,34.75,0
-0.2064202576875686,-1.025907278060913,-0.001193351461552,-11.880941390991213,4.685166358947754,75.17001342773438,34.75,0
-0.1940441578626632,-1.0054302215576172,-0.0231569223105907,-4.729783058166504,4.684938430786133,75.17000579833984,34.75,0
-0.191699668765068,-0.98109370470047,-0.0428496524691581,0.6869936585426331,4.6847920417785645,75.17000579833984,34.75,0
-0.1957928836345672,-0.959878146648407,-0.0554873123764991,3.3821675777435303,4.683779716491699,75.17000579833984,34.75,0
-0.2040174454450607,-0.9462632536888124,-0.0635974332690239,4.155227184295654,4.683130264282227,75.17000579833984,34.75,0
-0.2036977261304855,-0.9431237578392028,-0.074399821460247,3.282788753509521,4.682713508605957,75.17000579833984,34.75,0
-0.2034925371408462,-0.9411090016365052,-0.0813321694731712,0.917289674282074,4.682446002960205,75.17000579833984,34.75,0
-0.2033608704805374,-0.9454138278961182,-0.0857809484004974,-1.7471755743026731,4.682274341583252,75.17000579833984,34.75,0
-0.2088741362094879,-0.9425786137580872,-0.0886359214782714,-3.4176676273345947,4.682164192199707,75.17000579833984,34.75,0
-0.2180100083351135,-0.9407591819763184,-0.0904680788516998,-4.206669807434082,4.682093620300293,75.17000579833984,34.75,0
-0.223872885107994,-0.9339937567710876,-0.0860460773110389,-5.318461418151856,4.682048320770264,75.17000579833984,34.75,0
-0.2220375686883926,-0.9296520948410034,-0.0776105150580406,-7.346750259399414,4.677887916564941,75.07327270507812,34.75,0
-0.2264575511217117,-0.9268658757209778,-0.0610015094280242,-9.75540542602539,4.675217628479004,75.01119995117188,34.75,0
-0.2236962616443634,-0.941871166229248,-0.0335494838654994,-12.042734146118164,4.67350435256958,74.97135925292969,34.75,0
-0.2163264453411102,-0.945902943611145,-0.0103345774114131,-13.990675926208496,4.672404766082764,74.94579315185547,34.75,0
-0.2059991508722305,-0.9652836322784424,0.0157589614391326,-14.871747970581056,4.671699047088623,74.92938995361328,34.75,0
-0.1937739104032516,-0.9889165759086608,0.0381020680069923,-14.208345413208008,4.67124605178833,74.91886138916016,34.75,0
-0.185928463935852,-1.0096806287765503,0.0580383613705635,-12.790238380432127,4.670955657958984,74.91210174560547,34.75,0
-0.1920892596244812,-1.0062124729156494,0.0652345493435859,-11.260393142700195,4.670769214630127,74.90776824951172,34.75,0
-0.218433991074562,-1.0263779163360596,0.0698526501655578,-8.859926223754883,4.6724853515625,74.90498352050781,34.75,0
-0.2577316164970398,-1.056112289428711,0.0952073782682418,-4.854633331298828,4.673586845397949,74.9031982421875,34.75,0
-0.2661572694778442,-1.075194001197815,0.1226741299033165,0.008581805974245,4.674293518066406,74.90205383300781,34.75,0
-0.2435754835605621,-1.048255205154419,0.1738873571157455,4.014409065246582,4.674747467041016,74.90132141113281,34.75,0
-0.2066926956176757,-1.0029785633087158,0.2291441559791565,5.435111999511719,4.67503833770752,74.90084838867188,34.75,0
-0.1718278974294662,-0.9627270698547364,0.2590070068836212,3.652740478515625,4.675225257873535,74.90054321289062,34.75,0
-0.1662469953298568,-0.9312981963157654,0.2613779604434967,0.5277528762817383,4.675344944000244,74.90035247802734,34.75,0
-0.1626655012369156,-0.9055311679840088,0.2628994882106781,-0.510388970375061,4.675422191619873,74.90023040771484,34.75,0
-0.1603671014308929,-0.9001909494400024,0.2526803612709045,2.065622091293335,4.671799182891846,74.900146484375,34.79,0
-0.1588921248912811,-0.9079594016075134,0.2349267750978469,6.706625938415527,4.669474124908447,74.90009307861328,34.79,0
-0.1579455584287643,-0.912944793701172,0.2123380005359649,11.490572929382324,4.66798210144043,74.90006256103516,34.79,0
-0.1573381125926971,-0.9161441326141356,0.1922440528869629,15.750049591064451,4.667024612426758,74.90003967285156,34.79,0
-0.1625460684299469,-0.9181972742080688,0.1737511307001114,18.84537696838379,4.666410446166992,74.9000244140625,34.79,0
-0.1770837754011154,-0.9083192944526672,0.156285673379898,19.92538833618164,4.666016101837158,74.90001678466797,34.79,0
-0.2032065689563751,-0.8907846212387085,0.1450773477554321,19.120960235595703,4.665762901306152,74.90000915527344,34.79,0
-0.2199706733226776,-0.8851296901702881,0.1434822678565979,17.160947799682617,4.665600776672363,74.90000915527344,34.79,0
-0.2363266795873642,-0.8870984315872192,0.1536541730165481,14.090340614318848,4.662742137908936,74.90000915527344,34.79,0
-0.2524208128452301,-0.8883618712425232,0.160181924700737,9.547513008117676,4.660907745361328,74.90000915527344,34.79,0
-0.2627490758895874,-0.9227592945098876,0.164371058344841,3.8485262393951416,4.659730434417725,74.90000915527344,34.79,0
-0.286170482635498,-0.9952135682106018,0.1726571768522262,-1.933223009109497,4.658975124359131,74.90000915527344,34.79,0
-0.3067987859249115,-1.0249172449111938,0.1835725009441375,-6.786458015441895,4.658490180969238,74.90000915527344,34.79,0
-0.3312323987483978,-0.9824038147926332,0.1849795579910278,-10.545848846435549,4.65817928314209,74.90000915527344,34.79,0
-0.3413147032260895,-0.9383277893066406,0.1746869832277298,-13.635516166687012,4.657979488372803,74.90000915527344,34.79,0
-0.3365893959999084,-0.971617877483368,0.1568862497806549,-16.19508171081543,4.657851219177246,74.90000915527344,34.79,0
-0.2887747585773468,-1.0321660041809082,0.139864981174469,-17.984548568725586,4.6563920974731445,74.82477569580078,34.79,0
-0.2468945384025573,-1.0598267316818235,0.1177461668848991,-18.982458114624023,4.655455589294434,74.7764892578125,34.79,0
-0.2368115484714508,-1.0271978378295898,0.0979538112878799,-19.493885040283203,4.654854774475098,74.7455062866211,34.79,0
-0.241536408662796,-0.9782695770263672,0.0852522179484367,-19.87941169738769,4.654469013214111,74.72562408447266,34.79,0
-0.2389707863330841,-0.9132835865020752,0.0659055113792419,-20.352521896362305,4.654221534729004,74.71286010742188,34.79,0
-0.2317265421152115,-0.8827748894691467,0.0422943644225597,-20.73495483398437,4.654062747955322,74.70467376708984,34.79,0
-0.2270776033401489,-0.8631961345672607,0.0327398627996444,-20.32834815979004,4.653960704803467,74.69941711425781,34.79,0
-0.2184963971376419,-0.8786205053329468,0.0266083329916,-18.322696685791016,4.653895378112793,74.696044921875,34.79,0
-0.2073917090892791,-0.8997145295143127,0.0226734708994627,-14.620929718017578,4.653853416442871,74.69387817382812,34.79,0
-0.2058631330728531,-0.9244470000267028,0.0089527536183595,-10.246272087097168,4.6538262367248535,74.69248962402344,34.79,0
-0.2384688258171081,-0.9683077335357666,0.0001475875324103,-6.604128360748291,4.653809070587158,74.69159698486328,34.79,0
-0.2705888152122497,-1.0244438648223877,-0.0055030607618391,-4.342043876647949,4.65379810333252,74.69102478027344,34.79,0
-0.29679936170578,-1.0940555334091189,0.0188595484942197,-3.3955116271972656,4.6537909507751465,74.69065856933594,34.79,0
-0.2968264520168304,-1.0659571886062622,0.0624829418957233,-3.705221176147461,4.6537861824035645,74.69042205810547,34.79,0
-0.2576594352722168,-0.9807519912719728,0.0904779285192489,-4.989495277404785,4.653783321380615,74.69026947021484,34.79,0
-0.2269265055656433,-1.026832103729248,0.0748568475246429,-6.164761066436768,4.653781414031982,74.69017028808594,34.79,0
-0.1960083395242691,-1.0675992965698242,0.0704299136996269,-5.987509250640869,4.6501078605651855,74.69010925292969,34.77,0
-0.176166832447052,-1.0153924226760864,0.0843822881579399,-4.064558506011963,4.647750377655029,74.69007110595703,34.77,0
-0.1802270263433456,-0.9650957584381104,0.0989338904619216,-0.6236526370048523,4.646237850189209,74.69004821777344,34.77,0
-0.2164192646741867,-0.9328182935714722,0.1082722693681716,4.092325210571289,4.645267009735107,74.69003295898438,34.77,0
-0.2004609405994415,-0.9121044278144836,0.0974717810750007,9.336382865905762,4.644643783569336,74.69002532958984,34.77,0
-0.179024264216423,-0.8876159191131592,0.0905406475067138,13.461223602294922,4.644244194030762,74.69001770019531,34.77,0
-0.1708652079105377,-0.8774983882904053,0.0916904211044311,15.273569107055664,4.643987655639648,74.69001007080078,34.77,0
-0.1712269783020019,-0.8766033053398132,0.0980260521173477,15.257960319519045,4.643823146820068,74.69001007080078,34.77,0
-0.1658613681793213,-0.8816266655921936,0.096494123339653,14.309308052062988,4.6464715003967285,74.69001007080078,34.77,0
-0.1624180227518081,-0.8792526125907898,0.0787176936864852,12.185089111328123,4.648171424865723,74.69001007080078,34.77,0
-0.1602082848548889,-0.877729058265686,0.0449187085032463,8.54336929321289,4.649261951446533,74.69001007080078,34.77,0
-0.1363991051912307,-0.8823491334915161,0.0064351437613368,4.293227672576904,4.649961948394775,74.69001007080078,34.77,0
-0.1155219674110412,-0.9189006686210632,-0.0350547134876251,0.4336373805999756,4.650411128997803,74.69001007080078,34.77,0
-0.0909286737442016,-0.9479551315307616,-0.0840716138482093,-3.3580307960510254,4.650699615478516,74.69001007080078,34.77,0
-0.0359616912901401,-0.9386117458343506,-0.1547122597694397,-7.894277572631836,4.650884628295898,74.69001007080078,34.77,0
-0.0006870471406728,-0.955006778240204,-0.2056431323289871,-13.019411087036133,4.651003360748291,74.69001007080078,34.77,0
-0.000440907315351,-0.9263437390327454,-0.2327298671007156,-17.010610580444336,4.655670166015625,74.62910461425781,34.77,0
-0.0002829489239957,-0.8911561369895935,-0.2557103335857391,-17.304162979125977,4.658664703369141,74.59001922607422,34.77,0
-0.0057793548330664,-0.8629769682884216,-0.2592623233795166,-12.903268814086914,4.660586357116699,74.56493377685547,34.77,0
-0.0093066319823265,-0.8336976766586304,-0.2279551476240158,-5.933987617492676,4.661819934844971,74.54883575439453,34.77,0
0.0052230879664421,-0.820505678653717,-0.1966684609651565,0.2473834753036499,4.662611484527588,74.53850555419922,34.77,0
0.0481340736150741,-0.8232353329658508,-0.1821882426738739,4.067346572875977,4.663119316101074,74.53187561035156,34.77,0
0.0700740963220596,-0.841780424118042,-0.1728956699371338,6.1031999588012695,4.663445472717285,74.52761840820312,34.77,0
0.0897517129778862,-0.9096593260765076,-0.1669322401285171,7.19115686416626,4.663654804229736,74.52488708496094,34.77,0
0.1303685456514358,-0.9812089800834656,-0.1463119238615036,7.09401273727417,4.663329601287842,74.52313232421875,34.77,0
0.1676296442747116,-1.021527647972107,-0.1330789923667907,5.2045578956604,4.663120746612549,74.52201080322266,34.77,0
0.2195305377244949,-1.0474019050598145,-0.0798046588897705,2.064588785171509,4.662986755371094,74.52128601074219,34.77,0
0.2472397834062576,-1.0584087371826172,-0.0456162616610527,-0.8747672438621521,4.662900924682617,74.52082061767578,34.77,0
0.2426308840513229,-1.0710699558258057,-0.0180783420801162,-2.9939441680908203,4.662845611572266,74.52052307128906,34.77,0
0.2452709227800369,-1.0679997205734253,0.0107894586399197,-4.833974838256836,4.662810325622559,74.52033233642578,34.77,0
0.241367369890213,-1.0492360591888428,0.0349129252135753,-6.9032793045043945,4.662787437438965,74.52021026611328,34.77,0
0.2332645207643509,-1.0315968990325928,0.0336006544530391,-9.216447830200195,4.662773132324219,74.52013397216797,34.77,0
0.2392601370811462,-1.0202770233154297,0.0327585153281688,-11.55714225769043,4.648074626922607,74.52008819580078,34.79,0
0.231912225484848,-1.0130126476287842,0.0378158539533615,-13.005526542663574,4.638641834259033,74.52005767822266,34.79,0
0.2327945381402969,-1.0027530193328855,0.029865812510252,-12.251205444335938,4.6325883865356445,74.52003479003906,34.79,0
0.2333607524633407,-0.9905712008476256,0.030361708253622,-9.653406143188477,4.628703594207764,74.52001953125,34.79,0
0.2337241172790527,-0.9603624939918518,0.047473270446062,-7.767751216888428,4.626210689544678,74.52001190185547,34.79,0
0.2283595204353332,-0.9465740323066713,0.0640522614121437,-8.008589744567871,4.624610900878906,74.52000427246094,34.79,0
0.1969279646873474,-0.9881054162979126,0.0970828011631965,-8.679037094116211,4.623584270477295,74.52000427246094,34.79,0
0.1431703567504882,-1.0483444929122925,0.151866540312767,-8.245890617370605,4.622925281524658,74.52000427246094,34.79,0
0.0974762663245201,-1.0702091455459597,0.1926213651895523,-7.838949203491211,4.537578582763672,74.52000427246094,34.79,0
0.0905435308814048,-1.073045015335083,0.2187754660844802,-8.190418243408203,4.4828081130981445,74.52000427246094,34.79,0
0.0860944986343383,-1.0860605239868164,0.201973021030426,-7.369858741760254,4.447659492492676,74.52000427246094,34.79,0
0.0552504919469356,-1.0832176208496094,0.1911901831626892,-3.9915404319763184,4.425103187561035,74.52000427246094,34.79,0
0.0690432339906692,-1.0366109609603882,0.189868152141571,0.3367630243301391,4.410627841949463,74.52000427246094,34.79,0
0.1002857163548469,-0.9787126183509828,0.2338019460439682,3.587318658828736,4.40133810043335,74.52000427246094,34.79,0
0.0923464745283126,-0.9135679006576538,0.2508005797863006,5.50495719909668,4.395376682281494,74.52000427246094,34.79,0
0.0368715524673461,-0.860566258430481,0.228122666478157,6.036984920501709,4.391551017761231,74.52000427246094,34.79,0
-0.0267179291695356,-0.8321506381034851,0.2023737430572509,4.185873508453369,4.419610977172852,74.4698486328125,34.79,0
-0.1458948403596878,-0.8139150738716125,0.2418273091316223,-0.4341708719730377,4.437618255615234,74.43766021728516,34.79,0
-0.2167779505252838,-0.785419225692749,0.3063307702541351,-6.512307167053223,4.449174404144287,74.41699981689453,34.79,0
-0.2622666358947754,-0.7503389120101929,0.3757142424583435,-12.318835258483888,4.45659065246582,74.40373992919922,34.79,0
-0.3082519769668579,-0.7054352760314941,0.40904501080513,-16.858375549316406,4.461349964141846,74.39523315429688,34.79,0
-0.3601538240909576,-0.6878142952919006,0.4192392230033874,-19.4742374420166,4.464404106140137,74.38977813720703,34.79,0
-0.483025848865509,-0.8220483064651489,0.4313790500164032,-19.65184783935547,4.466363906860352,74.38627624511719,34.79,0
-0.4219336807727813,-0.9249852895736694,0.5455273985862732,-17.34758949279785,4.467621803283691,74.38402557373047,34.79,0
-0.4163148701190948,-0.9294687509536744,0.5572057366371155,-12.852320671081545,4.398194789886475,74.38258361816406,34.79,0
-0.4127090573310852,-0.848379373550415,0.5311135649681091,-6.650050640106201,4.353640556335449,74.38166046142578,34.79,0
-0.4159928262233734,-0.8075364232063293,0.4527935981750488,0.2750864624977112,4.325047969818115,74.38106536865234,34.79,0
-0.4516867995262146,-0.8429012894630432,0.4361189901828766,6.453207015991211,4.306699275970459,74.38068389892578,34.79,0
-0.4801909029483795,-0.7872276306152344,0.4254181981086731,10.48245620727539,4.294923782348633,74.38043975830078,34.79,0
-0.4928854405879974,-0.8018794059753418,0.4073554873466491,11.7605562210083,4.28736686706543,74.38027954101562,34.79,0
-0.5066298246383667,-0.8168798685073853,0.3509816825389862,10.853964805603027,4.282517433166504,74.38018035888672,34.79,0
-0.5042546391487122,-0.8377018570899963,0.3204019963741302,8.52028751373291,4.27940559387207,74.38011169433594,34.79,0
-0.5139259099960327,-0.8510642051696777,0.3399621546268463,4.228259086608887,4.31137752532959,74.38007354736328,34.81,0
-0.514534592628479,-0.8708349466323853,0.330123633146286,-2.853869199752808,4.331895351409912,74.38004302978516,34.81,0
-0.470143049955368,-0.9003159999847412,0.3126142919063568,-11.242875099182127,4.345062732696533,74.3800277709961,34.81,0
-0.4584484398365021,-0.9024419188499452,0.3013778030872345,-17.26057243347168,4.353512763977051,74.38002014160156,34.81,0
-0.4285524189472198,-0.881415069103241,0.3221557438373565,-18.331558227539062,4.358935356140137,74.38001251220703,34.81,0
-0.4317579567432403,-0.862323522567749,0.2795120775699615,-15.18191623687744,4.362415313720703,74.3800048828125,34.81,0
-0.3946306705474853,-0.8388760685920715,0.2129614055156707,-10.337587356567385,4.364648818969727,74.3800048828125,34.81,0
-0.3316200971603393,-0.8406221866607666,0.1926441192626953,-5.695433616638184,4.366081714630127,74.3800048828125,34.81,0
-0.3863456845283508,-0.8473405241966248,0.1963989734649658,-2.49782943725586,4.528585910797119,74.3800048828125,34.81,0
-0.5278231501579285,-0.8292608857154846,0.1876130700111389,-1.8071699142456052,4.632871627807617,74.3800048828125,34.81,0
-0.5794308185577393,-0.8232561945915222,0.2099636644124984,-3.1480672359466557,4.699796199798584,74.3800048828125,34.81,0
-0.5957563519477844,-0.8361960053443909,0.2355025261640548,-3.979917049407959,4.74274492263794,74.3800048828125,34.81,0
-0.6062331199645996,-0.7941200733184814,0.2630874514579773,-1.647689938545227,4.770306587219238,74.3800048828125,34.81,0
-0.5681743025779724,-0.7615203857421875,0.3535609245300293,4.656816005706787,4.787994384765625,74.3800048828125,34.81,0
-0.5381525754928589,-0.7126109004020691,0.439610481262207,12.485884666442873,4.799345016479492,74.3800048828125,34.81,0
-0.5748640894889832,-0.6980169415473938,0.4668432474136352,15.804823875427246,4.806629180908203,74.3800048828125,34.81,0
-0.6152167320251465,-0.6830536127090454,0.4619285762310028,9.60165786743164,4.608405590057373,74.43732452392578,34.81,0
-0.6691016554832458,-0.6790487766265869,0.4979590475559234,-3.973315477371216,4.481197357177734,74.47410583496094,34.81,0
-0.6812908053398132,-0.6764787435531616,0.4930924475193023,-17.582332611083984,4.399562358856201,74.49771118164062,34.81,0
-0.6779175400733948,-0.6860249638557434,0.4843715727329254,-26.25132942199707,4.347173690795898,74.51286315917969,34.81,0
-0.6533616781234741,-0.6921511888504028,0.4675794839859009,-29.611309051513672,4.313553333282471,74.5225830078125,34.81,0
-0.6096142530441284,-0.690484881401062,0.4624010622501373,-28.575475692749023,4.291977882385254,74.52882385253906,34.81,0
-0.5423552393913269,-0.627839982509613,0.4702734053134918,-23.317874908447266,4.27813196182251,74.53282928466797,34.81,0
-0.5831589102745056,-0.548453688621521,0.4697276353836059,-13.32683277130127,4.269246578216553,74.535400390625,34.81,0
-0.5869532227516174,-0.5646814107894897,0.5365507006645203,1.1814641952514648,4.23232889175415,74.53704833984375,34.81,0
-0.6117793321609497,-0.5415087938308716,0.5682383179664612,16.073705673217773,4.208637237548828,74.5381088256836,34.81,0
-0.627711296081543,-0.5266379714012146,0.5829758644104004,23.097808837890625,4.1934332847595215,74.53878784179688,34.81,0
-0.5987510681152344,-0.4891058504581451,0.6036291122436523,16.915067672729492,4.183676242828369,74.53922271728516,34.81,0
-0.5857638716697693,-0.4482265710830688,0.6280786991119385,4.256012439727783,4.177414894104004,74.53950500488281,34.81,0
-0.5886249542236328,-0.4051992893218994,0.6381712555885315,2.9963743686676025,4.173396587371826,74.53968048095703,34.81,0
-0.528885543346405,-0.3551957309246063,0.6670392155647278,25.682540893554688,4.170817852020264,74.539794921875,34.81,0
-0.4849504232406616,-0.3287041187286377,0.7135538458824158,64.47376251220703,4.169163227081299,74.53987121582031,34.81,0
-0.5127331614494324,-0.3340944051742553,0.7154154181480408,99.09800720214844,4.135509014129639,74.5399169921875,34.79,0
-0.5137692093849182,-0.3039669394493103,0.7390011548995972,117.55973815917967,4.1139116287231445,74.53994750976562,34.79,0
-0.5144340395927429,-0.2790350914001465,0.7597348690032959,121.30720520019533,4.1000518798828125,74.53997039794922,34.79,0
-0.5148606896400452,-0.2350464016199112,0.7842361330986023,114.74134826660156,4.09115743637085,74.53997802734375,34.79,0
-0.5487211346626282,-0.1900236755609512,0.8167529702186584,99.95199584960938,4.085449695587158,74.53998565673828,34.79,0
-0.5816463828086853,-0.1051529347896575,0.843218207359314,79.4911880493164,4.081786632537842,74.53999328613281,34.79,0
-0.6531558632850647,-0.0842744261026382,0.8266153931617737,56.81306076049805,4.0794358253479,74.53999328613281,34.79,0
-0.6934487819671631,-0.0484847016632556,0.7935695648193359,33.829742431640625,4.077927112579346,74.53999328613281,34.79,0
-0.7081109285354614,-0.0255169179290533,0.7443737983703613,11.628613471984863,4.089353084564209,74.53999328613281,34.79,0
-0.6895313858985901,-0.033168613910675,0.7184005379676819,-6.968039035797119,4.096685886383057,74.53999328613281,34.79,0
-0.7167925238609314,-0.0828612223267555,0.7185257077217102,-18.913047790527344,4.101391792297363,74.53999328613281,34.79,0
-0.7510804533958435,-0.0979577600955963,0.7186060547828674,-24.912769317626957,4.104411602020264,74.53999328613281,34.79,0
-0.7450956106185913,-0.1188413947820663,0.724255383014679,-28.390457153320312,4.106349468231201,74.53999328613281,34.79,0
-0.696472704410553,-0.1266455352306366,0.7166852355003357,-30.07052230834961,4.107593059539795,74.53999328613281,34.79,0
-0.6540737152099609,-0.1148604601621627,0.7174249291419983,-27.390567779541016,4.108391284942627,74.53999328613281,34.79,0
-0.6660489439964294,-0.0961019322276115,0.7178996205329895,-18.484081268310547,4.108903408050537,74.53999328613281,34.79,0
-0.6513428688049316,-0.1008571088314056,0.7126064896583557,-4.747024059295654,4.119790077209473,74.5865707397461,34.79,0
-0.6363075375556946,-0.0703220590949058,0.7483940720558167,11.190789222717283,4.126776218414307,74.61646270751953,34.79,0
-0.5818765759468079,-0.0675197467207908,0.7769582867622375,27.888891220092773,4.131259441375732,74.6356430053711,34.79,0
-0.5525436997413635,-0.060123611241579,0.8176802396774292,46.189083099365234,4.13413667678833,74.64794921875,34.79,0
-0.5225239992141724,-0.0441816486418247,0.8662043213844299,69.45465850830078,4.135982990264893,74.65584564208984,34.79,0
-0.5312479138374329,-0.0507443360984325,0.9197354316711426,99.85831451416016,4.137167930603027,74.66091918945312,34.79,0
-0.5312486886978149,-0.0549558922648429,0.9372952580451964,133.126708984375,4.137928485870361,74.66416931152344,34.79,0
-0.4752714037895202,-0.1136363670229911,0.914977490901947,156.04562377929688,4.138416767120361,74.666259765625,34.79,0
-0.3721751272678375,-0.1624896675348281,0.9902196526527404,158.06417846679688,4.188766002655029,74.6676025390625,34.79,0
-0.3563938438892364,-0.2106342315673828,0.9713324308395386,140.0924835205078,4.2210774421691895,74.66845703125,34.79,0
-0.4358307123184204,-0.1743573397397995,0.8920384049415588,110.27381896972656,4.241812705993652,74.66900634765625,34.79,0
-0.4980042576789856,-0.1846635788679123,0.8131632208824158,73.54747009277344,4.255119323730469,74.66936492919922,34.79,0
-0.3811659812927246,-0.1520930975675583,0.8017300963401794,30.166967391967773,4.2636590003967285,74.66959381103516,34.79,0
-0.1270571202039718,-0.1143979206681251,0.8839573264122009,-18.046247482299805,4.269139289855957,74.66973876953125,34.79,0
0.0975908413529396,-0.1070006489753723,0.953519344329834,-70.34244537353516,4.272655963897705,74.66983032226562,34.79,0
0.0682259574532508,-0.1134490519762039,0.9533780813217164,-126.06137084960938,4.2749128341674805,74.66989135742188,34.79,0
-0.0289875715970993,-0.0672072991728782,0.9420918822288512,-182.2643280029297,4.321348190307617,74.66992950439453,34.77,0
-0.2089268863201141,-0.0599230974912643,1.035609006881714,-227.24560546875,4.351147651672363,74.66995239257812,34.77,0
-0.4139659702777862,-0.0888351649045944,1.039645075798035,-252.2822265625,4.3702712059021,74.66996765136719,34.77,0
-0.562341570854187,-0.096193715929985,0.8910953402519226,-257.2038879394531,4.382543563842773,74.66997528076172,34.77,0
-0.4784317016601562,-0.1009160131216049,0.8965246081352234,-223.08563232421875,4.390419483184815,74.66998291015625,34.77,0
-0.3853987753391266,-0.0983487367630004,0.9000087976455688,-153.4347686767578,4.395473480224609,74.66999053955078,34.77,0
-0.3648800253868103,-0.1302878558635711,0.7902892827987671,-72.13367462158203,4.398716926574707,74.66999053955078,34.77,0
-0.3741033673286438,-0.0892090201377868,0.7646598219871521,3.732262134552002,4.400798320770264,74.66999053955078,34.77,0
-0.3744246065616607,-0.0740425363183021,0.820983350276947,64.86810302734375,4.438857555389404,74.66999053955078,34.77,0
-0.3578374087810516,-0.0531140118837356,0.812346339225769,105.6349105834961,4.463282108306885,74.66999053955078,34.77,0
-0.3527904748916626,-0.0452810637652874,0.8068036437034607,128.23562622070312,4.47895622253418,74.66999053955078,34.77,0
-0.3271605670452118,-0.1186231672763824,0.9152021408081056,138.3257293701172,4.489015102386475,74.66999053955078,34.77,0
-0.2771261036396026,-0.1768854558467865,0.995961606502533,137.38145446777344,4.49547004699707,74.66999053955078,34.77,0
-0.2338213324546814,-0.1638948768377304,0.9918106198310852,123.90686798095705,4.499612331390381,74.66999053955078,34.77,0
-0.2172263711690902,-0.1555582731962204,1.005940079689026,95.10050201416016,4.502270698547363,74.66999053955078,34.77,0
-0.2289677709341049,-0.1614038646221161,1.015007495880127,58.38966751098633,4.503976821899414,74.66999053955078,34.77,0
-0.2476982772350311,-0.1539596766233444,1.0208264589309692,27.113901138305664,4.264990329742432,74.70940399169922,34.77,0
-0.2541206479072571,-0.1491824239492416,1.0077674388885498,9.704768180847168,4.1116228103637695,74.73469543457031,34.77,0
-0.2750355005264282,-0.1349211186170578,0.9713980555534364,-3.7172679901123047,4.013200283050537,74.75092315673828,34.77,0
-0.2940552234649658,-0.1145734786987304,0.953656017780304,-21.24778938293457,3.950038194656372,74.76133728027344,34.77,0
-0.3062609732151031,-0.1015155389904975,0.9534657597541808,-40.05352020263672,3.909504413604736,74.76802062988281,34.77,0
-0.3140939176082611,-0.1099290251731872,0.9477459192276,-56.7685546875,3.8834922313690186,74.77230834960938,34.77,0
-0.3023273348808288,-0.1209260895848274,0.9440752267837524,-80.7508316040039,3.866799116134644,74.77506256103516,34.77,0
-0.2667873501777649,-0.1279833763837814,0.947317361831665,-121.6778793334961,3.856086492538452,74.7768325805664,34.77,0
-0.2439798265695572,-0.1269145607948303,0.9438002109527588,-170.458984375,4.118481636047363,74.77796936035156,34.77,0
-0.2405388206243515,-0.1262286603450775,0.9415431022644044,-216.1371917724609,4.286871910095215,74.77869415283203,34.77,0
-0.2719172239303589,-0.1201907098293304,0.9344968795776368,-257.7068176269531,4.394935131072998,74.77915954589844,34.77,0
-0.2864563167095184,-0.1163159012794494,0.9355727434158324,-307.2693176269531,4.4642839431762695,74.77945709228516,34.77,0
-0.3013844490051269,-0.1138292700052261,0.925067663192749,-361.9289245605469,4.508787631988525,74.77964782714844,34.77,0
-0.3165622353553772,-0.1290268152952194,0.9351193904876708,-408.7535705566406,4.537347793579102,74.77976989746094,34.77,0
-0.3319002389907837,-0.138779729604721,0.9415700435638428,-427.0055236816406,4.555675983428955,74.77985382080078,34.77,0
-0.3249499499797821,-0.1282452642917633,0.9401119351387024,-350.6015319824219,4.567438125610352,74.7799072265625,34.77,0
-0.3204896748065948,-0.1214848458766937,0.9391762018203736,-202.45790100097656,4.668363094329834,74.77993774414062,34.77,0
-0.3176273107528686,-0.1227441728115081,0.9385756850242616,-50.13112258911133,4.733130931854248,74.77996063232422,34.77,0
-0.3269859552383423,-0.1123567894101142,0.9381903409957886,74.42110443115234,4.77469539642334,74.77997589111328,34.77,0
-0.3385895788669586,-0.1000929921865463,0.9323452711105348,165.05270385742188,4.8013691902160645,74.77998352050781,34.77,0
-0.3516338765621185,-0.0922227948904037,0.9118009209632874,216.6479949951172,4.81848669052124,74.77999114990234,34.77,0
-0.3712005019187927,-0.0871721506118774,0.9042145013809204,241.4974670410156,4.829471588134766,74.77999114990234,34.77,0
-0.3781594634056091,-0.095126487314701,0.910541534423828,258.2003479003906,4.836521148681641,74.77999114990234,34.77,0
-0.3602342307567596,-0.0946333482861518,0.9090040326118468,275.6903686523437,4.841045379638672,74.77999114990234,34.77,0
-0.3487308621406555,-0.0943168848752975,0.90801739692688,289.3935852050781,4.858178615570068,74.77999114990234,34.77,0
-0.3581419885158539,-0.0941137969493866,0.9129819869995116,292.8387451171875,4.869174003601074,74.77999114990234,34.77,0
-0.3641814887523651,-0.0939834639430046,0.9217657446861268,291.22344970703125,4.876230239868164,74.77999114990234,34.77,0
-0.3568617403507232,-0.0938998237252235,0.927402675151825,290.322998046875,4.880758285522461,74.77999114990234,34.77,0
-0.3577621281147003,-0.0938461497426033,0.9254223704338074,289.97442626953125,4.883664131164551,74.77999114990234,34.77,0
-0.3639377355575561,-0.0938117057085037,0.9241514801979064,283.87530517578125,4.885529041290283,74.77999114990234,34.77,0
-0.3679008781909942,-0.0937895998358726,0.9233359098434448,270.9188232421875,4.886725902557373,74.77999114990234,34.77,0
-0.3704441785812378,-0.0937754139304161,0.9172147512435912,253.86618041992188,4.887494087219238,74.77999114990234,34.77,0
-0.3832718729972839,-0.0881685316562652,0.9076887965202332,230.8387451171875,4.889822959899902,74.81224060058594,34.77,0
-0.3915039598941803,-0.084570363163948,0.9071733355522156,193.397705078125,4.891317367553711,74.83293151855469,34.77,0
-0.3911890685558319,-0.087859034538269,0.912440299987793,142.50445556640625,4.892276763916016,74.8462142944336,34.77,0
-0.3797914385795593,-0.089969515800476,0.9158203601837158,85.77635955810547,4.892892360687256,74.854736328125,34.77,0
-0.3724770843982696,-0.0913239046931266,0.9179894924163818,30.29789924621582,4.893287181854248,74.8602066040039,34.77,0
-0.3733809292316437,-0.0921930745244026,0.9193814992904664,-20.21566200256348,4.893540859222412,74.86371612548828,34.77,0
-0.3739609718322754,-0.0927508547902107,0.9202747941017152,-64.10734558105469,4.893703460693359,74.865966796875,34.77,0
-0.3687354326248169,-0.0931088030338287,0.9208480715751648,-100.6541519165039,4.893807888031006,74.86741638183594,34.77,0
-0.370979756116867,-0.093338519334793,0.9156181812286376,-130.1695098876953,4.8879075050354,74.86833953857422,34.77,0
-0.3780178129673004,-0.0934859365224838,0.912261962890625,-155.07215881347656,4.884120941162109,74.86893463134766,34.77,0
-0.3825344443321228,-0.0935805365443229,0.9157059192657472,-178.63040161132812,4.881690979003906,74.86931610107422,34.77,0
-0.3854329586029053,-0.0936412513256073,0.9123182892799376,-203.8909912109375,4.880131244659424,74.86956024169922,34.77,0
-0.3872930407524109,-0.0936802104115486,0.9101442694664,-229.8499755859375,4.879130363464356,74.86972045898438,34.77,0
-0.3884867429733276,-0.0937052145600318,0.9143468737602234,-248.5331115722656,4.878488063812256,74.86981964111328,34.77,0
-0.3892527818679809,-0.093721255660057,0.9114460945129396,-251.18310546875,4.878076076507568,74.86988830566406,34.77,0
-0.3897444009780884,-0.093731552362442,0.9095845818519592,-236.1136779785156,4.877811431884766,74.86992645263672,34.77,0
-0.3900598883628845,-0.0937381610274314,0.9139876961708068,-208.1396026611328,4.868001937866211,74.86995697021484,34.75,0
-0.3902623355388641,-0.0937424004077911,0.911215603351593,-172.62567138671875,4.861706733703613,74.8699722290039,34.75,0
-0.3903922736644745,-0.093745119869709,0.9094366431236268,-134.94927978515625,4.857666969299316,74.86997985839844,34.75,0
-0.384877860546112,-0.0881490930914878,0.9138928055763244,-100.4457550048828,4.855074405670166,74.86998748779297,34.75,0
-0.3813390433788299,-0.0901556611061096,0.9167524576187134,-71.13822174072266,4.853410720825195,74.8699951171875,34.75,0
-0.3846658170223236,-0.0914433598518371,0.912989854812622,-45.19384765625,4.8523430824279785,74.8699951171875,34.75,0
-0.3868007361888885,-0.0922697335481643,0.910575270652771,-20.93484878540039,4.851657867431641,74.8699951171875,34.75,0
-0.3881708085536957,-0.0928000509738922,0.914623498916626,0.6948968768119812,4.851217746734619,74.8699951171875,34.75,0
-0.3890500366687774,-0.0931403785943985,0.9116236567497252,18.057886123657227,4.834868907928467,74.8699951171875,34.75,0
-0.3896142840385437,-0.0933587774634361,0.9152962565422058,30.690805435180664,4.824377059936523,74.8699951171875,34.75,0
-0.3899763822555542,-0.0934989377856254,0.9120553731918336,38.6295051574707,4.817644119262695,74.8699951171875,34.75,0
-0.390208750963211,-0.0935888811945915,0.909975528717041,41.5888900756836,4.813323020935059,74.8699951171875,34.75,0
-0.3903578817844391,-0.0936466008424758,0.9086408019065856,40.22432708740234,4.810550212860107,74.8699951171875,34.75,0
-0.3848558068275451,-0.0936836451292038,0.913382053375244,36.76200866699219,4.808770656585693,74.8699951171875,34.75,0
-0.3869226574897766,-0.0937074199318885,0.9108269214630128,33.0963134765625,4.807628631591797,74.8699951171875,34.75,0
-0.3882490396499634,-0.0937226712703704,0.9091871976852416,29.307270050048828,4.806895732879639,74.8699951171875,34.75,0
-0.3891002535820007,-0.0937324613332748,0.9137327075004578,24.86943626403809,4.790818214416504,74.88790893554688,34.75,0
-0.3896465003490448,-0.0881409719586372,0.9166497588157654,20.355592727661133,4.780500411987305,74.89940643310547,34.75,0
-0.3899970650672912,-0.0901504456996917,0.918521761894226,16.7280216217041,4.773879051208496,74.90678405761719,34.75,0
-0.3902220129966736,-0.0858422368764877,0.9141253232955932,13.364691734313965,4.769629955291748,74.9115219116211,34.75,0
-0.3903663754463196,-0.0886752530932426,0.916901707649231,8.161110877990723,4.766902923583984,74.91455841064453,34.75,0
-0.3904590308666229,-0.0848955437541008,0.913085639476776,-0.2475922256708145,4.765152931213379,74.91650390625,34.75,0
-0.3905184864997864,-0.0824699476361274,0.9106367230415344,-10.960355758666992,4.7640299797058105,74.91775512695312,34.75,0
-0.3905566334724426,-0.0809133350849151,0.9090651273727416,-20.98069190979004,4.763309478759766,74.9185562133789,34.75,0
-0.3905811309814453,-0.079914391040802,0.9136543869972228,-26.665990829467773,4.752288818359375,74.91907501220703,34.75,0
-0.3905968368053436,-0.0792733281850814,0.911001682281494,-26.409481048583984,4.745216369628906,74.91940307617188,34.75,0
-0.390606939792633,-0.0788619294762611,0.909299373626709,-21.92786407470703,4.740677833557129,74.91961669921875,34.75,0
-0.3906134068965912,-0.0841956958174705,0.9138047099113464,-16.046039581298828,4.737765312194824,74.91975402832031,34.75,0
-0.3906175494194031,-0.0876185968518257,0.9110981822013856,-10.462223052978516,4.735896110534668,74.91983795166016,34.75,0
-0.3906202316284179,-0.0842174440622329,0.9093613028526306,-6.069189071655273,4.734696865081787,74.9198989868164,34.75,0
-0.390621930360794,-0.0820347815752029,0.908246636390686,-3.375382900238037,4.733927249908447,74.91993713378906,34.75,0
-0.3906230330467224,-0.0806340724229812,0.9075313210487366,-2.123135566711426,4.733433246612549,74.91996002197266,34.75,0
-0.3906237483024597,-0.0797351747751236,0.9070723056793212,-1.74225914478302,4.7202630043029785,74.91997528076172,34.73,0
-0.3906241953372955,-0.0791583210229873,0.9067776799201964,-2.11045503616333,4.711811065673828,74.91998291015625,34.73,0
-0.3906244933605194,-0.078788124024868,0.906588613986969,-3.1850647926330566,4.706387042999268,74.91999053955078,34.73,0
-0.3906246721744537,-0.0785505548119545,0.9064673185348512,-4.451481819152832,4.702906131744385,74.91999053955078,34.73,0
-0.3906247913837433,-0.0783980935811996,0.9119872450828552,-5.289273738861084,4.700672149658203,74.91999053955078,34.73,0
-0.3906248807907104,-0.0783002525568008,0.9099318385124208,-5.705112457275391,4.6992387771606445,74.91999053955078,34.73,0
-0.3906249105930328,-0.0782374665141105,0.914210557937622,-6.1116943359375,4.698318958282471,74.91999053955078,34.73,0
-0.3906249403953552,-0.0781971737742424,0.911358654499054,-6.523083686828613,4.697728633880615,74.91999053955078,34.73,0
-0.3906249701976776,-0.078171320259571,0.9095284342765808,-6.457492828369141,4.689086437225342,74.91999053955078,34.73,0
-0.3906249701976776,-0.0781547278165817,0.9083539247512816,-5.322714328765869,4.683540344238281,74.91999053955078,34.73,0
-0.3906249701976776,-0.0781440809369087,0.907600164413452,-2.9536595344543457,4.679981231689453,74.91999053955078,34.73,0
-0.3906249701976776,-0.0781372487545013,0.9071164727211,-0.4087197482585907,4.67769718170166,74.91999053955078,34.73,0
-0.3906249701976776,-0.0781328603625297,0.9068060517311096,0.5402041673660278,4.676231384277344,74.91999053955078,34.73,0
-0.3906249701976776,-0.0781300440430641,0.9066068530082704,-0.1728015393018722,4.675290584564209,74.91999053955078,34.73,0
-0.3906249701976776,-0.078128233551979,0.906479001045227,-0.0284948404878377,4.674686908721924,74.91999053955078,34.73,0
-0.3906249701976776,-0.0781270787119865,0.906396985054016,3.474724769592285,4.674299716949463,74.91999053955078,34.73,0
-0.3906249701976776,-0.0781263336539268,0.9063443541526794,10.14378833770752,4.665788173675537,74.94865417480469,34.73,0
-0.3906249701976776,-0.0781258568167686,0.9063105583190918,17.31116485595703,4.66032600402832,74.96704864501953,34.73,0
-0.3906249701976776,-0.0781255513429641,0.9118866324424744,22.25111961364746,4.656820774078369,74.97885131835938,34.73,0
-0.3906249701976776,-0.078125350177288,0.9098672866821288,24.1960563659668,4.654571056365967,74.9864273071289,34.73,0
-0.3906249701976776,-0.0781252235174179,0.9141691327095032,23.8714542388916,4.653127670288086,74.99128723144531,34.73,0
-0.3906249701976776,-0.0781251415610313,0.911332070827484,21.76079559326172,4.652201175689697,74.9944076538086,34.73,0
-0.3906249701976776,-0.0781250894069671,0.909511387348175,18.177934646606445,4.651606559753418,74.99641418457031,34.73,0
-0.3906249701976776,-0.0781250596046447,0.9083429574966432,14.065877914428713,4.651225090026856,74.99769592285156,34.73,0
-0.3906249701976776,-0.0781250372529029,0.9131909012794496,10.09069538116455,4.6427178382873535,74.99851989746094,34.73,0
-0.3906249701976776,-0.0781250223517417,0.9107042551040648,6.149612903594971,4.637258529663086,74.99905395507812,34.73,0
-0.3906249701976776,-0.0781250149011612,0.9091084599494934,2.4596986770629883,4.633754730224609,74.9993896484375,34.73,0
-0.3906249701976776,-0.0781250074505806,0.9080843925476074,-0.391923576593399,4.631506443023682,74.9996109008789,34.73,0
-0.3906249701976776,-0.0781250074505806,0.907427191734314,-2.616014003753662,4.630063533782959,74.99974822998047,34.73,0
-0.3906249701976776,-0.0781250074505806,0.912603199481964,-5.007019996643066,4.6291375160217285,74.99983978271484,34.73,0
-0.3906249701976776,-0.0781250074505806,0.910327136516571,-7.745175361633301,4.628543376922607,74.9999008178711,34.73,0
-0.3906249701976776,-0.0781250074505806,0.9088664650917052,-10.140064239501951,4.628161907196045,74.99993896484375,34.73,0
-0.3906249701976776,-0.0781250074505806,0.9079291224479676,-11.648305892944336,4.623326778411865,74.99996185302734,34.77,0
-0.3906249701976776,-0.0781250074505806,0.9073275923728944,-12.763093948364258,4.620223522186279,74.9999771118164,34.77,0
-0.3906249701976776,-0.0781250074505806,0.906941533088684,-14.499534606933594,4.618232250213623,74.99998474121094,34.77,0
-0.3906249701976776,-0.0781250074505806,0.9066937565803528,-17.003921508789062,4.616954326629639,74.99999237060547,34.77,0
-0.3906249701976776,-0.0781250074505806,0.9065347909927368,-18.76156044006348,4.616134166717529,74.99999237060547,34.77,0
-0.3906249701976776,-0.0781250074505806,0.9064327478408812,-17.313640594482422,4.615607738494873,74.99999237060547,34.77,0
-0.3906249701976776,-0.0781250074505806,0.9119650721549988,-11.51931095123291,4.615270137786865,74.99999237060547,34.77,0
-0.3906249701976776,-0.0781250074505806,0.9099175930023192,-3.190069913864136,4.615053176879883,74.99999237060547,34.77,0
-0.3906249701976776,-0.0781250074505806,0.9086036682128906,4.440841197967529,4.607569217681885,74.99999237060547,34.77,0
-0.3906249701976776,-0.0781250074505806,0.913358211517334,9.359416007995604,4.602766513824463,74.99999237060547,34.77,0
-0.3906249701976776,-0.0781250074505806,0.9108116626739502,11.244059562683104,4.599684715270996,74.99999237060547,34.77,0
-0.3906249701976776,-0.0781250074505806,0.9091774225234984,10.730297088623049,4.5977067947387695,74.99999237060547,34.77,0
-0.3906249701976776,-0.0781250074505806,0.9081286787986756,8.84217357635498,4.596437454223633,74.99999237060547,34.77,0
-0.3906249701976776,-0.0781250074505806,0.9074556231498718,6.448234081268311,4.595623016357422,74.99999237060547,34.77,0
-0.3906249701976776,-0.0781250074505806,0.9126214981079102,4.087949275970459,4.595100402832031,74.99999237060547,34.77,0
-0.3906249701976776,-0.0781250074505806,0.9103388786315918,1.9928773641586304,4.594764709472656,74.99999237060547,34.77,0
-0.3906249701976776,-0.0837227776646614,0.9088740348815918,-0.0466389767825603,4.588122844696045,74.9283447265625,34.77,0
-0.3906249701976776,-0.0817173346877098,0.9079339504241944,-2.154397487640381,4.583860397338867,74.88236236572266,34.77,0
-0.3906249701976776,-0.0804303511977195,0.9073306918144226,-3.8187198638916016,4.581124782562256,74.85285949707031,34.77,0
-0.3906249701976776,-0.0796044394373893,0.9069435000419616,-4.8545427322387695,4.57936954498291,74.83392333984375,34.77,0
-0.3906249701976776,-0.0790744200348854,0.9066950678825378,-6.0530781745910645,4.578242778778076,74.82176971435547,34.77,0
-0.3906249701976776,-0.0787342861294746,0.9065356254577636,-7.972235679626465,4.57751989364624,74.81397247314453,34.77,0
-0.3906249701976776,-0.0785160064697265,0.9064332842826844,-10.19621467590332,4.577055931091309,74.80896759033203,34.77,0
-0.3906249701976776,-0.0783759281039238,0.9119653701782228,-12.196647644042969,4.57675838470459,74.80575561523438,34.77,0
-0.3906249701976776,-0.0782860293984413,0.9099177718162536,-14.171847343444824,4.573354244232178,74.80369567871094,34.77,0
-0.3906249701976776,-0.0782283395528793,0.9086037874221802,-16.779300689697266,4.571169376373291,74.80237579345703,34.77,0
-0.3906249701976776,-0.0781913176178932,0.907760500907898,-20.150754928588867,4.569767475128174,74.80152893066406,34.77,0
-0.3962227404117584,-0.0781675577163696,0.9072193503379822,-22.92698097229004,4.5688676834106445,74.80097961425781,34.77,0
-0.3998150825500488,-0.0781523138284683,0.9068720936775208,-22.680864334106445,4.5682902336120605,74.80062866210938,34.77,0
-0.3965226709842682,-0.0781425312161445,0.9066492319107056,-17.87632179260254,4.567919731140137,74.80040740966797,34.77,0
-0.4000075459480285,-0.0781362503767013,0.9065061807632446,-9.666376113891602,4.567681789398193,74.80026245117188,34.77,0
-0.4022439420223236,-0.0781322196125984,0.9064143896102904,-1.406254529953003,4.567529201507568,74.8001708984375,34.77,0
-0.398081362247467,-0.0781296342611312,0.9063555002212524,4.066579341888428,4.562840461730957,74.80010986328125,34.75,0
-0.3954100608825683,-0.0781279727816581,0.9063177108764648,6.27108907699585,4.559831619262695,74.8000717163086,34.75,0
-0.3992935419082641,-0.0781269073486328,0.9062934517860411,6.012753486633301,4.557900905609131,74.800048828125,34.75,0
-0.4017857313156128,-0.0781262218952179,0.9062778949737548,3.984029293060303,4.556661605834961,74.80003356933594,34.75,0
-0.3977873027324676,-0.0781257823109626,0.9062678813934326,0.912318229675293,4.555866241455078,74.8000259399414,34.75,0
-0.3952213525772095,-0.0781254991889,0.9062615036964417,-2.466881275177002,4.555356025695801,74.80001831054688,34.75,0
-0.3935746848583221,-0.0781253203749656,0.906257390975952,-6.025496006011963,4.555028438568115,74.80001068115234,34.75,0
-0.3925179243087768,-0.0781252086162567,0.906254768371582,-9.649093627929688,4.554818153381348,74.80001068115234,34.75,0
-0.3974375426769256,-0.0781251341104507,0.9062530398368835,-12.37934112548828,4.548716068267822,74.80001068115234,34.75,0
-0.4005946815013885,-0.0781250894069671,0.9062519669532776,-13.368368148803713,4.544800281524658,74.80001068115234,34.75,0
-0.4026207327842712,-0.0781250596046447,0.9062512516975404,-13.236397743225098,4.542287349700928,74.80001068115234,34.75,0
-0.3983231782913208,-0.0781250372529029,0.906250774860382,-13.452642440795898,4.540674686431885,74.80001068115234,34.75,0
-0.4011630117893219,-0.0781250223517417,0.9062504768371582,-14.51213836669922,4.539639949798584,74.80001068115234,34.75,0
-0.4029854536056518,-0.0781250149011612,0.906250298023224,-15.625553131103516,4.538975715637207,74.80001068115234,34.75,0
-0.4041550159454345,-0.0781250074505806,0.9062501788139344,-16.085716247558594,4.538549423217773,74.80001068115234,34.75,0
-0.4049055576324463,-0.0781250074505806,0.9062501192092896,-16.072919845581055,4.538275718688965,74.80001068115234,34.75,0
-0.4053872227668762,-0.0781250074505806,0.9062500596046448,-16.11844825744629,4.533968448638916,74.73551940917969,34.75,0
-0.4056963324546814,-0.0781250074505806,0.9062500596046448,-16.735206604003906,4.5312042236328125,74.69413757324219,34.75,0
-0.4058946967124939,-0.0781250074505806,0.9062500596046448,-17.915592193603516,4.529430389404297,74.6675796508789,34.75,0
-0.4060219824314117,-0.0781250074505806,0.9062500596046448,-18.146455764770508,4.528292179107666,74.6505355834961,34.75,0
-0.4061036705970764,-0.0781250074505806,0.9062500596046448,-14.912659645080566,4.527561664581299,74.63959503173828,34.75,0
-0.4061560928821563,-0.0781250074505806,0.9062500596046448,-7.216334342956543,4.527092933654785,74.63257598876953,34.75,0
-0.4061897397041321,-0.0781250074505806,0.9062500596046448,3.107335090637207,4.526792049407959,74.6280746459961,34.75,0
-0.4062113165855407,-0.0781250074505806,0.9062500596046448,13.028441429138184,4.526598930358887,74.62518310546875,34.75,0
-0.406225174665451,-0.0781250074505806,0.9062500596046448,20.609729766845703,4.523261547088623,74.62332916259766,34.75,0
-0.4062340557575226,-0.0781250074505806,0.9062500596046448,25.177610397338867,4.521120071411133,74.62213897705078,34.75,0
-0.406239777803421,-0.0781250074505806,0.9062500596046448,26.56134033203125,4.519745826721191,74.62137603759766,34.75,0
-0.4062434434890747,-0.0781250074505806,0.9062500596046448,25.3427848815918,4.518863677978516,74.62088775634766,34.75,0
-0.4062457978725433,-0.0781250074505806,0.9062500596046448,22.833984375,4.5182976722717285,74.62056732177734,34.75,0
-0.4006495177745819,-0.0781250074505806,0.9062500596046448,19.73004722595215,4.517934322357178,74.620361328125,34.75,0
-0.4026559293270111,-0.0781250074505806,0.9062500596046448,16.08296775817871,4.517701148986816,74.62023162841797,34.75,0
-0.4039435386657715,-0.0781250074505806,0.9062500596046448,12.692788124084473,4.517551898956299,74.62014770507812,34.75,0
-0.4047698378562927,-0.0781250074505806,0.9062500596046448,10.538661003112791,4.512406826019287,74.6200942993164,34.71,0
-0.3997023403644562,-0.0781250074505806,0.9062500596046448,9.24224853515625,4.5091047286987305,74.62006378173828,34.71,0
-0.4020480811595917,-0.0781250074505806,0.9062500596046448,7.786917209625244,4.506985664367676,74.62004089355469,34.71,0
-0.4035534560680389,-0.0781250074505806,0.9062500596046448,5.796109676361084,4.5056257247924805,74.62002563476562,34.71,0
-0.4045195281505584,-0.0781250074505806,0.9062500596046448,3.3040308952331543,4.504753112792969,74.6200180053711,34.71,0
-0.4051394760608673,-0.0781250074505806,0.9062500596046448,0.5798292756080627,4.504193305969238,74.62001037597656,34.71,0
-0.405537337064743,-0.0781250074505806,0.9062500596046448,-1.7380359172821045,4.503833770751953,74.62001037597656,34.71,0
-0.4057926535606384,-0.0781250074505806,0.9062500596046448,-3.4798712730407715,4.503602981567383,74.62001037597656,34.71,0
-0.405956506729126,-0.0781250074505806,0.9062500596046448,-5.622297763824463,4.499782562255859,74.62001037597656,34.71,0
-0.4004638791084289,-0.0781250074505806,0.9062500596046448,-8.967599868774414,4.497330665588379,74.62001037597656,34.71,0
-0.4025368094444275,-0.0781250074505806,0.9062500596046448,-11.884676933288574,4.495757102966309,74.62001037597656,34.71,0
-0.403867095708847,-0.0781250074505806,0.9062500596046448,-10.7616548538208,4.494747638702393,74.62001037597656,34.71,0
-0.4047207832336426,-0.0781250074505806,0.9062500596046448,-3.921924829483032,4.4940996170043945,74.62001037597656,34.71,0
-0.4052686393260956,-0.0781250074505806,0.9062500596046448,6.113559246063232,4.493683815002441,74.62001037597656,34.71,0
-0.4056202173233032,-0.0781250074505806,0.9062500596046448,15.280095100402832,4.493416786193848,74.62001037597656,34.71,0
-0.4058458507061004,-0.0781250074505806,0.9062500596046448,21.29520606994629,4.493245601654053,74.62001037597656,34.71,0
-0.4059906303882599,-0.0781250074505806,0.9062500596046448,23.76531791687012,4.490840435028076,74.54835510253906,34.71,0
-0.4060835540294647,-0.0781250074505806,0.9062500596046448,23.247522354125977,4.489296913146973,74.50237274169922,34.71,0
-0.4061431884765625,-0.0781250074505806,0.9062500596046448,20.919734954833984,4.488306522369385,74.47286224365234,34.71,0
-0.4061814546585083,-0.0781250074505806,0.9062500596046448,17.83523178100586,4.4876708984375,74.45392608642578,34.71,0
-0.4062060117721557,-0.0781250074505806,0.9062500596046448,14.19346046447754,4.487262725830078,74.4417724609375,34.71,0
-0.4062217772006988,-0.0781250074505806,0.9062500596046448,9.821478843688965,4.487000942230225,74.43397521972656,34.71,0
-0.4062318801879883,-0.0781250074505806,0.9062500596046448,5.117027282714844,4.486833095550537,74.42897033691406,34.71,0
-0.4062383770942688,-0.0781250074505806,0.9062500596046448,0.908565878868103,4.486725330352783,74.4257583618164,34.71,0
-0.4062425494194031,-0.0781250074505806,0.9062500596046448,-2.480036735534668,4.4829840660095215,74.42369842529297,34.71,0
-0.4062452316284179,-0.0781250074505806,0.9062500596046448,-5.51804780960083,4.480583190917969,74.42237091064453,34.71,0
-0.406246930360794,-0.0781250074505806,0.9062500596046448,-8.678579330444336,4.479042530059815,74.42152404785156,34.71,0
-0.4062480330467224,-0.0781250074505806,0.9062500596046448,-11.96789264678955,4.478053569793701,74.42097473144531,34.71,0
-0.4062487483024597,-0.0781250074505806,0.9062500596046448,-15.060410499572754,4.477418899536133,74.42062377929688,34.71,0
-0.4062491953372955,-0.0781250074505806,0.9062500596046448,-17.485666275024414,4.477011680603027,74.42040252685547,34.71,0
-0.4062494933605194,-0.0781250074505806,0.9062500596046448,-19.328662872314453,4.476750373840332,74.42025756835938,34.71,0
-0.4062496721744537,-0.0781250074505806,0.9062500596046448,-21.611242294311523,4.4765825271606445,74.420166015625,34.71,0
-0.4062497913837433,-0.0781250074505806,0.9062500596046448,-25.200538635253903,4.474179267883301,74.42010498046875,34.73,0
-0.4062498807907104,-0.0781250074505806,0.9062500596046448,-29.53884506225586,4.472637176513672,74.4200668334961,34.73,0
-0.4062499105930328,-0.0781250074505806,0.9062500596046448,-32.29425811767578,4.4716477394104,74.4200439453125,34.73,0
-0.4062499403953552,-0.0781250074505806,0.9062500596046448,-30.26141166687012,4.471012592315674,74.42002868652344,34.73,0
-0.4062499701976776,-0.0781250074505806,0.9062500596046448,-21.977991104125977,4.47060489654541,74.4200210571289,34.73,0
-0.4062499701976776,-0.0781250074505806,0.9062500596046448,-9.815866470336914,4.470343589782715,74.42001342773438,34.73,0
-0.4062499701976776,-0.0781250074505806,0.9062500596046448,1.9370832443237305,4.470175743103027,74.42000579833984,34.73,0
-0.4062499701976776,-0.0781250074505806,0.9062500596046448,10.68319606781006,4.470067977905273,74.42000579833984,34.73,0
-0.4062499701976776,-0.0781250074505806,0.9062500596046448,16.080991744995117,4.468162536621094,74.42000579833984,34.73,0
-0.4062499701976776,-0.0781250074505806,0.9062500596046448,18.53828430175781,4.466939449310303,74.42000579833984,34.73,0
-0.4062499701976776,-0.0781250074505806,0.9062500596046448,18.57830810546875,4.4661545753479,74.42000579833984,34.73,0
-0.4062499701976776,-0.0781250074505806,0.9062500596046448,16.90226936340332,4.465651035308838,74.42000579833984,34.73,0
-0.4062499701976776,-0.0781250074505806,0.9062500596046448,14.314836502075195,4.465327739715576,74.42000579833984,34.73,0
-0.4062499701976776,-0.0781250074505806,0.9062500596046448,11.565268516540527,4.465120315551758,74.42000579833984,34.73,0
-0.4062499701976776,-0.0781250074505806,0.9062500596046448,9.263367652893066,4.464987277984619,74.42000579833984,34.73,0
-0.4062499701976776,-0.0781250074505806,0.9062500596046448,7.685827732086182,4.464901924133301,74.42000579833984,34.73,0
-0.4062499701976776,-0.0781250074505806,0.9062500596046448,6.712862014770508,4.459797859191895,74.35910034179688,34.73,0
-0.4062499701976776,-0.0781250074505806,0.9062500596046448,6.045477390289307,4.456522464752197,74.32001495361328,34.73,0
-0.4062499701976776,-0.0781250074505806,0.9062500596046448,5.2589311599731445,4.454420566558838,74.29492950439453,34.73,0
-0.4062499701976776,-0.0781250074505806,0.9062500596046448,3.68656325340271,4.453071594238281,74.2788314819336,34.73,0
-0.4062499701976776,-0.0781250074505806,0.9062500596046448,1.0366884469985962,4.452205657958984,74.26850128173828,34.73,0
-0.4062499701976776,-0.0781250074505806,0.9062500596046448,-1.9284977912902832,4.451650142669678,74.26187133789062,34.73,0
-0.4006521999835968,-0.0781250074505806,0.9118478298187256,-4.343691825866699,4.451293468475342,74.25762176513672,34.73,0
-0.4026576578617096,-0.0837227776646614,0.9098423719406128,-6.470418930053711,4.451064586639404,74.25489044189453,34.73,0
-0.4039446413516998,-0.0817173346877098,0.9085553884506226,-9.13570499420166,4.448622703552246,74.25313568115234,34.73,0
-0.40477055311203,-0.0804303511977195,0.90772944688797,-12.533525466918944,4.447055339813232,74.25201416015625,34.73,0
-0.4053005874156952,-0.0796044394373893,0.9071994423866272,-15.262185096740724,4.446049690246582,74.25128936767578,34.73,0
-0.4056407213211059,-0.0790744200348854,0.906859278678894,-14.082735061645508,4.445404529571533,74.25082397460938,34.73,0
-0.4058589935302734,-0.0787342861294746,0.9066410064697266,-6.569094181060791,4.444990158081055,74.25052642822266,34.73,0
-0.4059990644454956,-0.0785160064697265,0.9065009355545044,5.296072006225586,4.444724559783936,74.25033569335938,34.73,0
-0.4060889780521393,-0.0783759281039238,0.9064110517501832,16.485862731933594,4.444553852081299,74.25021362304688,34.73,0
-0.4061466753482818,-0.0782860293984413,0.9063533544540404,23.85670280456543,4.444444179534912,74.25013732910156,34.73,0
-0.4061836898326874,-0.0782283395528793,0.906316339969635,27.54793739318848,4.442078590393066,74.25009155273438,34.71,0
-0.4062074422836303,-0.0781913176178932,0.9062925577163696,28.37983512878418,4.440560340881348,74.25006103515625,34.71,0
-0.4062227010726928,-0.0781675577163696,0.9062772989273072,26.624431610107425,4.439586162567139,74.25003814697266,34.71,0
-0.406232476234436,-0.0781523138284683,0.906267523765564,23.008026123046875,4.438961029052734,74.2500228881836,34.71,0
-0.4062387645244598,-0.0781425312161445,0.9062612652778624,18.795623779296875,4.438559532165527,74.25001525878906,34.71,0
-0.4062427878379822,-0.0781362503767013,0.9062572121620178,14.505266189575195,4.438302040100098,74.25000762939453,34.71,0
-0.4062453806400299,-0.0781322196125984,0.9062546491622924,9.939178466796877,4.438137054443359,74.25000762939453,34.71,0
-0.4062470495700836,-0.0781296342611312,0.9062529802322388,5.525739669799805,4.438031196594238,74.25000762939453,34.71,0
-0.4062480926513672,-0.0781279727816581,0.9062519073486328,2.11665415763855,4.435667991638184,74.25000762939453,34.71,0
-0.4062487781047821,-0.0781269073486328,0.9062512516975404,-0.3433766961097717,4.434151649475098,74.25000762939453,34.71,0
-0.4062492251396179,-0.0781262218952179,0.906250774860382,-2.61710262298584,4.433178424835205,74.25000762939453,34.71,0
-0.4062494933605194,-0.0781257823109626,0.9062504768371582,-5.17609977722168,4.432553768157959,74.25000762939453,34.71,0
-0.4062496721744537,-0.0781254991889,0.906250298023224,-8.097295761108398,4.432153224945068,74.25000762939453,34.71,0
-0.4062497913837433,-0.0781253203749656,0.9062501788139344,-11.322583198547363,4.431895732879639,74.25000762939453,34.71,0
-0.4062498807907104,-0.0781252086162567,0.9062501192092896,-14.753765106201172,4.4317307472229,74.25000762939453,34.71,0
-0.4062499105930328,-0.0781251341104507,0.9062500596046448,-18.467548370361328,4.431624889373779,74.25000762939453,34.71,0
-0.4062499403953552,-0.0781250894069671,0.9062500596046448,-22.824838638305664,4.430179595947266,74.1998519897461,34.71,0
-0.4062499701976776,-0.0781250596046447,0.9062500596046448,-28.18263816833496,4.4292521476745605,74.16766357421875,34.71,0
-0.4062499701976776,-0.0781250372529029,0.9062500596046448,-33.766929626464844,4.428657054901123,74.14700317382812,34.71,0
-0.4062499701976776,-0.0781250223517417,0.9062500596046448,-36.6591682434082,4.428275108337402,74.13374328613281,34.71,0
-0.4062499701976776,-0.0781250149011612,0.9062500596046448,-33.44947814941406,4.428030014038086,74.12523651123047,34.71,0
-0.4062499701976776,-0.0781250074505806,0.9062500596046448,-23.94867515563965,4.427872657775879,74.11978149414062,34.71,0
-0.4062499701976776,-0.0781250074505806,0.9062500596046448,-11.793471336364746,4.42777156829834,74.11627960205078,34.71,0
-0.4062499701976776,-0.0781250074505806,0.9062500596046448,-0.987179696559906,4.427706718444824,74.11402893066406,34.71,0
-0.4062499701976776,-0.0781250074505806,0.9062500596046448,6.671356201171875,4.42445182800293,74.11258697509766,34.71,0
-0.4062499701976776,-0.0781250074505806,0.9062500596046448,11.145506858825684,4.42236328125,74.11166381835938,34.71,0
-0.4062499701976776,-0.0781250074505806,0.9062500596046448,13.010056495666504,4.421022891998291,74.11106872558594,34.71,0
-0.4062499701976776,-0.0781250074505806,0.9062500596046448,13.035114288330078,4.420162677764893,74.11068725585938,34.71,0
-0.4062499701976776,-0.0781250074505806,0.9062500596046448,12.026577949523926,4.419610500335693,74.11044311523438,34.71,0
-0.4062499701976776,-0.0781250074505806,0.9062500596046448,10.573278427124023,4.419256210327148,74.11028289794922,34.71,0
-0.4062499701976776,-0.0781250074505806,0.9062500596046448,8.895458221435547,4.419029235839844,74.11018371582031,34.71,0
-0.4062499701976776,-0.0781250074505806,0.9062500596046448,7.213274955749512,4.418883323669434,74.11011505126953,34.71,0
-0.4062499701976776,-0.0781250074505806,0.9062500596046448,6.1516594886779785,4.416953086853027,74.11007690429688,34.73,0
-0.4062499701976776,-0.0781250074505806,0.9062500596046448,6.136734485626221,4.415714740753174,74.11004638671875,34.73,0
-0.4062499701976776,-0.0781250074505806,0.9062500596046448,6.632299900054932,4.414919853210449,74.11003112792969,34.73,0
-0.4062499701976776,-0.0781250074505806,0.9062500596046448,6.728205680847168,4.414409637451172,74.11002349853516,34.73,0
-0.4062499701976776,-0.0781250074505806,0.9062500596046448,6.080402374267578,4.4140825271606445,74.11001586914062,34.73,0
-0.4062499701976776,-0.0781250074505806,0.9062500596046448,4.697383880615234,4.413872241973877,74.1100082397461,34.73,0
-0.4062499701976776,-0.0781250074505806,0.9062500596046448,2.702826499938965,4.4137372970581055,74.1100082397461,34.73,0
-0.4062499701976776,-0.0781250074505806,0.9062500596046448,0.5916768312454224,4.413650989532471,74.1100082397461,34.73,0
-0.4062499701976776,-0.0781250074505806,0.9062500596046448,-1.2252897024154663,4.409923076629639,74.1100082397461,34.73,0
-0.4062499701976776,-0.0781250074505806,0.9062500596046448,-3.394435405731201,4.407530784606934,74.1100082397461,34.73,0
-0.4062499701976776,-0.0781250074505806,0.9062500596046448,-7.154551029205322,4.40599536895752,74.1100082397461,34.73,0
-0.4062499701976776,-0.0781250074505806,0.9062500596046448,-11.767278671264648,4.405010223388672,74.1100082397461,34.73,0
-0.4062499701976776,-0.0781250074505806,0.9062500596046448,-13.398324966430664,4.404377937316895,74.1100082397461,34.73,0
-0.4062499701976776,-0.0781250074505806,0.9062500596046448,-8.583943367004395,4.403972148895264,74.1100082397461,34.73,0
-0.4062499701976776,-0.0781250074505806,0.9062500596046448,1.8821728229522705,4.403711795806885,74.1100082397461,34.73,0
-0.4062499701976776,-0.0781250074505806,0.9062500596046448,14.20545482635498,4.403544425964356,74.1100082397461,34.73,0
-0.4062499701976776,-0.0781250074505806,0.9062500596046448,25.16618156433105,4.40343713760376,74.11717224121094,34.73,0
-0.4062499701976776,-0.0781250074505806,0.9062500596046448,32.963233947753906,4.4033684730529785,74.12176513671875,34.73,0
-0.4062499701976776,-0.0781250074505806,0.9062500596046448,36.69153594970703,4.403324127197266,74.12471771240234,34.73,0
-0.4062499701976776,-0.0781250074505806,0.9062500596046448,36.70173263549805,4.403295993804932,74.1266098022461,34.73,0
-0.4062499701976776,-0.0781250074505806,0.9062500596046448,34.27928924560547,4.40327787399292,74.12782287597656,34.73,0
-0.4062499701976776,-0.0781250074505806,0.9062500596046448,30.58949089050293,4.403265953063965,74.12860107421875,34.73,0
-0.4062499701976776,-0.0781250074505806,0.9062500596046448,26.5234489440918,4.403258323669434,74.12910461425781,34.73,0
-0.4062499701976776,-0.0781250074505806,0.900652289390564,22.77842140197754,4.403253555297852,74.12942504882812,34.73,0
-0.4062499701976776,-0.0781250074505806,0.902657687664032,19.60482406616211,4.401873588562012,74.12963104248047,34.73,0
-0.4062499701976776,-0.0781250074505806,0.9039446711540222,16.711957931518555,4.4009881019592285,74.1297607421875,34.73,0
-0.4062499701976776,-0.0781250074505806,0.90477055311203,13.547842025756836,4.40041971206665,74.12984466552734,34.73,0
-0.4062499701976776,-0.0781250074505806,0.9053005576133728,9.611364364624023,4.400054931640625,74.12989807128906,34.73,0
-0.4062499701976776,-0.0781250074505806,0.905640721321106,4.752902984619141,4.3998212814331055,74.12993621826172,34.73,0
-0.4062499701976776,-0.0781250074505806,0.9058589935302734,-0.6721566319465637,4.399671077728272,74.12995910644531,34.73,0
-0.4062499701976776,-0.0781250074505806,0.9059990644454956,-5.927022457122803,4.3995747566223145,74.12997436523438,34.73,0
-0.4062499701976776,-0.0781250074505806,0.9060889482498168,-10.40272617340088,4.399512767791748,74.1299819946289,34.73,0
-0.4062499701976776,-0.0781250074505806,0.9061466455459596,-14.33183479309082,4.395341396331787,74.12998962402344,34.71,0
-0.4062499701976776,-0.0781250074505806,0.906183660030365,-18.945533752441406,4.392664432525635,74.12998962402344,34.71,0
-0.4062499701976776,-0.0781250074505806,0.9062074422836304,-25.53190803527832,4.390946865081787,74.12998962402344,34.71,0
-0.4062499701976776,-0.0781250074505806,0.9062227010726928,-33.8714599609375,4.3898444175720215,74.12998962402344,34.71,0
-0.4062499701976776,-0.0781250074505806,0.906232476234436,-40.98234939575195,4.389136791229248,74.12998962402344,34.71,0
-0.4062499701976776,-0.0781250074505806,0.9062387347221376,-42.08494186401367,4.388682842254639,74.12998962402344,34.71,0
-0.4062499701976776,-0.0781250074505806,0.9062427878379822,-34.692317962646484,4.388391494750977,74.12998962402344,34.71,0
-0.4062499701976776,-0.0781250074505806,0.9062453508377076,-21.525522232055664,4.388204574584961,74.12998962402344,34.71,0
-0.4062499701976776,-0.0781250074505806,0.9062470197677612,-8.070972442626953,4.3853302001953125,74.12998962402344,34.71,0
-0.4062499701976776,-0.0781250074505806,0.9062480926513672,2.0967254638671875,4.383485794067383,74.12998962402344,34.71,0
-0.4062499701976776,-0.0781250074505806,0.9062487483024596,8.496377944946289,4.382302284240723,74.12998962402344,34.71,0
-0.4062499701976776,-0.0781250074505806,0.906249225139618,11.725576400756836,4.381542682647705,74.12998962402344,34.71,0
-0.4062499701976776,-0.0781250074505806,0.9062495231628418,12.171401023864746,4.3810553550720215,74.12998962402344,34.71,0
-0.4062499701976776,-0.0781250074505806,0.906249701976776,10.42618465423584,4.38074254989624,74.12998962402344,34.71,0
-0.4062499701976776,-0.0781250074505806,0.9062498211860656,7.457596302032471,4.380541801452637,74.12998962402344,34.71,0
-0.4062499701976776,-0.0781250074505806,0.9006521105766296,4.277130603790283,4.380413055419922,74.12998962402344,34.71,0
-0.4062499701976776,-0.0781250074505806,0.9026575684547424,1.874250411987305,4.3803300857543945,74.15865325927734,34.71,0
-0.4062499701976776,-0.0781250074505806,0.9039446115493774,0.7406337857246399,4.380277156829834,74.17704772949219,34.71,0
-0.4062499701976776,-0.0781250074505806,0.90477055311203,0.2818370461463928,4.380242824554443,74.18885040283203,34.71,0
-0.4118477404117584,-0.0781250074505806,0.9053005576133728,-0.1773907542228698,4.380220890045166,74.19642639160156,34.71,0
-0.4154400825500488,-0.0781250074505806,0.905640721321106,-0.4792618751525879,4.380207061767578,74.20128631591797,34.71,0
-0.417745441198349,-0.0781250074505806,0.9058589935302734,-0.7625497579574585,4.380198001861572,74.20440673828125,34.71,0
-0.4136271178722381,-0.0781250074505806,0.9059990644454956,-2.022702932357788,4.380192279815674,74.20641326904297,34.71,0
-0.4109842181205749,-0.0781250074505806,0.9060889482498168,-4.705083847045898,4.380188465118408,74.20769500732422,34.71,0
-0.4092881381511688,-0.0781250074505806,0.9061466455459596,-8.235682487487793,4.376513957977295,74.2085189819336,34.71,0
-0.4137974679470062,-0.0781250074505806,0.906183660030365,-12.203140258789062,4.374155521392822,74.20905303955078,34.71,0
-0.411093533039093,-0.0781250074505806,0.9062074422836304,-16.80204200744629,4.3726420402526855,74.20938873291016,34.71,0
-0.4093582928180694,-0.0781250074505806,0.9062227010726928,-22.28981590270996,4.371670722961426,74.20960998535156,34.71,0
-0.4082447290420532,-0.0781250074505806,0.906232476234436,-28.269201278686523,4.371047496795654,74.20974731445312,34.71,0
-0.4131278693675995,-0.0781250074505806,0.9062387347221376,-32.58649063110352,4.370647430419922,74.2098388671875,34.71,0
-0.4106638133525848,-0.0781250074505806,0.9062427878379822,-31.434158325195312,4.370390892028809,74.20989990234375,34.71,0
-0.4090825319290161,-0.0781250074505806,0.9062453508377076,-22.48697662353516,4.3702263832092285,74.2099380493164,34.71,0
-0.4136655330657959,-0.0781250074505806,0.9062470197677612,-7.803082466125488,4.369202613830566,74.2099609375,34.68,0
-0.4166066348552704,-0.0781250074505806,0.9062480926513672,7.760729789733887,4.3685455322265625,74.20997619628906,34.68,0
-0.4184940755367279,-0.0781250074505806,0.9062487483024596,20.59683609008789,4.368123531341553,74.2099838256836,34.68,0
-0.4141075313091278,-0.0781250074505806,0.906249225139618,29.525747299194336,4.367853164672852,74.20999145507812,34.68,0
-0.4168902933597564,-0.0781250074505806,0.900651752948761,34.3458366394043,4.367679595947266,74.20999145507812,34.68,0
-0.4186761081218719,-0.0781250074505806,0.902657389640808,35.3217887878418,4.367568016052246,74.20999145507812,34.68,0
-0.4142243564128876,-0.0781250074505806,0.903944492340088,33.49045181274414,4.367496490478516,74.20999145507812,34.68,0
-0.4169652462005615,-0.0781250074505806,0.9047704339027404,30.23014640808105,4.367450714111328,74.20999145507812,34.68,0
-0.4187242090702057,-0.0781250074505806,0.905300498008728,26.626022338867188,4.367879867553711,74.20999145507812,34.68,0
-0.4142552316188812,-0.0781250074505806,0.9056406617164612,23.252660751342773,4.368155479431152,74.20999145507812,34.68,0
-0.4113872945308685,-0.0781250074505806,0.9058589339256288,20.271005630493164,4.368332386016846,74.20999145507812,34.68,0
-0.4151445925235748,-0.0781250074505806,0.9059990644454956,17.852407455444336,4.368445873260498,74.20999145507812,34.68,0
-0.4175558090209961,-0.0781250074505806,0.9060889482498168,15.93844985961914,4.368518829345703,74.20999145507812,34.68,0
-0.41910320520401,-0.0781250074505806,0.9061466455459596,13.463445663452148,4.368565559387207,74.20999145507812,34.68,0
-0.420096218585968,-0.0781250074505806,0.906183660030365,9.123712539672852,4.368595600128174,74.20999145507812,34.68,0
-0.4207334816455841,-0.0781250074505806,0.9062074422836304,3.13589859008789,4.368614673614502,74.20999145507812,34.68,0
-0.421142429113388,-0.0781250074505806,0.9062227010726928,-3.124974250793457,4.364036560058594,74.25298309326172,34.68,0
-0.4214048683643341,-0.0781250074505806,0.906232476234436,-9.041606903076172,4.361098766326904,74.28057861328125,34.68,0
-0.4215733110904693,-0.0781250074505806,0.9062387347221376,-15.238886833190918,4.359213352203369,74.29828643798828,34.68,0
-0.4216814041137695,-0.0781250074505806,0.9006450176239014,-22.562070846557617,4.35800313949585,74.30964660644531,34.68,0
-0.4217507541179657,-0.0781250074505806,0.9026530385017396,-30.70094108581543,4.357226848602295,74.31694030761719,34.68,0
-0.4217952787876129,-0.0781250074505806,0.8983439207077026,-36.89487838745117,4.356728553771973,74.32161712646484,34.68,0
-0.4162260591983795,-0.0781250074505806,0.8955785632133484,-36.60294342041016,4.356408596038818,74.32462310791016,34.68,0
-0.4126520752906799,-0.0781250074505806,0.8994016647338867,-27.326601028442383,4.356203556060791,74.32655334472656,34.68,0
-0.4159562587738037,-0.0781250074505806,0.9018551111221312,-11.546573638916016,4.356071949005127,74.32778930664062,34.68,0
-0.4180766940116882,-0.0781250074505806,0.903429627418518,5.261643409729004,4.355987548828125,74.32858276367188,34.68,0
-0.4194374680519104,-0.0781250074505806,0.9044400453567504,19.068300247192383,4.35593318939209,74.32909393310547,34.68,0
-0.4203107357025146,-0.0781250074505806,0.8994907140731812,28.82784652709961,4.355898380279541,74.32942199707031,34.68,0
-0.4208711385726928,-0.0781250074505806,0.901912271976471,34.83659744262695,4.3558759689331055,74.32962799072266,34.68,0
-0.4212307929992676,-0.0781250074505806,0.9034662842750548,37.3742790222168,4.355861663818359,74.32976531982422,34.68,0
-0.4214615821838379,-0.0781250074505806,0.898865818977356,36.94641876220703,4.3558526039123535,74.32984924316406,34.68,0
-0.4216096997261047,-0.0781250074505806,0.901511251926422,34.486473083496094,4.355846405029297,74.32990264892578,34.68,0
-0.4217047393321991,-0.0781250074505806,0.9032089710235596,30.98397827148437,4.354465484619141,74.32994079589844,34.68,0
-0.4217657446861267,-0.0781250074505806,0.8987006545066833,27.199352264404297,4.353579521179199,74.32996368408203,34.68,0
-0.4218048751354217,-0.0781250074505806,0.9014052748680116,23.488035202026367,4.353010654449463,74.3299789428711,34.68,0
-0.4162322282791137,-0.0781250074505806,0.9031409621238708,19.69479179382324,4.3526458740234375,74.32998657226562,34.68,0
-0.4182537794113159,-0.0781250074505806,0.9042547941207886,15.555200576782228,4.35241174697876,74.32999420166016,34.68,0
-0.4195511043071747,-0.0781250074505806,0.8993718028068542,11.078700065612791,4.352261543273926,74.32999420166016,34.68,0
-0.4203836619853973,-0.0781250074505806,0.9018359780311584,6.436147689819336,4.352165222167969,74.32999420166016,34.68,0
-0.4209179580211639,-0.0781250074505806,0.9034173488616944,1.7228585481643677,4.352103233337402,74.32999420166016,34.68,0
-0.4212608337402344,-0.0781250074505806,0.90443217754364,-3.297353982925415,4.348850250244141,74.32999420166016,34.68,0
-0.4214808642864227,-0.0781250074505806,0.905083417892456,-9.030423164367676,4.346762657165527,74.32999420166016,34.68,0
-0.4216220676898956,-0.0781250074505806,0.9055013656616212,-15.242457389831545,4.345422744750977,74.32999420166016,34.68,0
-0.4161148965358734,-0.0781250074505806,0.9057695865631104,-21.102670669555664,4.344563007354736,74.32999420166016,34.68,0
-0.4181784987449646,-0.0781250074505806,0.9059417247772216,-26.64037704467773,4.344011306762695,74.32999420166016,34.68,0
-0.4195027947425842,-0.0781250074505806,0.9004544019699097,-33.22501754760742,4.34365701675415,74.32999420166016,34.68,0
-0.4203526675701141,-0.0781250074505806,0.9025307297706604,-41.02606964111328,4.343430042266846,74.32999420166016,34.68,0
-0.4208980500698089,-0.0781250074505806,0.9038631916046144,-46.11115264892578,4.343284130096436,74.32999420166016,34.68,0
-0.42124804854393,-0.0781250074505806,0.904718279838562,-42.51383209228516,4.341354370117188,74.37298583984375,34.68,0
-0.4214726686477661,-0.0781250074505806,0.905267059803009,-28.583406448364254,4.340116024017334,74.40057373046875,34.68,0
-0.421616792678833,-0.0781250074505806,0.905619204044342,-9.139548301696776,4.339321136474609,74.41828155517578,34.68,0
-0.4217092990875244,-0.0781250074505806,0.9058451652526855,9.464605331420898,4.33881139755249,74.42964172363281,34.68,0
-0.4217686653137207,-0.0781250074505806,0.9003924131393433,23.832666397094727,4.338484287261963,74.43693542480469,34.68,0
-0.4218067526817322,-0.0781250074505806,0.9024909138679504,33.12491226196289,4.338274002075195,74.44161224365234,34.68,0
-0.4162334203720093,-0.0781250074505806,0.9038376212120056,37.647945404052734,4.338139057159424,74.44461822509766,34.68,0
-0.418254554271698,-0.0781250074505806,0.9047018885612488,38.63030624389648,4.338052749633789,74.44654846191406,34.68,0
-0.4195516109466553,-0.0781250074505806,0.899658739566803,37.33330535888672,4.336160659790039,74.44778442382812,34.68,0
-0.4203839898109436,-0.0781250074505806,0.9020200967788696,33.86777114868164,4.334946632385254,74.44857788085938,34.68,0
-0.4153203666210174,-0.0781250074505806,0.9035354852676392,27.993144989013672,4.33416748046875,74.44908905029297,34.68,0
-0.4176686108112335,-0.0781250074505806,0.8989102244377136,20.92359733581543,4.333667278289795,74.44941711425781,34.68,0
-0.4191755950450897,-0.0781250074505806,0.9015397429466248,14.950155258178713,4.333346366882324,74.44962310791016,34.68,0
-0.4145449101924896,-0.0781250074505806,0.9032272100448608,10.837303161621094,4.3331403732299805,74.44976043701172,34.68,0
-0.411573201417923,-0.0781250074505806,0.9043101668357848,7.2019548416137695,4.333008289337158,74.44984436035156,34.68,0
-0.4096661210060119,-0.0781250074505806,0.9050050973892212,2.855590581893921,4.332923412322998,74.44989776611328,34.68,0
-0.4084422588348388,-0.0781250074505806,0.9054511189460754,-1.9398984909057615,4.331491947174072,74.44993591308594,34.66,0
-0.4132546484470367,-0.0781250074505806,0.9057373404502868,-6.833733081817627,4.330573558807373,74.44995880126953,34.66,0
-0.416342943906784,-0.0781250074505806,0.9059209823608398,-12.338814735412598,4.329984188079834,74.4499740600586,34.66,0
-0.4127270579338074,-0.0781250074505806,0.9060388803482056,-18.719806671142575,4.329605579376221,74.44998168945312,34.66,0
-0.4160043895244598,-0.0781250074505806,0.9061145186424256,-25.068199157714844,4.329362869262695,74.44998931884766,34.66,0
-0.4181075692176819,-0.0781250074505806,0.9005652666091919,-30.385387420654297,4.329206943511963,74.44998931884766,34.66,0
-0.4194572865962982,-0.0781250074505806,0.9026018381118774,-34.8939208984375,4.32910680770874,74.44998931884766,34.66,0
-0.4203234612941742,-0.0781250074505806,0.8983110189437866,-39.68241882324219,4.329042911529541,74.44998931884766,34.66,0
-0.4152815341949463,-0.0781250074505806,0.9011552333831788,-45.63579177856445,4.326247215270996,74.44998931884766,34.66,0
-0.4176436960697174,-0.0781250074505806,0.9029804468154908,-52.18266677856445,4.324453353881836,74.44998931884766,34.66,0
-0.4191595911979675,-0.0781250074505806,0.9041517972946168,-55.5994873046875,4.323302268981934,74.44998931884766,34.66,0
-0.4145346283912658,-0.0781250074505806,0.9049034714698792,-50.3726921081543,4.322563648223877,74.44998931884766,34.66,0
-0.4115665853023529,-0.0781250074505806,0.9053858518600464,-35.1135368347168,4.322089195251465,74.44998931884766,34.66,0
-0.4152596592903137,-0.0781250074505806,0.9056954383850098,-15.039097785949709,4.321784973144531,74.44998931884766,34.66,0
-0.4176296591758728,-0.0781250074505806,0.905894100666046,3.3642702102661133,4.321589946746826,74.44998931884766,34.66,0
-0.4135528206825256,-0.0781250074505806,0.9060215950012208,17.38494110107422,4.321464538574219,74.44998931884766,34.66,0
-0.4109365344047546,-0.0781250074505806,0.9061034321784972,26.84475326538086,4.320466041564941,74.4894027709961,34.66,0
-0.4148553311824798,-0.0781250074505806,0.9061559438705444,31.693857192993164,4.319825649261475,74.51469421386719,34.66,0
-0.4117724001407623,-0.0781250074505806,0.9061896204948424,32.47347640991211,4.319414615631104,74.53092193603516,34.66,0
-0.4097939729690552,-0.0781250074505806,0.906211256980896,30.60929107666016,4.319150447845459,74.54133605957031,34.66,0
-0.4141221046447754,-0.0781250074505806,0.9062251448631288,27.245506286621094,4.318981170654297,74.54801940917969,34.66,0
-0.4168996512889862,-0.0781250074505806,0.9062340259552002,22.94802474975586,4.318872451782227,74.55230712890625,34.66,0
-0.4186820983886719,-0.0781250074505806,0.9006419777870178,18.796527862548828,4.318802833557129,74.55506134033203,34.66,0
-0.4142282009124756,-0.0781250074505806,0.902651071548462,16.20040512084961,4.318758010864258,74.55683135986328,34.66,0
-0.4113699495792389,-0.0781250074505806,0.9039404392242432,15.1720609664917,4.315515995025635,74.55796813964844,34.66,0
-0.4151334762573242,-0.0781250074505806,0.9047678709030152,14.103714942932127,4.3134355545043945,74.5586929321289,34.66,0
-0.4175486862659454,-0.0781250074505806,0.9052988290786744,11.838196754455566,4.312100410461426,74.55915832519531,34.66,0
-0.4135008454322815,-0.0781250074505806,0.9056395888328552,8.979947090148926,4.311243534088135,74.55945587158203,34.66,0
-0.4165009558200836,-0.0781250074505806,0.905858278274536,6.353938102722168,4.310693740844727,74.55964660644531,34.66,0
-0.4184262454509735,-0.0781250074505806,0.9059985876083374,3.33241605758667,4.310340881347656,74.55976867675781,34.66,0
-0.4196617901325226,-0.0781250074505806,0.906088650226593,-0.9102193117141724,4.31011438369751,74.55985260009766,34.66,0
-0.4148569107055664,-0.0781250074505806,0.9061464667320251,-5.456429481506348,4.309968948364258,74.55990600585938,34.66,0
-0.4173711836338043,-0.0781250074505806,0.9061835408210754,-9.047449111938477,4.310793876647949,74.5599365234375,34.68,0
-0.4189847111701965,-0.0781250074505806,0.9062073230743408,-12.838727951049805,4.311323165893555,74.5599594116211,34.68,0
-0.4144223928451538,-0.0781250074505806,0.906222641468048,-19.284236907958984,4.311662673950195,74.55997467041016,34.68,0
-0.4114945828914642,-0.0781250074505806,0.9062324166297911,-27.78775405883789,4.311880588531494,74.55998229980469,34.68,0
-0.4152134358882904,-0.0781250074505806,0.9062387347221376,-33.12659454345703,4.312020301818848,74.55998992919922,34.68,0
-0.4120022058486938,-0.0781250074505806,0.9062427878379822,-29.24430274963379,4.31210994720459,74.55998992919922,34.68,0
-0.4099414348602295,-0.0781250074505806,0.9062453508377076,-14.84797191619873,4.312167644500732,74.55998992919922,34.68,0
-0.4086189568042755,-0.0781250074505806,0.9062470197677612,5.04892635345459,4.312204837799072,74.55998992919922,34.68,0
-0.4133680462837219,-0.0781250074505806,0.9062480926513672,23.47091484069824,4.310851573944092,74.55998992919922,34.68,0
-0.410817950963974,-0.0781250074505806,0.9062487483024596,36.45742416381836,4.309982776641846,74.55998992919922,34.68,0
-0.4147792160511017,-0.0781250074505806,0.906249225139618,43.48736190795898,4.309425354003906,74.55998992919922,34.68,0
-0.4173213243484497,-0.0781250074505806,0.9062495231628418,45.40498352050781,4.309067726135254,74.55998992919922,34.68,0
-0.4189527034759521,-0.0781250074505806,0.906249701976776,43.647735595703125,4.308838367462158,74.55998992919922,34.68,0
-0.4199996292591095,-0.0781250074505806,0.9062498211860656,39.804443359375,4.308691024780273,74.55998992919922,34.68,0
-0.4150737226009369,-0.0781250074505806,0.9062498807907104,34.62961196899414,4.308596611022949,74.55998992919922,34.68,0
-0.4119125604629516,-0.0781250074505806,0.9062499403953552,28.546537399291992,4.308535575866699,74.55998992919922,34.68,0
-0.4098839163780212,-0.0781250074505806,0.9062499403953552,22.815656661987305,4.305283546447754,74.58506774902344,34.68,0
-0.4085820317268371,-0.0781250074505806,0.9062499403953552,18.66142463684082,4.303196430206299,74.60116577148438,34.68,0
-0.4133443236351013,-0.0781250074505806,0.9062499403953552,15.690958976745604,4.301856994628906,74.61149597167969,34.68,0
-0.4108027219772339,-0.0781250074505806,0.9062499403953552,12.498540878295898,4.300997734069824,74.61812591552734,34.68,0
-0.4147694408893585,-0.0781250074505806,0.9062499403953552,8.515239715576172,4.300446033477783,74.62237548828125,34.68,0
-0.4117172956466675,-0.0781250074505806,0.9062499403953552,4.386235237121582,4.3000922203063965,74.62510681152344,34.68,0
-0.4153563678264618,-0.0781250074505806,0.9062499403953552,0.5219846963882446,4.299865245819092,74.62686157226562,34.68,0
-0.417691707611084,-0.0781250074505806,0.9006521701812744,-3.784982442855835,4.299719333648682,74.62798309326172,34.68,0
-0.4191904067993164,-0.0781250074505806,0.9026576280593872,-9.20363426208496,4.299625873565674,74.62870788574219,34.68,0
-0.4145544171333313,-0.0781250074505806,0.9039446115493774,-15.156573295593262,4.29956579208374,74.6291732788086,34.68,0
-0.4115793108940124,-0.0781250074505806,0.8991727828979492,-20.52449989318848,4.299527168273926,74.62947082519531,34.68,0
-0.4152678251266479,-0.0781250074505806,0.896110475063324,-25.09067153930664,4.299502372741699,74.6296615600586,34.68,0
-0.4120371341705322,-0.0781250074505806,0.8997430205345154,-30.14544486999512,4.299486637115479,74.6297836303711,34.68,0
-0.409963846206665,-0.0781250074505806,0.9020742177963256,-37.365966796875,4.299476623535156,74.6298599243164,34.68,0
-0.4086333215236664,-0.0781250074505806,0.9035702347755432,-45.78288269042969,4.299469947814941,74.6299057006836,34.68,0
-0.4077794849872589,-0.0781250074505806,0.9045302867889404,-49.98062896728516,4.299465656280518,74.62993621826172,34.68,0
-0.4128293097019195,-0.0781250074505806,0.9051463603973388,-43.81837463378906,4.296708583831787,74.62995910644531,34.65,0
-0.4160699844360351,-0.0781250074505806,0.905541718006134,-26.96652030944824,4.2949395179748535,74.62997436523438,34.65,0
-0.4125519096851349,-0.0781250074505806,0.9057954549789428,-5.812656402587891,4.293804168701172,74.6299819946289,34.65,0
-0.4102942049503326,-0.0781250074505806,0.9059582948684692,12.76395034790039,4.2930755615234375,74.62998962402344,34.65,0
-0.4088453352451324,-0.0781250074505806,0.9060627818107604,26.222272872924805,4.29260778427124,74.62998962402344,34.65,0
-0.4135133028030395,-0.0781250074505806,0.9061298370361328,34.64409255981445,4.2923078536987305,74.62998962402344,34.65,0
-0.4109111726284027,-0.0781250074505806,0.9061728715896606,38.25027847290039,4.292115211486816,74.62998962402344,34.65,0
-0.4148390591144562,-0.0781250074505806,0.9062005281448364,37.96715545654297,4.291991710662842,74.62998962402344,34.65,0
-0.4173597395420074,-0.0781250074505806,0.9062182307243348,35.40304946899414,4.286862850189209,74.62998962402344,34.65,0
-0.4189773797988891,-0.0781250074505806,0.9062296152114868,31.156604766845703,4.283571243286133,74.62998962402344,34.65,0
-0.4144177138805389,-0.0781250074505806,0.9062369465827942,25.146259307861328,4.281458854675293,74.62998962402344,34.65,0
-0.4170893430709839,-0.0781250074505806,0.9062415957450868,18.516252517700195,4.2801032066345215,74.62998962402344,34.65,0
-0.4188038408756256,-0.0781250074505806,0.9062446355819702,13.172392845153809,4.279233455657959,74.62998962402344,34.65,0
-0.4199041128158569,-0.0781250074505806,0.906246542930603,9.488648414611816,4.278675079345703,74.62998962402344,34.65,0
-0.4206101894378662,-0.0781250074505806,0.9062477946281432,5.988956451416016,4.278316974639893,74.62998962402344,34.65,0
-0.4154655337333679,-0.0781250074505806,0.9062485694885254,1.3964684009552002,4.278087139129639,74.62998962402344,34.65,0
-0.4177617728710174,-0.0781250074505806,0.9062491059303284,-3.98687744140625,4.2802348136901855,74.64432525634766,34.65,0
-0.4192353785037994,-0.0781250074505806,0.9062494039535522,-9.308120727539062,4.281612873077393,74.65352630615234,34.65,0
-0.4201810359954834,-0.0781250074505806,0.9006518721580505,-14.585927963256836,4.282497406005859,74.659423828125,34.65,0
-0.420787900686264,-0.0781250074505806,0.9026574492454528,-20.441314697265625,4.283064842224121,74.66321563720703,34.65,0
-0.4155795872211456,-0.0781250074505806,0.903944492340088,-26.853654861450195,4.283429145812988,74.66564178466797,34.65,0
-0.4178349673748016,-0.0781250074505806,0.9047704339027404,-33.039451599121094,4.283662796020508,74.66720581054688,34.65,0
-0.4192823469638824,-0.0781250074505806,0.8997027277946472,-38.70728302001953,4.283812999725342,74.66820526123047,34.65,0
-0.4202111959457397,-0.0781250074505806,0.9020483493804932,-44.67682647705078,4.283909320831299,74.6688461303711,34.65,0
-0.420807272195816,-0.0781250074505806,0.9035536050796508,-51.88252258300781,4.280757904052734,74.66925811767578,34.65,0
-0.4211897850036621,-0.0781250074505806,0.8989218473434448,-59.66655731201172,4.278735637664795,74.66952514648438,34.65,0
-0.4214352667331695,-0.0781250074505806,0.9015471935272216,-64.50785064697266,4.277437686920166,74.66969299316406,34.65,0
-0.4215928018093109,-0.0781250074505806,0.9032320380210876,-61.10517501831055,4.276604652404785,74.6697998046875,34.65,0
-0.42169389128685,-0.0781250074505806,0.9043132662773132,-47.00946807861328,4.27607011795044,74.66986846923828,34.65,0
-0.421758770942688,-0.0781250074505806,0.9050071239471436,-26.03367805480957,4.275727272033691,74.66991424560547,34.65,0
-0.4218004047870636,-0.0781250074505806,0.9054523706436156,-4.945320129394531,4.27550745010376,74.6699447631836,34.65,0
-0.4218271374702453,-0.0781250074505806,0.905738115310669,12.016499519348145,4.275366306304932,74.66996765136719,34.65,0
-0.4218442738056183,-0.0781250074505806,0.9059215188026428,23.671873092651367,4.272980213165283,74.66997528076172,34.71,0
-0.4218552708625793,-0.0781250074505806,0.9060391783714294,29.87264060974121,4.271449089050293,74.66998291015625,34.71,0
-0.4218623340129852,-0.0781250074505806,0.90611469745636,31.397872924804688,4.270466327667236,74.66999053955078,34.71,0
-0.4218668639659881,-0.0781250074505806,0.9061631560325624,30.198471069335938,4.269835472106934,74.66999053955078,34.71,0
-0.4218697845935821,-0.0781250074505806,0.906194269657135,27.949161529541016,4.269430637359619,74.66999053955078,34.71,0
-0.4162738919258117,-0.0781250074505806,0.9062142372131348,25.30193901062012,4.269170761108398,74.66999053955078,34.71,0
-0.41828054189682,-0.0781250074505806,0.9006292819976807,22.89375305175781,4.2690043449401855,74.66999053955078,34.71,0
-0.41956827044487,-0.0781250074505806,0.9026429653167723,21.6528377532959,4.268897533416748,74.66999053955078,34.71,0
-0.4203946590423584,-0.0781250074505806,0.9039351940155028,21.4906063079834,4.268370151519775,74.66999053955078,34.71,0
-0.4209249913692474,-0.0781250074505806,0.9047644734382628,21.13929748535156,4.268031597137451,74.66999053955078,34.71,0
-0.4212653338909149,-0.0781250074505806,0.9052966833114624,19.882064819335938,4.267814159393311,74.66999053955078,34.71,0
-0.4214837551116943,-0.0781250074505806,0.9056382179260254,18.06854248046875,4.267674922943115,74.66999053955078,34.71,0
-0.4216239154338836,-0.0781250074505806,0.9058573842048644,15.607834815979004,4.267585277557373,74.66999053955078,34.71,0
-0.4217138588428497,-0.0781250074505806,0.9059980511665344,11.717933654785156,4.267528057098389,74.66999053955078,34.71,0
