acc_x,acc_y,acc_z,bvp,eda,hr,temp,label
0.0,0.0,0.0,0.0,0.0,0.0,24.19,0
-0.0052083330228924,-0.0989583283662796,0.1249999925494194,-0.0566666647791862,0.2570126354694366,12.428332328796388,24.19,0
-0.0080030485987663,-0.2317073196172714,0.2926829159259796,-0.1326829344034195,0.6017857789993286,29.100486755371094,24.19,0
-0.0104339700192213,-0.342192679643631,0.4385381937026977,-0.19242525100708,0.9016790390014648,43.60239028930664,24.19,0
-0.0175456590950489,-0.4601651132106781,0.5556238889694214,-0.2770078778266907,1.1204673051834106,54.18231201171875,24.19,0
-0.0333400145173072,-0.5455271601676941,0.6294061541557312,-0.4467033743858337,1.2685961723327637,61.34536743164063,24.19,0
-0.0603626109659671,-0.5737715363502502,0.6667117476463318,-0.7179766297340393,1.3657900094985962,66.04535675048828,24.19,0
-0.0834431573748588,-0.6032227277755737,0.685293436050415,-0.915091633796692,1.428737759590149,69.08930969238281,24.19,0
-0.0815404728055,-0.6333746910095215,0.697263240814209,-0.8596042990684509,1.4381139278411863,71.05014038085938,24.19,0
-0.0859121829271316,-0.6527546644210815,0.6993620991706848,-0.6914591193199158,1.4441404342651367,72.3104476928711,24.19,0
-0.083123005926609,-0.6596031188964844,0.700709879398346,-0.7303357720375061,1.4480103254318235,73.11976623535156,24.19,0
-0.0813326016068458,-0.6584019660949707,0.7015750408172607,-1.0382877588272097,1.4504945278167725,73.63927459716797,24.19,0
-0.0689883902668953,-0.6464359164237976,0.7021303176879883,-1.3147486448287964,1.4520888328552246,73.97270202636719,24.19,0
-0.0778592824935913,-0.621963381767273,0.7024866938591003,-1.2808047533035278,1.453112006187439,74.18668365478516,24.19,0
-0.0779544785618782,-0.6230512857437134,0.7027153968811035,-1.015407681465149,1.4537687301635742,74.32400512695312,24.19,0
-0.0780155658721923,-0.6181516647338867,0.6972643733024597,-0.7806035876274109,1.4541901350021362,74.4121322631836,24.19,0
-0.089250311255455,-0.6373984217643738,0.6993640065193176,-0.7481442093849182,1.4668548107147217,74.46868896484375,24.17,0
-0.0572757273912429,-0.6105654835700989,0.7175047397613525,-0.8885294198989868,1.4749823808670044,74.5049819946289,24.17,0
-0.0927340015769004,-0.6549211740493774,0.7123531103134155,-1.043107032775879,1.4801981449127195,74.52827453613281,24.17,0
-0.0930979922413826,-0.6553972363471985,0.7202426195144653,-1.1673840284347534,1.4835453033447266,74.54322052001953,24.17,0
-0.0877338051795959,-0.6557027697563171,0.7197079062461853,-1.4119364023208618,1.485693335533142,74.55281066894531,24.17,0
-0.0954869240522384,-0.6614965796470642,0.7137669324874878,-1.7981607913970947,1.4870717525482178,74.55896759033203,24.17,0
-0.0948646590113639,-0.6708124876022339,0.7043566107749939,-2.131999254226685,1.487956404685974,74.56291961669922,24.17,0
-0.1000631004571914,-0.6711931228637695,0.6871220469474792,-2.274585962295532,1.488524079322815,74.5654525756836,24.17,0
-0.1201924830675125,-0.6602418422698975,0.6704641580581665,-2.1941263675689697,1.5462690591812134,74.56708526611328,24.17,0
-0.1331103593111038,-0.6532139778137207,0.6541762948036194,-1.7878170013427734,1.5833264589309692,74.56813049316406,24.17,0
-0.1469980776309967,-0.6375083327293396,0.6381258964538574,-0.9753544330596924,1.6071077585220337,74.56880187988281,24.17,0
-0.1559104174375534,-0.6330271363258362,0.6222279071807861,0.0762585029006004,1.6223692893981934,74.56922912597656,24.17,0
-0.1560320705175399,-0.635749101638794,0.6120254993438721,0.955329954624176,1.632163166999817,74.56950378417969,24.17,0
-0.1561101526021957,-0.6374959349632263,0.6166737079620361,1.390494704246521,1.6384483575820925,74.5696792602539,24.17,0
-0.1505624800920486,-0.6442147493362427,0.6252544522285461,1.74499249458313,1.642481803894043,74.56979370117188,24.17,0
-0.1526000797748565,-0.6709175705909729,0.6475543975830078,2.821559190750122,1.6450703144073486,74.56986999511719,24.17,0
-0.1539076864719391,-0.6936516761779785,0.6674630045890808,5.063693046569824,1.663716435432434,74.56275177001953,24.17,0
-0.1547468453645706,-0.7138388752937317,0.6970325112342834,8.404912948608398,1.6756824254989624,74.55818176269531,24.17,0
-0.1440898180007934,-0.7100005745887756,0.7104107141494751,13.18947410583496,1.683361530303955,74.55525207519531,24.17,0
-0.1260551959276199,-0.701939582824707,0.7133983373641968,20.55543708801269,1.6882895231246948,74.55337524414062,24.17,0
-0.1032860651612281,-0.6855709552764893,0.6761311888694763,31.186573028564453,1.6914520263671875,74.55216979980469,24.17,0
-0.0998696982860565,-0.6806643009185791,0.6130308508872986,43.93818664550781,1.6934815645217896,74.5513916015625,24.17,0
-0.1368616968393325,-0.7055043578147888,0.5501455664634705,56.746543884277344,1.6947839260101318,74.55089569091797,24.17,0
-0.1829921305179596,-0.73264080286026,0.4873983561992645,68.9106216430664,1.6956197023391724,74.55057525634766,24.17,0
-0.2014004290103912,-0.7444576621055603,0.4359352588653564,81.42433166503906,1.702582597732544,74.55036926269531,24.17,0
-0.1796271651983261,-0.7576388120651245,0.3805181086063385,94.64248657226562,1.707050919532776,74.55023956298828,24.17,0
-0.1600565761327743,-0.8052821159362793,0.3337590098381042,106.67188262939452,1.7099183797836304,74.55015563964844,24.17,0
-0.1530950665473938,-0.8582479357719421,0.3037517070770263,114.9935302734375,1.7117586135864258,74.55010223388672,24.17,0
-0.1318342536687851,-0.9706072211265564,0.3012880682945251,119.6496124267578,1.7129396200180054,74.55006408691406,24.17,0
-0.0790058597922325,-1.0651040077209473,0.3109025955200195,123.55475616455078,1.7136974334716797,74.55004119873047,24.17,0
-0.0115169892087578,-1.1481376886367798,0.2778882384300232,128.00978088378906,1.7141838073730469,74.5500259399414,24.17,0
-0.0073909405618906,-1.179032802581787,0.2343104183673858,126.76312255859376,1.7144958972930908,74.55001831054688,24.17,0
-0.0719163715839386,-1.159675121307373,0.2399313300848007,106.792724609375,1.7225000858306885,74.55001068115234,24.21,0
-0.1637050509452819,-1.1024702787399292,0.1987563073635101,61.6047248840332,1.727636694908142,74.55001068115234,24.21,0
-0.2170119732618332,-1.0601617097854614,0.1611369997262954,4.08478307723999,1.7309330701828003,74.55001068115234,24.21,0
-0.2288301885128021,-1.0609993934631348,0.1481906473636627,-41.902870178222656,1.7330485582351685,74.55001068115234,24.21,0
-0.2196211069822311,-1.0671347379684448,0.1510779708623886,-62.70586013793945,1.7344061136245728,74.55001068115234,24.21,0
-0.2193090319633484,-1.059876561164856,0.1529308855533599,-62.20219802856445,1.73527729511261,74.55001068115234,24.21,0
-0.2359020709991455,-1.0048387050628662,0.148522213101387,-54.95027542114258,1.735836386680603,74.55001068115234,24.21,0
-0.2409527599811554,-0.9527252316474916,0.1456929743289947,-57.10688781738281,1.7361952066421509,74.55001068115234,24.21,0
-0.255389541387558,-0.891292929649353,0.1382795572280883,-74.19330596923828,1.7524923086166382,74.55001068115234,24.21,0
-0.2702520191669464,-0.8518692255020142,0.1391198337078094,-94.98538970947266,1.762950778007507,74.55001068115234,24.21,0
-0.2629965841770172,-0.8321671485900879,0.1564523875713348,-105.00750732421876,1.7696624994277954,74.55001068115234,24.21,0
-0.2527426779270172,-0.8083279132843018,0.1899665296077728,-102.30713653564452,1.773969650268555,74.55001068115234,24.21,0
-0.2573578655719757,-0.793029248714447,0.2282672971487045,-93.87120056152344,1.7767337560653689,74.55001068115234,24.21,0
-0.2771129608154297,-0.8167980909347534,0.2640420794486999,-84.5094985961914,1.7785075902938845,74.55001068115234,24.21,0
-0.295388400554657,-0.8600404858589172,0.2814024984836578,-74.89404296875,1.779645919799805,74.55001068115234,24.21,0
-0.2903231978416443,-0.9437686800956726,0.2757501006126404,-64.61418914794922,1.780376434326172,74.55001068115234,24.21,0
-0.2702793180942535,-1.0870649814605713,0.2553293704986572,-53.71449279785156,1.7826813459396362,74.55717468261719,24.21,0
-0.2630141079425812,-1.229404330253601,0.2366267591714859,-42.854095458984375,1.7841604948043823,74.561767578125,24.21,0
-0.2807427942752838,-1.3319450616836548,0.1910378485918045,-32.58855056762695,1.7851097583770752,74.5647201538086,24.21,0
-0.2977178394794464,-1.336174249649048,0.1561837345361709,-22.622344970703125,1.7857189178466797,74.56661224365234,24.21,0
-0.3086114227771759,-1.1989439725875854,0.1114252805709838,-12.511476516723633,1.7861098051071167,74.56782531738281,24.21,0
-0.2988089919090271,-1.0493019819259644,0.0715063288807869,-2.7627596855163574,1.7863606214523315,74.568603515625,24.21,0
-0.2869205772876739,-0.9532703161239624,0.0402908697724342,5.675195217132568,1.7865216732025146,74.56910705566406,24.21,0
-0.245704635977745,-0.970011591911316,0.0258563607931137,12.899389266967772,1.7866250276565552,74.56942749023438,24.21,0
-0.196863517165184,-1.0031462907791138,0.022190898656845,20.541242599487305,1.7912817001342771,74.56963348388672,24.21,0
-0.1655200868844986,-1.041203498840332,0.0198386162519454,30.421541213989254,1.7942700386047363,74.56976318359375,24.21,0
-0.1454056799411773,-1.032039761543274,0.0071335076354444,40.43428802490234,1.7961877584457395,74.5698471069336,24.21,0
-0.1436929702758789,-1.0093656778335571,-0.0066176736727356,42.141639709472656,1.797418475151062,74.56990051269531,24.21,0
-0.1705827116966247,-0.9500325918197632,-0.0210401657968759,28.59891700744629,1.798208236694336,74.56993865966797,24.21,0
-0.193436786532402,-0.8951627016067505,-0.0191001407802104,4.739352226257324,1.798715114593506,74.56996154785156,24.21,0
-0.2025054395198822,-0.8375592827796936,0.0157315023243427,-17.12845802307129,1.7990403175354004,74.56997680664062,24.21,0
-0.1915318518877029,-0.7893971800804138,0.0492799952626228,-30.567251205444336,1.7992490530014038,74.56998443603516,24.21,0
-0.1676963120698928,-0.7640873193740845,0.0708094835281372,-36.86640548706055,1.8007601499557495,74.56999206542969,24.19,0
-0.1412044912576675,-0.7702359557151794,0.0678325518965721,-38.16816711425781,1.801729917526245,74.56999206542969,24.19,0
-0.129801332950592,-0.8021706938743591,0.0603243522346019,-36.17691040039063,1.8023523092269895,74.56999206542969,24.19,0
-0.1224834471940994,-0.867446780204773,0.0611037947237491,-33.68812561035156,1.8027516603469849,74.56999206542969,24.19,0
-0.1121894717216491,-0.9877060651779176,0.0616039969027042,-32.373992919921875,1.803007960319519,74.56999206542969,24.19,0
-0.1055833920836448,-1.109663724899292,0.0619249977171421,-31.32286834716797,1.8031724691390991,74.56999206542969,24.19,0
-0.1349306404590606,-1.1655380725860596,0.0677287727594375,-29.100645065307617,1.803277969360352,74.56999206542969,24.19,0
-0.1817528903484344,-1.1622105836868286,0.0882466211915016,-25.79369735717773,1.8033456802368164,74.56999206542969,24.19,0
-0.2397895753383636,-1.0817062854766846,0.1126093491911888,-22.456995010375977,1.808438777923584,74.56999206542969,24.19,0
-0.2490453124046325,-1.0300432443618774,0.1002550721168518,-19.46303939819336,1.8117072582244875,74.56999206542969,24.19,0
-0.2269962430000305,-1.013682246208191,0.086729034781456,-16.348691940307617,1.8138047456741333,74.56999206542969,24.19,0
-0.1960530877113342,-1.0087804794311523,0.0780488029122352,-13.210824012756348,1.8151508569717407,74.56999206542969,24.19,0
-0.1761955618858337,-0.9944392442703248,0.0780761018395423,-10.975001335144045,1.8160146474838257,74.56999206542969,24.19,0
-0.1914410144090652,-0.9460514783859252,0.0724958479404449,-9.837532997131348,1.8165689706802368,74.56999206542969,24.19,0
-0.2348113059997558,-0.8982056379318237,0.0801103115081787,-8.727818489074707,1.8169246912002563,74.56999206542969,24.19,0
-0.2626438736915588,-0.861903190612793,0.0849968343973159,-6.905069351196289,1.817152976989746,74.56999206542969,24.19,0
-0.2861029803752899,-0.8218130469322205,0.0713393986225128,-5.033148765563965,1.8195948600769043,74.54491424560547,24.19,0
-0.3067554533481598,-0.7960854768753052,0.0737703889608383,-3.982326030731201,1.8211619853973389,74.52882385253906,24.19,0
-0.3256067931652069,-0.7907705307006836,0.1033193320035934,-3.4154458045959477,1.8221676349639893,74.51850128173828,24.19,0
-0.3265089690685272,-0.8097508549690247,0.1222821474075317,-2.4390342235565186,1.8228130340576167,74.51187133789062,24.19,0
-0.3326857089996338,-0.8499201536178589,0.1344513893127441,-1.0278453826904297,1.8232271671295168,74.50762176513672,24.19,0
-0.3254540264606476,-0.9708606600761414,0.153456449508667,0.1106417924165725,1.8234928846359253,74.50489044189453,24.19,0
-0.3096176087856293,-1.0596688985824585,0.1600550413131714,0.6728761792182922,1.8236634731292725,74.50313568115234,24.19,0
-0.2770636081695556,-1.133454203605652,0.1474963128566742,1.0050252676010132,1.82377290725708,74.50201416015625,24.19,0
-0.25057452917099,-1.2423808574676514,0.1282412856817245,1.4510468244552612,1.824302077293396,74.50128936767578,24.19,0
-0.2503687143325805,-1.3066860437393188,0.1046889722347259,2.034631490707397,1.8246417045593264,74.50082397460938,24.19,0
-0.2782254815101623,-1.2359979152679443,0.0839766785502433,2.602601766586304,1.824859619140625,74.50052642822266,24.19,0
-0.296102374792099,-1.1514499187469482,0.053891398012638,2.959927082061768,1.824999451637268,74.50033569335938,24.19,0
-0.2851836383342743,-1.0803985595703125,0.0289866235107183,2.9921963214874268,1.8250892162323,74.50021362304688,24.19,0
-0.2669810652732849,-1.023606300354004,-0.0821579992771148,2.7513768672943115,1.8251467943191528,74.50013732910156,24.19,0
-0.2720930278301239,-1.026344656944275,-0.1366908848285675,2.26007080078125,1.8251837491989136,74.50009155273438,24.19,0
-0.0850492417812347,-1.039297580718994,-0.0709270164370536,1.3679840564727783,1.8252074718475344,74.50006103515625,24.19,0
-0.020993061363697,-1.0420122146606443,-0.0287235528230667,-0.0034201922826468,1.8247637748718264,74.50003814697266,24.17,0
-0.1478187292814254,-0.9989721775054932,-0.0464219935238361,-1.5104591846466064,1.8244789838790891,74.5000228881836,24.17,0
-0.2292081415653228,-0.965753734111786,-0.0689753890037536,-2.570736885070801,1.824296236038208,74.50001525878906,24.17,0
-0.2478525340557098,-0.9276427626609802,-0.0834488570690155,-2.871409177780152,1.82417905330658,74.50000762939453,24.17,0
-0.2150352299213409,-0.8751964569091797,-0.0759437680244445,-2.623706579208374,1.824103832244873,74.50000762939453,24.17,0
-0.1883772015571594,-0.8359416723251343,-0.0655296593904495,-2.310694694519043,1.824055552482605,74.50000762939453,24.17,0
-0.1712696105241775,-0.7939568758010864,-0.0532487109303474,-2.310445785522461,1.8240245580673216,74.50000762939453,24.17,0
-0.1602909415960312,-0.8006001114845276,-0.0453675054013729,-2.7437777519226074,1.8240046501159668,74.50000762939453,24.17,0
-0.1420499235391616,-0.8384499549865723,-0.0347120277583599,-3.426696300506592,1.8226147890090945,74.50000762939453,24.17,0
-0.1191483363509178,-0.9075220227241516,-0.0222761817276477,-3.911527633666992,1.8217227458953855,74.50000762939453,24.17,0
-0.0932558700442314,-0.963044047355652,-0.0142955714836716,-3.8608243465423584,1.821150302886963,74.50000762939453,24.17,0
-0.0934328958392143,-1.093837022781372,-0.0091740749776363,-3.3768813610076904,1.820783019065857,74.50000762939453,24.17,0
-0.1103398203849792,-1.2057613134384155,0.0276992544531822,-2.7546305656433105,1.8205472230911253,74.50000762939453,24.17,0
-0.1435808092355728,-1.2160123586654663,0.0569602064788341,-1.9253966808319087,1.820395946502685,74.50000762939453,24.17,0
-0.1593151986598968,-1.07145094871521,0.1037270724773407,-0.5620846152305603,1.8202989101409912,74.50000762939453,24.17,0
-0.1862059384584427,-0.9562886953353882,0.1505326777696609,1.1797940731048584,1.820236563682556,74.50000762939453,24.17,0
-0.2314517349004745,-0.9495574831962584,0.1525809466838836,2.4552645683288574,1.8243277072906492,74.47850799560547,24.17,0
-0.2045101374387741,-0.9452378153800964,0.1371020823717117,2.607429265975952,1.826953172683716,74.46471405029297,24.17,0
-0.1872205734252929,-0.9424656629562378,0.1327664256095886,1.8954176902771,1.828637957572937,74.45586395263672,24.17,0
-0.198516234755516,-0.9294911026954652,0.1187884956598281,1.0838147401809692,1.8297191858291624,74.45018005371094,24.17,0
-0.2169606834650039,-0.9155670404434204,0.1042204871773719,0.6382086873054504,1.8304131031036377,74.446533203125,24.17,0
-0.2455905973911285,-0.8898380398750305,0.0892738103866577,0.5027125477790833,1.8308583498001096,74.4441909790039,24.17,0
-0.2583658397197723,-0.8509355783462524,0.0852796658873558,0.4085938036441803,1.831144094467163,74.44268798828125,24.17,0
-0.2665642499923706,-0.8259701728820801,0.0883142277598381,0.2299688011407852,1.831327438354492,74.44172668457031,24.17,0
-0.2774232923984527,-0.8043510317802429,0.1182505041360855,0.0365208983421325,1.8305273056030276,74.44110870361328,24.17,0
-0.2731964588165283,-0.7904771566390991,0.1374618858098983,-0.0589622370898723,1.830013871192932,74.44071197509766,24.17,0
-0.2760817110538482,-0.8263558745384216,0.1553884148597717,0.0123174907639622,1.8296843767166135,74.44046020507812,24.17,0
-0.2779332995414734,-0.9109562635421752,0.1780881881713867,0.2300243526697158,1.829472899436951,74.44029998779297,24.17,0
-0.284719318151474,-0.9932368397712708,0.1926555931568145,0.4413875937461853,1.8293371200561523,74.44019317626953,24.17,0
-0.2946719527244568,-1.085224151611328,0.2020041048526764,0.54478520154953,1.8292500972747805,74.44012451171875,24.17,0
-0.2898634374141693,-1.1834408044815063,0.2080034464597702,0.6003920435905457,1.829194188117981,74.44007873535156,24.17,0
-0.2755820453166961,-1.2912527322769165,0.206255704164505,0.5823386907577515,1.8291583061218264,74.44004821777344,24.17,0
-0.2888081669807434,-1.242887020111084,0.1771452277898788,0.3772940337657928,1.8332667350769043,74.44003295898438,24.19,0
-0.302893728017807,-1.144675374031067,0.1472682505846023,0.1633089333772659,1.835903286933899,74.44002532958984,24.19,0
-0.3175308108329773,-1.031268835067749,0.1168993860483169,0.1979492306709289,1.8375952243804927,74.44001770019531,24.19,0
-0.3269240260124206,-0.9640887975692748,0.0862148478627204,0.3778127133846283,1.8386809825897217,74.44001007080078,24.19,0
-0.3049632012844085,-0.9713565111160278,0.0497299507260322,0.4502478241920471,1.839377760887146,74.44001007080078,24.19,0
-0.2796744406223297,-1.015204906463623,0.0151204969733953,0.3211863040924072,1.839824914932251,74.44001007080078,24.19,0
-0.2634455859661102,-1.037746548652649,-0.0014920849353075,0.0090772183611989,1.8401118516922,74.44001007080078,24.19,0
-0.2530308365821838,-1.024223566055298,-0.0177508573979139,-0.2485376149415969,1.840296030044556,74.44001007080078,24.19,0
-0.2407494634389877,-1.004349708557129,-0.0337825752794742,-0.1451668292284011,1.8431684970855715,74.44001007080078,24.19,0
-0.2272702157497406,-0.980400323867798,-0.0440708100795745,0.0859690606594085,1.8450119495391848,74.44001007080078,24.19,0
-0.2074244618415832,-0.9426398873329164,-0.0450754314661026,-0.1132110580801963,1.8461949825286863,74.44001007080078,24.19,0
-0.1890908181667328,-0.9016140699386596,-0.0401223674416542,-0.7784197330474854,1.846954107284546,74.44001007080078,24.19,0
-0.1661297976970672,-0.8584927320480347,-0.0313460007309913,-1.513413906097412,1.84744131565094,74.44001007080078,24.19,0
-0.1569925099611282,-0.8364177346229553,-0.0257138330489397,-2.1857151985168457,1.847754001617432,74.44001007080078,24.19,0
-0.1287376284599304,-0.8446423411369324,-0.0053061097860336,-2.867939710617065,1.8479546308517456,74.44001007080078,24.19,0
-0.088214173913002,-0.8555182218551636,0.0133881671354174,-3.406064033508301,1.8480833768844604,74.44001007080078,24.19,0
-0.0678063258528709,-0.8680955171585083,0.0309828519821167,-3.5866029262542725,1.8591830730438232,74.41851043701172,24.19,0
-0.0715030655264854,-0.9209490418434144,0.0590674318373203,-3.509003162384033,1.8663063049316408,74.40471649169922,24.19,0
-0.0738754272460937,-0.9940518140792848,0.0826882719993591,-3.462786912918091,1.8708775043487549,74.39585876464844,24.19,0
-0.0865934193134307,-1.0745515823364258,0.1090423166751861,-3.440293073654175,1.87381112575531,74.39017486572266,24.19,0
-0.1283417344093322,-1.0534406900405884,0.1483459174633026,-2.963705539703369,1.875693678855896,74.38652801513672,24.19,0
-0.1719267219305038,-0.9951107501983644,0.1791664808988571,-1.522182583808899,1.8769018650054927,74.38418579101562,24.19,0
-0.2110926061868667,-0.9464824199676514,0.1821520328521728,0.6711355447769165,1.8776772022247317,74.38268280029297,24.19,0
-0.2082381546497345,-0.9320688247680664,0.1672746539115905,2.562328577041626,1.8781747817993164,74.38172149658203,24.19,0
-0.1672219038009643,-0.9731990098953248,0.1465316712856292,3.267261743545532,1.8881341218948364,74.381103515625,24.19,0
-0.1576933562755584,-1.0219850540161133,0.1612088829278946,3.0067148208618164,1.894525408744812,74.38070678710938,24.19,0
-0.1739695817232132,-1.0364998579025269,0.1650301069021225,2.6066431999206543,1.898626923561096,74.38045501708984,24.19,0
-0.2235991507768631,-0.9954346418380736,0.1674823462963104,2.3857262134552,1.9012590646743772,74.38029479980469,24.19,0
-0.2554485499858856,-0.9466902613639832,0.1578605026006698,2.14005970954895,1.902948260307312,74.38018798828125,24.19,0
-0.2814854383468628,-0.8930178284645081,0.1348924338817596,1.810441374778748,1.9040322303771973,74.38011932373047,24.19,0
-0.3037921786308288,-0.8473783731460571,0.1257506161928177,1.5415900945663452,1.904727935791016,74.38007354736328,24.19,0
-0.3125095963478088,-0.8124918341636658,0.1310794800519943,1.3332310914993286,1.9051743745803835,74.38004302978516,24.19,0
-0.3069083988666534,-0.8236902952194214,0.1680858880281448,1.0633803606033323,1.9059197902679443,74.3800277709961,24.17,0
-0.3033138513565063,-0.8588657379150391,0.1918344646692276,0.8149716258049011,1.906398177146912,74.38002014160156,24.17,0
-0.328995943069458,-0.9206237196922302,0.2238682508468628,0.763034462928772,1.9067051410675049,74.38001251220703,24.17,0
-0.3342816829681396,-0.9938430786132812,0.2444256991147995,0.8586768507957458,1.9069021940231323,74.3800048828125,24.17,0
-0.3376737833023071,-1.052026629447937,0.2520205080509186,0.8949766159057617,1.907028555870056,74.3800048828125,24.17,0
-0.3342528641223907,-1.1285498142242432,0.245698869228363,0.8609505295753479,1.90710973739624,74.3800048828125,24.17,0
-0.3376552760601043,-1.2056468725204468,0.2360442280769348,0.925096333026886,1.907161831855774,74.3800048828125,24.17,0
-0.3398387432098388,-1.243927836418152,0.2130551189184188,1.148972749710083,1.907195210456848,74.3800048828125,24.17,0
-0.3188488781452179,-1.1733322143554688,0.1647153794765472,1.425199031829834,1.91410231590271,74.3800048828125,24.17,0
-0.3109765648841858,-1.1056368350982666,0.1280959397554397,1.645456075668335,1.9185349941253664,74.3800048828125,24.17,0
-0.2835334837436676,-1.0733894109725952,0.0934001505374908,1.6829097270965576,1.921379566192627,74.3800048828125,24.17,0
-0.2435309886932373,-1.0694881677627563,0.065536618232727,1.277036190032959,1.923205018043518,74.3800048828125,24.17,0
-0.1954685896635055,-1.083777904510498,0.0308620799332857,0.3072200715541839,1.9243764877319336,74.3800048828125,24.17,0
-0.1534293591976165,-1.0929481983184814,0.0030121838208287,-0.8525384664535522,1.9251283407211304,74.3800048828125,24.17,0
-0.1320487707853317,-1.0820399522781372,-0.0148602770641446,-1.6218827962875366,1.9256107807159424,74.3800048828125,24.17,0
-0.1407190412282943,-1.013464093208313,-0.0319275669753551,-1.864823341369629,1.9259203672409055,74.3800048828125,24.17,0
-0.1518809050321579,-0.9358693957328796,-0.0428803712129592,-1.9526597261428835,1.927496194839477,74.36209106445312,24.17,0
-0.1758372634649276,-0.8636825084686279,-0.0499092526733875,-2.2633910179138184,1.9285074472427368,74.35059356689453,24.17,0
-0.1856133043766021,-0.839748203754425,-0.048822209239006,-2.8747966289520264,1.9291564226150515,74.34321594238281,24.17,0
-0.1750936806201934,-0.8075952529907227,-0.0425268337130546,-3.63616681098938,1.9295729398727417,74.3384780883789,24.17,0
-0.1459516882896423,-0.7757657766342163,-0.038486823439598,-4.328977108001709,1.9298402070999143,74.33544158935547,24.17,0
-0.1272500455379486,-0.7721327543258667,-0.0302964020520448,-4.812991142272949,1.930011749267578,74.33349609375,24.17,0
-0.115248404443264,-0.8033879399299622,-0.0194424875080585,-5.005378723144531,1.9301217794418333,74.33224487304688,24.17,0
-0.1131442114710807,-0.851434588432312,-0.0124770691618323,-4.763419151306152,1.930192470550537,74.3314437866211,24.17,0
-0.1173916384577751,-0.8990615010261536,-0.0136048393324017,-4.045679092407227,1.935746431350708,74.33092498779297,24.17,0
-0.1201173886656761,-1.0191900730133057,-0.0199263524264097,-3.0405232906341557,1.9393105506896973,74.33059692382812,24.17,0
-0.1442577242851257,-1.1354660987854004,-0.0183853600174188,-1.8330078125,1.941597819328308,74.33038330078125,24.17,0
-0.1933362483978271,-1.1932920217514038,0.0217879805713892,-0.2197711914777755,1.9430656433105469,74.33024597167969,24.17,0
-0.2304297834634781,-1.1408370733261108,0.0923511087894439,1.746980905532837,1.9440076351165767,74.33016204833984,24.17,0
-0.2486365139484405,-1.0735877752304075,0.1432322412729263,3.277822256088257,1.9446121454238887,74.3301010131836,24.17,0
-0.1539628356695175,-1.0752133131027222,0.2094714641571045,3.4720613956451416,1.9450000524520876,74.33006286621094,24.17,0
-0.1379889100790023,-1.0482676029205322,0.2351866662502288,2.453871250152588,1.945249080657959,74.33003997802734,24.17,0
-0.1501288563013076,-1.030975341796875,0.2237003296613693,1.406372308731079,1.949999213218689,74.33002471923828,24.19,0
-0.1859084516763687,-0.9974870681762696,0.1771446466445922,1.3718461990356443,1.953047513961792,74.33001708984375,24.19,0
-0.2144675105810165,-0.9592029452323914,0.1360723376274109,2.3420627117156982,1.9550037384033203,74.33000946044922,24.19,0
-0.2271972894668579,-0.923438847064972,0.104116715490818,3.537904024124145,1.95625913143158,74.33000946044922,24.19,0
-0.2353665381669998,-0.8892919421195984,0.083609439432621,4.222926616668701,1.957064867019653,74.33000946044922,24.19,0
-0.2630001902580261,-0.8505851030349731,0.064851276576519,4.12873125076294,1.957581877708435,74.33000946044922,24.19,0
-0.2583427727222442,-0.842538595199585,0.0808022394776344,3.434166193008423,1.9579136371612549,74.33000946044922,24.19,0
-0.2497561424970626,-0.831777036190033,0.0910386443138122,2.6337592601776123,1.9581265449523928,74.33000946044922,24.19,0
-0.255441278219223,-0.8584575653076172,0.1199988797307014,2.292067766189575,1.955968141555786,74.33000946044922,24.19,0
-0.2534919083118438,-0.8979706764221191,0.1441816687583923,2.603011131286621,1.954583048820496,74.33000946044922,24.19,0
-0.2410453557968139,-0.9401212334632874,0.1429074704647064,3.1930572986602783,1.953694224357605,74.33000946044922,24.19,0
-0.2330578714609146,-0.9783665537834167,0.1308942139148712,3.621870994567871,1.9531238079071045,74.33000946044922,24.19,0
-0.239127516746521,-1.0085079669952393,0.1231847926974296,3.828989982604981,1.952757716178894,74.33000946044922,24.19,0
-0.2206315696239471,-1.0334488153457642,0.1126395538449287,3.901003360748291,1.9525227546691892,74.33000946044922,24.19,0
-0.2143597155809402,-1.071845531463623,0.0946766808629036,3.807497024536133,1.952371954917908,74.33000946044922,24.19,0
-0.2439214438199997,-1.1412684917449951,0.083149142563343,3.593439102172852,1.952275276184082,74.33000946044922,24.19,0
-0.2460991293191909,-1.1298424005508425,0.0645558834075927,3.362922191619873,1.952213168144226,74.4410629272461,24.19,0
-0.2474966496229171,-1.0833253860473633,0.0414282493293285,2.9892873764038086,1.952173352241516,74.51233673095703,24.19,0
-0.2427957206964492,-1.0086911916732788,0.026586266234517,2.215706348419189,1.9521477222442627,74.55807495117188,24.19,0
-0.2341811656951904,-0.9719908833503724,0.0170615352690219,1.0170817375183103,1.952131271362305,74.5874252319336,24.19,0
-0.2118595093488693,-1.0100141763687134,0.0053513366729021,-0.4041553139686584,1.952120780944824,74.60626220703125,24.19,0
-0.158350333571434,-1.0568064451217651,-0.0021635945886373,-1.7067241668701172,1.95211398601532,74.61834716796875,24.19,0
-0.1240112259984016,-1.0756394863128662,-0.0125840194523334,-2.4996469020843506,1.952109694480896,74.62610626220703,24.19,0
-0.1299632340669632,-1.070932149887085,-0.0304667968302965,-2.6430764198303223,1.9521069526672363,74.6310806274414,24.19,0
-0.1393806636333465,-1.0511178970336914,-0.041942935436964,-2.452097654342652,1.951645851135254,74.63427734375,24.19,0
-0.1622175574302673,-0.9936200976371764,-0.0549054332077503,-2.390442371368408,1.9513499736785889,74.6363296508789,24.19,0
-0.171275183558464,-0.9455257654190063,-0.0576262436807155,-2.694802761077881,1.9511600732803345,74.63764190673828,24.19,0
-0.1658923029899597,-0.9090638160705566,-0.0537745282053947,-3.3379456996917725,1.9510382413864136,74.63848876953125,24.19,0
-0.1512423306703567,-0.8744691014289856,-0.0345093980431556,-4.155508995056152,1.9509600400924685,74.63903045654297,24.19,0
-0.1362430453300476,-0.8578659892082214,-0.0221461448818445,-4.87721586227417,1.9509098529815676,74.63937377929688,24.19,0
-0.1266173720359802,-0.8584066033363342,-0.0142121212556958,-5.250801086425781,1.950877666473389,74.63959503173828,24.19,0
-0.120440162718296,-0.881144642829895,-0.020316069945693,-5.2397661209106445,1.9508570432662964,74.63973999023438,24.19,0
-0.1220737621188163,-0.9013344049453736,-0.0242332331836223,-4.98190450668335,1.9490077495574951,74.63983154296875,24.19,0
-0.1343176513910293,-0.9254865646362304,-0.0323448181152343,-4.501157283782959,1.9478209018707275,74.639892578125,24.19,0
-0.1533706337213516,-0.9521815776824952,-0.0375503674149513,-3.5477776527404785,1.947059273719788,74.63993072509766,24.19,0
-0.1767932921648025,-0.9973017573356628,-0.012902115471661,-1.9758230447769165,1.9465705156326292,74.63995361328125,24.19,0
-0.197422370314598,-1.0430506467819214,0.0309045873582363,-0.0606415979564189,1.9462568759918213,74.63996887207031,24.19,0
-0.216258704662323,-1.0668118000030518,0.0758105292916297,1.7595367431640625,1.94605565071106,74.63997650146484,24.19,0
-0.2171512246131897,-1.0260826349258425,0.1158241257071495,3.1748201847076416,1.9459264278411863,74.63998413085938,24.19,0
-0.2065284550189972,-0.9775539040565492,0.135904774069786,3.9075212478637695,1.9458435773849487,74.6399917602539,24.19,0
-0.1997113674879074,-0.9464109539985656,0.1208025068044662,3.7866017818450928,1.9421178102493288,74.6399917602539,24.19,0
-0.2009343206882476,-0.9432185292243958,0.1111107394099235,3.0713040828704834,1.9397268295288088,74.6399917602539,24.19,0
-0.2073169201612472,-0.9691587090492249,0.1160866692662239,2.243261814117432,1.9381924867630005,74.6399917602539,24.19,0
-0.2170106768608093,-0.9914034008979796,0.1248777136206626,1.4288486242294312,1.937207818031311,74.6399917602539,24.19,0
-0.234427124261856,-1.000080943107605,0.1361170709133148,0.5730255842208862,1.9365758895874023,74.6399917602539,24.19,0
-0.2512017786502838,-0.9664652943611144,0.143329843878746,-0.0442613512277603,1.9361703395843504,74.6399917602539,24.19,0
-0.2507712244987488,-0.9336971640586852,0.1423608064651489,-0.0928907543420791,1.9359101057052608,74.6399917602539,24.19,0
-0.2337016016244888,-0.918266236782074,0.141738936305046,0.2628198564052582,1.9357430934906008,74.6399917602539,24.19,0
-0.2059539854526519,-0.9307546615600586,0.1469376385211944,0.6272323131561279,1.930586695671081,74.54684448242188,24.19,0
-0.1881471574306488,-0.9499645829200744,0.150273859500885,0.8324306607246399,1.9272775650024412,74.48706817626953,24.19,0
-0.1823175400495529,-0.9510968327522278,0.1412193030118942,0.8602204918861389,1.925153970718384,74.4487075805664,24.19,0
-0.1841741949319839,-0.9350301027297974,0.1298108398914337,0.7240036129951477,1.9237911701202397,74.4240951538086,24.19,0
-0.1909634619951248,-0.907926082611084,0.1168917715549469,0.6222571730613708,1.9229166507720947,74.40829467773438,24.19,0
-0.1953204274177551,-0.9409122467041016,0.1197966039180755,0.7360909581184387,1.9223554134368896,74.39815521240234,24.19,0
-0.1925186961889267,-0.9620808959007264,0.1216607615351677,0.9667762517929076,1.9219951629638672,74.39164733886719,24.19,0
-0.1963184773921966,-0.964470148086548,0.1004659682512283,1.1327296495437622,1.921764016151428,74.3874740600586,24.19,0
-0.2043547332286834,-0.9492101073265076,0.0756688266992569,1.2858024835586548,1.9197793006896973,74.38479614257812,24.19,0
-0.2039141654968261,-0.9282215237617492,0.0485598966479301,1.4807653427124023,1.9185055494308472,74.3830795288086,24.19,0
-0.1924358904361724,-0.9203500747680664,0.0255651716142892,1.4840737581253052,1.9176881313323972,74.38197326660156,24.19,0
-0.1850697994232177,-0.9152986407279968,0.0052107074297964,1.0921136140823364,1.917163610458374,74.38126373291016,24.19,0
-0.1803426593542099,-0.906459093093872,-0.0134493913501501,0.4679882526397705,1.9168269634246824,74.38081359863281,24.19,0
-0.182906836271286,-0.8951886296272278,-0.0254243668168783,-0.1797372251749038,1.9166109561920168,74.38052368164062,24.19,0
-0.1901501417160034,-0.9047492146492004,-0.0331092178821563,-0.7781215310096741,1.916472315788269,74.38033294677734,24.19,0
-0.200396254658699,-0.9276779890060424,-0.0380409136414527,-1.2409467697143557,1.916383385658264,74.38021087646484,24.19,0
-0.1957760751247406,-0.9479901194572448,-0.0412057936191558,-1.484222650527954,1.9158673286437988,74.38013458251953,24.17,0
-0.1760177910327911,-0.9890141487121582,-0.0432368293404579,-1.5686917304992676,1.9155361652374268,74.38008880615234,24.17,0
-0.1633380502462387,-1.0321342945098877,-0.0501380041241645,-1.5799081325531006,1.9153236150741575,74.38005828857422,24.17,0
-0.1607986986637115,-1.0710018873214722,-0.0657623335719108,-1.6408448219299316,1.915187239646912,74.38003540039062,24.17,0
-0.1647668629884719,-1.090347170829773,-0.0925824493169784,-1.91998302936554,1.9150997400283811,74.38002014160156,24.17,0
-0.1673134118318557,-1.0915662050247192,-0.1153918281197547,-2.382141351699829,1.915043592453003,74.38001251220703,24.17,0
-0.1689476370811462,-1.0699574947357178,-0.1244318038225174,-2.8005354404449463,1.9150075912475584,74.3800048828125,24.17,0
-0.1755941659212112,-1.0448946952819824,-0.1302331387996673,-3.0296285152435303,1.9149844646453855,74.3800048828125,24.17,0
-0.1910550743341446,-1.0120174884796145,-0.133956104516983,-2.972440242767334,1.9131335020065308,74.3800048828125,24.17,0
-0.1953792124986648,-0.9797232747077942,-0.1307475119829177,-2.4520926475524902,1.9119457006454468,74.3800048828125,24.17,0
-0.1981541961431503,-0.958998680114746,-0.1230906471610069,-1.544951319694519,1.911183476448059,74.3800048828125,24.17,0
-0.194337248802185,-0.9512966275215148,-0.1181769147515297,-0.6833593249320984,1.910694360733032,74.3800048828125,24.17,0
-0.1918877512216568,-0.9463538527488708,-0.11502356082201,-0.0516225174069404,1.9103803634643557,74.3800048828125,24.17,0
-0.1791202574968338,-0.9487796425819396,-0.1129999235272407,0.6511435508728027,1.9101788997650144,74.3800048828125,24.17,0
-0.170926809310913,-0.9447386264801024,-0.1117012649774551,1.5105520486831665,1.9100496768951416,74.3800048828125,24.17,0
-0.1600709557533264,-0.9421453475952148,-0.110867865383625,2.1014792919158936,1.9099667072296145,74.3800048828125,24.17,0
-0.1531042903661728,-0.946078896522522,-0.0991374850273132,2.1188621520996094,1.910831332206726,74.2689437866211,24.17,0
-0.1486334949731826,-0.9542009830474854,-0.0748162791132927,1.689360737800598,1.9113861322402956,74.19766998291016,24.17,0
-0.1569599360227584,-0.9874021410942078,-0.0256216805428266,1.1235427856445312,1.911742210388184,74.15193176269531,24.17,0
-0.1567056030035019,-0.9919154047966005,0.0115463528782129,0.8070068955421448,1.9119707345962524,74.1225814819336,24.17,0
-0.1621401607990265,-0.9668229222297668,0.0465942062437534,0.969295084476471,1.9121173620224,74.10374450683594,24.17,0
-0.2328010350465774,-0.9339266419410706,0.1082703247666359,1.3134748935699463,1.9122114181518557,74.0916519165039,24.17,0
-0.2893426716327667,-0.9072179794311525,0.1590460538864135,1.2978997230529783,1.9122718572616575,74.08389282226562,24.17,0
-0.2976389527320862,-0.8620889782905579,0.1972287744283676,0.8508301973342896,1.9123106002807615,74.07891845703125,24.17,0
-0.2805719375610351,-0.8331277966499329,0.2441233396530151,0.3668850660324096,1.9137126207351685,74.07572174072266,24.17,0
-0.258423775434494,-0.8089444041252136,0.2798153460025787,0.1960373818874359,1.914612293243408,74.07366943359375,24.17,0
-0.2106236964464187,-0.7878271341323853,0.2803293168544769,0.3622555136680603,1.915189743041992,74.07235717773438,24.17,0
-0.1687528043985366,-0.7686775326728821,0.2638658285140991,0.6337231993675232,1.915560245513916,74.0715103149414,24.17,0
-0.1474802643060684,-0.7507905960083008,0.2197138667106628,0.7864400744438171,1.9157980680465696,74.07096862792969,24.17,0
-0.1450243145227432,-0.7561051249504089,0.1969774514436721,0.7698025703430176,1.9159506559371948,74.07062530517578,24.17,0
-0.1434482336044311,-0.7707112431526184,0.1655932068824768,0.673143744468689,1.916048526763916,74.07040405273438,24.17,0
-0.1200456917285919,-0.7632912993431091,0.1230615079402923,0.6648523211479187,1.9161113500595093,74.07025909423828,24.17,0
-0.0994295105338096,-0.7641273736953735,0.0901693403720855,0.8171647191047668,1.918905973434448,74.0701675415039,24.17,0
-0.0917970091104507,-0.7982505559921265,0.0634632632136344,0.9184926152229308,1.92069947719574,74.07010650634766,24.17,0
-0.0924966856837272,-0.8425399661064148,0.0351292937994003,0.6897478103637695,1.9218504428863523,74.070068359375,24.17,0
-0.0873479172587394,-0.8877556920051575,0.0169461835175752,0.2133556008338928,1.9225890636444087,74.0700454711914,24.17,0
-0.0784459635615348,-0.9503591656684875,0.0220706332474946,-0.1031132265925407,1.923063039779663,74.07003021240234,24.17,0
-0.0671354234218597,-1.0129255056381226,0.0253592114895582,-0.0912501662969589,1.923367261886597,74.07002258300781,24.17,0
-0.071072518825531,-1.0698703527450562,0.0162740815430879,-0.076471984386444,1.9235624074935915,74.07001495361328,24.17,0
-0.0959902182221412,-1.1064143180847168,0.0160415433347225,-0.4001677334308624,1.9236876964569087,74.07000732421875,24.17,0
-0.1287742853164672,-1.1466593742370603,0.0158923137933015,-0.908833384513855,1.927899479866028,74.07000732421875,24.17,0
-0.1666065454483032,-1.172486424446106,0.0213943216949701,-1.1743619441986084,1.9306023120880127,74.07000732421875,24.17,0
-0.1964828819036483,-1.205854058265686,0.0193274188786745,-1.1118954420089722,1.932336926460266,74.07000732421875,24.17,0
-0.2436446696519851,-1.2552562952041626,0.0347943231463432,-0.9177572727203368,1.9334501028060915,74.07000732421875,24.17,0
-0.2907037138938904,-1.3093509674072266,0.0615134127438068,-0.6570327281951904,1.93416440486908,74.07000732421875,24.17,0
-0.3209035098552704,-1.34406578540802,0.0730624124407768,-0.3714897334575653,1.934622883796692,74.07000732421875,24.17,0
-0.3346862196922302,-1.349550485610962,0.0916694477200508,-0.2742264866828918,1.9349170923233032,74.07000732421875,24.17,0
-0.3435311615467071,-1.3306790590286257,0.1036103665828704,-0.4267630577087402,1.935105800628662,74.07000732421875,24.17,0
-0.3324140012264251,-1.262590765953064,0.1000778153538703,-0.6142166256904602,1.9356862306594849,74.28854370117188,24.17,0
-0.342072993516922,-1.1853089332580566,0.1034086048603057,-0.659279465675354,1.936058759689331,74.42878723144531,24.17,0
-0.3482715785503387,-1.1189205646514893,0.0943505614995956,-0.5377300381660461,1.9362977743148804,74.51878356933594,24.17,0
-0.3578472435474396,-1.0203386545181274,0.0829398557543754,-0.3271712958812713,1.936451196670532,74.5765380859375,24.17,0
-0.3695901334285736,-0.9458788633346558,0.086812674999237,-0.2386203110218048,1.9365496635437007,74.61360168457031,24.17,0
-0.4051149189472198,-0.8868993520736694,0.0892980247735977,-0.4433214068412781,1.936612844467163,74.63739013671875,24.17,0
-0.4167171120643616,-0.8322563767433167,0.0964907556772232,-0.811136782169342,1.9366533756256104,74.65265655517578,24.17,0
-0.4353582859039306,-0.8139829635620117,0.1123021841049194,-1.040014386177063,1.9366793632507324,74.6624526977539,24.17,0
-0.5144944190979004,-0.8134517073631287,0.1336445957422256,-0.911036491394043,1.9389910697937007,74.66873931884766,24.17,0
-0.5596816539764404,-0.7907196283340454,0.1529387086629867,-0.5165818333625793,1.9404746294021609,74.67277526855469,24.17,0
-0.5942779779434204,-0.7313492894172668,0.2212982922792434,-0.2383655160665512,1.9414266347885127,74.67536163330078,24.17,0
-0.5884910225868225,-0.6428688764572144,0.3211452960968017,-0.1565518379211425,1.942037582397461,74.6770248413086,24.17,0
-0.5511906743049622,-0.5636961460113525,0.3908191323280334,0.2362961769104004,1.9424296617507932,74.67809295654297,24.17,0
-0.5440467596054077,-0.4793010056018829,0.4355317652225494,1.1332670450210571,1.9426813125610352,74.67877960205078,24.17,0
-0.5114733576774597,-0.4307388365268707,0.4586279988288879,1.891602635383606,1.9428428411483765,74.67921447753906,24.17,0
-0.4625807404518127,-0.4219655394554138,0.4958409368991852,1.9161065816879272,1.942946434020996,74.67949676513672,24.17,0
-0.4871820211410522,-0.4779108464717865,0.5701020359992981,1.3693673610687256,1.945308208465576,74.67967987060547,24.19,0
-0.5197630524635315,-0.5473999977111816,0.6177585124969482,0.6745743751525879,1.9468239545822144,74.67979431152344,24.19,0
-0.5518671870231628,-0.6199829578399658,0.6315484046936035,-0.0041712317615747,1.9477965831756592,74.67987060546875,24.19,0
-0.5500786900520325,-0.6441714763641357,0.6236045956611633,-0.554393470287323,1.948420763015747,74.67991638183594,24.19,0
-0.56572425365448,-0.6261075735092163,0.579322338104248,-0.8680860996246338,1.9488213062286377,74.67994689941406,24.19,0
-0.5981557965278625,-0.6257107853889465,0.5341112017631531,-1.1088043451309204,1.9490784406661987,74.67996978759766,24.19,0
-0.6301640272140503,-0.6310539245605469,0.5106950402259827,-1.471072793006897,1.949243426322937,74.67997741699219,24.19,0
-0.5779340267181396,-0.6008961796760559,0.4844723641872406,-1.7071385383605957,1.949349284172058,74.67998504638672,24.19,0
-0.6899579167366028,-0.5927382111549377,0.4116664230823517,-1.4752962589263916,1.9388591051101685,74.67999267578125,24.19,0
-0.8122283816337585,-0.5483185052871704,0.38173708319664,-0.9897511005401612,1.9321271181106567,74.67999267578125,24.19,0
-0.8291190266609192,-0.5142146944999695,0.3849212527275085,-0.7426425814628601,1.9278068542480469,74.67999267578125,24.19,0
-0.8231651186943054,-0.486731082201004,0.3701713383197784,-0.8527556657791138,1.9250344038009644,74.67999267578125,24.19,0
-0.836137592792511,-0.4523003399372101,0.5734211206436157,-1.0810532569885254,1.923255205154419,74.67999267578125,24.19,0
-0.8444625735282898,-0.3686291575431824,0.748637318611145,-1.2490569353103638,1.9221134185791016,74.67999267578125,24.19,0
-0.7322518229484558,-0.3037382662296295,0.6819522380828857,-1.3604546785354614,1.921380639076233,74.67999267578125,24.19,0
-0.7554035782814026,-0.2508994936943054,0.6391575932502747,-1.5035947561264038,1.920910358428955,74.67999267578125,24.19,0
-0.8598254323005676,-0.2449794709682464,0.6396833062171936,-1.7065136432647705,1.91601824760437,74.88420104980469,24.19,0
-0.8372729420661926,-0.2523759007453918,0.5952385067939758,-1.7579187154769895,1.9128787517547607,75.01525115966797,24.19,0
-0.7444312572479248,-0.2515247166156769,0.5891074538230896,-1.4111545085906982,1.910863995552063,75.09934997558594,24.19,0
-0.7464262843132019,-0.1950007379055023,0.5851728916168213,-0.8124507665634155,1.9095710515975952,75.1533203125,24.19,0
-0.8428687453269958,-0.1811179965734481,0.5546590685844421,-0.5392970442771912,1.9087413549423216,75.18795776367188,24.19,0
-0.8655755519866943,-0.211393266916275,0.5182837247848511,-1.0303617715835571,1.9082088470458984,75.2101821899414,24.19,0
-0.8913430571556091,-0.2084310948848724,0.6012978553771973,-2.1444132328033447,1.907867193222046,75.22444915771484,24.19,0
-0.9246724247932434,-0.2121279239654541,0.6489737629890442,-3.3465776443481445,1.9076478481292725,75.23360443115234,24.19,0
-0.8508991599082947,-0.2145003378391266,0.595602810382843,-4.368837833404541,1.893735647201538,75.2394790649414,24.19,0
-0.853935718536377,-0.1656428426504135,0.6229279041290283,-5.512095928192139,1.8848075866699217,75.24324798583984,24.19,0
-0.8278955221176147,-0.0951044932007789,0.6404635906219482,-7.166494846343994,1.879078149795532,75.24566650390625,24.19,0
-0.8223799467086792,-0.0330437198281288,0.6461191773414612,-9.206235885620115,1.875401258468628,75.2472152709961,24.19,0
-0.8468292355537415,-0.0268033314496278,0.6441508531570435,-11.14217472076416,1.87304162979126,75.24821472167969,24.19,0
-0.8121394515037537,-0.0004075127362739,0.631692111492157,-12.739224433898926,1.8715274333953855,75.24885559082031,24.19,0
-0.7842797636985779,0.010934030637145,0.590110182762146,-14.208358764648438,1.870555639266968,75.249267578125,24.19,0
-0.7664009928703308,0.0238101538270711,0.5858163833618164,-15.831853866577148,1.869932055473328,75.24952697753906,24.19,0
-0.7885140776634216,-0.0015133377164602,0.6278430819511414,-17.30721092224121,1.873663306236267,75.24969482421875,24.19,0
-0.7971072196960449,-0.000971173052676,0.6268244981765747,-17.730953216552734,1.876057744026184,75.24980163574219,24.19,0
-0.780230700969696,0.0441589504480361,0.6317686438560486,-16.924531936645508,1.8775943517684937,75.24987030029297,24.19,0
-0.8197802901268005,0.0171431228518486,0.6069526076316833,-16.077421188354492,1.8785805702209477,75.24991607666016,24.19,0
-0.822769820690155,0.0165992435067892,0.6022226810455322,-16.171491622924805,1.8792134523391724,75.24994659423828,24.19,0
-0.8078950047492981,0.0218479875475168,0.5935894846916199,-17.303050994873047,1.879619598388672,75.24996948242188,24.19,0
-0.7983492016792297,0.036411877721548,0.5880492329597473,-19.90649032592773,1.8798801898956297,75.2499771118164,24.19,0
-0.7922232747077942,0.0345625951886177,0.6236782073974609,-23.995466232299805,1.8800474405288696,75.24998474121094,24.19,0
-0.7938897609710693,0.0501691550016403,0.6017606258392334,-27.36471176147461,1.8998936414718628,75.24999237060547,24.19,0
-0.7949592471122742,0.0657823234796524,0.5764996409416199,-28.12611198425293,1.9126298427581787,75.24999237060547,24.19,0
-0.8068411350250244,0.1037908270955085,0.5882774591445923,-28.707881927490234,1.920803189277649,75.24999237060547,24.19,0
-0.7808796167373657,0.0945958495140075,0.6126291155815125,-33.724246978759766,1.9260483980178835,75.24999237060547,24.19,0
-0.7418279051780701,0.0663039460778236,0.6226588487625122,-43.87932586669922,1.9294143915176392,75.24999237060547,24.19,0
-0.7223645448684692,0.0425500571727752,0.6906708478927612,-54.9891357421875,1.9315745830535889,75.24999237060547,24.19,0
-0.693080723285675,0.0161106288433074,0.7231215238571167,-63.95304870605469,1.932960867881775,75.24999237060547,24.19,0
-0.7022769451141357,0.032729972153902,0.7047620415687561,-73.005126953125,1.9338505268096924,75.24999237060547,24.19,0
-0.7081785202026367,0.0825797319412231,0.681784451007843,-86.36629486083984,1.9408482313156128,75.4542007446289,24.19,0
-0.6951724886894226,0.0753860175609588,0.6838321089744568,-105.82100677490234,1.9453388452529907,75.58525085449219,24.19,0
-0.6868259906768799,0.0987583771347999,0.7019394636154175,-128.3944549560547,1.9482207298278809,75.66934967041016,24.19,0
-0.6758719086647034,0.0689752176403999,0.730353057384491,-142.88079833984375,1.950070142745972,75.72332000732422,24.19,0
-0.6520488858222961,0.0778509676456451,0.7373917102813721,-136.1094512939453,1.9512569904327397,75.7579574584961,24.19,0
-0.6535539627075195,0.0835469141602516,0.7363109588623047,-110.2398681640625,1.9520186185836792,75.78018188476562,24.19,0
-0.6545198559761047,0.1767666339874267,0.7300196290016174,-79.48350524902344,1.9525073766708372,75.79444885253906,24.19,0
-0.6999219059944153,0.0798520073294639,0.7259821891784668,-45.77021026611328,1.9528210163116453,75.80360412597656,24.19,0
-0.7346560955047607,0.1128199398517608,0.7569778561592102,-0.9449493288993835,1.9493498802185056,75.80947875976562,24.19,0
-0.6785776615142822,0.0779991149902343,0.7656735181808472,49.162723541259766,1.94712233543396,75.81324768066406,24.19,0
-0.6369919776916504,0.050055343657732,0.7544605731964111,90.07476043701172,1.945692777633667,75.81566619873047,24.19,0
-0.6494891047477722,0.0992959290742874,0.7416669726371765,120.26700592041016,1.944775342941284,75.81721496582031,24.19,0
-0.6519112586975098,0.1252979338169098,0.7726412415504456,144.4647979736328,1.9441865682601929,75.8182144165039,24.19,0
-0.6590633988380432,0.1755711734294891,0.7925187349319458,158.09835815429688,1.9438087940216064,75.81885528564453,24.19,0
-0.719631016254425,0.1574536710977554,0.7492972016334534,155.440673828125,1.94356632232666,75.81926727294922,24.19,0
-0.6969242691993713,0.1570224463939666,0.7719400525093079,141.3179168701172,1.9434107542037964,75.81952667236328,24.19,0
-0.6375702023506165,0.1511479318141937,0.7528843283653259,124.77433013916016,1.9547868967056277,75.81969451904297,24.19,0
-0.5099157691001892,0.1137913689017295,0.7910354137420654,109.37487030029295,1.9620875120162964,75.8198013305664,24.19,0
-0.310441255569458,0.0730247497558593,0.8994852304458618,94.26182556152344,1.9667726755142207,75.81986999511719,24.19,0
-0.2160166501998901,0.0076786600984632,0.9410932064056396,78.13241577148438,1.9697792530059812,75.81991577148438,24.19,0
-0.1610181480646133,-0.0398544706404209,0.9342081546783448,59.15464782714844,1.9717087745666504,75.8199462890625,24.19,0
-0.0809410810470581,-0.0815540477633476,0.924191951751709,35.92714309692383,1.9729470014572144,75.8199691772461,24.19,0
-0.1191166192293167,-0.1754877269268036,0.951350748538971,10.635184288024902,1.97374165058136,75.81997680664062,24.19,0
-0.132419928908348,-0.2189756333827972,0.9855730533599854,-11.804344177246094,1.974251627922058,75.81998443603516,24.19,0
-0.118566133081913,-0.1853081583976745,0.9851438403129578,-26.89617919921875,1.9810056686401367,75.81999206542969,24.19,0
-0.1040777936577797,-0.1357134282588958,0.97927063703537,-31.164396286010746,1.9853399991989136,75.81999206542969,24.19,0
-0.061193361878395,-0.0870930626988411,0.9978926181793212,-24.27352905273437,1.988121509552002,75.81999206542969,24.19,0
-0.0784547999501228,-0.0670868605375289,0.9874520301818848,-11.862223625183104,1.9899065494537356,75.81999206542969,24.19,0
-0.0783366486430168,-0.054248034954071,0.9975451827049256,-1.074291467666626,1.9910520315170288,75.81999206542969,24.19,0
-0.1342385709285736,-0.07959546148777,0.9872291088104248,6.307352066040039,1.9917871952056885,75.81999206542969,24.19,0
-0.1533198803663253,-0.0622753351926803,0.9582177400588988,12.319862365722656,1.992258906364441,75.81999206542969,24.19,0
-0.1095874235033989,-0.0623558238148689,0.9675887823104858,17.102649688720703,1.9925616979599,75.81999206542969,24.19,0
-0.1319024115800857,-0.0568097010254859,0.94561368227005,19.36947059631348,1.9991828203201292,76.00987243652344,24.19,0
-0.1182340234518051,-0.0700438395142555,0.9539024233818054,20.068262100219727,2.003431797027588,76.13172149658203,24.19,0
-0.0814735665917396,-0.0729389786720275,0.9704172015190125,21.261882781982425,2.0061585903167725,76.20992279052734,24.19,0
-0.125056117773056,-0.0524058118462562,0.9642221331596376,22.68707275390625,2.007908582687378,76.2601089477539,24.19,0
-0.0970471426844596,-0.0504243560135364,0.9770398139953612,22.57706069946289,2.0090315341949463,76.29231262207031,24.19,0
-0.0678770467638969,-0.0435549989342689,0.9628743529319764,20.8513126373291,2.0097522735595703,76.31298065185547,24.19,0
-0.0491573549807071,-0.0783310607075691,0.9593815803527832,18.97357177734375,2.010214805603028,76.32624053955078,24.19,0
-0.0203508138656616,-0.1734194010496139,0.9963245391845704,17.385211944580078,2.010511636734009,76.33475494384766,24.19,0
-0.0074622062966227,-0.2344416230916977,0.9976413249969482,15.416510581970217,2.0120792388916016,76.34021759033203,24.19,0
0.0064067346975207,-0.2456133067607879,1.0096819400787354,13.078338623046877,2.013085126876831,76.34371948242188,24.19,0
-0.0406707227230072,-0.2807715237140655,1.017408847808838,11.090604782104492,2.013730764389038,76.3459701538086,24.19,0
-0.0428934507071971,-0.2641496062278747,1.0111719369888306,9.553462982177734,2.0141451358795166,76.347412109375,24.19,0
-0.0331243202090263,-0.1527226865291595,0.9679850935935974,8.022462844848633,2.014410972595215,76.34833526611328,24.19,0
-0.0660394802689552,-0.1092041805386543,0.9178791642189026,6.438082218170166,2.0145814418792725,76.34893035888672,24.19,0
-0.1375425010919571,-0.0588854104280471,0.8857240676879883,5.141876697540283,2.01469087600708,76.34931182861328,24.19,0
-0.2058201283216476,-0.0993647873401641,0.9322620630264282,4.224064826965332,2.014761209487915,76.34955596923828,24.19,0
-0.2496367692947387,-0.1365376710891723,0.962127447128296,3.387868404388428,2.012052059173584,76.34971618652344,24.17,0
-0.2497669011354446,-0.1491975337266922,0.9533044695854188,2.4177541732788086,2.0103135108947754,76.34981536865234,24.17,0
-0.2330570816993713,-0.1405285894870758,0.9364468455314636,1.5300800800323486,2.00919771194458,76.34988403320312,24.17,0
-0.2111381441354751,-0.1349653601646423,0.9424219131469728,1.0499862432479858,2.008481740951538,76.34992218017578,24.17,0
-0.191474050283432,-0.1369929760694503,0.9630497097969056,1.007000207901001,2.0080223083496094,76.3499526977539,24.17,0
-0.184452548623085,-0.1326964050531387,0.9650918841362,1.2982635498046875,2.0077273845672607,76.34996795654297,24.17,0
-0.1855443269014358,-0.1299391090869903,0.9552068710327148,1.900758385658264,2.007538080215454,76.3499755859375,24.17,0
-0.1918427348136901,-0.1337674111127853,0.9432654976844788,2.6599926948547363,2.0074167251586914,76.34998321533203,24.17,0
-0.1958846896886825,-0.1362241953611374,0.952395498752594,3.125730037689209,2.017437696456909,76.34999084472656,24.17,0
-0.2040763646364212,-0.1322030425071716,0.952656865119934,2.9194703102111816,2.023868560791016,76.34999084472656,24.17,0
-0.2093333005905151,-0.1296225041151046,0.952824592590332,2.0526766777038574,2.027995586395264,76.34999084472656,24.17,0
-0.212706908583641,-0.1279664635658264,0.9473344683647156,0.7440776824951172,2.030643939971924,76.34999084472656,24.17,0
-0.2148718982934951,-0.1269037127494812,0.9494089484214784,-0.6474225521087646,2.032343626022339,76.34999084472656,24.17,0
-0.2162612527608871,-0.1262216866016388,0.9507402777671814,-1.5475724935531616,2.0334343910217285,76.34999084472656,24.17,0
-0.2227506339550018,-0.1257840096950531,0.9459968209266664,-1.6272587776184082,2.0341343879699707,76.34999084472656,24.17,0
-0.2213173806667328,-0.1255031377077102,0.9485505223274232,-1.2986438274383545,2.034583568572998,76.34999084472656,24.17,0
-0.2203975915908813,-0.1309206634759903,0.9501893520355223,-1.0770100355148315,2.046807050704956,76.48971557617188,24.17,0
-0.2198073267936706,-0.1343973129987716,0.9512410759925842,-0.7771448493003845,2.054651498794556,76.57938385009766,24.17,0
-0.2194285243749618,-0.131030648946762,0.9463182091712952,-0.0974783822894096,2.059685468673706,76.63692474365234,24.17,0
-0.2191854417324066,-0.1232723519206047,0.9487568140029908,0.5572295784950256,2.062916040420532,76.6738510131836,24.17,0
-0.224627211689949,-0.1294890642166137,0.9503217339515686,0.7194380164146423,2.0649893283843994,76.69754791259766,24.17,0
-0.2169238775968551,-0.1278808265924453,0.9513260126113892,0.7232219576835632,2.066319704055786,76.71275329589844,24.17,0
-0.211980327963829,-0.1268487423658371,0.9519705176353456,1.026586651802063,2.067173480987549,76.7225112915039,24.17,0
-0.2088078409433365,-0.1261864155530929,0.952384114265442,1.3359110355377195,2.067721366882324,76.72877502441406,24.17,0
-0.2067719250917434,-0.1257613748311996,0.9526495337486268,1.2406463623046875,2.0708272457122803,76.73279571533203,24.17,0
-0.2054653912782669,-0.1254886090755462,0.9528198838233948,1.1186071634292605,2.0728204250335693,76.7353744506836,24.17,0
-0.2214202582836151,-0.1197157874703407,0.947331428527832,1.5740933418273926,2.074099540710449,76.73703002929688,24.17,0
-0.2260613888502121,-0.1272066682577133,0.9438092708587646,2.4826011657714844,2.074920415878296,76.73809051513672,24.17,0
-0.2234420329332351,-0.1264161169528961,0.9359511733055116,3.4417994022369385,2.0754473209381104,76.73877716064453,24.17,0
-0.2329566180706024,-0.1315065622329712,0.9477015733718872,4.551753044128418,2.0757853984832764,76.73921203613281,24.17,0
-0.2446603178977966,-0.134773313999176,0.9552423357963562,6.034311294555664,2.076002359390259,76.73949432373047,24.17,0
-0.2465732991695404,-0.136869728565216,0.9600815773010254,7.648508548736572,2.076141595840454,76.73967742919922,24.17,0
-0.2478009462356567,-0.1382150799036026,0.9631870985031128,9.13222885131836,2.076231002807617,76.73979187011719,24.19,0
-0.2541865408420563,-0.1390784531831741,0.959582269191742,10.406826972961426,2.0762882232666016,76.7398681640625,24.19,0
-0.2526866793632507,-0.1396325081586837,0.9516711235046388,10.769804000854492,2.076324939727783,76.73991394042969,24.19,0
-0.2573219239711761,-0.1343902945518493,0.9409964084625244,9.193540573120115,2.0763485431671143,76.73994445800781,24.19,0
-0.2658943235874176,-0.1366239190101623,0.9397438168525696,6.032440185546875,2.0763638019561768,76.7399673461914,24.19,0
-0.2657978236675262,-0.1324595659971237,0.938939929008484,3.0974366664886475,2.07637357711792,76.73997497558594,24.19,0
-0.2601381242275238,-0.1353848874568939,0.9384240508079528,1.4861960411071775,2.076379776000977,76.73998260498047,24.19,0
-0.2509082853794098,-0.1316644251346588,0.9380930066108704,0.4163687229156494,2.0763838291168213,76.739990234375,24.19,0
-0.2561806738376617,-0.1348746120929718,0.9434783458709716,-1.3019665479660034,2.075468063354492,76.739990234375,24.19,0
-0.2651619613170624,-0.1313369572162628,0.9413365721702576,-3.586945056915283,2.074880599975586,76.739990234375,24.19,0
-0.2765234112739563,-0.1290666908025741,0.9399620890617372,-5.515465259552002,2.0745034217834477,76.739990234375,24.19,0
-0.2894122898578644,-0.1276097744703292,0.9334822297096252,-6.728000164031982,2.074261426925659,76.739990234375,24.19,0
-0.2976836264133453,-0.1322725713253021,0.9349216222763062,-7.4452314376831055,2.074106216430664,76.739990234375,24.19,0
-0.2917961478233337,-0.129667118191719,0.9358453750610352,-7.665477275848389,2.0740065574646,76.739990234375,24.19,0
-0.2880178987979889,-0.1279950886964798,0.9364381432533264,-7.355413436889648,2.0739426612854004,76.739990234375,24.19,0
-0.2911910116672516,-0.126922070980072,0.931220769882202,-6.955808162689209,2.073901653289795,76.739990234375,24.19,0
-0.293227344751358,-0.1318312436342239,0.9334703683853148,-6.720860004425049,2.0702028274536133,76.87255096435547,24.19,0
-0.2889363765716553,-0.1349816769361496,0.9349139928817748,-6.218991279602051,2.067829132080078,76.9576187133789,24.19,0
-0.2861826717853546,-0.1370034366846084,0.9358404278755188,-5.1123366355896,2.066305637359619,77.01220703125,24.19,0
-0.2844155132770538,-0.1383008956909179,0.9364349842071532,-3.760868549346924,2.0653281211853027,77.0472412109375,24.19,0
-0.2832814455032348,-0.1335357427597046,0.9368165135383606,-2.60696792602539,2.0647008419036865,77.0697250366211,24.19,0
-0.2825536727905273,-0.1360755264759063,0.937061369419098,-1.579854965209961,2.064298152923584,77.08415222167969,24.19,0
-0.2764888405799866,-0.1321076303720474,0.9372184872627258,-0.4908039271831512,2.064039707183838,77.09341430664062,24.19,0
-0.2781945765018463,-0.1351590454578399,0.9373193383216858,0.5269355177879333,2.0638740062713623,77.09935760498047,24.19,0
-0.2792892158031463,-0.1371172666549682,0.937384068965912,1.3663560152053833,2.0610132217407227,77.1031723022461,24.19,0
-0.2855894565582275,-0.1327761709690094,0.9374256134033204,2.3170440196990967,2.0591773986816406,77.10562133789062,24.19,0
-0.2840348184108734,-0.1355880796909332,0.9374522566795348,3.62932562828064,2.0579993724823,77.10719299316406,24.19,0
-0.2830371260643005,-0.1373925954103469,0.9374693632125854,4.998111248016357,2.0572433471679688,77.10820007324219,24.19,0
-0.2823968827724457,-0.1385506242513656,0.937480330467224,6.080726146697998,2.056758165359497,77.10884857177734,24.19,0
-0.2819859981536865,-0.1392937898635864,0.9318895936012268,7.259133338928223,2.0564467906951904,77.10926055908203,24.19,0
-0.2817223072052002,-0.1285751610994339,0.9283018112182616,9.065061569213867,2.0562469959259038,77.10952758789062,24.19,0
-0.2927486598491668,-0.1328921020030975,0.931597113609314,11.012168884277344,2.0561187267303467,77.10969543457031,24.19,0
-0.2998247146606445,-0.1356624662876129,0.9337118864059448,12.068251609802246,2.049609899520874,77.10980224609375,24.17,0
-0.2931701838970184,-0.137440338730812,0.9350690245628356,12.348319053649902,2.0454330444335938,77.10987091064453,24.17,0
-0.288899689912796,-0.1385812610387802,0.9359399676322936,13.079767227172852,2.042752504348755,77.10991668701172,24.17,0
-0.2917568981647491,-0.1393134444952011,0.9309011101722716,14.792322158813477,2.041032314300537,77.10994720458984,24.17,0
-0.2935904860496521,-0.1397833228111267,0.933265209197998,16.550535202026367,2.039928436279297,77.10997009277344,24.17,0
-0.2947672009468078,-0.1400848627090454,0.934782326221466,16.66498565673828,2.039220094680786,77.10997772216797,24.17,0
-0.2899245619773865,-0.1402783691883087,0.935755968093872,13.757730484008787,2.0387654304504395,77.1099853515625,24.17,0
-0.2868168354034424,-0.1404025554656982,0.9307830333709716,8.05150032043457,2.038473606109619,77.10999298095703,24.17,0
-0.2904202342033386,-0.1404822468757629,0.9275916814804076,1.577248454093933,2.034613847732544,77.10999298095703,24.17,0
-0.2983304858207702,-0.1405333876609802,0.931141436100006,-3.827872514724731,2.032136917114258,77.10999298095703,24.17,0
-0.3034068346023559,-0.1405662149190902,0.9334194660186768,-7.998753070831299,2.030547380447388,77.10999298095703,24.17,0
-0.3010667562484741,-0.1405872702598571,0.934881329536438,-11.34890842437744,2.029527187347412,77.10999298095703,24.17,0
-0.2995650172233581,-0.14060078561306,0.9302217364311218,-13.724547386169434,2.028872489929199,77.10999298095703,24.17,0
-0.2986012995243072,-0.1406094580888748,0.932829201221466,-14.976819038391112,2.0284523963928223,77.10999298095703,24.17,0
-0.2979828417301178,-0.1406150311231613,0.9345025420188904,-15.400702476501465,2.0281827449798584,77.10999298095703,24.17,0
-0.2975859344005584,-0.1406186074018478,0.9355763792991638,-15.121009826660156,2.0280098915100098,77.10999298095703,24.17,0
-0.2917334735393524,-0.1406209021806717,0.9362655282020568,-13.949146270751951,2.020554304122925,77.21747589111328,24.17,0
-0.2935754656791687,-0.1350245922803878,0.9367077946662904,-12.039938926696776,2.015769720077514,77.28645324707031,24.17,0
-0.2947575449943542,-0.1370309740304947,0.9369916319847108,-10.01938819885254,2.0126991271972656,77.33071899414062,24.17,0
-0.2899183630943298,-0.1383185535669326,0.9371737837791444,-8.321466445922852,2.010728597640991,77.35912322998047,24.17,0
-0.2868128418922424,-0.1335470825433731,0.9372906684875488,-6.837754726409912,2.0094640254974365,77.37734985351562,24.17,0
-0.2904177010059356,-0.1360827982425689,0.9373656511306764,-5.391198635101318,2.008652687072754,77.38904571533203,24.17,0
-0.2927310764789581,-0.1377100795507431,0.9374138116836548,-4.068799018859863,2.008131980895996,77.39655303955078,24.17,0
-0.2942156791687011,-0.1387543678283691,0.9318469166755676,-2.940717935562134,2.007797718048096,77.40137481689453,24.17,0
-0.295168399810791,-0.1394245326519012,0.9338721632957458,-1.8621054887771609,2.0052878856658936,77.40446472167969,24.17,0
-0.2957797944545746,-0.139854609966278,0.9351718425750732,-0.9836201667785645,2.0036771297454834,77.40644836425781,24.17,0
-0.296172171831131,-0.1401306092739105,0.93600594997406,-0.9035065770149232,2.002643585205078,77.40772247314453,24.17,0
-0.3020217418670654,-0.1403077244758606,0.9309434294700624,-1.8014768362045288,2.0019803047180176,77.40853881835938,24.17,0
-0.3057756423950195,-0.1404213905334472,0.9332923889160156,-3.0154409408569336,2.001554489135742,77.40906524658203,24.17,0
-0.3025869131088257,-0.1404943317174911,0.9347997903823853,-3.8553969860076895,2.001281261444092,77.4094009399414,24.17,0
-0.300540566444397,-0.1405411511659622,0.9357671737670898,-4.208138465881348,2.001106023788452,77.40961456298828,24.17,0
-0.2936295866966247,-0.140571191906929,0.9363879561424256,-4.255378723144531,2.000993490219116,77.40975189208984,24.17,0
-0.2891944944858551,-0.1405904740095138,0.9367863535881042,-4.178217887878418,2.002298355102539,77.40984344482422,24.17,0
-0.2919460833072662,-0.1350050717592239,0.937041997909546,-4.031970500946045,2.003135919570923,77.40990447998047,24.17,0
-0.2937119007110595,-0.1314206719398498,0.9372060894966124,-3.655094146728516,2.0036733150482178,77.40994262695312,24.17,0
-0.2948451042175293,-0.1347181946039199,0.9373114109039308,-3.047813892364502,2.0040183067321777,77.40996551513672,24.17,0
-0.2955723404884338,-0.1368343532085418,0.937379002571106,-2.575697183609009,2.004239559173584,77.40998077392578,24.17,0
-0.2960390150547027,-0.1325946003198623,0.9374223351478576,-2.4231879711151123,2.0043816566467285,77.40998840332031,24.17,0
-0.2963384985923767,-0.1298737823963165,0.9374501705169678,-2.3181512355804443,2.0044727325439453,77.40999603271484,24.17,0
-0.2965306937694549,-0.133725494146347,0.9318702220916748,-2.032207489013672,2.004531145095825,77.40999603271484,24.17,0
-0.2966540455818176,-0.1361972987651825,0.9282893538475036,-1.6588287353515625,2.010995388031006,77.40999603271484,24.17,0
-0.2967332005500793,-0.1377835571765899,0.9259913563728333,-1.340399146080017,2.015143871307373,77.40999603271484,24.17,0
-0.307979553937912,-0.1388015300035476,0.9245166182518004,-1.0894758701324463,2.017806053161621,77.40999603271484,24.17,0
-0.3095990419387817,-0.1394547969102859,0.9235702157020568,-0.8603788018226624,2.019514560699463,77.40999603271484,24.17,0
-0.305040568113327,-0.1398740261793136,0.9229629039764404,-0.5951324701309204,2.020611047744751,77.40999603271484,24.17,0
-0.2965174317359924,-0.1401430666446685,0.9225731492042542,-0.3174353837966919,2.02131462097168,77.40999603271484,24.17,0
-0.2910477519035339,-0.1459134966135025,0.9279208183288574,-0.132060244679451,2.021766185760498,77.40999603271484,24.17,0
-0.293135404586792,-0.1440188586711883,0.9313526153564452,-0.0883312374353408,2.0220558643341064,77.40999603271484,24.17,0
-0.2944751381874084,-0.1428029835224151,0.9335549473762512,-0.0960942357778549,2.0355539321899414,77.5282211303711,24.17,0
-0.295334905385971,-0.1420226991176605,0.9461638331413268,-0.0545025989413261,2.04421615600586,77.60409545898438,24.17,0
-0.2958866655826568,-0.1471197307109832,0.9710488319396972,0.0510051809251308,2.0497751235961914,77.65278625488281,24.17,0
-0.2850452065467834,-0.1447929441928863,0.9646275043487548,0.1151314303278923,2.053342580795288,77.68402862548828,24.17,0
-0.2780877649784088,-0.1377019733190536,0.9325177669525146,0.0953801795840263,2.0556318759918213,77.7040786743164,24.17,0
-0.2848184406757355,-0.1331513971090316,0.917509377002716,0.1149481460452079,2.057101011276245,77.71694946289062,24.17,0
-0.3003333508968353,-0.1358288675546646,0.9190734028816224,0.2063224017620086,2.058043956756592,77.72520446777344,24.17,0
-0.3102899193763733,-0.1375471204519271,0.9312726259231568,0.1718141734600067,2.058649063110352,77.73050689697266,24.17,0
-0.2942883670330047,-0.1442475616931915,0.9446991682052612,-0.0294600073248147,2.072350025177002,77.7339096069336,24.17,0
-0.2896172702312469,-0.1485475301742553,0.9365222454071044,-0.036818616092205,2.0811424255371094,77.73609161376953,24.17,0
-0.2978151738643646,-0.145709216594696,0.9256770014762878,0.29163858294487,2.086784839630127,77.73748779296875,24.17,0
-0.3142716586589813,-0.132692202925682,0.9187171459197998,0.4916757941246032,2.090405941009521,77.73838806152344,24.17,0
-0.3192347288131714,-0.141131967306137,0.9254462718963624,0.2474602907896042,2.0927295684814453,77.73896789550781,24.17,0
-0.3056264221668243,-0.1409503370523452,0.9241668581962584,-0.0776442363858223,2.0942208766937256,77.73933410644531,24.17,0
-0.2856978476047516,-0.1464315503835678,0.9345413446426392,-0.1608874499797821,2.0951778888702397,77.73957061767578,24.17,0
-0.2785066068172455,-0.1499490886926651,0.9467968344688416,-0.2680467963218689,2.095792055130005,77.7397232055664,24.17,0
-0.2794894576072693,-0.1522064357995987,0.9434661865234376,-0.5195268392562866,2.110416412353516,77.73982238769531,24.15,0
-0.2857179641723633,-0.1480572968721389,0.941328763961792,-0.5161137580871582,2.119801521301269,77.73988342285156,24.15,0
-0.2953128218650818,-0.1453946232795715,0.939957082271576,-0.1377530246973037,2.125824213027954,77.73992156982422,24.15,0
-0.3014702498912811,-0.1436858624219894,0.9334790110588074,0.1373002976179123,2.1296894550323486,77.73995208740234,24.15,0
-0.3054217398166656,-0.1425892859697342,0.9293217658996582,0.0272076409310102,2.132169723510742,77.7399673461914,24.15,0
-0.3023598194122314,-0.1418855637311935,0.9322516918182372,-0.1616684794425964,2.133761405944824,77.73997497558594,24.15,0
-0.3003948330879211,-0.1414339542388916,0.934131920337677,-0.146740436553955,2.1347830295562744,77.73998260498047,24.15,0
-0.3047316074371338,-0.1411441415548324,0.9297407865524292,-0.0655089616775512,2.135438680648804,77.739990234375,24.15,0
-0.3131124675273895,-0.140958160161972,0.9269227981567384,-0.0312921516597271,2.1454994678497314,77.739990234375,24.15,0
-0.3128930330276489,-0.1408388018608093,0.9251143932342528,0.0873957648873329,2.1519558429718018,77.739990234375,24.15,0
-0.3015566766262054,-0.1407622098922729,0.9351494312286376,0.2889529764652252,2.1560990810394287,77.739990234375,24.15,0
-0.2942816615104675,-0.1407130509614944,0.9359915256500244,0.3323189914226532,2.1587581634521484,77.739990234375,24.15,0
-0.3008085191249847,-0.140681505203247,0.930934190750122,0.2204283475875854,2.1604645252227783,77.739990234375,24.15,0
-0.3049970865249634,-0.1406612545251846,0.9276886582374572,0.2166923135519027,2.161559581756592,77.739990234375,24.15,0
-0.3076850473880768,-0.1350504904985427,0.9256058931350708,0.3217720091342926,2.162262201309204,77.739990234375,24.15,0
-0.3038122653961181,-0.137047603726387,0.9298670291900636,0.2745636999607086,2.1627132892608643,77.739990234375,24.15,0
-0.3013269305229187,-0.1383292376995086,0.9326015710830688,0.0794696360826492,2.167134046554565,77.8510513305664,24.15,0
-0.2997319996356964,-0.1335539370775222,0.934356451034546,-0.0385653488337993,2.169970989227295,77.92232513427734,24.15,0
-0.3043062388896942,-0.1304894238710403,0.9354826807975768,-0.0104187205433845,2.1717915534973145,77.96806335449219,24.15,0
-0.3072417080402374,-0.1341205686330795,0.9306076169013976,0.0219744686037302,2.172960042953491,77.99742126464844,24.15,0
-0.309125542640686,-0.1364508271217346,0.9330768585205078,-0.0754624456167221,2.1737098693847656,78.0162582397461,24.15,0
-0.3047367036342621,-0.1379462629556656,0.9346615076065063,-0.234721377491951,2.1741909980773926,78.02835083007812,24.15,0
-0.3075179755687713,-0.1389059424400329,0.9300806522369384,-0.225864753127098,2.174499750137329,78.0361099243164,24.15,0
-0.3037050366401672,-0.1395218074321746,0.9271408915519714,-0.0338871479034423,2.1746978759765625,78.04108428955078,24.15,0
-0.3068558871746063,-0.1343192607164383,0.9308521151542664,0.0857304483652114,2.1798746585845947,78.04428100585938,24.15,0
-0.308877944946289,-0.1365783363580703,0.9332337975502014,0.0227736849337816,2.183196783065796,78.04633331298828,24.15,0
-0.3045777976512909,-0.1324303150177002,0.934762179851532,-0.1322707533836364,2.185328722000122,78.04764556884766,24.15,0
-0.3074159920215606,-0.1353661268949508,0.930145263671875,-0.3679072260856628,2.186697006225586,78.04849243164062,24.15,0
-0.309237390756607,-0.137250155210495,0.932780146598816,-0.5979418158531189,2.187575101852417,78.04903411865234,24.15,0
-0.3048084676265716,-0.1384592205286026,0.934471070766449,-0.5879314541816711,2.188138484954834,78.04937744140625,24.15,0
-0.3019662499427795,-0.1392351239919662,0.9355562329292296,-0.4167089164257049,2.188500165939331,78.04959869384766,24.15,0
-0.3057400584220886,-0.1397330611944198,0.9362525939941406,-0.3963925242424011,2.188732147216797,78.04974365234375,24.15,0
-0.3025640845298767,-0.1400526016950607,0.9366995096206664,-0.4299281239509582,2.1879630088806152,78.04983520507812,24.19,0
-0.3061237037181854,-0.1402576714754104,0.9369862675666808,-0.1540955603122711,2.187469244003296,78.04989624023438,24.19,0
-0.3084080517292022,-0.1403892636299133,0.9315725564956664,0.2916110754013061,2.18715238571167,78.04993438720703,24.19,0
-0.309874027967453,-0.14047372341156,0.9336960911750792,0.5024058818817139,2.1869490146636963,78.04995727539062,24.19,0
-0.3108147978782654,-0.1349301487207412,0.935058891773224,0.4979613721370697,2.186818599700928,78.04997253417969,24.19,0
-0.3058207631111145,-0.1313726007938385,0.9359334111213684,0.5201871991157532,2.186734914779663,78.04998016357422,24.19,0
-0.3026158809661865,-0.1346873492002487,0.9364946484565736,0.5487807393074036,2.186681270599365,78.04998779296875,24.19,0
-0.3061569333076477,-0.1368145644664764,0.9312570691108704,0.5098091959953308,2.1866466999053955,78.04999542236328,24.19,0
-0.3084293901920318,-0.1325819045305252,0.933493673801422,0.4418086111545563,2.187542676925659,78.04999542236328,24.19,0
-0.3098877072334289,-0.1298656314611435,0.9349289536476136,0.3121879398822784,2.188117742538452,78.04999542236328,24.19,0
-0.3108235895633697,-0.133720263838768,0.9358500242233276,0.0498760789632797,2.1884868144989014,78.04999542236328,24.19,0
-0.3058263957500458,-0.1361939311027526,0.9364411234855652,-0.2438507229089737,2.188723564147949,78.04999542236328,24.19,0
-0.3026194870471954,-0.1377813965082168,0.9368204474449158,-0.4645908772945404,2.188875675201416,78.04999542236328,24.19,0
-0.3061592578887939,-0.1388001441955566,0.9370638728141784,-0.5668408274650574,2.188973188400269,78.04999542236328,24.19,0
-0.3084308803081512,-0.1394539177417755,0.931622326374054,-0.4318347573280334,2.1890358924865723,78.04999542236328,24.19,0
-0.3042908906936645,-0.1398734599351883,0.928130269050598,-0.0514244064688682,2.1890759468078613,78.04999542236328,24.19,0
-0.3072318732738495,-0.1401427090167999,0.9314870238304138,0.3180911839008331,2.1849703788757324,78.16822052001953,24.19,0
-0.3091192245483398,-0.1403154879808426,0.9336411952972412,0.4298348724842071,2.182335615158081,78.24409484863281,24.19,0
-0.3103304207324981,-0.1348285973072052,0.9350236654281616,0.2865909934043884,2.1806447505950928,78.29278564453125,24.19,0
-0.3111076951026916,-0.1369052082300186,0.9303130507469176,0.0406145639717578,2.1795597076416016,78.32402801513672,24.19,0
-0.3116064965724945,-0.1382378488779068,0.9272900819778442,-0.0921609178185463,2.178863286972046,78.34407806396484,24.19,0
-0.3119266033172607,-0.1390930712223053,0.9253500699996948,0.098489761352539,2.1784164905548096,78.35694885253906,24.19,0
-0.3121320307254791,-0.1396418958902359,0.929702877998352,0.4823663830757141,2.1781296730041504,78.36520385742188,24.19,0
-0.3122638463973999,-0.1399940997362136,0.9324962496757508,0.6857253909111023,2.177945613861084,78.3705062866211,24.19,0
-0.3123484551906585,-0.1402201205492019,0.9286910891532898,0.5654492378234863,2.1732370853424072,78.37390899658203,24.19,0
-0.3124027550220489,-0.1403651684522628,0.9262491464614868,0.2553955018520355,2.170215606689453,78.37609100341797,24.19,0
-0.3124375939369201,-0.1404582560062408,0.9302798509597778,-0.1549511104822158,2.16827654838562,78.37748718261719,24.19,0
-0.3124599456787109,-0.1405179947614669,0.9272687435150146,-0.5472606420516968,2.167032241821289,78.37838745117188,24.19,0
-0.3124742805957794,-0.1405563354492187,0.930934190750122,-0.7273707985877991,2.166233539581299,78.37896728515625,24.19,0
-0.3124834895133972,-0.1405809372663498,0.933286428451538,-0.7283127307891846,2.1657209396362305,78.37933349609375,24.19,0
-0.31248939037323,-0.140596717596054,0.9291982054710388,-0.7145869135856628,2.1653921604156494,78.37957000732422,24.19,0
-0.3068954050540924,-0.1406068503856659,0.9321723580360411,-0.544562578201294,2.1651811599731445,78.37972259521484,24.19,0
-0.3033055067062378,-0.1406133472919464,0.9340810179710388,-0.0915234610438346,2.1581599712371826,78.37982177734375,24.19,0
-0.306599497795105,-0.1406175196170807,0.9297081232070924,0.2278715670108795,2.153654098510742,78.3798828125,24.19,0
-0.3087134063243866,-0.1406202018260955,0.926901876926422,0.0423401668667793,2.1507625579833984,78.37992095947266,24.19,0
-0.3100699782371521,-0.135024145245552,0.9251009821891784,-0.327503502368927,2.148906946182251,78.37995147705078,24.19,0
-0.3109405636787414,-0.1314329206943512,0.9239452481269836,-0.4717009365558624,2.1477160453796387,78.37996673583984,24.19,0
-0.3059014678001404,-0.1347260475158691,0.9288013577461244,-0.5069172978401184,2.146951913833618,78.37997436523438,24.19,0
-0.3082654476165771,-0.1368393898010254,0.9319177269935608,-0.5796732306480408,2.1464614868164062,78.3799819946289,24.19,0
-0.3097825050354004,-0.1381956189870834,0.9339176416397096,-0.500973641872406,2.146146774291992,78.37998962402344,24.19,0
-0.3107560575008392,-0.1334681957960128,0.9296032786369324,-0.3000005781650543,2.1385998725891118,78.37998962402344,24.19,0
-0.3113808333873749,-0.1360321789979934,0.9268345832824708,-0.2785049080848694,2.133756637573242,78.37998962402344,24.19,0
-0.3117817938327789,-0.1376775950193405,0.9306555390357972,-0.3471094667911529,2.130648612976074,78.37998962402344,24.19,0
-0.3120391070842743,-0.1387335211038589,0.933107614517212,-0.14035564661026,2.1286540031433105,78.37998962402344,24.19,0
-0.3122042119503021,-0.1394111514091491,0.9290834665298462,0.2323596477508545,2.1273739337921143,78.37998962402344,24.19,0
-0.3123101890087127,-0.1398460268974304,0.9320987462997437,0.4070605039596557,2.1265525817871094,78.37998962402344,24.19,0
-0.3123781979084015,-0.1401250958442688,0.9340338110923768,0.4224438965320587,2.126025438308716,78.37998962402344,24.19,0
-0.3068240582942962,-0.1403041929006576,0.9352756142616272,0.5326281785964966,2.1256871223449707,78.37998962402344,24.19,0
-0.3088575005531311,-0.1404191255569458,0.9304747581481934,0.6964851021766663,2.1204206943511963,78.49821472167969,24.19,0
-0.3101624548435211,-0.1404928863048553,0.9273938536643982,0.7084921002388,2.1170408725738525,78.57408905029297,24.19,0
-0.3109999001026153,-0.140540212392807,0.9254167079925536,0.5693118572235107,2.1148719787597656,78.6227798461914,24.19,0
-0.3115373253822326,-0.14057058095932,0.9241478443145752,0.4692462682723999,2.1134800910949707,78.6540298461914,24.19,0
-0.3118821978569031,-0.1405900716781616,0.9289313554763794,0.4766814410686493,2.112586975097656,78.67407989501953,24.19,0
-0.3121035397052765,-0.1406025886535644,0.9320011138916016,0.4133839905261993,2.112013816833496,78.68695068359375,24.19,0
-0.3122455775737762,-0.1406106203794479,0.9283733367919922,0.2079648375511169,2.1116459369659424,78.69520568847656,24.19,0
-0.3123367130756378,-0.140615776181221,0.9260452389717102,0.1012166813015937,2.111409902572632,78.70050811767578,24.19,0
-0.3123952150344848,-0.140619084239006,0.924551248550415,0.204675480723381,2.101618528366089,78.70391082763672,24.19,0
-0.3124327659606933,-0.1406212002038955,0.9291902184486388,0.2137481868267059,2.095334768295288,78.70609283447266,24.19,0
-0.3124568462371826,-0.1406225562095642,0.9321672320365906,-0.0312097705900669,2.091302394866944,78.70748901367188,24.19,0
-0.3124723136425018,-0.1406234353780746,0.9284799695014954,-0.2242354452610016,2.088714599609375,78.70838928222656,24.19,0
-0.3124822378158569,-0.135026216506958,0.9261136651039124,-0.1367362588644027,2.087053775787353,78.70896911621094,24.19,0
-0.3124886155128479,-0.1370320171117782,0.9245951175689696,0.0304755344986915,2.085988044738769,78.70933532714844,24.19,0
-0.312492698431015,-0.1383192241191864,0.9236206412315368,0.1270347237586975,2.085304021835327,78.7095718383789,24.19,0
-0.3124953210353851,-0.1391452848911285,0.9285930395126344,0.2499046325683593,2.084865093231201,78.70972442626953,24.19,0
-0.3124969899654388,-0.1396754086017608,0.9261862635612488,0.3144251704216003,2.0813698768615723,78.70982360839844,24.15,0
-0.3124980628490448,-0.1400156021118164,0.924641728401184,0.0369815044105052,2.0791268348693848,78.70988464355469,24.15,0
-0.3124987483024597,-0.1402339190244674,0.9236505031585692,-0.5387317538261414,2.0776875019073486,78.70992279052734,24.15,0
-0.3124991953372955,-0.140374019742012,0.9230144023895264,-1.0013383626937866,2.07676362991333,78.70995330810547,24.15,0
-0.3124994933605194,-0.1404639333486557,0.9226062297821044,-1.0832581520080566,2.076170921325684,78.70996856689453,24.15,0
-0.3124996721744537,-0.1405216306447982,0.9279420375823976,-0.8169803023338318,2.075790405273437,78.70997619628906,24.15,0
-0.3180975615978241,-0.140558660030365,0.925768494606018,-0.3344144225120544,2.075546264648437,78.7099838256836,24.15,0
-0.3160921931266784,-0.1405824273824691,0.9243736267089844,0.0827458426356315,2.075389623641968,78.70999145507812,24.15,0
-0.3204030394554138,-0.1405976861715316,0.9290762543678284,0.1390833407640457,2.0665674209594727,78.70999145507812,24.15,0
-0.3175717294216156,-0.135009691119194,0.9264963269233704,0.0068564414978027,2.060905694961548,78.70999145507812,24.15,0
-0.3157547414302826,-0.1370214223861694,0.9304384589195251,0.1190424859523773,2.057272434234619,78.70999145507812,24.15,0
-0.3145886957645416,-0.138312429189682,0.9329683184623718,0.3701658248901367,2.054940700531006,78.70999145507812,24.15,0
-0.3138404190540313,-0.1391409188508987,0.934591829776764,0.2984549105167389,2.0534443855285645,78.70999145507812,24.15,0
-0.3133602142333984,-0.1396726071834564,0.9356337189674376,-0.0520839728415012,2.052484035491944,78.70999145507812,24.15,0
-0.3130520284175873,-0.1400138139724731,0.9363023042678832,-0.2018055468797683,2.051867961883545,78.70999145507812,24.15,0
-0.3128542602062225,-0.1402327716350555,0.9311336278915404,0.0173784215003252,2.0514724254608154,78.70999145507812,24.15,0
-0.3127273321151733,-0.1403732895851135,0.92781662940979,0.2905933558940887,2.0470871925354004,78.82105255126953,24.15,0
-0.3126458823680877,-0.1404634714126587,0.931285798549652,0.3405368328094482,2.044272899627685,78.89232635498047,24.15,0
-0.3125936090946197,-0.1405213475227356,0.9279143214225768,0.225702092051506,2.042466878890991,78.93806457519531,24.15,0
-0.3125600814819336,-0.1349607110023498,0.9257506728172302,0.069608524441719,2.0413079261779785,78.96741485595703,24.15,0
-0.3125385642051697,-0.1369899809360504,0.9299599528312684,-0.1165451481938362,2.0405642986297607,78.98625183105469,24.15,0
-0.3125247359275818,-0.1382922530174255,0.9270634651184082,-0.2395904511213302,2.0400869846343994,78.99834442138672,24.15,0
-0.3181136548519134,-0.1335301995277404,0.9252046346664428,-0.1286773234605789,2.039780616760254,79.006103515625,24.15,0
-0.3217003047466278,-0.1304741948843002,0.924011766910553,0.1001336500048637,2.039584159851074,79.01107788085938,24.15,0
-0.3184042274951935,-0.1341107934713363,0.9232462644577026,0.0893380418419838,2.030736207962036,79.01427459716797,24.15,0
-0.3162890076637268,-0.136444553732872,0.922755002975464,-0.225691482424736,2.0250580310821533,79.01632690429688,24.15,0
-0.314931571483612,-0.137942224740982,0.9224397540092468,-0.4421895742416382,2.021414279937744,79.01763916015625,24.15,0
-0.3196582198143005,-0.1389033496379852,0.9222374558448792,-0.2981021106243133,2.019075870513916,79.01848602294922,24.15,0
-0.3170937299728393,-0.1339223682880401,0.9221075773239136,-0.0694972053170204,2.017575263977051,79.01902770996094,24.15,0
-0.3210457563400268,-0.1363236308097839,0.9220242500305176,-0.0840076357126236,2.01661229133606,79.01937103271484,24.15,0
-0.3179841637611389,-0.1378646343946457,0.921970784664154,-0.2043794244527816,2.0159943103790283,79.01959228515625,24.15,0
-0.3160194158554077,-0.1388535499572754,0.9275342226028442,-0.1848975867033004,2.0155975818634038,79.01973724365234,24.15,0
-0.3147585690021515,-0.1394881904125213,0.9255067706108092,-0.1508998125791549,2.0135068893432617,79.01982879638672,24.19,0
-0.3195472061634063,-0.1398954540491104,0.9242056608200072,-0.340453952550888,2.012165307998657,79.01988983154297,24.19,0
-0.3170225024223327,-0.1401568204164505,0.9233706593513488,-0.6878011226654053,2.011304378509521,79.01992797851562,24.19,0
-0.3154022693634033,-0.1403245478868484,0.922834813594818,-0.9250388741493224,2.010751724243164,79.01995086669922,24.19,0
-0.314362496137619,-0.1404321938753128,0.9224909543991088,-0.8121738433837891,2.01039719581604,79.01996612548828,24.19,0
-0.3136952519416809,-0.1405012607574463,0.9222702980041504,-0.3635730743408203,2.010169744491577,79.01997375488281,24.19,0
-0.3188648223876953,-0.1405455917119979,0.922128677368164,0.1141895726323127,2.010023593902588,79.01998138427734,24.19,0
-0.3165845870971679,-0.140574038028717,0.9220377802848816,0.3383908867835998,2.009929895401001,79.01998901367188,24.19,0
-0.3151212632656097,-0.1405922919511795,0.9219794869422911,0.3962885737419128,2.005279064178467,79.01998901367188,24.19,0
-0.3141821622848511,-0.1406040042638778,0.9219420552253724,0.5910773277282715,2.0022943019866943,79.01998901367188,24.19,0
-0.3191772997379303,-0.1406115293502807,0.9219180345535278,0.9847747087478638,2.0003788471221924,79.01998901367188,24.19,0
-0.3167850971221924,-0.1406163573265075,0.921902596950531,1.312661051750183,1.9991496801376345,79.01998901367188,24.19,0
-0.3208476901054382,-0.1406194567680359,0.9218927025794984,1.415602445602417,1.9983608722686768,79.01998901367188,24.19,0
-0.3178570568561554,-0.1406214386224746,0.921886384487152,1.5497331619262695,1.997854709625244,79.01998901367188,24.19,0
-0.3159378468990326,-0.1406227201223373,0.9218823313713074,2.1266233921051025,1.9975298643112185,79.01998901367188,24.19,0
-0.3203039765357971,-0.140623539686203,0.9218797087669371,3.1882755756378174,1.997321367263794,79.01998901367188,24.19,0
-0.3231059312820434,-0.1350262910127639,0.9218780398368835,4.303074359893799,1.9953515529632568,79.13105010986328,24.19,0
-0.3193062841892242,-0.137032076716423,0.9218769669532776,5.136713027954102,1.9940874576568604,79.20232391357422,24.19,0
-0.3168678879737854,-0.1383192688226699,0.9218762516975404,5.8687357902526855,1.9932762384414675,79.24806213378906,24.19,0
-0.3153030574321747,-0.1335475444793701,0.921875774860382,6.750502109527588,1.9927555322647093,79.27742004394531,24.19,0
-0.3198966085910797,-0.130485326051712,0.9218754768371582,7.55640172958374,1.9924213886260984,79.29625701904297,24.19,0
-0.3228445053100586,-0.1341179460287094,0.921875298023224,7.872957229614258,1.9922070503234863,79.308349609375,24.19,0
-0.3191384971141815,-0.1308513730764389,0.9274729490280152,7.789498329162598,1.9920694828033447,79.31610870361328,24.19,0
-0.3167602121829986,-0.1343528479337692,0.9310652017593384,7.9186506271362305,1.991981148719788,79.32108306884766,24.19,0
-0.3096361756324768,-0.1365998983383178,0.9333705306053162,8.88284683227539,1.98825204372406,79.32427978515625,24.19,0
-0.3050643801689148,-0.1380419284105301,0.9348499178886414,10.458160400390623,1.985858917236328,79.32633209228516,24.19,0
-0.3077282607555389,-0.1389673352241516,0.9246037602424622,10.791998863220217,1.9843231439590452,79.32764434814453,24.19,0
-0.3094377815723419,-0.1339634358882904,0.923626184463501,7.724598407745361,1.98333752155304,79.3284912109375,24.19,0
-0.3105348348617553,-0.1363499909639358,0.928596556186676,1.6827281713485718,1.982704997062683,79.32903289794922,24.19,0
-0.3056410849094391,-0.1322837769985199,0.931786298751831,-4.311898708343506,1.9822990894317627,79.32937622070312,24.19,0
-0.3025005757808685,-0.1352720856666565,0.9338333010673524,-8.037096977233887,1.9820386171340945,79.32959747314453,24.19,0
-0.2948873937129974,-0.1315920352935791,0.940744698047638,-9.639548301696776,1.981871485710144,79.32974243164062,24.19,0
-0.3123928010463714,-0.1236326172947883,0.9339844584465028,-9.944229125976562,1.9753377437591555,79.329833984375,24.19,0
-0.31802898645401,-0.1129269450902938,0.929646134376526,-9.36591911315918,1.9711447954177856,79.32989501953125,24.19,0
-0.3048526346683502,-0.1004588827490806,0.932459831237793,-8.446659088134766,1.9684540033340452,79.3299331665039,24.19,0
-0.3019945919513702,-0.0868598222732544,0.9342654943466188,-7.745671272277832,1.9667272567749023,79.3299560546875,24.19,0
-0.3057582378387451,-0.0725349560379982,0.9298264980316162,-7.213418483734131,1.9656190872192385,79.32997131347656,24.19,0
-0.3137713074684143,-0.0633420795202255,0.926977813243866,-6.413279533386231,1.9649078845977783,79.3299789428711,24.19,0
-0.3133158385753631,-0.0686381757259368,0.9195519089698792,-5.326584339141846,1.964451551437378,79.32998657226562,24.19,0
-0.313023567199707,-0.0888302251696586,0.9147863984107972,-4.435746669769287,1.964158654212952,79.32999420166016,24.19,0
-0.3128359913825989,-0.1241794154047966,0.950912594795227,-3.946457624435425,1.9570850133895876,79.32999420166016,24.19,0
-0.3071178495883941,-0.1300711631774902,0.9461074471473694,-3.456913709640503,1.9525455236434937,79.32999420166016,24.19,0
-0.3146438300609588,-0.1170588284730911,0.937425971031189,-2.68060040473938,1.9496324062347408,79.32999420166016,24.19,0
-0.3026802241802215,-0.1031104922294616,0.9318547248840332,-2.0283565521240234,1.9477628469467163,79.32999420166016,24.19,0
-0.3117960095405578,-0.0941592529416084,0.9282793998718262,-1.9931195974349976,1.9465631246566768,79.32999420166016,24.19,0
-0.3176459968090057,-0.0884148627519607,0.9315827488899232,-2.368172407150269,1.9457931518554688,79.32999420166016,24.19,0
-0.3158023953437805,-0.0903262123465538,0.9393004179000854,-2.4834694862365723,1.9452990293502808,79.32999420166016,24.19,0
-0.3090215027332306,-0.0859550386667251,0.9386553764343262,-2.05948257446289,1.944981932640076,79.32999420166016,24.19,0
-0.3046699166297912,-0.0831498652696609,0.9326436519622804,-1.4757081270217896,1.939728856086731,79.43030548095703,24.19,0
-0.3074750900268554,-0.0869474411010742,0.9287856817245485,-1.151231288909912,1.9363577365875244,79.49468231201172,24.19,0
-0.3204708397388458,-0.0949822813272476,0.9319076538085938,-0.9967394471168518,1.9341943264007568,79.53599548339844,24.19,0
-0.3232130110263824,-0.0945408046245575,0.9451066851615906,-0.800865888595581,1.9328058958053589,79.56250762939453,24.19,0
-0.3249727785587311,-0.0942574962973594,0.9311859607696532,-0.7575647830963135,1.9319149255752563,79.57952117919922,24.19,0
-0.326102077960968,-0.0940756797790527,0.9222524762153624,-1.0772864818572998,1.9313431978225708,79.59043884277344,24.19,0
-0.3212290406227112,-0.0995567739009857,0.9221172332763672,-1.4544291496276855,1.9309762716293333,79.59745025634766,24.19,0
-0.3236995637416839,-0.1030742302536964,0.927628219127655,-1.467172622680664,1.9307408332824707,79.60194396972656,24.19,0
-0.3252850174903869,-0.1053315252065658,0.925567090511322,-1.2066575288772583,1.9305896759033203,79.60482788085938,24.19,0
-0.3263024687767029,-0.1011823564767837,0.929842174053192,-1.0287262201309204,1.930492639541626,79.60668182373047,24.19,0
-0.3213576376438141,-0.1041174307465553,0.926987886428833,-0.893044650554657,1.9304304122924805,79.60787200927734,24.19,0
-0.3181843161582947,-0.1060009971261024,0.9307539463043212,-0.1897690594196319,1.930390477180481,79.60863494873047,24.19,0
-0.3161478638648987,-0.1072097569704055,0.9331707954406738,1.6050187349319458,1.9303648471832275,79.60912322998047,24.19,0
-0.3204387724399566,-0.1079854741692543,0.9291239976882936,4.125354290008545,1.9303483963012693,79.60943603515625,24.19,0
-0.3231924176216125,-0.1084832847118377,0.9265269637107848,6.26939868927002,1.930337905883789,79.6096420288086,24.19,0
-0.3249595463275909,-0.1088027507066726,0.930458128452301,7.641740798950195,1.930331110954285,79.60977172851562,24.19,0
-0.3260935842990875,-0.1090077608823776,0.9273831844329834,9.314180374145508,1.931244969367981,79.60985565185547,24.17,0
-0.326821357011795,-0.1091393306851387,0.9254098534584044,12.28622055053711,1.9318314790725708,79.60990905761719,24.17,0
-0.3216906189918518,-0.109223760664463,0.9297412633895874,15.759090423583984,1.9322078227996824,79.60993957519531,24.17,0
-0.3239957988262176,-0.1148757189512252,0.932520866394043,18.353200912475582,1.9324493408203125,79.6099624633789,24.17,0
-0.325475126504898,-0.1129050478339195,0.934304654598236,20.834779739379883,1.9326043128967283,79.60997772216797,24.17,0
-0.3264244496822357,-0.1060426086187362,0.9298516511917114,25.39010238647461,1.9327037334442136,79.6099853515625,24.17,0
-0.3270336985588074,-0.1072364598512649,0.9269939661026,31.75271987915039,1.932767629623413,79.60999298095703,24.17,0
-0.3274246752262115,-0.1080026105046272,0.9307578206062316,36.93931579589844,1.9328086376190183,79.60999298095703,24.17,0
-0.3276755809783935,-0.1084942817687988,0.9275754690170288,39.74471664428711,1.9332938194274905,79.60999298095703,24.17,0
-0.3278366029262543,-0.1088098064064979,0.9255332350730896,42.806129455566406,1.9336051940917969,79.60999298095703,24.17,0
-0.3279399275779724,-0.1090122908353805,0.9242226481437684,49.83294677734375,1.933804988861084,79.60999298095703,24.17,0
-0.328006237745285,-0.1091422364115715,0.9289793372154236,61.53974914550781,1.9339332580566408,79.60999298095703,24.17,0
-0.3280487954616546,-0.1092256233096122,0.9320319294929504,70.23474884033203,1.9340155124664309,79.60999298095703,24.17,0
-0.3280760943889618,-0.1092791408300399,0.9339908957481384,61.59187698364258,1.9340683221817017,79.60999298095703,24.17,0
-0.3280936181545257,-0.1093134805560112,0.9296503067016602,31.275447845458984,1.934102177619934,79.60999298095703,24.17,0
-0.3281048536300659,-0.1093355193734169,0.926864743232727,-5.666440963745117,1.9341239929199217,79.60999298095703,24.17,0
-0.3281120657920837,-0.1093496605753898,0.9250771403312684,-31.680795669555664,1.9336789846420288,79.69239044189453,24.17,0
-0.3281166851520538,-0.1093587353825569,0.9239299297332764,-43.90067672729492,1.933393478393555,79.74526977539062,24.17,0
-0.3281196653842926,-0.1093645617365837,0.9287915229797364,-47.5474967956543,1.9332102537155151,79.77920532226562,24.17,0
-0.3281215727329254,-0.1093683019280433,0.9263136386871338,-45.413177490234375,1.9330925941467283,79.80098724365234,24.17,0
-0.3281227946281433,-0.1093707010149955,0.9247234463691713,-40.18148040771485,1.9330171346664429,79.8149642944336,24.17,0
-0.3281235992908478,-0.1093722432851791,0.9293007254600524,-35.738555908203125,1.9329687356948853,79.82392883300781,24.17,0
-0.3281241059303283,-0.1093732342123985,0.9266403913497924,-32.55774688720703,1.9329376220703125,79.82968139648438,24.17,0
-0.3281244337558746,-0.1093738675117492,0.9305309057235718,-28.313201904296875,1.9329177141189573,79.8333740234375,24.17,0
-0.3281246423721313,-0.1093742698431015,0.9330276250839232,-23.15314674377441,1.931986689567566,79.83574676513672,24.17,0
-0.3281247615814209,-0.1093745306134224,0.9290320873260498,-19.81305885314941,1.9313892126083372,79.83727264404297,24.17,0
-0.328124850988388,-0.1093747019767761,0.926468014717102,-19.05245780944824,1.931005835533142,79.83824920654297,24.17,0
-0.3281249105930328,-0.1037770360708236,0.9304202795028688,-18.582260131835938,1.9307597875595093,79.83887481689453,24.17,0
-0.3281249403953552,-0.1057825461030006,0.9329566359519958,-16.73642349243164,1.9306018352508545,79.83927917480469,24.17,0
-0.3281249701976776,-0.1070695668458938,0.9345843195915222,-14.57382869720459,1.9305005073547363,79.83953857421875,24.17,0
-0.3281249701976776,-0.102297730743885,0.93003112077713,-13.759212493896484,1.9304354190826416,79.8396987915039,24.17,0
-0.3281249701976776,-0.0992354452610015,0.9271091222763062,-14.103422164916992,1.9303936958312988,79.83980560302734,24.17,0
-0.3281249701976776,-0.1028680205345153,0.9308317303657532,-14.087865829467772,1.9285309314727783,79.83987426757812,24.17,0
-0.3281249701976776,-0.1051991954445838,0.9332206845283508,-13.031770706176758,1.927335500717163,79.83992004394531,24.17,0
-0.3281249701976776,-0.1066952124238014,0.9347537755966188,-11.590941429138184,1.9265682697296145,79.83995056152344,24.17,0
-0.3281249701976776,-0.1076552644371986,0.9301398396492004,-10.42626667022705,1.9260759353637693,79.8399658203125,24.17,0
-0.3281249701976776,-0.1082713752985,0.932776689529419,-9.485386848449709,1.92576003074646,79.83997344970703,24.17,0
-0.3281249701976776,-0.108666755259037,0.9288710951805116,-8.551987648010254,1.925557255744934,79.83998107910156,24.17,0
-0.3281249701976776,-0.1089204922318458,0.9319624900817872,-7.687874794006348,1.9254270792007449,79.8399887084961,24.17,0
-0.3281249701976776,-0.1090833246707916,0.9339463710784912,-7.0186944007873535,1.925343632698059,79.8399887084961,24.17,0
-0.3281249701976776,-0.1091878190636634,0.929621696472168,-6.445950031280518,1.922994613647461,79.8399887084961,24.17,0
-0.3281249701976776,-0.1092548817396164,0.9268463850021362,-5.849111080169678,1.9214872121810915,79.8399887084961,24.17,0
-0.3281249701976776,-0.1092979162931442,0.9306631088256836,-5.286965370178223,1.9205198287963867,79.8399887084961,24.17,0
-0.3281249701976776,-0.109325535595417,0.9275147318840028,-4.729170799255371,1.9198989868164065,79.8399887084961,24.17,0
-0.3281249701976776,-0.1093432530760765,0.9254942536354064,-3.9233882427215576,1.9195005893707275,79.8399887084961,24.17,0
-0.3281249701976776,-0.109354630112648,0.9241976141929626,-2.9011402130126958,1.919244885444641,79.8399887084961,24.17,0
-0.3281249701976776,-0.1093619242310524,0.9233655333518982,-2.130477905273437,1.9190808534622192,79.8399887084961,24.17,0
-0.3281249701976776,-0.1093666106462478,0.9228315353393556,-1.7505537271499634,1.918975591659546,79.8399887084961,24.17,0
-0.3281249701976776,-0.1037718430161476,0.9224888682365416,-1.381350040435791,1.9189079999923704,79.8973159790039,24.17,0
-0.3281249701976776,-0.100181445479393,0.9278666973114014,-0.9187141060829164,1.918864607810974,79.9341049194336,24.17,0
-0.3225271999835968,-0.0978773310780525,0.9369156956672668,-0.6289861798286438,1.9188368320465088,79.95771026611328,24.17,0
-0.3189348876476288,-0.1075942292809486,0.9427227973937988,-0.4645509123802185,1.918818950653076,79.97286224365234,24.17,0
-0.3166295289993286,-0.1026344299316406,0.9464494585990906,-0.2300530970096588,1.9188075065612795,79.98258209228516,24.17,0
-0.3207478821277618,-0.0882559642195701,0.9432432651519777,-0.1118090823292732,1.9188001155853271,79.98882293701172,24.17,0
-0.3177930116653442,-0.079028695821762,0.9355879426002502,-0.2401336878538131,1.918795466423035,79.99282836914062,24.17,0
-0.3214945197105407,-0.0731071680784225,0.9250773787498474,-0.2866592705249786,1.918792486190796,79.99539947509766,24.17,0
-0.3238699436187744,-0.0749048441648483,0.91833233833313,-0.0764841362833976,1.9233808517456052,79.9970474243164,24.17,0
-0.3309921324253082,-0.076058492064476,0.9251992702484132,0.0763070285320282,1.9263254404067995,79.99810791015625,24.17,0
-0.3243671953678131,-0.0991899296641349,0.9408016204833984,0.0346391573548316,1.9282150268554688,79.99878692626953,24.17,0
-0.3313112258911133,-0.1196321323513984,0.9620099067687988,0.0723854750394821,1.9294277429580688,79.99922180175781,24.17,0
-0.3357675075531006,-0.1103596612811088,0.9308379292488098,0.3008157014846802,1.9302059412002563,79.99950408935547,24.17,0
-0.3330295085906982,-0.1044091209769249,0.9108335971832277,0.4939825534820556,1.9307053089141848,79.99967956542969,24.17,0
-0.3312724232673645,-0.1005904078483581,0.9203870296478271,0.4531474411487579,1.9310258626937864,79.99979400634766,24.17,0
-0.3301448225975036,-0.1037375554442405,0.93211567401886,0.1797440946102142,1.9312314987182615,79.99987030029297,24.17,0
-0.3238234221935272,-0.1057572141289711,0.9396424293518066,-0.2285778224468231,1.916674256324768,79.99991607666016,24.17,0
-0.3197667300701141,-0.1014555394649505,0.9332771301269532,-0.6160054802894592,1.9073323011398315,79.99994659423828,24.17,0
-0.3171633780002594,-0.0986949726939201,0.9291922450065612,-0.7822350263595581,1.9013371467590328,79.99996948242188,24.17,0
-0.3210904598236084,-0.1025211736559867,0.9321685433387756,-0.6954525113105774,1.8974897861480715,79.9999771118164,24.17,0
-0.3236106336116791,-0.1049766093492508,0.934078574180603,-0.5681089758872986,1.8950207233428955,79.99998474121094,24.17,0
-0.3252279460430145,-0.1065523624420166,0.929706573486328,-0.5866993069648743,1.893436312675476,79.99999237060547,24.17,0
-0.3206680715084076,-0.1019658222794532,0.9269008636474608,-0.6953590512275696,1.892419457435608,79.99999237060547,24.17,0
-0.3177418112754822,-0.0990224406123161,0.9306980967521667,-0.7901686429977417,1.891766905784607,79.99999237060547,24.17,0
-0.3214616775512695,-0.1027313247323036,0.933134913444519,-0.9513241052627563,1.892266035079956,79.99999237060547,24.17,0
-0.3238488733768463,-0.0995136946439743,0.9291009902954102,-1.1622216701507568,1.892586350440979,79.99999237060547,24.17,0
-0.3253808319568634,-0.0974488109350204,0.9265122413635254,-1.1972514390945437,1.8927918672561648,79.99999237060547,24.17,0
-0.3263639509677887,-0.1017214581370353,0.9248509407043456,-1.083593726158142,1.892923712730408,79.99999237060547,24.17,0
-0.3269948661327362,-0.098865620791912,0.9293825626373292,-1.089471459388733,1.8930083513259888,79.99999237060547,24.17,0
-0.327399730682373,-0.0970329120755195,0.9322906732559204,-1.232963800430298,1.893062710762024,79.99999237060547,24.17,0
-0.3276595771312713,-0.1014545559883117,0.928559184074402,-1.3716224431991575,1.8930975198745728,79.99999237060547,24.17,0
-0.3278263211250305,-0.1042921170592308,0.9261645078659058,-1.5680828094482422,1.8931199312210083,79.99999237060547,24.17,0
-0.3279333114624023,-0.1005153208971023,0.9246277809143066,-1.916279435157776,1.891757130622864,80.06089782714844,24.17,0
-0.3280019760131836,-0.0980915948748588,0.923641562461853,-2.358269214630127,1.8908826112747192,80.09998321533203,24.17,0
-0.328046053647995,-0.102133959531784,0.9286064505577089,-2.8138763904571533,1.8903213739395144,80.12506866455078,24.17,0
-0.3280743360519409,-0.0991303399205207,0.9317926168441772,-3.1635799407958984,1.889961123466492,80.14116668701172,24.17,0
-0.3224947154521942,-0.09720279276371,0.9394351243972778,-3.187375545501709,1.8897299766540527,80.15149688720703,24.17,0
-0.3189140260219574,-0.0903680324554443,0.9387418627738952,-2.8264756202697754,1.889581680297852,80.15812683105469,24.17,0
-0.3166161477565765,-0.0859818756580352,0.9382969737052916,-2.225865602493286,1.8894864320755005,80.1623764038086,24.17,0
-0.315141499042511,-0.0775693133473396,0.9324136972427368,-1.3961892127990725,1.8894253969192505,80.16510772705078,24.17,0
-0.3141951560974121,-0.0777683928608894,0.9286381006240844,-0.2188871204853058,1.8889273405075075,80.16686248779297,24.17,0
-0.3135878443717956,-0.0778961479663848,0.9262151718139648,1.2029967308044434,1.888607621192932,80.16798400878906,24.17,0
-0.3243936598300934,-0.1003692299127578,0.9246602654457092,2.548971652984619,1.8884024620056152,80.16870880126953,24.17,0
-0.3257304430007934,-0.1315844804048538,0.96284681558609,3.6957643032073975,1.8882708549499512,80.16917419433594,24.17,0
-0.3265883028507232,-0.1236277669668197,0.9369727969169616,4.772054195404053,1.88818633556366,80.16947174072266,24.17,0
-0.3159433007240295,-0.1073260530829429,0.9259661436080932,5.756526470184326,1.888132095336914,80.16966247558594,24.17,0
-0.314709722995758,-0.1024623289704322,0.9245004653930664,6.33456563949585,1.8880972862243648,80.16978454589844,24.17,0
-0.3195158541202545,-0.1049388423562049,0.9347554445266724,6.200374603271484,1.8880749940872192,80.16986083984375,24.17,0
-0.3226001560688019,-0.1065281257033348,0.9357386827468872,5.308178901672363,1.8816338777542116,80.16990661621094,24.17,0
-0.3189817070960998,-0.1019502654671669,0.9307718873023988,3.8901312351226807,1.877500295639038,80.16993713378906,24.17,0
-0.3222573697566986,-0.1046102344989776,0.9275845289230348,2.3674895763397217,1.874847650527954,80.16996002197266,24.17,0
-0.3243595063686371,-0.1063172444701194,0.9311368465423584,1.107322335243225,1.873145341873169,80.16997528076172,24.17,0
-0.3257085084915161,-0.1018149331212043,0.9278187155723572,0.2735414505004883,1.8720529079437256,80.16998291015625,24.17,0
-0.3209764659404754,-0.0989256128668785,0.9256893396377563,-0.0465765334665775,1.8713518381118772,80.16999053955078,24.17,0
-0.3235374689102173,-0.1026691868901252,0.9243228435516356,0.1313257664442062,1.8709019422531128,80.16999053955078,24.17,0
-0.3251809775829315,-0.1050715968012809,0.9234458804130554,0.4711954891681671,1.8706132173538208,80.16999053955078,24.17,0
-0.326235681772232,-0.1066133230924606,0.9228830933570862,0.5997399091720581,1.8699690103530884,80.16999053955078,24.17,0
-0.3269125521183014,-0.1020049378275871,0.922521948814392,0.5210164189338684,1.8695555925369265,80.16999053955078,24.17,0
-0.327346920967102,-0.0990475416183471,0.9278879761695862,0.4239227473735809,1.8692902326583865,80.16999053955078,24.17,0
-0.3220278918743133,-0.0971496552228927,0.9313315749168396,0.3007098138332367,1.869120001792908,80.16999053955078,24.17,0
-0.3242122232913971,-0.095931701362133,0.933541476726532,0.0031017407309263,1.8690106868743896,80.16999053955078,24.17,0
-0.3312117755413055,-0.0951500907540321,0.9349596500396729,-0.5139003992080688,1.8689405918121336,80.16999053955078,24.17,0
-0.3245081305503845,-0.0890507251024246,0.9358697533607484,-1.107210636138916,1.868895530700684,80.16999053955078,24.17,0
-0.3202061355113983,-0.0851365029811859,0.9364538192749025,-1.47721529006958,1.8688666820526123,80.16999053955078,24.17,0
-0.3174453675746918,-0.0770268067717552,0.93682861328125,-1.5068734884262085,1.869307041168213,80.2667236328125,24.17,0
-0.3156736493110657,-0.0718224719166755,0.931471347808838,-1.529489040374756,1.8695896863937376,80.32880401611328,24.17,0
-0.3201344311237335,-0.0684826225042343,0.928033411502838,-1.7840349674224854,1.869771122932434,80.36864471435547,24.17,0
-0.3173993527889251,-0.0719370767474174,0.9258270859718324,-1.993961334228516,1.869887471199036,80.39421081542969,24.17,0
-0.3156441152095794,-0.0797517225146293,0.9244112372398376,-2.014037609100342,1.869962215423584,80.41061401367188,24.17,0
-0.3257132470607757,-0.0959622636437416,0.9570892453193665,-2.1845548152923584,1.8700101375579836,80.421142578125,24.17,0
-0.3321750462055206,-0.0951697006821632,0.9332779049873352,-2.5161025524139404,1.8700408935546875,80.42790222167969,24.17,0
-0.3307240903377533,-0.0890633091330528,0.912399411201477,-2.4422647953033447,1.870060682296753,80.43223571777344,24.17,0
-0.3241951763629913,-0.0851445794105529,0.9157941341400146,-1.8109201192855835,1.866401195526123,80.43502044677734,24.17,0
-0.3256030678749084,-0.0938253104686737,0.923570454120636,-1.1263185739517212,1.8640527725219729,80.43680572509766,24.17,0
-0.3265065550804138,-0.099396102130413,0.9341586232185364,-0.5974162817001343,1.862545609474182,80.43795013427734,24.17,0
-0.3214885890483856,-0.102971114218235,0.9353557229042052,0.1611641496419906,1.8615784645080569,80.43868255615234,24.17,0
-0.3238661289215088,-0.0996675789356231,0.9305261373519896,1.4397265911102295,1.8609577417373655,80.43915557861328,24.17,0
-0.3253918886184692,-0.097547560930252,0.9330245852470398,2.9982447624206543,1.8605594635009768,80.43946075439453,24.17,0
-0.3263710439205169,-0.1017848327755928,0.9346279501914978,4.29576587677002,1.86030387878418,80.43965148925781,24.17,0
-0.3269994258880615,-0.0989062935113906,0.9300591349601746,4.823921203613281,1.8601398468017576,80.43977355957031,24.17,0
-0.3218049108982086,-0.0970590114593505,0.9271271228790284,4.335286140441895,1.8586574792861936,80.43985748291016,24.17,0
-0.3240691423416137,-0.0958735346794128,0.9308432936668396,3.057995319366455,1.857706069946289,80.43991088867188,24.17,0
-0.3255221843719482,-0.1007105335593223,0.9332281351089478,1.6435961723327637,1.8570955991744995,80.43994140625,24.17,0
-0.3264546692371368,-0.0982168689370155,0.92916077375412,0.6570994853973389,1.856703758239746,80.4399642944336,24.17,0
-0.3214552998542785,-0.096616581082344,0.9321483373641968,0.0562659204006195,1.8564523458480835,80.43997955322266,24.17,0
-0.318246990442276,-0.0955896079540252,0.9340656399726868,-0.5227735638618469,1.8562910556793213,80.43998718261719,24.17,0
-0.3217858672142029,-0.1005283296108245,0.9352959990501404,-1.066331386566162,1.8561874628067017,80.43999481201172,24.17,0
-0.3240569233894348,-0.0980999395251274,0.9304878115653992,-1.3435040712356567,1.8561210632324217,80.43999481201172,24.17,0
-0.3255143463611603,-0.0965415388345718,0.9274021983146667,-1.5034645795822144,1.857455492019653,80.43999481201172,24.17,0
-0.3264496326446533,-0.1011392250657081,0.9254220128059388,-1.810324788093567,1.858311891555786,80.43999481201172,24.17,0
-0.3270498514175415,-0.1040897518396377,0.929749071598053,-2.11472749710083,1.8588614463806152,80.43999481201172,24.17,0
-0.3274350166320801,-0.1059832349419593,0.932525873184204,-2.249171733856201,1.859214186668396,80.43999481201172,24.17,0
-0.3276821970939636,-0.1071983575820922,0.9287101030349731,-2.40710186958313,1.859440565109253,80.43999481201172,24.17,0
-0.3278408348560333,-0.1023803800344467,0.9262613654136658,-2.6911635398864746,1.8595857620239256,80.43999481201172,24.17,0
-0.3335404098033905,-0.1048862561583519,0.9246898889541626,-2.87345814704895,1.8596789836883545,80.43999481201172,24.17,0
-0.3316003084182739,-0.1064943820238113,0.9236814379692078,-2.8363935947418213,1.859738826751709,80.43999481201172,24.17,0
-0.3303552567958832,-0.107526384294033,0.9286320209503174,-2.7051303386688232,1.8584001064300537,80.6907730102539,24.17,0
-0.329556256532669,-0.1081886664032936,0.9262112379074096,-2.5349113941192627,1.8575409650802608,80.85171508789062,24.17,0
-0.3290435075759887,-0.1086136773228645,0.9246577620506288,-2.196389675140381,1.8569896221160889,80.95499420166016,24.17,0
-0.3287144601345062,-0.1088864281773567,0.9236608147621156,-1.54207181930542,1.856635808944702,81.02127075195312,24.17,0
-0.328503280878067,-0.1090614646673202,0.9230210185050964,-0.5489560961723328,1.856408715248108,81.06380462646484,24.17,0
-0.3283677697181701,-0.1091737896203994,0.9226104617118835,0.6974062919616699,1.8562630414962769,81.09110260009766,24.17,0
-0.3282808065414428,-0.1092458739876747,0.9223469495773317,2.113452911376953,1.8561694622039795,81.1086196899414,24.17,0
-0.3282249867916107,-0.109292134642601,0.9221778512001038,3.5631589889526367,1.8561094999313357,81.11986541748047,24.17,0
-0.3281891644001007,-0.1037240475416183,0.9220693707466124,4.715616703033447,1.856529951095581,81.1270751953125,24.17,0
-0.3281661868095398,-0.1057485416531562,0.9219997525215148,5.19725227355957,1.8567997217178345,81.13170623779297,24.17,0
-0.3281514346599579,-0.1070477440953254,0.9219550490379332,4.875804901123047,1.8569728136062624,81.13467407226562,24.17,0
-0.3281419575214386,-0.1078815013170242,0.9275241494178772,3.8741865158081055,1.8570839166641235,81.13658142089844,24.17,0
-0.3281358778476715,-0.1084165573120117,0.9255002737045288,2.5829594135284424,1.857155203819275,81.13780212402344,24.17,0
-0.3281319737434387,-0.1087599247694015,0.924201488494873,1.542952299118042,1.8572009801864624,81.13858795166016,24.17,0
-0.3281294703483581,-0.1089802831411361,0.923367977142334,0.972265124320984,1.857230305671692,81.13909149169922,24.17,0
-0.3281278610229492,-0.1091216951608657,0.9284308552742004,0.6490218043327332,1.857249140739441,81.13941955566406,24.17,0
-0.328126847743988,-0.1092124432325363,0.926082193851471,0.4200873970985412,1.8563430309295652,81.1396255493164,24.19,0
-0.3281261920928955,-0.1092706769704818,0.9245749115943908,0.3197439610958099,1.8557615280151367,81.13976287841797,24.19,0
-0.3281257748603821,-0.1037102788686752,0.9236076474189758,0.2410190254449844,1.8553884029388428,81.13984680175781,24.19,0
-0.3281255066394806,-0.1001419350504875,0.9229869246482848,0.1188463792204856,1.8551489114761357,81.13990020751953,24.19,0
-0.3281253278255462,-0.103449746966362,0.9281863570213318,0.1407551318407058,1.8549952507019043,81.13993835449219,24.19,0
-0.3281252086162567,-0.1055725142359733,0.9259252548217772,0.319613367319107,1.8548966646194456,81.13996124267578,24.19,0
-0.3281251192092895,-0.1069347858428955,0.9244742393493652,0.4057337045669555,1.8548333644866943,81.13997650146484,24.19,0
-0.3281250894069671,-0.1078090146183967,0.92914080619812,0.3535234928131103,1.8547927141189573,81.13998413085938,24.19,0
-0.3281250596046448,-0.1083700433373451,0.93213552236557,0.3307657241821289,1.854766607284546,81.1399917602539,24.19,0
-0.3281250298023224,-0.1087300777435302,0.9340574145317078,0.3484042882919311,1.8547499179840088,81.1399917602539,24.19,0
-0.3281250298023224,-0.1089611276984214,0.9352907538414,0.2916547656059265,1.8547391891479488,81.1399917602539,24.19,0
-0.3281250298023224,-0.1091094017028808,0.9360822439193726,0.1047679930925369,1.8547322750091555,81.1399917602539,24.19,0
-0.3281250298023224,-0.1092045530676841,0.9309923648834229,-0.1835462152957916,1.854727864265442,81.1399917602539,24.19,0
-0.3281250298023224,-0.1092656180262565,0.9333238005638124,-0.4187257289886474,1.854725003242493,81.1399917602539,24.19,0
-0.3281250298023224,-0.1093048080801963,0.9292221665382384,-0.5015814900398254,1.8547232151031492,81.1399917602539,24.19,0
-0.3281250298023224,-0.109329953789711,0.9265899658203124,-0.5726664066314697,1.854722023010254,81.1399917602539,24.19,0
-0.3281250298023224,-0.1093460917472839,0.924900770187378,-0.7185967564582825,1.853803396224976,81.38360595703125,24.19,0
-0.3281250298023224,-0.1093564480543136,0.9294145107269288,-0.8337419033050537,1.853213906288147,81.53994750976562,24.19,0
-0.3281250298023224,-0.1093630939722061,0.9267134070396424,-0.8825573921203613,1.8528356552124023,81.6402816772461,24.19,0
-0.3281250298023224,-0.1093673557043075,0.9249799847602844,-0.9568752646446228,1.8525928258895876,81.70466613769531,24.19,0
-0.3281250298023224,-0.1093700975179672,0.9238675832748412,-1.040393948554993,1.8524370193481443,81.74598693847656,24.19,0
-0.3281250298023224,-0.1093718558549881,0.928751528263092,-1.0904088020324707,1.8523370027542116,81.77249908447266,24.19,0
-0.3281250298023224,-0.1093729808926582,0.9262879490852356,-1.1619138717651367,1.852272868156433,81.78952026367188,24.19,0
-0.3281250298023224,-0.1093737035989761,0.9247069954872132,-1.2543752193450928,1.852231740951538,81.8004379272461,24.19,0
-0.3281250298023224,-0.1093741655349731,0.9292901754379272,-1.206234335899353,1.8522052764892576,81.80744934082031,24.19,0
-0.3281250298023224,-0.109374463558197,0.9266336560249328,-0.8923167586326599,1.8521883487701416,81.81194305419922,24.19,0
-0.3281250298023224,-0.1093746572732925,0.9249288439750672,-0.4759079813957214,1.8521775007247925,81.81482696533203,24.19,0
-0.3281250298023224,-0.1037770062685012,0.9238348007202148,-0.2480891346931457,1.852170467376709,81.81668090820312,24.19,0
-0.3281250298023224,-0.100184753537178,0.9231326580047609,-0.2666865885257721,1.852165937423706,81.81787109375,24.19,0
-0.3281250298023224,-0.103477232158184,0.9282798767089844,-0.4040115177631378,1.8521630764007568,81.81863403320312,24.19,0
-0.3281250298023224,-0.1055901497602462,0.9259852766990662,-0.5458773970603943,1.8521612882614136,81.81912231445312,24.19,0
-0.3281250298023224,-0.1069461032748222,0.92451274394989,-0.5473543405532837,1.852160096168518,81.8194351196289,24.19,0
-0.3281250298023224,-0.1078162714838981,0.9235677719116212,-0.2975218892097473,1.8503228425979612,81.81964111328125,24.17,0
-0.3337228000164032,-0.1083746999502182,0.9229612946510316,-0.0189688075333833,1.849143862724304,81.81977081298828,24.17,0
-0.3317173421382904,-0.1087330654263496,0.922572135925293,-0.0050079370848834,1.8483872413635252,81.81985473632812,24.17,0
-0.3304303586483001,-0.1089630424976348,0.922322392463684,-0.1178562268614769,1.847901701927185,81.81990814208984,24.17,0
-0.3296044468879699,-0.1091106310486793,0.927759885787964,-0.1007113754749298,1.8475900888442995,81.81993865966797,24.17,0
-0.3290744125843048,-0.1092053428292274,0.9256516098976136,-0.0288050100207328,1.8473901748657229,81.81996154785156,24.17,0
-0.328734278678894,-0.1092661246657371,0.9242985844612122,-0.0041550952009856,1.8472617864608765,81.81997680664062,24.17,0
-0.3285160064697265,-0.109305128455162,0.92902809381485,0.0689850151538848,1.8471794128417969,81.81998443603516,24.17,0
-0.3283759355545044,-0.1093301624059677,0.9264654517173768,0.1051743999123573,1.8471266031265257,81.81999206542969,24.17,0
-0.3282860219478607,-0.1093462258577346,0.9248208999633788,-0.1295467913150787,1.8470927476882932,81.81999206542969,24.17,0
-0.3282283246517181,-0.1093565374612808,0.9237654805183412,-0.4664712846279144,1.8470709323883057,81.81999206542969,24.17,0
-0.3281913101673126,-0.1093631535768508,0.9230881929397584,-0.5250566601753235,1.847056984901428,81.81999206542969,24.17,0
-0.3281675577163696,-0.1093674004077911,0.9226535558700562,-0.3548640310764313,1.847048044204712,81.81999206542969,24.17,0
-0.3281522989273071,-0.109370119869709,0.9279724359512328,-0.24922676384449,1.8470423221588133,81.81999206542969,24.17,0
-0.3281425237655639,-0.1093718707561492,0.9313857555389404,-0.1814348399639129,1.8470386266708372,81.81999206542969,24.17,0
-0.3281362354755401,-0.1093729883432388,0.9279784560203552,0.0411988794803619,1.8470362424850464,81.81999206542969,24.17,0
-0.3281322121620178,-0.1093737110495567,0.92579185962677,0.323792815208435,1.845657587051392,82.06002807617188,24.17,0
-0.3281296193599701,-0.1093741729855537,0.9299864172935486,0.3761726319789886,1.8447728157043457,82.21406555175781,24.17,0
-0.3281279504299164,-0.1037766933441162,0.9270804524421692,0.123180940747261,1.8442050218582156,82.31291961669922,24.17,0
-0.3281269073486328,-0.1057823300361633,0.9308133125305176,-0.1573995649814605,1.843840718269348,82.37635803222656,24.17,0
-0.3281262218952179,-0.1070694327354431,0.9276111125946044,-0.1798266470432281,1.843606948852539,82.41706848144531,24.17,0
-0.3281257748603821,-0.1078954190015792,0.9255561232566832,-0.0043425457552075,1.8434568643569944,82.44319915771484,24.17,0
-0.3281255066394806,-0.102827712893486,0.9242373108863832,0.1190207824110984,1.8433605432510376,82.45996856689453,24.17,0
-0.3281253278255462,-0.1051733270287513,0.9233909845352172,0.1193715929985046,1.8432987928390503,82.4707260131836,24.17,0
-0.3281252086162567,-0.1066786050796508,0.9284456372261048,0.0981012731790542,1.843718409538269,82.47763061523438,24.17,0
-0.3281251192092895,-0.107644610106945,0.9260916709899902,0.0987815037369728,1.8439877033233645,82.48206329345703,24.17,0
-0.333722859621048,-0.108264535665512,0.924580991268158,0.1207134947180748,1.844160556793213,82.48490905761719,24.17,0
-0.337315171957016,-0.1086623668670654,0.9236115217208862,0.202857106924057,1.8442714214324951,82.48673248291016,24.17,0
-0.3340227305889129,-0.1089176759123802,0.9229894280433656,0.3128933608531952,1.844342589378357,82.48789978027344,24.17,0
-0.3319098353385925,-0.1090815141797065,0.92259019613266,0.315439373254776,1.8443882465362549,82.48865509033203,24.17,0
-0.3305538892745971,-0.1091866567730903,0.9279317259788512,0.2167611271142959,1.8444175720214844,82.4891357421875,24.17,0
-0.3296837210655212,-0.1092541292309761,0.925761878490448,0.1677654236555099,1.8444364070892332,82.48944091796875,24.17,0
-0.3291252851486206,-0.1092974320054054,0.9243693947792052,0.1828962713479995,1.8439891338348389,82.48963928222656,24.15,0
-0.3287669122219085,-0.1093252226710319,0.923475742340088,0.0851291120052337,1.84370219707489,82.4897689819336,24.15,0
-0.3285369277000427,-0.1093430593609809,0.9285000562667848,-0.1316629648208618,1.8435180187225344,82.48985290527344,24.15,0
-0.3283893465995788,-0.1093545034527778,0.9261265993118286,-0.2672050595283508,1.8433997631073,82.48990631103516,24.15,0
-0.3282946348190307,-0.1093618497252464,0.9246034026145936,-0.2252154648303985,1.8433239459991453,82.48993682861328,24.15,0
-0.3282338678836822,-0.1093665584921836,0.923625946044922,-0.0728788003325462,1.8432753086090088,82.48995971679688,24.15,0
-0.3281948566436767,-0.109369583427906,0.9229986667633056,0.1036987528204917,1.8432440757751465,82.48997497558594,24.15,0
