acc_x,acc_y,acc_z,bvp,eda,hr,temp,label
0.0,0.0,0.0,0.0,0.0,0.0,29.29,0
-0.0729166641831398,-0.1536458283662796,0.0234374981373548,8.673333168029785,0.0666291639208793,9.916666030883787,29.29,0
-0.1623475700616836,-0.3555640280246734,0.0548780485987663,26.8814640045166,0.1560097485780716,23.219512939453125,29.29,0
-0.2401370555162429,-0.5361815094947815,0.0822259113192558,38.18730926513672,0.2337554842233657,34.79069900512695,29.29,0
-0.3022268712520599,-0.6626135110855103,0.0915012583136558,35.72838592529297,0.2904751896858215,43.23250198364258,29.29,0
-0.3058362603187561,-0.731744110584259,0.1197399422526359,21.872018814086918,0.3288768231868744,48.94795989990234,29.29,0
-0.3359699249267578,-0.7771037220954895,0.1382685750722885,3.049482583999634,0.3540738224983215,52.6981201171875,29.29,0
-0.3722240030765533,-0.8232189416885376,0.1391099989414215,-9.99079704284668,0.3703926801681518,55.12691879272461,29.29,0
-0.3620368242263794,-0.858515202999115,0.1284716725349426,-8.806289672851562,0.3964914679527282,56.69148254394531,29.29,0
-0.3890569508075714,-0.8812016248703003,0.1216339692473411,3.53103256225586,0.4132662713527679,57.69709396362305,29.29,0
-0.4176010191440582,-0.9013662934303284,0.1060501411557197,17.359800338745117,0.424038290977478,58.34284973144531,29.29,0
-0.4247293174266815,-0.897518515586853,0.1016439422965049,30.12337875366211,0.4309529662132263,58.75736999511719,29.29,0
-0.3957189917564392,-0.8838538527488708,0.1100111007690429,46.17148208618164,0.4353908896446228,59.02341079711914,29.29,0
-0.4162847995758056,-0.9030726552009584,0.1041855290532112,65.67059326171875,0.43823903799057,59.194149017333984,29.29,0
-0.4238852560520172,-0.9098086953163148,0.0948492065072059,84.73672485351562,0.4400668442249298,59.3037223815918,29.29,0
-0.428762823343277,-0.9085337519645692,0.0944554060697555,105.35914611816406,0.4412398338317871,59.37403869628906,29.29,0
-0.4206974506378174,-0.9245088696479796,0.0998004600405693,132.63714599609375,0.336411714553833,59.419166564941406,29.29,0
-0.4099237620830536,-0.9179674983024596,0.1032306104898452,164.2508087158203,0.2691389620304107,59.448123931884766,29.29,0
-0.4198031425476074,-0.9249651432037354,0.1054318845272064,191.9008331298828,0.2259671539068222,59.46670913696289,29.29,0
-0.4205453991889953,-0.9182602763175964,0.1012467592954635,210.30422973632807,0.1982619762420654,59.4786376953125,29.29,0
-0.4210217297077179,-0.9195553064346312,0.0985609889030456,218.1736297607422,0.1804823726415634,59.486289978027344,29.29,0
-0.4213274121284485,-0.9203863739967346,0.0968374162912368,215.0304107666016,0.1690724492073059,59.49120330810547,29.29,0
-0.4215236008167267,-0.9153218865394592,0.0957313254475593,202.92474365234372,0.1617502272129058,59.49435424804688,29.29,0
-0.4216494858264923,-0.9120718240737916,0.1006192713975906,184.97434997558597,0.1570512354373932,59.496376037597656,29.29,0
-0.4217302799224853,-0.9155839085578918,0.0981582999229431,161.36720275878906,0.1687253266572952,59.49767303466797,29.29,0
-0.4217821359634399,-0.9178377389907836,0.0965789929032325,128.94589233398438,0.1762170940637588,59.49850845336914,29.29,0
-0.4218153953552246,-0.9192841053009032,0.0955654829740524,89.4781265258789,0.1810248792171478,59.49904251098633,29.29,0
-0.4218367636203766,-0.9146145582199096,0.0949150696396827,51.12374114990234,0.1841102391481399,59.49938583374024,29.29,0
-0.4218504726886749,-0.911617875099182,0.0944976732134819,19.782028198242188,0.1860902458429336,59.49960708618164,29.29,0
-0.4218592643737793,-0.9096947908401488,0.0998275876045227,-7.317300796508789,0.1873608976602554,59.49974822998047,29.29,0
-0.4218648970127105,-0.9084606766700744,0.0976502448320388,-37.75941467285156,0.1881763339042663,59.49983978271485,29.29,0
-0.4218685030937195,-0.9076687097549438,0.101850725710392,-69.99205780029297,0.1886996328830719,59.49989700317383,29.29,0
-0.4218708276748657,-0.907160460948944,0.1045463532209396,-97.90316772460938,0.1720508188009262,62.30509185791016,29.19,0
-0.4218723177909851,-0.9068343043327332,0.1062762513756752,-120.02802276611328,0.1613665670156479,64.10530090332031,29.19,0
-0.4162755012512207,-0.906624972820282,0.107386402785778,-147.86534118652344,0.154510036110878,65.26057434082031,29.19,0
-0.4182815551757812,-0.9120883941650392,0.1080988347530365,-188.8337554931641,0.1501099020242691,66.00196075439453,29.19,0
-0.4139711558818817,-0.909996747970581,0.1085560321807861,-232.486083984375,0.1472861468791961,66.47774505615234,29.19,0
-0.411204993724823,-0.9086544513702391,0.108849436044693,-262.7029113769531,0.1454740315675735,66.78307342529297,29.19,0
-0.4150276184082031,-0.913390815258026,0.1146354973316192,-278.52252197265625,0.1443111151456833,66.97901153564453,29.19,0
-0.4174807369709015,-0.9164303541183472,0.1239464357495307,-299.6408996582031,0.1435648202896118,67.1047592163086,29.19,0
-0.4190550148487091,-0.9071853756904602,0.1299216598272323,-336.2437438964844,0.1311505436897277,67.18545532226562,29.19,0
-0.4424563944339752,-0.8732635974884033,0.1337562054395675,-385.585205078125,0.1231837719678878,67.23724365234375,29.19,0
-0.4742673635482788,-0.851494550704956,0.1306192278861999,-406.5879821777344,0.1180711612105369,67.27047729492188,29.19,0
-0.4946818351745605,-0.8487200140953064,0.1230083256959915,-354.82763671875,0.114790178835392,67.29180145263672,29.19,0
-0.5301737785339355,-0.852537214756012,0.1181240826845169,-280.8876953125,0.1126846373081207,67.30548858642578,29.19,0
-0.575341522693634,-0.8605846762657166,0.1093918830156326,-227.63352966308597,0.1113334149122238,67.31427001953125,29.19,0
-0.6267186999320984,-0.8601512908935547,0.0981902852654457,-190.35198974609372,0.1104662790894508,67.31990814208984,29.19,0
-0.6596896052360535,-0.8542754054069519,0.0965995192527771,-148.10195922851562,0.1099098026752471,67.32352447509766,29.19,0
-0.6696528792381287,-0.8449068069458008,0.1123719811439514,-90.62957763671876,0.1045030504465103,67.32584381103516,29.19,0
-0.6536556482315063,-0.8276990652084351,0.1224938407540321,-13.787064552307127,0.1010333076119422,67.32733154296875,29.19,0
-0.6377917528152466,-0.8110583424568176,0.1289894729852676,73.57299041748047,0.0988066270947456,67.32828521728516,29.19,0
-0.6276112198829651,-0.794781506061554,0.1275602132081985,152.9653778076172,0.097377672791481,67.32890319824219,29.19,0
-0.6098824143409729,-0.7899337410926819,0.1266430020332336,200.5221405029297,0.0964606553316116,67.32929992675781,29.19,0
-0.5929073095321655,-0.7868227362632751,0.1260543912649154,206.85179138183597,0.095872163772583,67.32955169677734,29.19,0
-0.5764158964157104,-0.7904240489006042,0.1256766468286514,186.46270751953125,0.0954945012927055,67.3297119140625,29.19,0
-0.5658326745033264,-0.7927351593971252,0.1254342347383499,160.742431640625,0.0952521413564682,67.32981872558594,29.19,0
-0.5422475934028625,-0.7998160719871521,0.1252786666154861,140.81886291503906,0.0863748267292976,67.32988739013672,29.19,0
-0.5159165263175964,-0.8099579811096191,0.1251788288354873,122.46215057373048,0.0806778743863105,67.32992553710938,29.19,0
-0.4934209883213043,-0.850053071975708,0.1363103091716766,102.78945922851562,0.0770219042897224,67.3299560546875,29.19,0
-0.4677890837192535,-0.9261637926101683,0.1098672077059745,84.21041870117188,0.0746757090091705,67.32997131347656,29.19,0
-0.4401444792747497,-0.986202836036682,0.0817020013928413,68.7335433959961,0.0731700584292411,67.3299789428711,29.19,0
-0.4224037528038025,-1.0527212619781494,0.0748227387666702,53.04059219360352,0.0722038149833679,67.32998657226562,29.19,0
-0.4166165590286255,-1.0730178356170654,0.0648102536797523,36.01239776611328,0.0715837404131889,67.32999420166016,29.19,0
-0.4185004234313965,-1.0580542087554932,0.035993717610836,22.53388977050781,0.0711858123540878,67.32999420166016,29.19,0
-0.4085138440132141,-1.009266972541809,0.0175009220838546,15.696942329406738,0.0819475799798965,65.8683090209961,29.29,0
-0.4021050333976745,-0.9835559129714966,0.0112310843542218,13.390859603881836,0.0888538658618927,64.93028259277344,29.29,0
-0.3923944532871246,-0.950262725353241,0.0128052374348044,11.84287929534912,0.0932859182357788,64.32830810546875,29.29,0
-0.3861627578735351,-0.9065059423446656,0.019413212314248,10.613024711608888,0.0961301550269126,63.94199752807617,29.29,0
-0.3709680736064911,-0.8280454277992249,0.0180560573935508,10.920042991638184,0.0979554206132888,63.69408416748047,29.29,0
-0.3612169921398163,-0.7720962166786194,0.028380662202835,12.6432466506958,0.0991267710924148,63.53498840332031,29.29,0
-0.3605570793151855,-0.7417889833450317,0.0350064001977443,14.03570556640625,0.0998784750699997,63.43288803100586,29.29,0
-0.3657313585281372,-0.7391328811645508,0.0504539646208286,13.517770767211914,0.1003608778119087,63.36736679077149,29.29,0
-0.3802474737167358,-0.7542216777801514,0.0659650936722755,10.928367614746094,0.1530018597841262,63.3253173828125,29.29,0
-0.3895630836486816,-0.7806981205940247,0.0927125662565231,7.045440673828125,0.1867838054895401,63.298336029052734,29.29,0
-0.3955413103103637,-0.7976891398429871,0.1210731044411659,2.389725923538208,0.208463117480278,63.28102111816406,29.29,0
-0.4161711037158966,-0.8197885751724243,0.1504688113927841,-2.779832363128662,0.2223756462335586,63.2699089050293,29.29,0
-0.4629967510700226,-0.9011440277099608,0.1693332940340042,-7.27960729598999,0.2313039153814315,63.26277542114258,29.29,0
-0.4986445307731628,-0.9869399070739746,0.1758416593074798,-9.242999076843262,0.2370335608720779,63.25819778442383,29.29,0
-0.5047279000282288,-1.0643898248672483,0.1632250249385833,-8.156404495239258,0.240710511803627,63.2552604675293,29.29,0
-0.547816276550293,-1.1476794481277466,0.1607261747121811,-5.205650329589844,0.2430701702833175,63.25337600708008,29.29,0
-0.6090545654296875,-1.1787388324737549,0.1535247713327407,-1.6317980289459229,0.2376987487077713,63.25216674804688,29.29,0
-0.659549355506897,-1.148290991783142,0.1377077847719192,1.7687104940414429,0.2342516779899597,63.25139236450195,29.29,0
-0.663965106010437,-1.1231534481048584,0.1219595745205879,4.581494331359863,0.2320395559072494,63.25089263916016,29.29,0
-0.627614438533783,-1.1350104808807373,0.1230488270521164,7.687052249908447,0.2306199371814727,63.25057220458984,29.29,0
-0.5818955898284912,-1.1314241886138916,0.1069545298814773,12.402777671813965,0.2297089099884033,63.2503662109375,29.29,0
-0.5357625484466553,-1.0899382829666138,0.0910283550620079,18.2377986907959,0.2291242629289627,63.25023651123047,29.29,0
-0.472570389509201,-1.0129350423812866,0.0752100795507431,23.361671447753903,0.2287490665912628,63.25015258789063,29.29,0
-0.4152239561080932,-0.9523231983184814,0.0594610497355461,26.689285278320312,0.2285082936286926,63.250099182128906,29.29,0
-0.3616290092468261,-0.896632730960846,0.0325609035789966,28.251544952392575,0.1746452450752258,63.25006484985352,29.29,0
-0.3272348344326019,-0.8441004753112793,0.0041023916564881,28.79195976257324,0.1400790363550186,63.25004196166992,29.29,0
-0.305162638425827,-0.8103882670402527,-0.0197584200650453,29.235496520996094,0.1178964301943779,63.25002670288086,29.29,0
-0.2854002118110657,-0.7887536883354187,-0.0406686887145042,29.63835906982422,0.10366091132164,63.25001525878906,29.29,0
-0.2783156037330627,-0.780467689037323,-0.0428921468555927,29.28427124023437,0.0945253744721412,63.2500114440918,29.29,0
-0.2737691104412079,-0.8255301713943481,-0.0499168075621128,28.250959396362305,0.088662713766098,63.25000762939453,29.29,0
-0.2652536332607269,-0.8712419867515564,-0.0432292819023132,27.530517578125,0.0849003940820694,63.25000381469727,29.29,0
-0.2765822410583496,-0.9397616386413574,-0.0389376133680343,27.927997589111328,0.0824859589338302,63.25000381469727,29.29,0
-0.2838522791862488,-1.062102437019348,-0.0473790168762207,29.483552932739254,0.0823136493563652,63.01713562011719,29.29,0
-0.2829200029373169,-1.1350159645080566,-0.0416006743907928,30.087736129760746,0.0822030752897262,62.86769485473633,29.29,0
-0.3159083724021911,-1.092243194580078,-0.0210991445928812,25.7464656829834,0.0821321159601211,62.77178955078125,29.29,0
-0.3482739329338074,-1.0424031019210815,0.0088508808985352,15.659198760986328,0.0820865780115127,62.710243225097656,29.29,0
-0.3746420741081238,-1.0384074449539185,0.0280710831284523,4.327798843383789,0.082057349383831,62.670745849609375,29.29,0
-0.3915636241436004,-1.013452172279358,0.0683943778276443,-5.004021644592285,0.0820385962724685,62.64540100097656,29.29,0
-0.3912273645401001,-0.9638506174087524,0.1110648661851883,-14.030672073364258,0.0820265635848045,62.62913513183594,29.29,0
-0.3630226850509643,-0.8536503911018372,0.1328505575656891,-23.628150939941406,0.0820188373327255,62.61869812011719,29.29,0
-0.3785091936588287,-0.7997235059738159,0.1524291336536407,-30.89069557189941,0.0806367397308349,62.61199951171875,29.29,0
-0.4164364337921142,-0.781909704208374,0.1649935394525528,-34.36912536621094,0.0797497853636741,62.60770034790039,29.29,0
-0.4519715011119842,-0.7928689122200012,0.1674588769674301,-36.00309371948242,0.0791805908083915,62.604942321777344,29.29,0
-0.4747758507728576,-0.8166952133178711,0.1858343034982681,-36.58952713012695,0.0788153186440467,62.603172302246094,29.29,0
-0.4894103705883026,-0.8431811332702637,0.2144199311733245,-34.5870361328125,0.0785809010267257,62.60203552246094,29.29,0
-0.5155952572822571,-0.865776002407074,0.2327645272016525,-29.97732353210449,0.0784304663538932,62.6013069152832,29.29,0
-0.5491925477981567,-0.9082649946212769,0.2333414852619171,-24.93043327331543,0.0783339291810989,62.60083770751953,29.29,0
-0.587546706199646,-1.0083030462265017,0.2113206535577774,-20.272930145263672,0.0782719776034355,62.60053634643555,29.29,0
-0.6065624356269836,-1.111686110496521,0.1915911734104156,-14.19583225250244,0.0777732878923416,62.600341796875,29.29,0
-0.6299611330032349,-1.1892269849777222,0.1845277100801468,-4.825307369232178,0.0774532631039619,62.6002197265625,29.29,0
-0.6449770927429199,-1.1606193780899048,0.1464081406593322,7.052832126617432,0.0772478878498077,62.60013961791992,29.29,0
-0.6602112650871277,-1.153456211090088,0.1219451874494552,17.534435272216797,0.0771160870790481,62.60009002685547,29.29,0
-0.647596538066864,-1.1880437135696411,0.1006485000252723,22.55203437805176,0.0770315080881118,62.60005569458008,29.29,0
-0.611512303352356,-1.1990444660186768,0.0869815126061439,23.22124671936035,0.0769772306084632,62.60003662109375,29.29,0
-0.5491710901260376,-1.1557241678237915,0.0782108232378959,26.083276748657227,0.0769423991441726,62.60002136230469,29.29,0
-0.4643818736076355,-1.0663481950759888,0.0725823044776916,34.47966003417969,0.0769200474023819,62.60001373291016,29.29,0
-0.3987734913825989,-0.986600697040558,0.0577746927738189,43.48637771606445,0.0755285546183586,62.60000991821289,29.29,0
-0.3510720431804657,-0.9018366932868958,0.0314786992967128,47.381935119628906,0.0746355801820755,62.600006103515625,29.29,0
-0.3204599916934967,-0.8474400639533997,0.0146034425124526,46.564414978027344,0.0740625187754631,62.60000228881836,29.29,0
-0.2952171564102173,-0.8181291818618774,-0.0186172239482402,43.2131233215332,0.0736947581171989,62.60000228881836,29.29,0
-0.2622244358062744,-0.788123607635498,-0.0455341078341007,36.99981689453125,0.0734587535262107,62.60000228881836,29.29,0
-0.2410516142845153,-0.7744655609130859,-0.0572100430727005,28.616655349731445,0.0733072981238365,62.60000228881836,29.29,0
-0.2386596649885177,-0.8160805702209473,-0.0647029876708984,21.33806037902832,0.0732101052999496,62.60000228881836,29.29,0
-0.2371246516704559,-0.848384439945221,-0.0751093029975891,15.800093650817873,0.0731477290391922,62.60000228881836,29.29,0
-0.2473351210355758,-0.9250929355621338,-0.0817874744534492,7.17680025100708,0.0749437734484672,61.96588516235352,29.27,0
-0.2538875937461853,-1.04149329662323,-0.0748775899410247,-8.721524238586426,0.0760963708162307,61.55894470214844,29.27,0
-0.2580926120281219,-1.0714101791381836,-0.0592476762831211,-28.392902374267575,0.0768360421061515,61.297794342041016,29.27,0
-0.3055733442306518,-1.0514247417449951,-0.0156306512653827,-44.552860260009766,0.0773107185959816,61.13020324707031,29.27,0
-0.3472392857074737,-1.0497947931289673,0.0347513407468795,-55.04161834716797,0.0776153355836868,61.02265548706055,29.27,0
-0.3851736485958099,-1.0991287231445312,0.0950724780559539,-63.81476593017578,0.0778108239173889,60.9536361694336,29.27,0
-0.3759310841560364,-1.0468218326568604,0.1505764275789261,-76.37715148925781,0.0779362767934799,60.90934371948242,29.27,0
-0.3588041961193084,-0.957276463508606,0.1917934417724609,-94.10833740234376,0.0780167877674102,60.88092041015625,29.27,0
-0.3702042400836944,-0.8662247657775879,0.2070486098527908,-108.18486785888672,0.0785277411341667,60.86267852783203,29.27,0
-0.3999112248420715,-0.818988561630249,0.2168384939432144,-105.39946746826172,0.0788556411862373,60.85097122192383,29.27,0
-0.469355434179306,-0.8166639804840088,0.2175233066082,-85.00405883789062,0.0790660679340362,60.84346008300781,29.27,0
-0.5139207243919373,-0.8319655060768127,0.2291583269834518,-59.2438850402832,0.0792011097073555,60.83863830566406,29.27,0
-0.5425201654434204,-0.8473829627037048,0.242222785949707,-36.66868591308594,0.0792877674102783,60.83554458618164,29.27,0
-0.5608736276626587,-0.8516792058944702,0.2562045753002167,-17.986024856567383,0.0793433785438537,60.83355712890625,29.27,0
-0.589445173740387,-0.8712295889854431,0.253981739282608,-3.388453245162964,0.079379066824913,60.83228302001953,29.27,0
-0.6301718354225159,-0.9341558814048768,0.2245663851499557,8.34751033782959,0.0794019699096679,60.83146667480469,29.27,0
-0.6395145058631897,-1.0361138582229614,0.188895970582962,21.396142959594727,0.0840070247650146,60.83094024658203,29.27,0
-0.651107907295227,-1.146326780319214,0.1660047620534896,36.43001174926758,0.0869622826576232,60.830604553222656,29.27,0
-0.6641456484794617,-1.1442841291427612,0.1345211714506149,49.21263885498047,0.0888587981462478,60.83038711547852,29.27,0
-0.6837080717086792,-1.1373754739761353,0.1031212657690048,57.731056213378906,0.0900758728384971,60.83024978637695,29.27,0
-0.6850665807723999,-1.172126293182373,0.0829706192016601,64.53040313720703,0.0908569172024726,60.83016204833984,29.27,0
-0.6299606561660767,-1.1832318305969238,0.0756368637084961,71.34432220458984,0.0913581475615501,60.83010482788086,29.27,0
-0.5666079521179199,-1.1791632175445557,0.0765282586216926,76.14342498779297,0.0916798114776611,60.8300666809082,29.27,0
-0.4867674112319946,-1.1149766445159912,0.0771003067493438,76.66166687011719,0.0918862372636795,60.83004379272461,29.27,0
-0.4243347942829132,-1.045796513557434,0.0718696340918541,74.28224182128906,0.1443501114845276,60.83002853393555,29.27,0
-0.3786713480949402,-0.9734117984771729,0.0517195686697959,72.89140319824219,0.1780184060335159,60.83001708984375,29.27,0
-0.3437694013118744,-0.904568374156952,0.0275928676128387,74.31318664550781,0.1996247768402099,60.83001327514648,29.27,0
-0.3157735764980316,-0.8547908663749695,0.0065119653008878,75.58744049072266,0.2134905010461807,60.83000946044922,29.27,0
-0.2810141444206238,-0.8060532212257385,-0.0126143181696534,71.59020233154297,0.2223887145519256,60.83000564575195,29.27,0
-0.2531097829341888,-0.7747761607170105,-0.0192906931042671,60.66685485839844,0.2280990779399871,60.83000564575195,29.27,0
-0.2519956827163696,-0.7994865775108337,-0.0067818821407854,46.51680755615234,0.2317636609077453,60.83000564575195,29.27,0
-0.240085169672966,-0.8153442740440369,-0.0099499961361289,34.029090881347656,0.2341153770685196,60.83000564575195,29.27,0
-0.2324416786432266,-0.8255208134651184,-0.0007875600131228,23.82624053955078,0.2402149438858032,61.607421875,29.25,0
-0.2499276250600814,-0.9496048092842102,-0.0005054106586612,10.242460250854492,0.2441292852163314,62.1063232421875,29.25,0
-0.2499535530805587,-1.0404303073883057,-0.0003243434766773,-13.141892433166504,0.2466412931680679,62.426490783691406,29.25,0
-0.2779590785503387,-1.070728063583374,0.0053896298632025,-43.6575927734375,0.2482533454895019,62.631954193115234,29.25,0
-0.3127247095108032,-1.0621825456619265,0.0370454005897045,-70.63524627685547,0.249287873506546,62.76380920410156,29.25,0
-0.3518286347389221,-1.0902851819992063,0.0685558021068573,-88.43876647949219,0.2499517798423767,62.848426818847656,29.25,0
-0.3993143737316131,-1.119515299797058,0.1111684590578079,-102.31810760498048,0.2503778338432312,62.90272903442383,29.25,0
-0.4297879934310913,-1.0990891456604004,0.1553081274032592,-119.7157745361328,0.2506512403488159,62.93757629394531,29.25,0
-0.4213553369045257,-0.9852208495140076,0.1836344301700592,-138.92706298828125,0.2531220614910126,62.95994186401367,29.25,0
-0.41034597158432,-0.9065489768981934,0.213008165359497,-147.22535705566406,0.2547076940536499,62.97429275512695,29.25,0
-0.4256718754768371,-0.8672574162483215,0.2318585515022277,-133.09376525878906,0.2557252645492553,62.98350143432617,29.25,0
-0.4802893698215484,-0.8588356971740723,0.2271623164415359,-100.41216278076172,0.2563782632350921,62.98941040039063,29.25,0
-0.5265352725982666,-0.8590289354324341,0.2185507714748382,-63.758056640625,0.2567973434925079,62.99320602416992,29.25,0
-0.5618110299110413,-0.8479573726654053,0.2186221480369568,-31.84516906738281,0.2570662796497345,62.99563980102539,29.25,0
-0.5956445336341858,-0.8464500308036804,0.2130701839923858,-4.569168567657471,0.2572388648986816,62.99720001220703,29.25,0
-0.6285524368286133,-0.8678738474845886,0.2039094716310501,18.953725814819336,0.2573496103286743,62.99820327758789,29.25,0
-0.6440730690956116,-0.9376001358032228,0.1812373250722885,39.000484466552734,0.2468624711036682,62.99884796142578,29.25,0
-0.63164222240448,-1.0047374963760376,0.1610898822546005,56.86661529541016,0.2401324361562729,62.99925994873047,29.25,0
-0.6236647963523865,-1.120593547821045,0.1481604129076004,71.51698303222656,0.235813483595848,62.99952697753906,29.25,0
-0.6297408938407898,-1.1501610279083252,0.1342652440071106,79.37823486328125,0.2330418229103088,62.99969482421875,29.25,0
-0.6504335403442383,-1.1915268898010254,0.114152580499649,80.22435760498047,0.231263130903244,62.99980545043945,29.25,0
-0.6413217782974243,-1.2572574615478516,0.0956476554274559,78.04817199707031,0.2301216721534729,62.99987411499024,29.25,0
-0.6186810731887817,-1.3162329196929932,0.0837722569704055,75.09320068359375,0.2293891459703445,62.99991989135742,29.25,0
-0.5257827043533325,-1.2981022596359253,0.0817490816116333,70.34872436523438,0.2289190590381622,62.99995040893555,29.25,0
-0.4213836789131164,-1.196902632713318,0.0692551806569099,64.53108215332031,0.2120916843414306,62.99996948242188,29.25,0
-0.354386419057846,-1.103969693183899,0.0556395389139652,61.3995246887207,0.2012928426265716,62.99998092651367,29.25,0
-0.3057936429977417,-1.0499284267425537,0.0301084797829389,62.61777114868164,0.1943627595901489,62.9999885559082,29.25,0
-0.2746095955371856,-1.015247821807861,0.0025285652372986,64.37403106689453,0.1899154335260391,62.99999237060547,29.25,0
-0.2434019297361374,-0.9314163327217102,-0.0207684095948934,60.99063491821289,0.1870613992214203,62.999996185302734,29.25,0
-0.2177768647670745,-0.8216403722763062,-0.0301212929189205,51.01293563842773,0.1852298378944397,62.999996185302734,29.25,0
-0.2069299519062042,-0.7455946803092957,-0.0361234359443187,38.329566955566406,0.1840544492006302,62.999996185302734,29.25,0
-0.205566793680191,-0.6967929601669312,-0.0343774892389774,27.45660400390625,0.1833001524209976,62.999996185302734,29.25,0
-0.2158875465393066,-0.6990614533424377,-0.0276592690497636,19.250139236450195,0.1791435927152633,63.537384033203125,29.23,0
-0.2337063699960708,-0.7397016882896423,-0.0233479011803865,10.82745361328125,0.1764761507511139,63.88224792480469,29.23,0
-0.2563370168209076,-0.8105644583702087,-0.0149833392351865,-1.685570240020752,0.1747643500566482,64.10356140136719,29.23,0
-0.2820556163787842,-0.9064200520515442,-0.0096154445782303,-18.844112396240234,0.1736658066511154,64.24559020996094,29.23,0
-0.3209514319896698,-1.0742924213409424,-0.0005728647811338,-36.16080856323242,0.1729608327150344,64.33673095703125,29.23,0
-0.3515102863311767,-1.1484365463256836,0.0220234673470258,-48.6422119140625,0.172508418560028,64.39522552490234,29.23,0
-0.3991100788116455,-1.1456379890441897,0.0645133629441261,-56.05018615722656,0.1722180843353271,64.4327621459961,29.23,0
-0.4408524334430694,-1.1942219734191897,0.0973787084221839,-63.31558227539063,0.1720317602157592,64.45684814453125,29.23,0
-0.4676402807235718,-1.2030093669891355,0.1184697970747947,-75.93141174316406,0.1696171909570694,64.47230529785156,29.23,0
-0.456842303276062,-1.1246819496154783,0.137602612376213,-92.2387924194336,0.1680676639080047,64.48222351074219,29.23,0
-0.4331194460391998,-1.0464270114898682,0.1610765010118484,-101.91576385498048,0.1670732647180557,64.48859405517578,29.23,0
-0.4458843469619751,-0.9850119948387146,0.1873362362384796,-96.8980941772461,0.166435107588768,64.49268341064453,29.23,0
-0.4988583326339721,-0.9344038367271424,0.1873949021100998,-79.40148162841797,0.1660255789756775,64.49530792236328,29.23,0
-0.5384517908096313,-0.8907308578491211,0.1818347871303558,-55.20065307617188,0.1657627671957016,64.49698638916016,29.23,0
-0.5470672249794006,-0.8515084981918335,0.2006577104330063,-27.614585876464844,0.1655941158533096,64.4980697631836,29.23,0
-0.5414006114006042,-0.8151423335075378,0.2183349579572677,-0.7042174935340881,0.1654858738183975,64.49876403808594,29.23,0
-0.5433618426322937,-0.8030001521110535,0.2128858715295791,21.27639579772949,0.165416419506073,64.49920654296875,29.23,0
-0.5446204543113708,-0.8511857390403748,0.1981934159994125,38.2734260559082,0.1653718501329422,64.4994888305664,29.23,0
-0.5342326164245605,-0.9044995903968812,0.1775690913200378,51.885986328125,0.16534323990345,64.49967193603516,29.23,0
-0.5163707733154297,-0.9443110823631288,0.1531380414962768,61.04448699951172,0.1653248816728592,64.49978637695312,29.23,0
-0.4993102848529815,-0.964262068271637,0.1374596059322357,65.04103088378906,0.1653130948543548,64.49986267089844,29.23,0
-0.4995573759078979,-0.9770654439926147,0.1106047630310058,66.79612731933594,0.1653055399656295,64.49990844726562,29.23,0
-0.5165092945098877,-1.0356619358062744,0.0541864484548568,68.4813232421875,0.1653006821870803,64.49993896484375,29.23,0
-0.5329858064651489,-1.1516345739364624,-0.0100084515288472,67.44548034667969,0.1652975678443908,64.49996185302734,29.23,0
-0.4763861894607544,-1.214863657951355,-0.073596142232418,61.79021072387695,0.1602459400892257,64.4999771118164,29.23,0
-0.4344660341739654,-1.205060362815857,-0.0976097360253334,56.412689208984375,0.1570040881633758,64.49998474121094,29.23,0
-0.368379682302475,-1.193171501159668,-0.1130202785134315,57.02434539794922,0.1549236625432968,64.49999237060547,29.23,0
-0.3147737085819244,-1.1183686256408691,-0.1285076588392257,61.18932342529297,0.1535885632038116,64.49999237060547,29.23,0
-0.3083613514900207,-1.0647666454315186,-0.132848784327507,61.28271484375,0.1527317613363266,64.49999237060547,29.23,0
-0.3154418170452118,-1.0135746002197266,-0.1412324458360672,53.63652420043945,0.1521819233894348,64.49999237060547,29.23,0
-0.2975945770740509,-0.9807225465774536,-0.146612599492073,40.49330139160156,0.1518290638923645,64.49999237060547,29.23,0
-0.2693479061126709,-0.9316511154174804,-0.1388697177171707,25.81788825988769,0.1516026258468628,64.49999237060547,29.23,0
-0.3016007840633392,-0.8777687549591064,-0.1227052360773086,11.71046257019043,0.1473258733749389,64.79734802246094,29.25,0
-0.3390921652317047,-0.8096035122871399,-0.1011362522840499,-2.87078595161438,0.1445813030004501,64.98817443847656,29.25,0
-0.4023363888263702,-0.7378701567649841,-0.0649034231901168,-20.14210319519043,0.1428200006484985,65.11063385009766,29.25,0
-0.4821073114871979,-0.7030313611030579,-0.0472490563988685,-39.738037109375,0.1416896879673004,65.18922424316406,29.25,0
-0.5332996845245361,-0.6694782376289368,0.0088626937940716,-58.278568267822266,0.1409643292427063,65.23966217041016,29.25,0
-0.5101742744445801,-0.6367502212524414,0.067263089120388,-72.21171569824219,0.1404988318681717,65.27202606201172,29.25,0
-0.5009315013885498,-0.6157472729682922,0.121534414589405,-79.49089050292969,0.1402001082897186,65.29279327392578,29.25,0
-0.5621733069419861,-0.61346435546875,0.1731559634208679,-80.10318756103516,0.1400084048509597,65.30612182617188,29.25,0
-0.5958769917488098,-0.6064015626907349,0.206283688545227,-76.70576477050781,0.1412625163793563,65.3146743774414,29.25,0
-0.6063105463981628,-0.5850757360458374,0.2275431603193283,-73.97735595703125,0.1420673429965973,65.3201675415039,29.25,0
-0.6130061745643616,-0.5937811136245728,0.2299907207489013,-75.39341735839844,0.1425838321447372,65.32369232177734,29.25,0
-0.6005097031593323,-0.5993677377700806,0.2539525330066681,-77.87491607666016,0.142915278673172,65.3259506225586,29.25,0
-0.5868924260139465,-0.6085506677627563,0.2637320458889007,-71.8580093383789,0.1431279778480529,65.32740020751953,29.25,0
-0.6005447506904602,-0.6256393194198608,0.2756057679653168,-52.398170471191406,0.1432644873857498,65.32833099365234,29.25,0
-0.6260993480682373,-0.647801399230957,0.2832256257534027,-26.632944107055664,0.1433520913124084,65.32892608642578,29.25,0
-0.6201077103614807,-0.6732192635536194,0.3049089312553406,-4.072410106658936,0.1434082984924316,65.32931518554688,29.25,0
-0.6106648445129395,-0.6671398878097534,0.3244218230247497,14.407378196716309,0.1466575860977172,65.32955932617188,29.25,0
-0.6102027297019958,-0.6688362956047058,0.3257485032081604,32.19938659667969,0.1487427949905395,65.32971954345703,29.25,0
-0.6099061965942383,-0.6587293744087219,0.3210021257400512,48.84783554077149,0.1500809639692306,65.32981872558594,29.25,0
-0.6097158789634705,-0.6522433161735535,0.3683361411094665,61.5703353881836,0.1509397178888321,65.32988739013672,29.25,0
-0.6207892894744873,-0.6648743152618408,0.3987123966217041,69.9247817993164,0.1514908224344253,65.32992553710938,29.25,0
-0.611102283000946,-0.6841756701469421,0.418206125497818,75.51188659667969,0.1518444865942001,65.3299560546875,29.25,0
-0.6048856973648071,-0.6853666305541992,0.4307160675525665,79.04363250732422,0.1520714461803436,65.32997131347656,29.25,0
-0.6400806903839111,-0.6917287111282349,0.4219509065151214,80.01679229736328,0.1522170901298523,65.3299789428711,29.25,0
-0.6906556487083435,-0.6902137398719788,0.4107281565666199,78.71746826171875,0.1610327064990997,65.32998657226562,29.25,0
-0.7231117486953735,-0.7060348391532898,0.4371126890182495,76.43627166748047,0.1666900515556335,65.32999420166016,29.25,0
-0.7439402341842651,-0.7161878943443298,0.4428492188453674,74.30955505371094,0.1703206151723861,65.32999420166016,29.25,0
-0.729317843914032,-0.7003124356269836,0.4521283805370331,74.13417053222656,0.1726505011320114,65.32999420166016,29.25,0
-0.7367273569107056,-0.7125155925750732,0.4804742932319641,76.97007751464844,0.1741456836462021,65.32999420166016,29.25,0
-0.7694712281227112,-0.7147490978240967,0.4706762135028839,75.69823455810547,0.1751052141189575,65.32999420166016,29.25,0
-0.7457022070884705,-0.64341139793396,0.4587905704975128,56.70763397216797,0.175720989704132,65.32999420166016,29.25,0
-0.7360463738441467,-0.603228747844696,0.4847497045993805,17.121021270751953,0.1761161535978317,65.32999420166016,29.25,0
-0.7466431260108948,-0.5998328924179077,0.4902132451534271,-29.75376319885254,0.1593847572803497,65.49837493896484,29.25,0
-0.7310523986816406,-0.5864580869674683,0.4881216585636139,-69.90234375,0.1486475020647049,65.60643768310547,29.25,0
-0.7210472226142883,-0.6002660393714905,0.4867793917655945,-96.0722198486328,0.1417569518089294,65.67578125,29.25,0
-0.7314198017120361,-0.6259204745292664,0.4859179854393005,-104.82007598876952,0.1373350024223327,65.72028350830078,29.25,0
-0.7324784994125366,-0.6199929118156433,0.502158522605896,-102.8926239013672,0.1344972401857376,65.74884033203125,29.25,0
-0.7555490136146545,-0.6049934029579163,0.5685585141181946,-105.58578491210938,0.1326761394739151,65.76716613769531,29.25,0
-0.8095387816429138,-0.5897698402404785,0.6671479344367981,-115.29607391357422,0.1315074563026428,65.7789306640625,29.25,0
-0.7994040846824646,-0.5688046813011169,0.6856347918510437,-116.66244506835938,0.1307574659585952,65.78648376464844,29.25,0
-0.7649113535881042,-0.5721437335014343,0.6415207982063293,-99.0030517578125,0.1321125924587249,65.79132843017578,29.25,0
-0.7483736872673035,-0.557493269443512,0.6020154356956482,-67.37139892578125,0.1329822391271591,65.79443359375,29.25,0
-0.7041741013526917,-0.5368958711624146,0.5710654258728027,-32.20792007446289,0.1335403174161911,65.79643249511719,29.25,0
-0.675809383392334,-0.5180798768997192,0.5456057190895081,-1.835587859153748,0.1338984668254852,65.79771423339844,29.25,0
-0.6967909336090088,-0.5116026401519775,0.5572559833526611,18.86295318603516,0.1341283023357391,65.79853057861328,29.25,0
-0.7382445931434631,-0.5130437016487122,0.5591347217559814,31.752002716064453,0.1342757940292358,65.79905700683594,29.25,0
-0.7480538487434387,-0.5027729272842407,0.5659381151199341,43.23702239990234,0.1343704462051391,65.79939270019531,29.25,0
-0.70396888256073,-0.4905839562416076,0.5479130744934082,55.17523193359375,0.1344311982393264,65.79961395263672,29.25,0
-0.6924710273742676,-0.4827617704868316,0.5419434309005737,63.148170471191406,0.1353880316019058,65.79975128173828,29.25,0
-0.7074834704399109,-0.4609486162662506,0.5605035424232483,64.14478302001953,0.1360020786523819,65.79984283447266,29.25,0
-0.6779331564903259,-0.4581457376480102,0.5668165683746338,59.786659240722656,0.136396124958992,65.7999038696289,29.25,0
-0.6701650023460388,-0.4563470184803009,0.5484768152236938,52.4149169921875,0.1366490125656128,65.79994201660156,29.25,0
-0.6707776188850403,-0.4607904851436615,0.5535007119178772,42.86559295654297,0.136811301112175,65.79996490478516,29.25,0
-0.6711707711219788,-0.4636420309543609,0.5735180974006653,31.35277366638184,0.1369154453277588,65.79998016357422,29.25,0
-0.6770208477973938,-0.4822653234004974,0.5807663202285767,18.031763076782227,0.1369822770357132,65.79998779296875,29.25,0
-0.6919706463813782,-0.4886189103126526,0.5686244964599609,3.288832426071167,0.1370251625776291,65.79999542236328,29.25,0
-0.6903690099716187,-0.4926962852478027,0.5720281004905701,-11.098373413085938,0.2385022640228271,65.79999542236328,29.25,0
-0.6893411874771118,-0.5009106993675232,0.5854079127311707,-22.09029769897461,0.3036244511604309,65.79999542236328,29.25,0
-0.677486002445221,-0.5117799639701843,0.5716031789779663,-28.41343688964844,0.3454160988330841,65.79999542236328,29.25,0
-0.6530846953392029,-0.5131574869155884,0.5739396810531616,-31.944625854492188,0.3722355961799621,65.79999542236328,29.25,0
-0.6710119843482971,-0.519639253616333,0.5978301763534546,-34.09251403808594,0.3894467949867248,65.79999542236328,29.25,0
-0.6713211536407471,-0.5237988829612732,0.5851728916168213,-33.47541046142578,0.4004919528961181,65.79999542236328,29.25,0
-0.6603240370750427,-0.5264682769775391,0.588245689868927,-28.98808860778809,0.4075801074504852,65.79999542236328,29.25,0
-0.6588644981384277,-0.5281813740730286,0.590217649936676,-22.070819854736328,0.4121288657188415,65.79999542236328,29.25,0
-0.6467322707176208,-0.5180851817131042,0.5858853459358215,-14.98419189453125,0.4109165668487549,65.90389251708984,29.27,0
-0.6333487629890442,-0.5172038078308105,0.5663118362426758,-8.47673225402832,0.4101385772228241,65.97056579589844,29.27,0
-0.6303577423095703,-0.5166381597518921,0.5705440044403076,-1.3449947834014893,0.4096393287181854,66.01335144042969,29.27,0
-0.6620249152183533,-0.51627516746521,0.5956510305404663,6.760581016540527,0.4093189239501953,66.04080963134766,29.27,0
-0.6655538082122803,-0.5104444622993469,0.5949699878692627,13.209009170532228,0.4091133177280426,66.05843353271484,29.27,0
-0.6566228866577148,-0.512300431728363,0.5833373665809631,16.580568313598633,0.4089813530445099,66.06974029541016,29.27,0
-0.6564893126487732,-0.5134915113449097,0.5702744722366333,19.91932487487793,0.4088966846466064,66.07699584960938,29.27,0
-0.662001371383667,-0.5086580514907837,0.5674892067909241,25.142961502075195,0.4088423252105713,66.08164978027344,29.27,0
-0.6711364388465881,-0.4999584555625915,0.5712995529174805,28.9716739654541,0.4101845920085907,66.08464050292969,29.27,0
-0.6658032536506653,-0.499973326921463,0.5681470632553101,28.09334373474121,0.4110459983348846,66.08655548095703,29.27,0
-0.6623807549476624,-0.5111784338951111,0.5717217326164246,23.48137092590332,0.411598801612854,66.0877914428711,29.27,0
-0.660184383392334,-0.518369197845459,0.5684179663658142,18.612159729003903,0.4119535386562347,66.08858489990234,29.27,0
-0.6587748527526855,-0.5229838490486145,0.5662978291511536,16.623056411743164,0.4121811985969543,66.0890884399414,29.27,0
-0.663468062877655,-0.5147497057914734,0.5817305445671082,17.406545639038086,0.4123272895812988,66.08941650390625,29.27,0
-0.6720777153968811,-0.5094655156135559,0.5916343927383423,15.49827003479004,0.4124210476875305,66.0896224975586,29.27,0
-0.6720051169395447,-0.494878888130188,0.5867945551872253,4.33916711807251,0.4124812185764313,66.08975982666016,29.27,0
-0.6719585061073303,-0.4799202382564544,0.5836886167526245,-15.937911987304688,0.4125198423862457,66.08984375,29.27,0
-0.6775263547897339,-0.4759184122085571,0.5872932076454163,-37.54517364501953,0.4125446379184723,66.08989715576172,29.27,0
-0.6643061637878418,-0.4789480566978454,0.572813093662262,-52.2354621887207,0.4125605225563049,66.08993530273438,29.27,0
-0.6614199876785278,-0.4808923006057739,0.5635205507278442,-56.87294006347656,0.4125707149505615,66.08995819091797,29.27,0
-0.670763373374939,-0.4821400046348572,0.5687527060508728,-52.17154693603516,0.4125772714614868,66.08997344970703,29.27,0
-0.6655638217926025,-0.4885384738445282,0.5777081847190857,-40.28400421142578,0.4125814735889435,66.08998107910156,29.27,0
-0.6566293239593506,-0.498242437839508,0.577857494354248,-25.03154563903809,0.4125841856002807,66.0899887084961,29.27,0
-0.6452978849411011,-0.5044698715209961,0.5947466492652893,-10.385422706604004,0.4125859141349792,66.0899887084961,29.27,0
-0.6492215394973755,-0.5084663033485413,0.6111829280853271,2.9866926670074463,0.415341317653656,66.0899887084961,29.27,0
-0.646141767501831,-0.5166287422180176,0.5937418937683105,16.304309844970703,0.4171095490455627,66.0899887084961,29.27,0
-0.6497631072998047,-0.5162691473960876,0.6049403548240662,28.24349021911621,0.4182443022727966,66.0899887084961,29.27,0
-0.657684862613678,-0.5160383582115173,0.6009313464164734,36.07016754150391,0.4189725220203399,66.0899887084961,29.27,0
-0.6739641427993774,-0.5102924704551697,0.5983585715293884,39.27293014526367,0.4194398522377014,66.0899887084961,29.27,0
-0.6844112277030945,-0.5066050887107849,0.5967075228691101,38.40131378173828,0.4197397530078888,66.0899887084961,29.27,0
-0.6687244772911072,-0.5042387843132019,0.5788546204566956,33.79723358154297,0.4199322164058685,66.0899887084961,29.27,0
-0.6642553806304932,-0.4971224367618561,0.5785932540893555,27.14179992675781,0.4200557470321655,66.0899887084961,29.27,0
-0.6669851541519165,-0.4981533586978912,0.5728276968002319,20.6101188659668,0.422430008649826,66.20821380615234,29.25,0
-0.6743347644805908,-0.4988149404525757,0.5803232789039612,14.845712661743164,0.4239536821842193,66.28408813476562,29.25,0
-0.6734535098075867,-0.49364173412323,0.5851334929466248,9.845973014831545,0.4249314963817596,66.33277893066406,29.25,0
-0.6728879809379578,-0.4903218448162079,0.5770248770713806,5.537577152252197,0.4255589842796325,66.36402893066406,29.25,0
-0.6725250482559204,-0.4825935661792755,0.5774189829826355,1.235771894454956,0.4259616732597351,66.38407897949219,29.25,0
-0.6778899431228638,-0.483231782913208,0.5776719450950623,-3.072551965713501,0.4262200891971588,66.3969497680664,29.25,0
-0.6757350564002991,-0.4836413562297821,0.5778342485427856,-6.0272626876831055,0.4263859391212463,66.40520477294922,29.25,0
-0.6743521690368652,-0.489501953125,0.577938437461853,-6.816409587860107,0.4264923632144928,66.41050720214844,29.25,0
-0.6734647154808044,-0.4932629466056824,0.5724074840545654,-5.839653015136719,0.4279378056526184,66.41390991210938,29.25,0
-0.6728951930999756,-0.4956765472888946,0.5632602572441101,-3.7762136459350586,0.4288654029369354,66.41609191894531,29.25,0
-0.6725296974182129,-0.4972254633903503,0.5573900938034058,-1.7390847206115725,0.4294606745243072,66.41748809814453,29.25,0
-0.6778929233551025,-0.4982194602489471,0.5592207312583923,-1.037227749824524,0.4298426806926727,66.41838836669922,29.25,0
-0.6757369637489319,-0.4988573491573334,0.5659933090209961,-1.7045800685882568,0.4300878345966339,66.4189682006836,29.25,0
-0.6687555909156799,-0.504864513874054,0.570339560508728,-2.6738171577453613,0.4302451610565185,66.4193344116211,29.25,0
-0.6642753481864929,-0.5087195634841919,0.5675309896469116,-3.59675407409668,0.430346131324768,66.41957092285156,29.25,0
-0.6669979691505432,-0.5055957436561584,0.5657286047935486,-5.066772937774658,0.4304109215736389,66.41972351074219,29.25,0
-0.668745219707489,-0.503591001033783,0.5701696872711182,-7.350029468536377,0.4350432157516479,66.4198226928711,29.25,0
-0.6698665022850037,-0.5023044943809509,0.5618242025375366,-9.968881607055664,0.4380159676074981,66.41988372802734,29.25,0
-0.6649882793426514,-0.501478910446167,0.5676640868186951,-11.98985481262207,0.4399237036705017,66.419921875,29.25,0
-0.6674554944038391,-0.5009490847587585,0.5658140182495117,-12.477137565612791,0.4411479830741882,66.41995239257812,29.25,0
-0.6690388321876526,-0.5006090402603149,0.5646267533302307,-11.37472915649414,0.4419336318969726,66.41996765136719,29.25,0
-0.6644571423530579,-0.505988597869873,0.5638648271560669,-9.639068603515623,0.4424378275871277,66.41997528076172,29.25,0
-0.6615168452262878,-0.5094408988952637,0.5633758902549744,-8.073816299438477,0.4427613914012909,66.41998291015625,29.25,0
-0.6652277112007141,-0.5116564035415649,0.5630620718002319,-6.832878112792969,0.4429690241813659,66.41999053955078,29.25,0
-0.6676091551780701,-0.5130782127380371,0.5628607273101807,-6.115331649780273,0.455496221780777,66.41999053955078,29.25,0
-0.6635396480560303,-0.5139906406402588,0.5627315044403076,-6.260307312011719,0.4635354280471802,66.41999053955078,29.25,0
-0.6609280705451965,-0.5145761370658875,0.5682463645935059,-7.073441982269287,0.4686945378780365,66.41999053955078,29.25,0
-0.6648498773574829,-0.5093541145324707,0.5717854499816895,-7.824549674987793,0.4720053672790527,66.41999053955078,29.25,0
-0.6673666834831238,-0.5116007328033447,0.5684588551521301,-7.87307596206665,0.4741300642490387,66.41999053955078,29.25,0
-0.6689818501472473,-0.5130424499511719,0.5719218254089355,-6.879600524902344,0.4754935801029205,66.41999053955078,29.25,0
-0.6700183153152466,-0.5139676928520203,0.5685464143753052,-4.762441635131836,0.4763686060905456,66.41999053955078,29.25,0
-0.6706835031509399,-0.5201591849327087,0.5663802623748779,-1.823854684829712,0.4769301414489746,66.41999053955078,29.25,0
-0.6767081618309021,-0.518534779548645,0.5593923330307007,1.3481059074401855,0.4805040657520294,66.54537963867188,29.19,0
-0.6805744171142578,-0.5174923539161682,0.5549079179763794,4.207679748535156,0.4827975928783417,66.62584686279297,29.19,0
-0.6774578094482422,-0.5168233513832092,0.5576278567314148,6.246996402740479,0.4842694699764251,66.677490234375,29.19,0
-0.6698599457740784,-0.5219917893409729,0.5593733191490173,7.04698657989502,0.4852140247821808,66.71063232421875,29.19,0
-0.6705818772315979,-0.5197108387947083,0.5604934692382812,6.851024627685547,0.4858201742172241,66.73190307617188,29.19,0
-0.6710451245307922,-0.5182470679283142,0.5668100714683533,6.510313034057617,0.4862091839313507,66.74555206298828,29.19,0
-0.6769402027130127,-0.517307698726654,0.5596681833267212,6.377645492553711,0.48645880818367,66.75431060791016,29.19,0
-0.6807233095169067,-0.5111070871353149,0.5662804841995239,6.045309543609619,0.4866190254688263,66.75993347167969,29.19,0
-0.683151125907898,-0.501530110836029,0.5649260878562927,5.219415187835693,0.4908532500267029,66.76354217529297,29.19,0
-0.6735135912895203,-0.5065796971321106,0.5584591627120972,4.105443477630615,0.4935705363750458,66.76585388183594,29.19,0
-0.6617310047149658,-0.5098202228546143,0.5599068403244019,2.9893124103546143,0.4953143298625946,66.76734161376953,29.19,0
-0.6597673892974854,-0.5174975991249084,0.5608358383178711,2.029428482055664,0.4964334070682525,66.76829528808594,29.19,0
-0.6585072875022888,-0.5224245190620422,0.5614320635795593,1.363274097442627,0.4971515536308288,66.76890563964844,29.19,0
-0.6632963418960571,-0.5199885368347168,0.5674124360084534,0.9250268936157228,0.4976124465465545,66.76929473876953,29.19,0
-0.6607719659805298,-0.5184252858161926,0.5656524896621704,0.2461191713809967,0.49790820479393,66.76954650878906,29.19,0
-0.6647497415542603,-0.517422080039978,0.5589253306388855,-0.9813140034675598,0.4980980157852173,66.76970672607422,29.19,0
-0.6729001998901367,-0.516778290271759,0.5602059960365295,-2.177423477172852,0.4982198178768158,66.76981353759766,29.19,0
-0.6781306862831116,-0.5107673406600952,0.5554300546646118,-2.3574752807617188,0.4982979893684387,66.76988220214844,29.19,0
-0.6758895516395569,-0.5125076174736023,0.5467673540115356,-1.3158502578735352,0.4983481466770172,66.7699203491211,29.19,0
-0.6744512915611267,-0.508026659488678,0.5468059182167053,0.3199001252651214,0.4983803331851959,66.76995086669922,29.19,0
-0.6791260838508606,-0.5051510334014893,0.5524284243583679,2.010911703109741,0.4984009861946106,66.76996612548828,29.19,0
-0.6821261048316956,-0.5033056139945984,0.5504388809204102,3.654987335205078,0.4984142482280731,66.76997375488281,29.19,0
-0.672855794429779,-0.507719099521637,0.5491620898246765,5.122056484222412,0.498422771692276,66.76998138427734,29.19,0
-0.6725044250488281,-0.5105514526367188,0.5483427047729492,6.016963481903076,0.4984282255172729,66.76998901367188,29.19,0
-0.6834744811058044,-0.5179668664932251,0.5422191023826599,6.207927703857422,0.4998088777065277,66.76998901367188,29.19,0
-0.7017099857330322,-0.5227256417274475,0.5382893681526184,6.02595853805542,0.5006949305534363,66.76998901367188,29.19,0
-0.7022169232368469,-0.5201817750930786,0.5357674360275269,5.669148921966553,0.5012634992599487,66.76998901367188,29.19,0
-0.702542245388031,-0.5185492634773254,0.5341490507125854,5.09982442855835,0.5016283988952637,66.76998901367188,29.19,0
-0.70834881067276,-0.5119038224220276,0.5275126695632935,4.562500953674316,0.5018625855445862,66.76998901367188,29.19,0
-0.7064773440361023,-0.5076391696929932,0.5288515686988831,4.253503322601318,0.5020128488540649,66.76998901367188,29.19,0
-0.6996785402297974,-0.5105001330375671,0.5241130590438843,3.8008437156677246,0.5021092891693115,66.76998901367188,29.19,0
-0.7009132504463196,-0.5123361349105835,0.5210721492767334,3.015957355499268,0.5021711587905884,66.76998901367188,29.19,0
-0.7073034048080444,-0.5135143995285034,0.5191206932067871,2.2041609287261963,0.503128707408905,67.0064468383789,29.19,0
-0.7114042043685913,-0.514270544052124,0.5178683400154114,1.2712005376815796,0.5037432312965393,67.15818786621094,29.19,0
-0.7028403282165527,-0.5147557854652405,0.51706463098526,-0.2159985303878784,0.5041375756263733,67.25556945800781,29.19,0
-0.7029423117637634,-0.5094693899154663,0.5221466422080994,-2.202178955078125,0.5043906569480896,67.31806182861328,29.19,0
-0.7142032980918884,-0.511674702167511,0.5254079699516296,-4.3867692947387695,0.5045530796051025,67.35816192626953,29.19,0
-0.7046366333961487,-0.5130899548530579,0.5163053870201111,-6.609123706817627,0.5046573281288147,67.38389587402344,29.19,0
-0.6984972953796387,-0.5139981508255005,0.5160616040229797,-8.461628913879395,0.5047242045402527,67.4004135131836,29.19,0
-0.705752968788147,-0.5089831948280334,0.5159052014350891,-9.424757957458496,0.504767119884491,67.4110107421875,29.19,0
-0.7104092240333557,-0.5113626718521118,0.5214025974273682,-9.39797592163086,0.5029585957527161,67.41781616210938,29.19,0
-0.7022018432617188,-0.5128896832466125,0.524930477142334,-8.520970344543457,0.5017979741096497,67.42218017578125,29.19,0
-0.7025325894355774,-0.5082718729972839,0.5215967297554016,-6.76157808303833,0.5010531544685364,67.42498016357422,29.19,0
-0.7083426117897034,-0.5053083896636963,0.5138595104217529,-4.242462158203125,0.5005751848220825,67.4267807006836,29.19,0
-0.717668890953064,-0.5034066438674927,0.5200898051261902,-1.633465051651001,0.5002684593200684,67.42793273925781,29.19,0
-0.7236539721488953,-0.5021861791610718,0.5240880250930786,0.1948899030685424,0.5000715851783752,67.42867279052734,29.19,0
-0.7107015252113342,-0.5014029741287231,0.521056056022644,0.7699326872825623,0.4999452531337738,67.42914581298828,29.19,0
-0.7023894190788269,-0.5009003281593323,0.5135125517845154,0.2719788253307342,0.4998641908168793,67.42945098876953,29.19,0
-0.7082507014274597,-0.5005778074264526,0.5086715817451477,-0.5992960333824158,0.4998121857643127,67.42964935302734,29.19,0
-0.7176099419593811,-0.5059685707092285,0.5167604684829712,-1.3017330169677734,0.4997788071632385,67.42977142333984,29.19,0
-0.7180183529853821,-0.509428083896637,0.52195143699646,-2.024792432785034,0.4997573792934418,67.42985534667969,29.19,0
-0.7070848941802979,-0.5116481781005859,0.5196849703788757,-3.352210998535156,0.499743640422821,67.4299087524414,29.19,0
-0.7168617844581604,-0.5130729079246521,0.5126326680183411,-5.551120281219482,0.4997348189353943,67.42993927001953,29.19,0
-0.7175382375717163,-0.508389413356781,0.5081069469451904,-8.502761840820312,0.4997291564941406,67.42996215820312,29.19,0
-0.7123745679855347,-0.5109816193580627,0.50520259141922,-11.862228393554688,0.4997255206108093,67.42997741699219,29.19,0
-0.7146586179733276,-0.5126451253890991,0.5033386945724487,-14.974687576293944,0.4997231960296631,67.42998504638672,29.19,0
-0.7217221856117249,-0.5137127041816711,0.5133381485939026,-17.290935516357422,0.4983445405960083,67.42999267578125,29.19,0
-0.7206573486328125,-0.5143977999687195,0.5197551846504211,-18.68780517578125,0.4974597990512848,67.42999267578125,29.19,0
-0.7143762707710266,-0.5148374438285828,0.5126777291297913,-19.16507339477539,0.4968920350074768,67.42999267578125,29.19,0
-0.7159432172775269,-0.5151196122169495,0.5081358551979065,-18.787086486816406,0.4965276718139648,67.42999267578125,29.19,0
-0.7225465178489685,-0.5153006911277771,0.5052211284637451,-17.548559188842773,0.496293842792511,67.42999267578125,29.19,0
-0.7211863994598389,-0.5098190903663635,0.5089483857154846,-14.743918418884276,0.4961437880992889,67.42999267578125,29.19,0
-0.720313549041748,-0.5118991136550903,0.511340320110321,-9.486876487731934,0.4960474967956543,67.42999267578125,29.19,0
-0.7197533845901489,-0.5076361894607544,0.5128753185272217,-2.491225242614746,0.4959856867790222,67.42999267578125,29.19,0
-0.7193939089775085,-0.5104982256889343,0.5082626342773438,4.262369155883789,0.4945688843727112,67.6592788696289,29.19,0
-0.7191632390022278,-0.512334942817688,0.5053024888038635,9.75719165802002,0.4936596751213074,67.8064193725586,29.19,0
-0.7246129512786865,-0.5135136246681213,0.5090005993843079,14.211338996887209,0.4930762052536011,67.90084838867188,29.19,0
-0.7225124835968018,-0.5086722373962402,0.5169715881347656,17.49608039855957,0.492701768875122,67.9614486694336,29.19,0
-0.7211645245552063,-0.505565345287323,0.5164891481399536,19.07740020751953,0.4924614727497101,68.00033569335938,29.19,0
-0.7147017121315002,-0.5035715103149414,0.5105817914009094,19.23238182067871,0.4923072457313537,68.0252914428711,29.19,0
-0.7049564719200134,-0.5078897476196289,0.5067907571792603,18.855358123779297,0.4922082722187042,68.04130554199219,29.19,0
-0.7098981142044067,-0.5106609463691711,0.5099557042121887,18.23723602294922,0.492144763469696,68.05158233642578,29.19,0
-0.7130693793296814,-0.5124393701553345,0.5119867920875549,17.063140869140625,0.4925629496574402,68.05818176269531,29.19,0
-0.7151045203208923,-0.5079828500747681,0.5132902264595032,15.360292434692385,0.492831289768219,68.06241607666016,29.19,0
-0.7108127474784851,-0.5051229596138,0.5141266584396362,13.561735153198242,0.4930035173892975,68.06513214111328,29.19,0
-0.7080585360527039,-0.4976898431777954,0.5090656876564026,11.751913070678713,0.493114024400711,68.06687927246094,29.19,0
-0.7174866199493408,-0.4929197132587433,0.5170133709907532,9.755733489990234,0.4931849539279938,68.06800079345703,29.19,0
-0.7179392576217651,-0.4954562783241272,0.5109182000160217,7.73310661315918,0.4932304620742798,68.06871795654297,29.19,0
-0.7126319408416748,-0.4970841109752655,0.5126044750213623,5.990861892700195,0.4932596683502197,68.06917572021484,29.19,0
-0.7148237824440002,-0.4925309717655182,0.5080888271331787,4.38555908203125,0.4932784140110016,68.06947326660156,29.19,0
-0.7162303924560547,-0.489609032869339,0.5051909685134888,2.35941219329834,0.49237260222435,68.06966400146484,29.19,0
-0.7115352749824524,-0.4933316707611084,0.5089290142059326,-0.4240384101867676,0.491791307926178,68.06978607177734,29.19,0
-0.7141200304031372,-0.5013183951377869,0.5113279223442078,-3.403294563293457,0.4914182424545288,68.06986236572266,29.19,0
-0.7157787680625916,-0.5008460879325867,0.5184651613235474,-5.3868608474731445,0.4911788403987884,68.06990814208984,29.19,0
-0.7168432474136353,-0.5005429983139038,0.5174476504325867,-5.875215530395508,0.4910252094268799,68.06993865966797,29.19,0
-0.7119286060333252,-0.5003484487533569,0.5111969113349915,-5.411194801330566,0.4909266233444214,68.06996154785156,29.19,0
-0.7143723964691162,-0.5002236366271973,0.5127832889556885,-4.396897792816162,0.4908633530139923,68.06997680664062,29.19,0
-0.7103429436683655,-0.5057412981987,0.5138013362884521,-2.7536070346832275,0.4908227622509002,68.06998443603516,29.19,0
-0.7077570557594299,-0.5092822313308716,0.5144546627998352,-0.6027694940567017,0.4889602661132812,68.06999206542969,29.19,0
-0.7172931432723999,-0.5115545988082886,0.5148739218711853,1.6767408847808838,0.4877650141716003,68.06999206542969,29.19,0
-0.7234128713607788,-0.5130128264427185,0.5207407474517822,3.6590728759765625,0.4869979619979858,68.06999206542969,29.19,0
-0.7217423915863037,-0.5139486789703369,0.5133101940155029,4.719847202301025,0.4865057170391083,68.06999206542969,29.19,0
-0.7150725722312927,-0.5145492553710938,0.5085417032241821,4.558686256408691,0.4861898422241211,68.06999206542969,29.19,0
-0.7163900136947632,-0.5149346590042114,0.5110793709754944,3.781738042831421,0.48598712682724,68.06999206542969,29.19,0
-0.7228332757949829,-0.5151819586753845,0.5127078890800476,3.433605432510376,0.4858570396900177,68.06999206542969,29.19,0
-0.7157726287841797,-0.5153406858444214,0.5081551671028137,3.9911954402923584,0.4857735335826874,68.06999206542969,29.19,0
-0.7168393135070801,-0.5154425501823425,0.5052335262298584,4.814759731292725,0.4857199490070343,68.2921142578125,29.21,0
-0.7175238132476807,-0.5099101662635803,0.5089563727378845,4.748568058013916,0.4856855571269989,68.43466186523438,29.21,0
-0.7179630994796753,-0.5063597559928894,0.5113454461097717,3.5238401889801025,0.485663503408432,68.52613830566406,29.21,0
-0.7182450294494629,-0.5040813088417053,0.5072808265686035,2.0607736110687256,0.4856493473052978,68.58484649658203,29.21,0
-0.7184259295463562,-0.5026191473007202,0.5046724081039429,1.0322972536087036,0.4856402575969696,68.62252044677734,29.21,0
-0.7185420393943787,-0.5072786211967468,0.5029984712600708,0.0892568454146385,0.4856344163417816,68.64669799804688,29.21,0
-0.7186165452003479,-0.5102687478065491,0.5075220465660095,-1.1213874816894531,0.4856306910514831,68.6622085571289,29.21,0
-0.7186643481254578,-0.512187659740448,0.5104249715805054,-2.331800937652588,0.4856282770633697,68.67216491699219,29.21,0
-0.7242928147315979,-0.5134190917015076,0.5122879147529602,-3.3593549728393555,0.4837906658649444,68.67855834960938,29.21,0
-0.7279048562049866,-0.5142093896865845,0.513483464717865,-4.326881408691406,0.4826113879680633,68.68265533447266,29.21,0
-0.7246250510215759,-0.5147165656089783,0.5142506957054138,-4.994357585906982,0.4818546175956726,68.68528747558594,29.21,0
-0.7225202918052673,-0.5094442367553711,0.5147430300712585,-4.845911026000977,0.4813689589500427,68.68697357177734,29.21,0
-0.7211695313453674,-0.506060779094696,0.5094612240791321,-3.8836631774902335,0.4810572862625122,68.68805694580078,29.21,0
-0.7259004712104797,-0.5038894414901733,0.5116694569587708,-2.5353024005889893,0.4808572828769684,68.68875122070312,29.21,0
-0.7289365530014038,-0.5024960041046143,0.5074887871742249,-1.1039550304412842,0.4807289242744446,68.68920135498047,29.21,0
-0.725287139415741,-0.5016018152236938,0.504805862903595,0.0617990009486675,0.480646550655365,68.68949127197266,29.21,0
-0.7229451537132263,-0.5010279417037964,0.503084123134613,0.6092885732650757,0.4819708168506622,68.6896743774414,29.21,0
-0.7270399928092957,-0.5062574744224548,0.5019792318344116,0.7850896716117859,0.4828206598758697,68.68978881835938,29.21,0
-0.7240700125694275,-0.5096134543418884,0.4956723749637604,1.1379412412643433,0.4833660423755646,68.68986511230469,29.21,0
-0.7221640944480896,-0.5117671489715576,0.4972227811813354,1.529179573059082,0.4837160408496856,68.68991088867188,29.21,0
-0.7265387177467346,-0.5187470316886902,0.5038155317306519,1.3575098514556885,0.4839406609535217,68.68994140625,29.21,0
-0.7237483263015747,-0.5120307803153992,0.5080463886260986,0.6239739656448364,0.4840847849845886,68.6899642944336,29.21,0
-0.7219576239585876,-0.5077206492424011,0.5107614994049072,-0.086799718439579,0.48417729139328,68.68997955322266,29.21,0
-0.7152106761932373,-0.5105524659156799,0.5069060921669006,-0.4247083365917206,0.4842366576194763,68.68998718261719,29.21,0
-0.7164786458015442,-0.506771981716156,0.5044319033622742,-0.5197510719299316,0.4838158190250397,68.68999481201172,29.21,0
-0.7172923684120178,-0.5043458938598633,0.5084419250488281,-0.6631432771682739,0.4835457503795624,68.68999481201172,29.21,0
-0.7234123349189758,-0.4971911609172821,0.5110152959823608,-1.0955088138580322,0.4833724498748779,68.68999481201172,29.21,0
-0.7273398041725159,-0.4925996661186218,0.5070689916610718,-1.8458760976791384,0.483261227607727,68.68999481201172,29.21,0
-0.7242624163627625,-0.4896531105041504,0.510134220123291,-2.646267890930176,0.4831898510456085,68.68999481201172,29.21,0
-0.7278853058815002,-0.4933599531650543,0.5121013522148132,-3.177826166152954,0.4831440448760986,68.68999481201172,29.21,0
-0.7246125340461731,-0.4901410341262817,0.5133637189865112,-3.4902892112731934,0.4831146597862243,68.68999481201172,29.21,0
-0.7281100153923035,-0.4936730861663818,0.5141738653182983,-3.887851476669312,0.4830957949161529,68.68999481201172,29.21,0
-0.7247567176818848,-0.4959397614002228,0.5090959668159485,-4.494076251983643,0.4812472462654114,69.055419921875,29.19,0
-0.7226047515869141,-0.491796612739563,0.5002394914627075,-5.209130764007568,0.4800609648227691,69.28992462158203,29.19,0
-0.7268215417861938,-0.4947355389595032,0.5001537203788757,-5.796984672546387,0.4792996942996979,69.44042205810547,29.19,0
-0.7351254224777222,-0.4966215789318084,0.5056964159011841,-5.729996204376221,0.4788111448287964,69.53700256347656,29.19,0
-0.7236610054969788,-0.4978319108486175,0.5092533826828003,-4.56566047668457,0.4784976243972778,69.5989761352539,29.19,0
-0.716303825378418,-0.498608648777008,0.5059382915496826,-2.722188711166382,0.4782964289188385,69.63874816894531,29.19,0
-0.7227779626846313,-0.4935093224048614,0.5094086527824402,-1.1629842519760132,0.4781672954559326,69.66427612304688,29.19,0
-0.7269327044487,-0.4958346486091614,0.5060379505157471,-0.3200097978115082,0.4780844449996948,69.68065643310547,29.19,0
-0.7240011692047119,-0.497326910495758,0.515070378780365,0.0597467422485351,0.47894948720932,69.69116973876953,29.19,0
-0.722119927406311,-0.4982845783233642,0.5152691006660461,0.2425488233566284,0.4795046150684356,69.69791412353516,29.19,0
-0.7153148651123047,-0.4988991320133209,0.5097988247871399,0.2559659779071808,0.4798608720302582,69.70223999023438,29.19,0
-0.722143292427063,-0.4992935359477997,0.5062883496284485,0.0961952954530716,0.4800894856452942,69.70501708984375,29.19,0
-0.7209275960922241,-0.499546617269516,0.5096333026885986,-0.0851529985666275,0.4802362024784088,69.70680236816406,29.19,0
-0.720147430896759,-0.4941112697124481,0.5117798447608948,-0.0725591704249382,0.4803303480148315,69.70794677734375,29.19,0
-0.7196468114852905,-0.4906231760978699,0.507559597492218,0.1074864566326141,0.4803907573223114,69.70867919921875,29.19,0
-0.7193255424499512,-0.4883847236633301,0.5104491114616394,0.2194467931985855,0.4804295301437378,69.70915222167969,29.19,0
-0.7191193699836731,-0.4869482219219208,0.5123034119606018,0.1050025597214698,0.4790772795677185,69.70945739746094,29.19,0
-0.7189870476722717,-0.4860263466835022,0.5134934186935425,-0.3374464213848114,0.4782094955444336,69.70964813232422,29.19,0
-0.7244998812675476,-0.4910325109958648,0.5142570734024048,-1.144440770149231,0.4776525795459747,69.70977020263672,29.19,0
-0.7224399447441101,-0.4886474013328552,0.514747142791748,-1.984755039215088,0.4772951900959015,69.70985412597656,29.19,0
-0.7211179733276367,-0.4927145540714264,0.5094638466835022,-2.5240204334259038,0.4770658314228058,69.70990753173828,29.19,0
-0.7202696204185486,-0.4953246116638183,0.5116711258888245,-2.8772549629211426,0.4769186377525329,69.7099380493164,29.19,0
-0.7197251915931702,-0.496999591588974,0.5130876302719116,-3.0609498023986816,0.4768241941928863,69.7099609375,29.19,0
-0.7249736189842224,-0.4980745017528534,0.5139966607093811,-2.816994428634644,0.4767635762691498,69.70997619628906,29.19,0
-0.7227439880371094,-0.4987643361091614,0.5145800113677979,-2.269937038421631,0.4767246842384338,69.7099838256836,29.19,0
-0.7213131189346313,-0.4992070198059082,0.5149543881416321,-1.6609216928482056,0.4766997098922729,69.70999145507812,29.19,0
-0.7203948497772217,-0.4938933253288269,0.5151946544647217,-0.6288096308708191,0.4766837060451507,69.70999145507812,29.19,0
-0.7198055982589722,-0.4904833137989044,0.5153488516807556,1.054574489593506,0.476673424243927,69.70999145507812,29.19,0
-0.7194274067878723,-0.4882949590682983,0.509850025177002,2.697337865829468,0.4766668379306793,69.70999145507812,29.19,0
-0.7247824668884277,-0.4924883842468261,0.5119189620018005,3.590353012084961,0.4766626060009002,69.70999145507812,29.19,0
-0.7226212620735168,-0.4895817041397095,0.5132466554641724,4.066709041595459,0.476659893989563,69.70999145507812,29.19,0
-0.7268321514129639,-0.4933141469955444,0.5140987038612366,4.86680269241333,0.4766581356525421,69.70999145507812,29.19,0
-0.7239366769790649,-0.4957094192504883,0.514645516872406,5.856739044189453,0.4771159291267395,70.11124420166016,29.21,0
-0.7220785021781921,-0.4972465634346008,0.5149964094161987,6.090775012969971,0.4774097204208374,70.36874389648438,29.21,0
-0.7208860516548157,-0.4926352202892303,0.5152215957641602,5.159027576446533,0.4775982499122619,70.53399658203125,29.21,0
-0.7257185578346252,-0.4896759390830993,0.5153661370277405,3.7263455390930176,0.477719247341156,70.64004516601562,29.21,0
-0.723222017288208,-0.4877768456935882,0.515458881855011,2.5131616592407227,0.4777969121932983,70.70809936523438,29.21,0
-0.7216199040412903,-0.4865581095218658,0.5155183672904968,1.5483161211013794,0.4778467416763305,70.75177001953125,29.21,0
-0.7205917239189148,-0.4913737773895263,0.5155565738677979,0.5852065682411194,0.4778787195682525,70.77980041503906,29.21,0
-0.7143341302871704,-0.4944641888141632,0.5155810713768005,-0.4914314150810241,0.4778992533683777,70.79778289794922,29.21,0
-0.7215139269828796,-0.4964474439620971,0.5155968070030212,-1.6946640014648438,0.4760763645172119,70.809326171875,29.21,0
-0.7205237150192261,-0.4977201819419861,0.5156068801879883,-2.914651393890381,0.4749065339565277,70.81673431396484,29.21,0
-0.7198882699012756,-0.4985369443893432,0.5156133770942688,-4.070157051086426,0.4741557836532593,70.82148742675781,29.21,0
-0.7250782251358032,-0.499061107635498,0.5156175494194031,-5.28101110458374,0.4736739993095398,70.82453918457031,29.21,0
-0.7172133326530457,-0.4993974864482879,0.515620231628418,-6.434238433837891,0.4733648300170898,70.82649993896484,29.21,0
-0.7177638411521912,-0.499613344669342,0.5100241899490356,-6.876959323883057,0.4731664061546325,70.82775115966797,29.21,0
-0.7181171178817749,-0.4997518658638,0.5120307207107544,-6.114960193634033,0.4730390906333923,70.82855987548828,29.21,0
-0.7183438539505005,-0.4998407661914825,0.5133184194564819,-4.440120220184326,0.4729573726654053,70.8290786743164,29.21,0
-0.7184893488883972,-0.4943000376224518,0.514144778251648,-2.534146785736084,0.4733638763427734,70.82940673828125,29.21,0
-0.7241805195808411,-0.4963420927524566,0.5146750807762146,-0.8954241275787354,0.4736247360706329,70.82962036132812,29.21,0
-0.7278327941894531,-0.4976525604724884,0.5150154232978821,0.3030993938446045,0.4737921357154846,70.82975769042969,29.21,0
-0.7245787978172302,-0.4984935522079468,0.5152338147163391,1.1403117179870603,0.4738995730876922,70.82984161376953,29.21,0
-0.7224906086921692,-0.4990332424640655,0.5097761750221252,1.6560908555984497,0.473968505859375,70.82990264892578,29.21,0
-0.7211505174636841,-0.4937818050384521,0.5062738060951233,1.7649686336517334,0.4740127623081207,70.82994079589844,29.21,0
-0.7202905416488647,-0.4904117584228515,0.5096239447593689,1.566146969795227,0.4740411639213562,70.82996368408203,29.21,0
-0.7253364324569702,-0.4938468039035797,0.5117738842964172,1.2809213399887085,0.4740593731403351,70.8299789428711,29.21,0
-0.722976803779602,-0.4904534518718719,0.5131535530090332,0.9760723114013672,0.474071055650711,70.82998657226562,29.21,0
-0.7214625477790833,-0.488275796175003,0.5140389800071716,0.7231165766716003,0.4740785658359527,70.82999420166016,29.21,0
-0.7148929834365845,-0.49247607588768,0.5090094208717346,0.6360182166099548,0.4740833938121795,70.82999420166016,29.21,0
-0.7162747979164124,-0.4951715767383575,0.5113794803619385,0.4583159387111664,0.4740864932537079,70.82999420166016,29.21,0
-0.7171615362167358,-0.4969013929367065,0.5073027014732361,-0.2361004203557968,0.4740884602069855,70.82999420166016,29.21,0
-0.7233284115791321,-0.4980114996433258,0.5158820152282715,-1.38392174243927,0.4740897417068481,70.82999420166016,29.21,0
-0.7272859215736389,-0.4987238943576813,0.5157899260520935,-2.54327130317688,0.4740905463695526,70.82999420166016,29.21,0
-0.7242278456687927,-0.4991810619831085,0.5101330876350403,-3.5201425552368164,0.4740910828113556,70.82999420166016,29.21,0
-0.7278631329536438,-0.4994744658470154,0.5065028071403503,-4.437230587005615,0.4736324846744537,71.13451385498047,29.21,0
-0.7301960587501526,-0.4996627569198608,0.509770929813385,-5.341032028198242,0.4733381867408752,71.32994079589844,29.21,0
-0.72609543800354,-0.4997835755348205,0.5118681788444519,-6.071507930755615,0.4731493294239044,71.45535278320312,29.21,0
-0.7234638929367065,-0.4998611211776733,0.513214111328125,-6.407730102539063,0.4730281233787536,71.53583526611328,29.21,0
-0.7217751145362854,-0.4999108612537384,0.5140778422355652,-6.1577630043029785,0.4729503393173218,71.58748626708984,29.21,0
-0.7262890934944153,-0.499942809343338,0.5090343356132507,-5.205599308013916,0.4729004204273224,71.6206283569336,29.21,0
-0.7235881686210632,-0.4999632835388183,0.5057977437973022,-3.67383337020874,0.4728683829307556,71.64189910888672,29.21,0
-0.7218548655509949,-0.4999764263629913,0.5037206411361694,-1.974319100379944,0.4728478193283081,71.65554809570312,29.21,0
-0.7263402938842773,-0.499984860420227,0.5023877024650574,-0.5540717840194702,0.4732935726642608,71.664306640625,29.21,0
-0.7236210107803345,-0.5055880546569824,0.5015323162078857,0.3537786304950714,0.4735796153545379,71.66992950439453,29.21,0
-0.7162781357765198,-0.5091838836669922,0.5065811276435852,0.8074120283126831,0.4737631976604461,71.67353820800781,29.21,0
-0.7171636819839478,-0.5058937072753906,0.5098211765289307,1.0627020597457886,0.4738810062408447,71.67584991455078,29.21,0
-0.7233297824859619,-0.5037822127342224,0.5063026547431946,1.337592363357544,0.4739565849304199,71.67733764648438,29.21,0
-0.7272868156433105,-0.5024272203445435,0.5040446519851685,1.6608867645263672,0.4740051031112671,71.67829132080078,29.21,0
-0.7242284417152405,-0.4959598779678345,0.5081933736801147,1.9507577419281008,0.4740362465381622,71.67890167236328,29.21,0
-0.7278635501861572,-0.4974072873592376,0.5052580237388611,1.9791468381881716,0.474056214094162,71.6792984008789,29.21,0
-0.7245985269546509,-0.4983361363410949,0.5033742785453796,1.4134055376052856,0.4722329676151275,71.67955017089844,29.21,0
-0.7281010150909424,-0.4989322423934936,0.5077632069587708,0.2585961818695068,0.4710628986358642,71.6797103881836,29.21,0
-0.7247509360313416,-0.5049125552177429,0.5049819946289062,-1.0342106819152832,0.4703120291233063,71.67981719970703,29.21,0
-0.722601056098938,-0.5087503790855408,0.5031971335411072,-2.121805191040039,0.4698301553726196,71.67988586425781,29.21,0
-0.721221387386322,-0.5000177025794983,0.5076494812965393,-2.9773941040039062,0.4695209264755249,71.67992401123047,29.21,0
-0.7203360199928284,-0.4944135844707489,0.5105067491531372,-3.687677621841431,0.4693224728107452,71.6799545288086,29.21,0
-0.7253655791282654,-0.4964149594306946,0.5123404264450073,-4.519667148590088,0.4691951274871826,71.67996978759766,29.21,0
-0.7229955196380615,-0.4921015501022339,0.5079193711280823,-5.666210651397705,0.4691134095191955,71.67997741699219,29.21,0
-0.7270722985267639,-0.4949312210083008,0.5050821900367737,-6.613368511199951,0.4690609574317932,71.67998504638672,29.21,0
-0.7296885251998901,-0.4967471361160278,0.5032614469528198,-6.562005519866943,0.4690272808074951,71.67999267578125,29.21,0
-0.7257696986198425,-0.4979124963283539,0.5076907873153687,-5.551000595092773,0.469005674123764,71.67999267578125,29.21,0
-0.7288526296615601,-0.4986603558063507,0.5105332732200623,-4.3504791259765625,0.4689918160438537,71.67999267578125,29.21,0
-0.7308310866355896,-0.4991402924060821,0.5123574137687683,-3.218213558197021,0.4689829349517822,71.67999267578125,29.21,0
-0.7209051847457886,-0.499448299407959,0.5079302787780762,-1.8323967456817627,0.4689772129058838,71.67999267578125,29.21,0
-0.7145352959632874,-0.4996459484100342,0.510686993598938,-0.3626820147037506,0.4689735472202301,71.67999267578125,29.21,0
-0.7216430306434631,-0.505370557308197,0.5124560594558716,0.4586886167526245,0.4689711928367615,71.67999267578125,29.21,0
-0.7206065654754639,-0.5034465193748474,0.5135913491249084,0.3839243352413177,0.4694286286830902,71.97377014160156,29.21,0
-0.7199414372444153,-0.5022117495536804,0.5087221264839172,0.013513121753931,0.469722181558609,72.16229248046875,29.21,0
-0.7195146083831787,-0.5014193654060364,0.5111951231956482,0.0301673971116542,0.4699105620384216,72.28327941894531,29.21,0
-0.719240665435791,-0.5009108781814575,0.5127821564674377,0.4994248747825622,0.4700314700603485,72.36092376708984,29.21,0
-0.7246626615524292,-0.5005845427513123,0.5138006210327148,0.9940263628959656,0.4701090455055237,72.41075134277344,29.21,0
-0.7225444316864014,-0.5003751516342163,0.5144542455673218,1.1896255016326904,0.4701588451862335,72.4427261352539,29.21,0
-0.721185028553009,-0.5002407431602478,0.5148736834526062,1.139603614807129,0.4701907932758331,72.46324157714844,29.21,0
-0.7259104251861572,-0.494556725025177,0.5207406282424927,1.0036077499389648,0.4702112972736358,72.47640991210938,29.21,0
-0.7289429306983948,-0.4909090399742126,0.518907904624939,0.8912553787231445,0.4688473045825958,72.48486328125,29.21,0
-0.7196934819221497,-0.4941659569740295,0.5121340155601501,0.9588745832443236,0.4679719805717468,72.49028778076172,29.21,0
-0.7249532341957092,-0.4906582832336426,0.5133846998214722,1.3032050132751465,0.4674102365970611,72.49376678466797,29.21,0
-0.7227308750152588,-0.494005024433136,0.5141872763633728,1.5994106531143188,0.4670497477054596,72.49600219726562,29.21,0
-0.721304714679718,-0.5017505288124084,0.5147023797035217,1.27360737323761,0.4668183922767639,72.4974365234375,29.21,0
-0.7091939449310303,-0.5011233687400818,0.5094351172447205,0.1867945492267608,0.4666699171066284,72.49835205078125,29.21,0
-0.7182152271270752,-0.5007209181785583,0.5060549378395081,-1.1841835975646973,0.4665746390819549,72.49893951416016,29.21,0
-0.7184067964553833,-0.5004626512527466,0.5094834566116333,-2.2467098236083984,0.4665135145187378,72.49932098388672,29.21,0
-0.7185297608375549,-0.5002968907356262,0.5172814726829529,-2.538077116012573,0.4669335782527923,72.49956512451172,29.21,0
-0.7186086773872375,-0.5001905560493469,0.5222858190536499,-1.804337978363037,0.467203140258789,72.49971771240234,29.21,0
-0.7242570519447327,-0.5001223087310791,0.5198995471000671,-0.3984142541885376,0.4673761129379272,72.49981689453125,29.21,0
-0.7222841382026672,-0.4944807291030884,0.5127703547477722,0.8835797905921936,0.4674871265888214,72.49988555908203,29.21,0
-0.7266157865524292,-0.4964580535888672,0.5081952810287476,1.7277852296829224,0.4675583839416504,72.49992370605469,29.21,0
-0.7349933385848999,-0.4977269768714905,0.4996614754199981,2.420015811920166,0.4676041007041931,72.49995422363281,29.21,0
-0.7347717881202698,-0.4985412955284118,0.4997827410697937,3.032630681991577,0.4676334261894226,72.49996948242188,29.21,0
-0.7290318608283997,-0.4990638792514801,0.4998605847358703,3.289633750915528,0.4676522612571716,72.4999771118164,29.21,0
-0.7253482937812805,-0.4993992447853088,0.4999105334281921,3.135714054107666,0.4681232869625091,72.49998474121094,29.21,0
-0.7285822033882141,-0.4996144771575928,0.5055403709411621,2.897217035293579,0.4684255421161651,72.49999237060547,29.21,0
-0.7306575179100037,-0.4997525811195373,0.5147510170936584,2.7692413330078125,0.4686195254325866,72.49999237060547,29.21,0
-0.7263915538787842,-0.4998412132263183,0.5150641202926636,2.5903842449188232,0.4687440097332001,72.49999237060547,29.21,0
-0.7236539125442505,-0.4998981058597564,0.5096672773361206,2.178250312805176,0.4688238799571991,72.49999237060547,29.21,0
-0.7274948358535767,-0.4999346137046814,0.5118016600608826,1.6271605491638184,0.4688751399517059,72.49999237060547,29.21,0
-0.7187641859054565,-0.4999580383300781,0.513171374797821,1.1301997900009155,0.4689080417156219,72.49999237060547,29.21,0
-0.7187591195106506,-0.4999730587005615,0.5084526538848877,0.7217146158218384,0.4689291715621948,72.49999237060547,29.21,0
-0.718755841255188,-0.4999827146530151,0.505424439907074,0.3019390106201172,0.4684838056564331,72.76510620117188,29.21,0
-0.7243515253067017,-0.4999889135360718,0.509078860282898,-0.196733683347702,0.4681979715824127,72.93524169921875,29.21,0
-0.7223447561264038,-0.4999928772449493,0.5114240646362305,-0.7603682279586792,0.4680145382881164,73.04442596435547,29.21,0
-0.7266547083854675,-0.4999954402446747,0.5129290819168091,-1.4086824655532837,0.4678968489170074,73.11449432373047,29.21,0
-0.72942054271698,-0.499997079372406,0.5082971453666687,-2.265389919281006,0.4678213000297546,73.15945434570312,29.21,0
-0.7255977392196655,-0.4999981224536896,0.5053246021270752,-3.15552020072937,0.4677728414535522,73.18830871582031,29.21,0
-0.728742241859436,-0.4944010078907013,0.5034170150756836,-3.493887186050415,0.4677417278289795,73.20682525634766,29.21,0
-0.7307602167129517,-0.4964068830013275,0.5077906250953674,-2.9694385528564453,0.4677217602729797,73.21871185302734,29.21,0
-0.7264574766159058,-0.4976941347122192,0.5105973482131958,-1.9235275983810425,0.4681678712368011,73.2263412475586,29.21,0
-0.723696231842041,-0.4929224550724029,0.5123985409736633,-0.8045002222061157,0.4684541523456573,73.23123168945312,29.21,0
-0.7275219559669495,-0.4898602664470672,0.5135544538497925,0.2468066662549972,0.4686378836631775,73.234375,29.21,0
-0.7243793606758118,-0.487895131111145,0.5142962336540222,1.0934385061264038,0.4687557816505432,73.23638916015625,29.21,0
-0.7279603481292725,-0.4866340160369873,0.5091745257377625,1.4791247844696045,0.4688314497470855,73.23767852783203,29.21,0
-0.7246606945991516,-0.485824704170227,0.5058876872062683,1.418534517288208,0.4688799977302551,73.23851013183594,29.21,0
-0.7281408905982971,-0.4853053390979767,0.5093761682510376,1.1826095581054688,0.4689111709594726,73.23904418945312,29.21,0
-0.7247765064239502,-0.4849720299243927,0.5116148591041565,0.8735731840133667,0.4689311683177948,73.23938751220703,29.21,0
-0.7226174473762512,-0.4847581386566162,0.5186492800712585,0.4889574646949768,0.4675668478012085,73.23960876464844,29.21,0
-0.7212318778038025,-0.4846208691596985,0.5119680166244507,0.2922892868518829,0.4666913151741028,73.23974609375,29.21,0
-0.7259405255317688,-0.4845327734947204,0.5132781863212585,0.4813456237316131,0.4661294519901275,73.23983764648438,29.21,0
-0.7345600128173828,-0.484476238489151,0.5085211992263794,0.7137309312820435,0.4657688736915588,73.23989868164062,29.21,0
-0.7288959622383118,-0.4844399690628052,0.5166639685630798,0.4723617434501648,0.4655374884605407,73.23993682861328,29.21,0
-0.7252610921859741,-0.4844166934490204,0.5162917375564575,-0.2664949297904968,0.4653889834880829,73.23995971679688,29.21,0
-0.72852623462677,-0.4899995326995849,0.5160529017448425,-1.0200914144515991,0.4652937054634094,73.23997497558594,29.21,0
-0.7194260358810425,-0.4879845082759857,0.5103018283843994,-1.3747336864471436,0.4652325510978699,73.23998260498047,29.21,0
-0.7191838622093201,-0.4866913855075836,0.5066111087799072,-1.3766204118728638,0.4651933014392853,73.239990234375,29.21,0
-0.7246261835098267,-0.491459310054779,0.5098404288291931,-1.5497947931289673,0.4651681184768677,73.239990234375,29.21,0
-0.7281187772750854,-0.4945190846920013,0.5175105929374695,-2.4813380241394043,0.4651519656181335,73.239990234375,29.21,0
-0.7247623205184937,-0.4908849000930786,0.51683509349823,-4.024948596954346,0.4651415944099426,73.239990234375,29.21,0
-0.7282061576843262,-0.4885526895523071,0.5164015889167786,-4.929567337036133,0.4651349186897278,73.239990234375,29.21,0
-0.7304161787033081,-0.4870559871196747,0.5105255842208862,-4.06273889541626,0.4651306569576263,73.239990234375,29.21,0
-0.7318344712257385,-0.486095517873764,0.5067546963691711,-1.8978819847106931,0.4651279151439667,73.239990234375,29.21,0
-0.7327446341514587,-0.4854791164398193,0.4987370073795318,0.2365742623805999,0.4651261568069458,73.239990234375,29.21,0
-0.7333287000656128,-0.4906813204288482,0.4991894960403442,1.781891703605652,0.4660432338714599,73.42987060546875,29.21,0
-0.7281057834625244,-0.4940198063850403,0.5050776600837708,2.744926691055298,0.4666317701339721,73.55171966552734,29.21,0
-0.7303518056869507,-0.4961622655391693,0.5032585263252258,3.036932945251465,0.4670094549655914,73.62992095947266,29.21,0
-0.7261953949928284,-0.4975371658802032,0.4964933693408966,2.916224241256714,0.4672518372535705,73.68010711669922,29.21,0
-0.7235280275344849,-0.4984194934368133,0.4977496564388275,2.9569852352142334,0.4674073755741119,73.71231079101562,29.21,0
-0.7274140119552612,-0.4989857077598572,0.5041536092758179,3.097785711288452,0.4675071835517883,73.73297882080078,29.21,0
-0.7299078106880188,-0.4993490874767303,0.508263349533081,2.8155555725097656,0.4675712585449219,73.7462387084961,29.21,0
-0.731508195400238,-0.499582290649414,0.5109007358551025,2.190196990966797,0.4676123559474945,73.75475311279297,29.21,0
-0.7325352430343628,-0.4941341578960418,0.5125932097434998,1.7709650993347168,0.4662615954875946,73.76021575927734,29.21,0
-0.7331943511962891,-0.490637868642807,0.5080816149711609,1.6129860877990725,0.4653947651386261,73.76371765136719,29.21,0
-0.7336173057556152,-0.4883941411972046,0.5107840895652771,1.2679890394210815,0.4648384749889374,73.7659683227539,29.21,0
-0.7282909750938416,-0.4869542419910431,0.5069206357002258,0.5772724151611328,0.4644814729690552,73.76741027832031,29.21,0
-0.7248728275299072,-0.4860302209854126,0.5044412612915039,-0.123935230076313,0.4642523825168609,73.7683334350586,29.21,0
-0.7338747978210449,-0.4854372143745422,0.5028501749038696,-0.552434504032135,0.4641053676605224,73.76892852783203,29.21,0
-0.7284561991691589,-0.4850566685199737,0.5018290877342224,-0.8524986505508423,0.464011013507843,73.7693099975586,29.21,0
-0.7361744046211243,-0.4904102385044098,0.5067715644836426,-1.3961549997329712,0.4639504551887512,73.7695541381836,29.21,0
-0.7299319505691528,-0.4938458502292633,0.5043455958366394,-2.3218369483947754,0.4643705189228058,73.76971435546875,29.21,0
-0.7259259223937988,-0.496050626039505,0.502788782119751,-3.3457953929901123,0.4646401107311249,73.76981353759766,29.21,0
-0.7289528846740723,-0.4974655210971832,0.5017896890640259,-3.945591926574707,0.4648131132125854,73.76988220214844,29.21,0
-0.7308954000473022,-0.4983735084533691,0.5067462921142578,-3.7537121772766113,0.4649241268634796,73.7699203491211,29.21,0
-0.726544201374054,-0.4933584332466125,0.5043293833732605,-2.767174005508423,0.4649953842163086,73.76995086669922,29.21,0
-0.729349672794342,-0.4901400506496429,0.5083761215209961,-1.3029130697250366,0.4650411009788513,73.76996612548828,29.21,0
-0.7311500310897827,-0.4936724603176117,0.5109730958938599,0.1884819418191909,0.4650704264640808,73.76997375488281,29.21,0
-0.7323054075241089,-0.4959393441677093,0.507041871547699,1.3461977243423462,0.4650892615318298,73.76998138427734,29.21,0
-0.73304682970047,-0.4973941147327423,0.5045190453529358,2.031831741333008,0.4655602872371673,73.76998901367188,29.21,0
-0.7279248833656311,-0.4983277022838592,0.5029000639915466,2.231799602508545,0.4658625423908233,73.76998901367188,29.21,0
-0.7246379256248474,-0.4989268183708191,0.5018610954284668,2.066356420516968,0.4660565257072449,73.76998901367188,29.21,0
-0.7281262874603271,-0.4993112981319427,0.5067921280860901,1.845542073249817,0.4661810100078583,73.76998901367188,29.21,0
-0.7247671484947205,-0.4939602613449096,0.5043587684631348,1.753992199897766,0.4662608802318573,73.76998901367188,29.21,0
-0.7226114869117737,-0.4961240291595459,0.5027971863746643,1.6343369483947754,0.4663121402263641,73.76998901367188,29.21,0
-0.7268258333206177,-0.4975126385688782,0.5073928236961365,1.3425946235656738,0.4663450419902801,73.76998901367188,29.21,0
-0.7239326238632202,-0.4928059875965118,0.504744291305542,0.9905726909637452,0.466366171836853,73.76998901367188,29.21,0
-0.7220759391784668,-0.4897855222225189,0.503044605255127,0.6392751336097717,0.465002566576004,73.95986938476562,29.23,0
-0.7264821529388428,-0.493444949388504,0.5019538402557373,0.2776946723461151,0.4641275107860565,74.08172607421875,29.23,0
-0.7293097972869873,-0.495793342590332,0.5012538433074951,0.0349054299294948,0.4635659456253052,74.15992736816406,29.23,0
-0.7311244606971741,-0.4917026460170746,0.5064024329185486,-0.1316504627466201,0.4632055461406708,74.21011352539062,29.23,0
-0.7266912460327148,-0.4946752488613128,0.504108726978302,-0.6469500660896301,0.4629742801189422,74.24231719970703,29.23,0
-0.7238462567329407,-0.4965828955173492,0.502636730670929,-1.7801365852355957,0.4628258645534515,74.26298522949219,29.23,0
-0.7276182770729065,-0.4978070855140686,0.5016921162605286,-3.2381958961486816,0.4627306163311004,74.2762451171875,29.23,0
-0.7244411706924438,-0.5041905045509338,0.5066836476325989,-4.342275619506836,0.4626694917678833,74.28475952148438,29.23,0
-0.7224022746086121,-0.5026892423629761,0.5098869800567627,-4.645979404449463,0.4640074074268341,74.29022216796875,29.23,0
-0.7210938334465027,-0.5017257928848267,0.5063449144363403,-4.34648323059082,0.4648660123348236,74.2937240600586,29.23,0
-0.720254123210907,-0.5011075139045715,0.5040717720985413,-3.842600107192993,0.4654169976711273,74.29597473144531,29.23,0
-0.7197152376174927,-0.5007107257843018,0.5026130080223083,-3.082162618637085,0.4657706022262573,74.29741668701172,29.23,0
-0.7193694114685059,-0.4948583245277405,0.5016768574714661,-1.859729528427124,0.4659975171089172,74.29833984375,29.23,0
-0.7303430438041687,-0.4967003762722015,0.5066738724708557,-0.4053007066249847,0.4661431312561035,74.29893493652344,29.23,0
-0.7261897325515747,-0.4978824853897095,0.5098806619644165,0.8075088262557983,0.4662365913391113,74.29931640625,29.23,0
-0.7235243916511536,-0.4986411035060882,0.5063408613204956,1.4783430099487305,0.4662965536117553,74.299560546875,29.23,0
-0.727411687374115,-0.4991279244422912,0.5040692090988159,1.572083592414856,0.4644989669322967,74.29972076416016,29.23,0
-0.7299063205718994,-0.4994403421878814,0.5026113986968994,1.3850431442260742,0.4633453786373138,74.29981994628906,29.23,0
-0.7315072417259216,-0.4996408522129059,0.5072736144065857,1.2865068912506104,0.4626050889492035,74.29988861083984,29.23,0
-0.7269368767738342,-0.4997695088386535,0.5046677589416504,1.273427963256836,0.4621300101280212,74.2999267578125,29.23,0
-0.7240038514137268,-0.4998520910739898,0.502995491027832,1.096653699874878,0.4618251323699951,74.29995727539062,29.23,0
-0.7277193665504456,-0.4999050796031952,0.4963245689868927,0.660778284072876,0.4616294801235199,74.29997253417969,29.23,0
-0.7245060205459595,-0.4999390840530395,0.4976413249969482,0.0048881350085139,0.4615039229393005,74.29998016357422,29.23,0
-0.7280416488647461,-0.4999608993530273,0.4984863400459289,-0.6918827891349792,0.4614233374595642,74.29998779296875,29.23,0
-0.7303106188774109,-0.4943771362304687,0.4990286231040954,-1.106787085533142,0.4622898399829864,74.29999542236328,29.23,0
-0.7261689305305481,-0.4963915646076202,0.4993766248226166,-1.1652593612670898,0.4628459215164184,74.29999542236328,29.23,0
-0.7347065806388855,-0.4976842999458313,0.4995999634265899,-1.2386091947555542,0.4632027745246887,74.29999542236328,29.23,0
-0.7345877885818481,-0.4985139071941376,0.4997432827949524,-1.6725990772247314,0.4634317755699157,74.29999542236328,29.23,0
-0.7289137840270996,-0.5046440958976746,0.5054330229759216,-2.4419217109680176,0.4635787308216095,74.29999542236328,29.23,0
-0.725272536277771,-0.5029802918434143,0.5034865736961365,-3.304633855819702,0.4636730551719665,74.29999542236328,29.23,0
-0.7229357957839966,-0.4963147938251495,0.5022374987602234,-3.915594339370728,0.4637335836887359,74.29999542236328,29.23,0
-0.7270339727401733,-0.4976350367069244,0.5014358758926392,-3.974493980407715,0.4637724161148071,74.29999542236328,29.23,0
-0.7240661978721619,-0.4928845167160034,0.5065192580223083,-3.439080238342285,0.4647152125835418,74.47554016113281,29.23,0
-0.7277594208717346,-0.4898359179496765,0.5097814798355103,-2.4756968021392822,0.4653202295303345,74.58819580078125,29.23,0
-0.7301294803619385,-0.4878795146942138,0.5118749737739563,-1.4024658203125,0.4657084941864013,74.66049194335938,29.23,0
-0.7260527014732361,-0.486624002456665,0.5132184624671936,-0.663571834564209,0.4659576714038849,74.7068862915039,29.23,0
-0.7234364748001099,-0.4914160668849945,0.5084828734397888,-0.4616679847240448,0.4661175608634949,74.73666381835938,29.23,0
-0.7217575311660767,-0.4944913387298584,0.5110415816307068,-0.6151211857795715,0.4662201702594757,74.75577545166016,29.23,0
-0.7262778282165527,-0.4964648485183716,0.512683629989624,-1.0288652181625366,0.4662860333919525,74.76803588867188,29.23,0
-0.7291787266731262,-0.4977313578128814,0.5137373805046082,-1.8819248676300049,0.4663282930850982,74.7759017944336,29.23,0
-0.731040358543396,-0.4929463267326355,0.5088158845901489,-3.213953256607056,0.4645193517208099,74.78095245361328,29.23,0
-0.73783278465271,-0.4898755848407745,0.5112553238868713,-4.753044605255127,0.463358461856842,74.78419494628906,29.23,0
-0.736594021320343,-0.4935027360916137,0.5128207802772522,-6.281713962554932,0.4626134932041168,74.7862777709961,29.23,0
-0.7246034741401672,-0.4902326464653015,0.5082276463508606,-7.771450996398926,0.4621354043483734,74.78761291503906,29.23,0
-0.7281041741371155,-0.4937318861484527,0.5052800178527832,-9.107232093811035,0.4618285894393921,74.78846740722656,29.23,0
-0.7303507328033447,-0.4959774911403656,0.5033884048461914,-9.978789329528809,0.4616316854953766,74.78901672363281,29.23,0
-0.7317924499511719,-0.4974185824394226,0.5077722668647766,-10.079535484313965,0.4615053236484527,74.78936767578125,29.23,0
-0.7327176928520203,-0.4983434081077575,0.5105855464935303,-9.223465919494627,0.4614242315292358,74.78959655761719,29.23,0
-0.7333114147186279,-0.4933391213417053,0.5123909711837769,-7.398693084716797,0.4627493321895599,74.78974151611328,29.23,0
-0.733692467212677,-0.4901276528835296,0.5135495662689209,-4.844784736633301,0.4635997116565704,74.78983306884766,29.23,0
-0.7339369654655457,-0.4880667328834533,0.5142931342124939,-1.966262459754944,0.4641454517841339,74.7898941040039,29.23,0
-0.7340939044952393,-0.4867441356182098,0.5091724991798401,0.8805460929870605,0.4644956588745117,74.78993225097656,29.23,0
-0.7341946363449097,-0.4858953654766083,0.5058863759040833,3.527873992919922,0.4647203981876373,74.78995513916016,29.23,0
-0.7286614775657654,-0.4853506684303283,0.5037775635719299,5.950456619262695,0.4648646414279938,74.78997039794922,29.23,0
-0.7363061904907227,-0.4850011169910431,0.5080220103263855,8.031769752502441,0.4649572074413299,74.78997802734375,29.23,0
-0.7356142997741699,-0.4847767949104309,0.5107458233833313,9.52865219116211,0.4650166034698486,74.78998565673828,29.23,0
-0.7295725345611572,-0.4846328496932983,0.5124938488006592,10.424778938293455,0.4645957946777344,74.78999328613281,29.23,0
-0.7312930822372437,-0.4845404624938965,0.513615608215332,10.89238452911377,0.4643257558345794,74.78999328613281,29.23,0
-0.7267994284629822,-0.4844811856746673,0.5143355131149292,10.870035171508787,0.464152455329895,74.78999328613281,29.23,0
-0.72951340675354,-0.4844431579113006,0.5147975087165833,10.232324600219728,0.4640412330627441,74.78999328613281,29.23,0
-0.7312551140785217,-0.4844187498092651,0.5094962120056152,9.221205711364746,0.4639698565006256,74.78999328613281,29.23,0
-0.7323728203773499,-0.4844030737876892,0.5116918683052063,8.257061004638672,0.4639240503311157,74.78999328613281,29.23,0
-0.7386878728866577,-0.4787952303886413,0.5131009221076965,7.498607635498047,0.4638946652412414,74.78999328613281,29.23,0
-0.7315449714660645,-0.4751964509487152,0.5084074139595032,6.829164981842041,0.46387580037117,74.78999328613281,29.23,0
-0.7325588464736938,-0.4728869497776031,0.5053954124450684,5.991141319274902,0.4620272517204284,74.96553802490234,29.19,0
-0.733209490776062,-0.4770026206970215,0.509060263633728,4.869386196136475,0.4608409702777862,75.07819366455078,29.19,0
-0.7336270213127136,-0.4796438217163086,0.5170099139213562,3.7446773052215576,0.4600796997547149,75.1504898071289,29.19,0
-0.7338950037956238,-0.4813387989997864,0.5165137648582458,2.944087266921997,0.4595911502838135,75.19688415527344,29.19,0
-0.72846919298172,-0.4824265539646148,0.5161953568458557,2.4052367210388184,0.4592776298522949,75.2266616821289,29.19,0
-0.730584979057312,-0.4831246137619018,0.5159910321235657,1.840896248817444,0.4590764343738556,75.24577331542969,29.19,0
-0.7319427728652954,-0.4835725724697113,0.5158599019050598,1.0416607856750488,0.4589473009109497,75.2580337524414,29.19,0
-0.7328141331672668,-0.483860045671463,0.515775740146637,-0.0337069034576416,0.4588644504547119,75.26589965820312,29.19,0
-0.7277755737304688,-0.4840445220470428,0.5157217383384705,-1.207463622093201,0.4597294926643371,75.27095031738281,29.19,0
-0.7301398515701294,-0.4841629266738891,0.515687108039856,-2.2294063568115234,0.4602846205234527,75.2741928100586,29.19,0
-0.7316571474075317,-0.4842388927936554,0.5156648755073547,-2.981959819793701,0.4606408774852752,75.27627563476562,29.19,0
-0.7270330786705017,-0.4842876493930816,0.5156505703926086,-3.2606985569000244,0.4608694911003113,75.2776107788086,29.19,0
-0.7296633720397949,-0.4843189418315887,0.521239161491394,-2.816208839416504,0.4610162079334259,75.2784652709961,29.19,0
-0.731351375579834,-0.484339028596878,0.5192278623580933,-1.8538542985916135,0.4611103534698486,75.27901458740234,29.19,0
-0.7268368601799011,-0.4787541329860687,0.5123393535614014,-0.9317514896392822,0.4611707627773285,75.27936553955078,29.19,0
-0.7295374274253845,-0.4807678461074829,0.5079187154769897,-0.2575997710227966,0.4612095355987549,75.27959442138672,29.19,0
-0.725672721862793,-0.4764623641967773,0.5106795430183411,0.3649085164070129,0.4612344205379486,75.27973937988281,29.19,0
-0.7287904024124146,-0.4792971312999725,0.5180490612983704,1.0295090675354004,0.4612503945827484,75.27983093261719,29.19,0
-0.7307911515235901,-0.4811163246631622,0.5171806216239929,1.5885666608810425,0.4612606465816498,75.27989196777344,29.19,0
-0.7376728653907776,-0.4766860008239746,0.516623318195343,1.9437551498413088,0.4612672328948974,75.2799301147461,29.19,0
-0.730893611907959,-0.4794406294822693,0.5106678605079651,2.132286310195923,0.4612714648246765,75.27995300292969,29.19,0
-0.7265430688858032,-0.4756106436252594,0.5124437808990479,2.160127878189087,0.4612741768360138,75.27996826171875,29.19,0
-0.7349466681480408,-0.4787505269050598,0.5135834813117981,1.995283603668213,0.4612759053707123,75.27997589111328,29.19,0
-0.7291440963745117,-0.480765551328659,0.5199126601219177,1.7032020092010498,0.4612770080566406,75.27998352050781,29.19,0
-0.725420355796814,-0.4876564443111419,0.5183765888214111,1.4441094398498535,0.460359513759613,75.27999114990234,29.19,0
-0.7342262268066406,-0.4864808320999145,0.5061952471733093,1.2133523225784302,0.4597707092761993,75.27999114990234,29.19,0
-0.7342795133590698,-0.4913241863250732,0.5095735192298889,0.7499990463256836,0.4593928456306457,75.27999114990234,29.19,0
-0.7287159562110901,-0.4944323599338531,0.517339289188385,0.0406494103372097,0.4591503739356994,75.27999114990234,29.19,0
-0.7251455783843994,-0.4964269995689392,0.5111273527145386,-0.4647264182567596,0.4589947462081909,75.27999114990234,29.19,0
-0.7284520864486694,-0.4977070391178131,0.5071408748626709,-0.5812581181526184,0.4588948786258697,75.27999114990234,29.19,0
-0.7249762415885925,-0.4985285103321075,0.5101803541183472,-0.8029270768165588,0.4588308036327362,75.27999114990234,29.19,0
-0.7227456569671631,-0.4934579133987427,0.506533145904541,-1.5183935165405271,0.4587896764278412,75.27999114990234,29.19,0
-0.7325097322463989,-0.4902038872241974,0.5097903609275818,-2.400282621383667,0.4596815109252929,75.45553588867188,29.23,0
-0.7331779599189758,-0.4881156384944916,0.51188063621521,-2.905324459075928,0.4602538347244262,75.56819152832031,29.23,0
-0.7336068153381348,-0.4867755174636841,0.5132220983505249,-2.9213297367095947,0.4606211185455322,75.64048767089844,29.23,0
-0.7338820099830627,-0.4915132820606231,0.5084851980209351,-2.6127517223358154,0.4608568251132965,75.68688201904297,29.23,0
-0.7228630781173706,-0.4945537149906158,0.5054453015327454,-2.00272798538208,0.461008071899414,75.71665954589844,29.23,0
-0.7269873023033142,-0.4965048730373382,0.5034945011138916,-1.0917764902114868,0.4611051380634308,75.73577117919922,29.23,0
-0.7352317571640015,-0.4977570176124573,0.5078403353691101,-0.1166794821619987,0.461167424917221,75.74803161621094,29.23,0
-0.7293270230293274,-0.4985605776309967,0.5050314664840698,0.7312012910842896,0.4612073898315429,75.75589752197266,29.23,0
-0.7311354875564575,-0.499076247215271,0.5032289028167725,1.5261026620864868,0.4593969583511352,75.76094818115234,29.23,0
-0.7322960495948792,-0.4994072020053863,0.5076699256896973,2.240431547164917,0.4582351446151733,75.76419067382812,29.23,0
-0.7274430990219116,-0.499619573354721,0.5105198621749878,2.6128647327423096,0.457489550113678,75.76627349853516,29.23,0
-0.7243287563323975,-0.499755859375,0.5067510604858398,2.5939254760742188,0.4570110738277435,75.76760864257812,29.23,0
-0.7279279232025146,-0.4998433291912079,0.5099301934242249,2.470711469650269,0.4567040205001831,75.76846313476562,29.23,0
-0.724639892578125,-0.4943016767501831,0.5119704008102417,2.4489612579345703,0.4565069675445556,75.76901245117188,29.23,0
-0.7281275391578674,-0.4907453656196594,0.5076819062232971,2.4135076999664307,0.4563805162906647,75.76936340332031,29.23,0
-0.7247679829597473,-0.4884631335735321,0.504929780960083,2.1220624446868896,0.456299364566803,75.76959228515625,29.23,0
-0.7226120233535767,-0.4869985282421112,0.5087614059448242,1.5158683061599731,0.4576244354248047,75.76973724365234,29.23,0
-0.7268261909484863,-0.4916563928127289,0.5056225657463074,0.772172749042511,0.4584747850894928,75.76982879638672,29.23,0
-0.7239328622817993,-0.4946455657482147,0.5092059969902039,0.1014526709914207,0.4590204954147339,75.76988983154297,29.23,0
-0.7276738286018372,-0.4965638220310211,0.511505663394928,-0.4185412526130676,0.4593707025051117,75.76992797851562,29.23,0
-0.7244768142700195,-0.4921970963478088,0.5129814743995667,-0.8704683184623718,0.4595954418182373,75.76995086669922,29.23,0
-0.7336207032203674,-0.4893947839736938,0.5139285326004028,-1.465008020401001,0.4597396552562713,75.76996612548828,29.23,0
-0.7282931804656982,-0.4875964224338531,0.5145363211631775,-2.3481099605560303,0.4598322212696075,75.76997375488281,29.23,0
-0.7304720282554626,-0.4864423274993896,0.5093286037445068,-3.3590734004974365,0.4598916172981262,75.76998138427734,29.23,0
-0.7318702936172485,-0.4801039099693298,0.5059865713119507,-4.004269123077393,0.4594704508781433,75.76998901367188,29.23,0
-0.732767641544342,-0.4816340506076813,0.5038418173789978,-3.966913938522339,0.4592001736164093,75.76998901367188,29.23,0
-0.7333434820175171,-0.4826160073280334,0.5080632567405701,-3.509449958801269,0.4590267241001129,75.76998901367188,29.23,0
-0.7337130308151245,-0.4832461774349212,0.5107722878456116,-2.98300838470459,0.4589154124259949,75.76998901367188,29.23,0
-0.7339501976966858,-0.4836505949497223,0.5069130063056946,-2.337066888809204,0.4588439762592315,75.76998901367188,29.23,0
-0.7285045981407166,-0.4895078837871551,0.5044363737106323,-1.4568041563034058,0.4587981402873993,75.76998901367188,29.23,0
-0.7306076884269714,-0.4876689910888672,0.5028470158576965,-0.4297499060630798,0.4587687253952026,75.76998901367188,29.23,0
-0.7319573760032654,-0.4864889085292816,0.5018270611763,0.5768643021583557,0.4587498307228088,75.76998901367188,29.23,0
-0.7272257208824158,-0.4913293719291687,0.5011724829673767,1.3303285837173462,0.4591970145702362,75.92046356201172,29.21,0
-0.7297869920730591,-0.4944356977939605,0.5063502192497253,1.5809911489486694,0.4594839811325073,76.01702880859375,29.21,0
-0.73143070936203,-0.4908313751220703,0.509672999382019,1.3370208740234375,0.4596681296825409,76.07899475097656,29.21,0
-0.7324855327606201,-0.4885183274745941,0.5062075853347778,0.8221972584724426,0.4597863256931305,76.11876678466797,29.21,0
-0.7275646924972534,-0.4870339632034302,0.509581446647644,0.3341797888278961,0.4598621726036072,76.144287109375,29.21,0
-0.7356023192405701,-0.4860813617706299,0.5117465853691101,0.1929619014263153,0.4599108397960663,76.1606674194336,29.21,0
-0.735162615776062,-0.4854700565338135,0.5131360292434692,0.3459515273571014,0.4599420726299286,76.17118072509766,29.21,0
-0.7348804473876953,-0.479479968547821,0.5084299445152283,0.350984513759613,0.4599620997905731,76.17792510986328,29.21,0
-0.7346993684768677,-0.4812336564064026,0.5110076069831848,0.1177643835544586,0.4595156908035278,76.1822509765625,29.21,0
-0.7345831394195557,-0.4823590517044067,0.5126618146896362,-0.0354854427278041,0.4592292010784149,76.18502807617188,29.21,0
-0.7345085740089417,-0.4774835109710693,0.5137233734130859,-0.1589103788137436,0.4590453505516052,76.18681335449219,29.21,0
-0.734460711479187,-0.4799524247646332,0.5088068842887878,-0.6214529871940613,0.4589273631572723,76.18795776367188,29.21,0
-0.7288322448730469,-0.4815368354320526,0.5112495422363281,-1.3804384469985962,0.4588516354560852,76.18869018554688,29.21,0
-0.730817973613739,-0.482553631067276,0.5128170847892761,-2.078883647918701,0.4588030576705932,76.18916320800781,29.21,0
-0.7320923209190369,-0.4832061529159546,0.5138230323791504,-2.605922222137451,0.4587718844413757,76.18946075439453,29.21,0
-0.7273123264312744,-0.4836249053478241,0.5088708400726318,-2.9333975315093994,0.4587518572807312,76.18965148925781,29.21,0
-0.7298426032066345,-0.4782958626747131,0.5112905502319336,-2.788877248764038,0.4578211605548858,76.18977355957031,29.21,0
-0.7370641231536865,-0.4804737567901611,0.5184412002563477,-2.033355951309204,0.457223892211914,76.18985748291016,29.21,0
-0.7305029630661011,-0.4818713963031769,0.5174322724342346,-0.9788764119148254,0.4568406045436859,76.18991088867188,29.21,0
-0.7262923717498779,-0.4827683269977569,0.5167847871780396,0.0023467489518225,0.4565946161746979,76.18994140625,29.21,0
-0.7291880249977112,-0.4833439290523529,0.5107715129852295,0.8326635360717773,0.4564367532730102,76.1899642944336,29.21,0
-0.7310463190078735,-0.4837133288383484,0.5125102996826172,1.5661373138427734,0.4563354551792145,76.18997955322266,29.21,0
-0.7322388291358948,-0.4839503765106201,0.5136261582374573,2.140733242034912,0.4562704563140869,76.18998718261719,29.21,0
-0.72740638256073,-0.4841024875640869,0.5143422484397888,2.4521546363830566,0.4562287330627441,76.18999481201172,29.21,0
-0.7243051528930664,-0.484200119972229,0.5148018002510071,2.5911030769348145,0.4571198225021362,76.18999481201172,29.21,0
-0.7279127240180969,-0.4842627644538879,0.5150967240333557,2.7160980701446533,0.4576916694641113,76.18999481201172,29.21,0
-0.7246301174163818,-0.4843029677867889,0.5152859687805176,2.738991498947144,0.4580586552619934,76.18999481201172,29.21,0
-0.728121280670166,-0.4843287765979767,0.509809672832489,2.481407403945923,0.458294153213501,76.18999481201172,29.21,0
-0.7359594702720642,-0.4843453466892242,0.517490804195404,2.058159351348877,0.458445280790329,76.18999481201172,29.21,0
-0.7353917956352234,-0.4899537563323974,0.516822338104248,1.661152958869934,0.4585422575473785,76.18999481201172,29.21,0
-0.7294297218322754,-0.4879551231861114,0.5163933634757996,1.1054407358169556,0.4586045145988464,76.18999481201172,29.21,0
-0.7312014102935791,-0.4866725206375122,0.5161181092262268,0.2042650878429412,0.4586444497108459,76.18999481201172,29.21,0
-0.7267405986785889,-0.4858494102954864,0.5159414410591125,-0.6749939322471619,0.4568340182304382,76.31538391113281,29.19,0
-0.7294756770133972,-0.4853211939334869,0.5158280730247498,-1.0207146406173706,0.4556721746921539,76.3958511352539,29.19,0
-0.7312309145927429,-0.4849822223186493,0.5213530659675598,-1.0132935047149658,0.4549265801906585,76.44749450683594,29.19,0
-0.7323573231697083,-0.4847646951675415,0.5193009376525879,-1.2915544509887695,0.4544481039047241,76.48063659667969,29.19,0
-0.7218846082687378,-0.4790273010730743,0.5123862028121948,-2.039755821228028,0.4541410505771637,76.50190734863281,29.19,0
-0.7263593673706055,-0.4753453731536865,0.5135465264320374,-2.8423402309417725,0.4539439976215362,76.51555633544922,29.19,0
-0.7292309999465942,-0.4785802960395813,0.5142911672592163,-3.253498077392578,0.4538175165653229,76.5243148803711,29.19,0
-0.7198783159255981,-0.4806562960147857,0.5147690176963806,-2.969221353530884,0.4537363648414612,76.52993774414062,29.19,0
-0.7306696176528931,-0.4819885492324829,0.51507568359375,-1.833823800086975,0.4536842703819275,76.5335464477539,29.19,0
-0.7319970726966858,-0.4828435182571411,0.5152724981307983,-0.1665562093257904,0.4536508619785309,76.53585815429688,29.19,0
-0.7272512316703796,-0.4833921790122986,0.5209965705871582,1.3691350221633911,0.4536294043064117,76.53734588623047,29.19,0
-0.7298033833503723,-0.4837442934513092,0.5134744048118591,2.440635204315185,0.4536156356334686,76.53829956054688,29.19,0
-0.7258434295654297,-0.4839702546596527,0.5030493140220642,3.135427236557007,0.4536068141460418,76.53890991210938,29.19,0
-0.7288999557495117,-0.4953108131885528,0.5075546503067017,3.409341335296631,0.4536011517047882,76.53929901123047,29.19,0
-0.7252636551856995,-0.4969907402992248,0.5160436630249023,3.126553773880005,0.4535975158214569,76.53955078125,29.19,0
-0.7229300737380981,-0.4924710690975189,0.5158936977386475,2.5724892616271973,0.4535951912403106,76.53971099853516,29.19,0
-0.7214325070381165,-0.4951683580875397,0.5157974362373352,2.0986974239349365,0.4540526270866394,76.5398178100586,29.19,0
-0.7260692715644836,-0.4968993365764618,0.5157356858253479,1.536699652671814,0.4543461799621582,76.53988647460938,29.19,0
-0.7290448546409607,-0.4924123883247375,0.5156960487365723,0.7962889075279236,0.4545345604419708,76.53992462158203,29.19,0
-0.7309544086456299,-0.4895329475402832,0.5100728273391724,0.360544204711914,0.4546554684638977,76.53995513916016,29.19,0
-0.7321798801422119,-0.4876850843429565,0.5064641833305359,0.4606613516807556,0.4547330439090729,76.53997039794922,29.19,0
-0.7385640740394592,-0.4864992201328277,0.5097461342811584,0.5571539402008057,0.4547828435897827,76.53997802734375,29.19,0
-0.7370632886886597,-0.4857381880283355,0.5006567239761353,0.2823152542114258,0.4548147916793823,76.53998565673828,29.19,0
-0.7361001968383789,-0.4908475875854492,0.5004214644432068,-0.0660240352153778,0.454835295677185,76.53999328613281,29.19,0
-0.7354821562767029,-0.4941264986991882,0.5058682560920715,-0.2250817716121673,0.4543895125389099,76.53999328613281,29.19,0
-0.7350854873657227,-0.490632951259613,0.5093637108802795,-0.3414861857891083,0.4541034400463104,76.53999328613281,29.19,0
-0.7348309755325317,-0.4939887821674347,0.5116068720817566,-0.591733992099762,0.4539198577404022,76.53999328613281,29.19,0
-0.7346675992012024,-0.4961423575878143,0.513046383857727,-1.0281870365142822,0.4538020491600036,76.53999328613281,29.19,0
-0.7345627546310425,-0.4919266104698181,0.50837242603302,-1.6701174974441528,0.4537264406681061,76.53999328613281,29.19,0
-0.7344954609870911,-0.4892211854457855,0.5109707117080688,-2.357929944992065,0.4536779224872589,76.53999328613281,29.19,0
-0.7344523072242737,-0.4874849915504455,0.5126381516456604,-2.634529829025269,0.4536467790603637,76.53999328613281,29.19,0
-0.7400223612785339,-0.4863708019256592,0.513708233833313,-2.0991032123565674,0.4536267817020416,76.53999328613281,29.19,0
-0.7379991412162781,-0.4856557846069336,0.5087971687316895,-0.8920965194702148,0.4531550407409668,76.6546401977539,29.23,0
-0.7311030030250549,-0.4851969480514526,0.5000477433204651,0.323147714138031,0.4528523087501526,76.72821044921875,29.23,0
-0.7378730177879333,-0.4849024713039398,0.5000306367874146,1.042117714881897,0.4526580274105072,76.77542877197266,29.23,0
-0.7422176003456116,-0.4847134947776794,0.5000196695327759,1.4461901187896729,0.4525333344936371,76.80572509765625,29.23,0
-0.7338101267814636,-0.4901899993419647,0.5056104063987732,1.909707307815552,0.4524533152580261,76.8251724243164,29.23,0
-0.7340124845504761,-0.4937044978141784,0.5147959589958191,2.2071659564971924,0.4524019658565521,76.837646484375,29.23,0
-0.7285445928573608,-0.490362137556076,0.509495198726654,1.8427585363388064,0.4523690044879913,76.84565734863281,29.23,0
-0.7306333780288696,-0.4938149750232696,0.506093442440033,0.946126401424408,0.4523478746414184,76.85079956054688,29.23,0
-0.7319738268852234,-0.4904330372810364,0.5039104223251343,0.20592100918293,0.452334314584732,76.85409545898438,29.23,0
-0.7328340411186218,-0.4882627129554748,0.5025094747543335,-0.0756411254405975,0.4523256123065948,76.85620880126953,29.23,0
-0.7333860993385315,-0.4868699014186859,0.5072082281112671,-0.1882625669240951,0.4523200094699859,76.8575668334961,29.23,0
-0.7337403893470764,-0.4915738701820373,0.4990280568599701,-0.439665287733078,0.4523164331912994,76.85843658447266,29.23,0
-0.7339677214622498,-0.4945926070213318,0.4993762671947479,-0.8696942329406738,0.4523141384124756,76.85899353027344,29.23,0
-0.7397114038467407,-0.4965298473834991,0.4995997250080108,-1.2567219734191897,0.4523126482963562,76.8593521118164,29.23,0
-0.7322018146514893,-0.4977730512619018,0.5053408741950989,-1.2865569591522217,0.4523116946220398,76.85958099365234,29.23,0
-0.7329803705215454,-0.4985708594322204,0.5034274458885193,-0.9331154823303224,0.452311098575592,76.85973358154297,29.23,0
-0.7278822064399719,-0.499082863330841,0.5021995306015015,-0.6238978505134583,0.4527696371078491,76.85983276367188,29.23,0
-0.7302082777023315,-0.4994114339351654,0.5070093274116516,-0.8947771787643433,0.4530639052391052,76.85989379882812,29.23,0
-0.7372987866401672,-0.4996222853660583,0.5100959539413452,-1.9320125579833984,0.4532527327537536,76.85993194580078,29.23,0
-0.7306535243988037,-0.4941598176956177,0.506479024887085,-3.296252727508545,0.453373908996582,76.85995483398438,29.23,0
-0.7263889908790588,-0.4962521195411682,0.5041578412055969,-4.11442232131958,0.4534516930580139,76.85997009277344,29.23,0
-0.7292500138282776,-0.4975948333740234,0.5026682615280151,-3.948039531707764,0.4535015821456909,76.85997772216797,29.23,0
-0.7254883050918579,-0.4984565079212188,0.5017123222351074,-3.146245002746582,0.4535336196422577,76.8599853515625,29.23,0
-0.7286720275878906,-0.4990094900131225,0.5010988712310791,-2.105060815811157,0.4535541832447052,76.85999298095703,29.23,0
-0.7307151556015015,-0.493766576051712,0.5063029527664185,-0.9675713181495668,0.454026311635971,76.85999298095703,29.23,0
-0.7320263385772705,-0.4959997534751892,0.5096426606178284,-0.0011460090754553,0.4543292820453644,76.85999298095703,29.23,0
-0.7272700071334839,-0.4974328577518463,0.5117858648300171,0.6727887392044067,0.4545237123966217,76.85999298095703,29.23,0
-0.7242176532745361,-0.4983525574207306,0.5019657015800476,1.3309835195541382,0.454648494720459,76.85999298095703,29.23,0
-0.7278565764427185,-0.4989427626132965,0.4956637024879455,1.982659935951233,0.4547285735607147,76.85999298095703,29.23,0
-0.7301918268203735,-0.4993215203285217,0.4972172081470489,2.178748607635498,0.4547799527645111,76.85999298095703,29.23,0
-0.7260926961898804,-0.4939668178558349,0.5038119554519653,1.810191631317139,0.4548129439353943,76.85999298095703,29.23,0
-0.7290598750114441,-0.4905304908752441,0.5024462938308716,1.2548238039016724,0.4548341035842895,76.85999298095703,29.23,0
-0.7309640645980835,-0.4883252382278442,0.507167637348175,0.7515350580215454,0.4534705281257629,76.95672607421875,29.21,0
-0.7377838492393494,-0.4869100451469421,0.5101975798606873,0.4285533130168915,0.4525954723358154,77.018798828125,29.21,0
-0.7309648394584656,-0.4860018491744995,0.51214200258255,0.4971405267715454,0.4520339071750641,77.05863952636719,29.21,0
-0.7321865558624268,-0.4854190051555633,0.5133898258209229,0.831344485282898,0.4516735374927521,77.0842056274414,29.21,0
-0.7273728251457214,-0.4906427562236786,0.5085928440093994,1.0207393169403076,0.4514422714710235,77.1006088256836,29.21,0
-0.7298814058303833,-0.4939950704574585,0.50551438331604,0.941657781600952,0.4512938559055328,77.11113739013672,29.21,0
-0.7314912676811218,-0.4961463809013366,0.5035387873649597,0.6150494813919067,0.4511986076831817,77.1178970336914,29.21,0
-0.7269266247749329,-0.4975269734859466,0.507868766784668,-0.1211875155568122,0.4511374831199646,77.12223052978516,29.21,0
-0.7295950651168823,-0.4984129667282104,0.5106474757194519,-1.2313605546951294,0.4510982632637024,77.12501525878906,29.21,0
-0.7313075065612793,-0.4933837652206421,0.512430727481842,-2.3378891944885254,0.4510730803012848,77.12680053710938,29.21,0
-0.7324064373970032,-0.4901562929153442,0.507977306842804,-3.280862808227539,0.4510569274425506,77.12794494628906,29.21,0
-0.7275139093399048,-0.493682861328125,0.5051193833351135,-4.07588529586792,0.4510465562343597,77.12867736816406,29.21,0
-0.7299719452857971,-0.4959460198879242,0.4976875483989715,-4.396208763122559,0.4510399103164673,77.129150390625,29.21,0
-0.7315493822097778,-0.4918006062507629,0.4873204529285431,-3.888841152191162,0.4510356485843658,77.12945556640625,29.21,0
-0.7325617074966431,-0.4891403317451477,0.4918629825115204,-2.8073184490203857,0.4510329067707062,77.12964630126953,29.21,0
-0.73321133852005,-0.4930308759212494,0.4947781264781952,-1.7120109796524048,0.4510311484336853,77.12976837158203,29.21,0
-0.7280304431915283,-0.4955276250839233,0.496648907661438,-0.8335594534873962,0.4514892995357513,77.12985229492188,29.21,0
-0.7359011769294739,-0.497129887342453,0.4978494644165039,-0.1480123102664947,0.4517833292484283,77.1299057006836,29.21,0
-0.7353544235229492,-0.4981581270694732,0.4986199140548706,0.2919324040412903,0.4519720077514648,77.12993621826172,29.21,0
-0.7350035309791565,-0.4988179802894592,0.4991143345832824,0.4417082667350769,0.452093094587326,77.12995910644531,29.21,0
-0.7347783446311951,-0.499241441488266,0.4994316399097442,0.5270780920982361,0.4521707892417907,77.12997436523438,29.21,0
-0.7346338629722595,-0.4995132088661194,0.5052330493927002,0.7789052128791809,0.4522206485271454,77.1299819946289,29.21,0
-0.734541118144989,-0.4996876120567322,0.5089560151100159,1.1053118705749512,0.4522526562213897,77.12998962402344,29.21,0
-0.7288838028907776,-0.499799519777298,0.5057474374771118,1.3613543510437012,0.4522731900215149,77.12998962402344,29.21,0
-0.7308510541915894,-0.4942735731601715,0.503688395023346,1.6044843196868896,0.4513681530952453,77.12998962402344,29.21,0
-0.7377113103866577,-0.4907273352146148,0.5023670196533203,1.817832350730896,0.4507873654365539,77.12998962402344,29.21,0
-0.7365160584449768,-0.4940493404865265,0.5015190243721008,1.843686938285828,0.4504146575927734,77.12998962402344,29.21,0
-0.7301512360572815,-0.4905834496021271,0.5009748339653015,1.806540369987488,0.4501754641532898,77.12998962402344,29.21,0
-0.7316644191741943,-0.4883592128753662,0.4950278103351593,2.040647268295288,0.4500219523906708,77.12998962402344,29.21,0
-0.732635498046875,-0.4869318306446075,0.4968091249465942,2.420168399810791,0.4499234557151794,77.12998962402344,29.21,0
-0.7276608943939209,-0.4860158264636993,0.5035500526428223,2.4165256023406982,0.4498602449893951,77.12998962402344,29.21,0
-0.7300662994384766,-0.4798302054405212,0.5078759789466858,1.848140835762024,0.4498196840286255,77.12998962402344,29.21,0
-0.7372077107429504,-0.4758606255054474,0.5106521248817444,0.9997365474700928,0.4511707723140716,77.20880889892578,29.21,0
-0.7361928820610046,-0.4789109528064728,0.5124337077140808,0.1615082621574401,0.4520378410816192,77.25939178466797,29.21,0
-0.7299438118934631,-0.4808684885501861,0.5135769844055176,-0.3477578461170196,0.4525942802429199,77.29185485839844,29.21,0
-0.7371290922164917,-0.4821247160434723,0.4975173771381378,-0.1407717317342758,0.4529513716697693,77.31268310546875,29.21,0
-0.7361423969268799,-0.4829308986663818,0.4928090274333954,0.6333410143852234,0.4531805217266083,77.3260498046875,29.21,0
-0.7355092167854309,-0.4834482669830322,0.5009829998016357,1.2770076990127563,0.4533275663852691,77.33463287353516,29.21,0
-0.7295051217079163,-0.4837802648544311,0.5062286257743835,1.543190360069275,0.453421950340271,77.34014129638672,29.21,0
-0.7312498092651367,-0.4839933216571808,0.5095949769020081,1.8823920488357544,0.4534825086593628,77.34367370605469,29.21,0
-0.7323694229125977,-0.4841300547122955,0.5173530578613281,2.5658071041107178,0.4521442353725433,77.34593963623047,29.21,0
-0.7274901866912842,-0.4786200225353241,0.5111361742019653,3.1297736167907715,0.4512853920459747,77.34739685058594,29.21,0
-0.7299567461013794,-0.4750840067863464,0.5071465373039246,3.065368413925171,0.4507342576980591,77.34832763671875,29.21,0
-0.7371373772621155,-0.4728147983551025,0.5101839900016785,2.4866504669189453,0.4503805637359619,77.34892272949219,29.21,0
-0.7361477613449097,-0.4769563376903534,0.5065354704856873,1.78924822807312,0.4501535892486572,77.34931182861328,29.21,0
-0.7355126738548279,-0.4796141386032104,0.5041940808296204,1.2449660301208496,0.4500079154968261,77.34955596923828,29.21,0
-0.7407028675079346,-0.4813197553157806,0.5026915073394775,1.0604755878448486,0.4499144256114959,77.34971618652344,29.21,0
-0.7328380942344666,-0.4824143052101135,0.5073250532150269,1.1212090253829956,0.4498544335365295,77.34981536865234,29.21,0
-0.7333887219429016,-0.4831167459487915,0.5102985501289368,0.9774728417396544,0.4502748548984527,77.34988403320312,29.21,0
-0.7337420582771301,-0.4835675358772278,0.5122067928314209,0.5269736647605896,0.4505446851253509,77.34992218017578,29.21,0
-0.7283710241317749,-0.4838568270206451,0.5078336000442505,0.0694881752133369,0.4507178366184234,77.3499526977539,29.21,0
-0.7305219769477844,-0.4840424656867981,0.505027174949646,-0.3817330002784729,0.4508289396762848,77.34996795654297,29.21,0
-0.7319023609161377,-0.4841615855693817,0.5032261610031128,-0.965071976184845,0.4509002566337585,77.3499755859375,29.21,0
-0.7383859753608704,-0.4786402583122253,0.5020703673362732,-1.6260313987731934,0.4509460031986236,77.34998321533203,29.21,0
-0.7369490265846252,-0.4806947708129883,0.506926417350769,-2.4263675212860107,0.4509753882884979,77.34999084472656,29.21,0
-0.7360268831253052,-0.4764154553413391,0.50444495677948,-3.276739358901977,0.4509942233562469,77.34999084472656,29.21,0
-0.7410328388214111,-0.4792670309543609,0.5028524994850159,-3.571678638458252,0.4514656066894531,77.34999084472656,29.21,0
-0.7330498695373535,-0.481097012758255,0.5074283480644226,-3.008612871170044,0.4517681300640106,77.34999084472656,29.21,0
-0.7335246205329895,-0.4766736030578613,0.5103648900985718,-2.1063008308410645,0.451962262392044,77.34999084472656,29.21,0
-0.7394270300865173,-0.4794326722621918,0.5066515803337097,-1.2442253828048706,0.4520868360996246,77.34999084472656,29.21,0
-0.732019305229187,-0.4812032878398895,0.5042685866355896,-0.3076593577861786,0.4521667957305908,77.34999084472656,29.21,0
-0.7328632473945618,-0.4823395907878876,0.5027393102645874,0.6301369071006775,0.45221808552742,77.34999084472656,29.21,0
-0.7390026450157166,-0.4830687940120697,0.5017579197883606,1.3071945905685425,0.4522510170936584,77.34999084472656,29.21,0
-0.7429425120353699,-0.4835367500782013,0.5011281371116638,1.7022830247879028,0.4522721469402313,77.34999084472656,29.21,0
-0.7342753410339355,-0.4838370680809021,0.5007239580154419,1.8949241638183596,0.4509085714817047,77.41448211669922,29.23,0
-0.7399088144302368,-0.4840297996997833,0.4948668181896209,1.8752471208572388,0.4500335156917572,77.45586395263672,29.23,0
-0.7435240745544434,-0.4841534793376922,0.4967058300971985,1.5401877164840698,0.4494719505310058,77.482421875,29.23,0
-0.734648585319519,-0.4842328429222107,0.4978860020637512,0.7340409755706787,0.4491115510463714,77.49946594238281,29.23,0
-0.7345505952835083,-0.4842837750911712,0.5042411088943481,-0.2991885542869568,0.4488802850246429,77.51040649414062,29.23,0
-0.7344877123832703,-0.4787186682224273,0.5027217268943787,-0.8511959314346313,0.4487318694591522,77.51742553710938,29.23,0
-0.7344473600387573,-0.4751473069190979,0.501746654510498,-0.7002993226051331,0.4486366212368011,77.52192687988281,29.23,0
-0.7400192022323608,-0.4784531891345978,0.501120924949646,-0.3849254250526428,0.448575496673584,77.52481842041016,29.23,0
-0.7323993444442749,-0.4861724972724914,0.5007193684577942,-0.2649358510971069,0.4499134123325348,77.52667236328125,29.23,0
-0.7331071496009827,-0.4855285286903381,0.5060594081878662,-0.2882455885410309,0.4507720172405243,77.52786254882812,29.23,0
-0.7335613369941711,-0.4851152598857879,0.5038886070251465,-0.5145763754844666,0.451323002576828,77.52862548828125,29.23,0
-0.7282550930976868,-0.4848500490188598,0.4968976974487304,-0.9965845942497252,0.451676607131958,77.52911376953125,29.23,0
-0.7360453605651855,-0.4846798479557037,0.4980091154575348,-1.5172816514968872,0.4519035220146179,77.52943420410156,29.23,0
-0.7410447001457214,-0.4845706224441528,0.5043201446533203,-1.9159214496612549,0.4520491361618042,77.5296401977539,29.23,0
-0.7386552095413208,-0.484500527381897,0.5027723908424377,-2.2863879203796387,0.452142596244812,77.52976989746094,29.23,0
-0.7371218204498291,-0.4844555556774139,0.5017791390419006,-2.577870607376098,0.452202558517456,77.52985382080078,29.23,0
-0.7361377477645874,-0.4844267070293426,0.5011417269706726,-2.4245827198028564,0.4517817497253418,77.5299072265625,29.23,0
-0.7299084663391113,-0.4844081699848175,0.5007327198982239,-1.6491045951843262,0.4515117108821869,77.52993774414062,29.23,0
-0.7315086126327515,-0.4899940490722656,0.5004702210426331,-0.6068958640098572,0.4513384103775024,77.52996063232422,29.23,0
-0.7269377708435059,-0.4879809916019439,0.5058995485305786,0.2768882215023041,0.4512271881103515,77.52997589111328,29.23,0
-0.7296022176742554,-0.4866891205310821,0.5093837380409241,0.9336143136024476,0.451155811548233,77.52998352050781,29.23,0
-0.731312096118927,-0.491457849740982,0.5060219168663025,1.3371504545211792,0.4511100053787231,77.52999114990234,29.23,0
