acc_x,acc_y,acc_z,bvp,eda,hr,temp,label
0.0,0.0,0.0,0.0,0.0,0.0,28.71,0
-0.0598958283662796,-0.1432291567325592,0.0677083283662796,0.1949999779462814,0.3926201462745666,12.833333015441896,28.71,0
-0.1360518336296081,-0.3353658616542816,0.1627286672592163,0.2526829242706299,0.9193058013916016,30.04878044128418,28.71,0
-0.1973110437393188,-0.4925249218940735,0.2403966039419174,0.2135548144578933,1.3774316310882568,45.02325439453125,28.71,0
-0.2526793479919433,-0.5858281254768372,0.2757067680358886,0.0995975509285926,1.7116590738296509,55.94794464111328,28.71,0
-0.3066352009773254,-0.6599777936935425,0.2776543498039245,-0.1462005674839019,1.9379451274871824,63.34441757202149,28.71,0
-0.3698033690452575,-0.7475021481513977,0.2900383770465851,-0.2328461110591888,2.086421251296997,68.19757080078125,28.71,0
-0.3939763009548187,-0.8097667098045349,0.2980589270591736,0.3930554389953613,2.182582139968872,71.3407211303711,28.71,0
-0.3648264408111572,-0.8275151252746582,0.3032255172729492,1.8445130586624143,2.2335240840911865,73.36544799804688,28.71,0
-0.3964423835277557,-0.8445174098014832,0.2897623777389526,3.489960193634033,2.2662665843963623,74.66682434082031,28.71,0
-0.3999552130699157,-0.8498390316963196,0.2867134511470794,4.632552623748779,2.287292242050171,75.50251007080078,28.71,0
-0.3966129124164581,-0.8588522672653198,0.2791590690612793,5.523614883422852,2.3007888793945312,76.03894805908203,28.71,0
-0.3944677710533142,-0.8646370768547058,0.2743105888366699,7.438922882080078,2.3094513416290283,76.38323974609375,28.71,0
-0.3818957209587097,-0.8627519011497498,0.271198958158493,11.12571907043457,2.3150105476379395,76.60419464111328,28.71,0
-0.3738275468349457,-0.8559443950653076,0.2636043131351471,14.806532859802246,2.3185782432556152,76.7459945678711,28.71,0
-0.3742475807666778,-0.8459779024124146,0.2587304711341858,15.051389694213867,2.3208677768707275,76.83699035644531,28.71,0
-0.3801149129867553,-0.8451797366142273,0.2500049471855163,10.809126853942873,2.303515911102295,76.89539337158203,28.71,0
-0.3726846873760223,-0.8502653241157532,0.2500031888484955,5.231371879577637,2.2923805713653564,76.93286895751953,28.71,0
-0.3679164052009582,-0.8591266870498657,0.2444042712450027,2.354072570800781,2.2852344512939453,76.95691680908203,28.71,0
-0.3760519325733185,-0.8648134469985962,0.240811213850975,3.173023223876953,2.280648708343506,76.97235107421875,28.71,0
-0.3812728524208069,-0.868462860584259,0.2385053932666778,5.905445575714111,2.277705669403076,76.98225402832031,28.71,0
-0.3790255486965179,-0.8708048462867737,0.237025648355484,8.794632911682129,2.2758171558380127,76.98860931396484,28.71,0
-0.3831811547279358,-0.8723077774047852,0.2416738122701645,11.483487129211426,2.2746050357818604,76.99269104003906,28.71,0
-0.3858479559421539,-0.8676745295524597,0.2502545118331909,14.244403839111328,2.273827314376831,76.99530792236328,28.71,0
-0.3875593543052673,-0.8647011518478394,0.2501633167266845,17.14829444885254,2.2843451499938965,76.99698638916016,28.73,0
-0.3942554295063019,-0.8627930283546448,0.2501048147678375,20.362476348876957,2.291095018386841,76.9980697631836,28.73,0
-0.3817592561244964,-0.8615685105323792,0.2556650340557098,24.30242347717285,2.295426607131958,76.99876403808594,28.73,0
-0.3625443875789642,-0.8607826828956604,0.2592332661151886,28.804851531982425,2.298206329345703,76.99920654296875,28.73,0
-0.3670067191123962,-0.8938649892807007,0.2671209275722503,32.847843170166016,2.29999041557312,76.9994888305664,28.73,0
-0.3754681348800659,-0.9206930994987488,0.2833783328533172,35.37791442871094,2.301135301589966,76.99967193603516,28.73,0
-0.3753004074096679,-0.9323120713233948,0.2994091510772705,35.82648468017578,2.3018698692321777,76.99978637695312,28.73,0
-0.363997220993042,-0.906181812286377,0.3152945935726166,33.939727783203125,2.3023414611816406,76.99986267089844,28.73,0
-0.3623412847518921,-0.8670217990875244,0.3254889547824859,29.75895881652832,2.3058576583862305,79.5077133178711,28.73,0
-0.3668763637542724,-0.830695629119873,0.332031100988388,24.10960960388184,2.308114051818848,81.11711120605469,28.73,0
-0.364188939332962,-0.7961880564689636,0.3362294733524322,18.82903289794922,2.3095622062683105,82.1499252319336,28.73,0
-0.3624643087387085,-0.7796408534049988,0.333325982093811,16.088708877563477,2.3104913234710693,82.81272888183594,28.73,0
-0.3725530803203583,-0.7802173495292664,0.3258649110794067,17.235595703125,2.3110876083374023,83.23807525634766,28.73,0
-0.3846252560615539,-0.786185085773468,0.3154790699481964,22.08439826965332,2.3114702701568604,83.51103973388672,28.73,0
-0.3923724889755249,-0.7956125736236572,0.3088140189647674,29.093923568725582,2.311715841293335,83.68621063232422,28.73,0
-0.3973442018032074,-0.8128581643104553,0.2989389896392822,36.04988098144531,2.311873435974121,83.79862976074219,28.73,0
-0.4061325490474701,-0.8295231461524963,0.2926017642021179,40.5962142944336,2.3124334812164307,83.87077331542969,28.73,0
-0.4117724001407623,-0.8402177691459656,0.2829371392726898,40.51875305175781,2.312793016433716,83.91706848144531,28.73,0
-0.4209895133972168,-0.8638743162155151,0.2711371481418609,34.59003829956055,2.313023805618286,83.94677734375,28.73,0
-0.443697839975357,-0.951826810836792,0.2467712759971618,24.071582794189453,2.313171863555908,83.9658432006836,28.73,0
-0.4806618392467499,-1.0642473697662354,0.225536897778511,12.41331386566162,2.31326675415039,83.97808074951172,28.73,0
-0.5099809765815735,-1.1419901847839355,0.2063121199607849,2.0763962268829346,2.3133277893066406,83.98593139648438,28.73,0
-0.4896118938922882,-1.1079144477844238,0.1939747631549835,-7.480624675750732,2.3133668899536133,83.99097442626953,28.73,0
-0.4541490972042084,-1.0412644147872925,0.1860573589801788,-17.28232765197754,2.313391923904419,83.99420928955078,28.73,0
-0.4201955497264862,-1.0432744026184082,0.1865741908550262,-26.15911674499512,2.3147852420806885,83.99628448486328,28.73,0
-0.3928083479404449,-1.0501620769500732,0.1645147651433944,-32.572242736816406,2.31567931175232,83.99761199951172,28.73,0
-0.3584395051002502,-1.0265933275222778,0.1391627490520477,-37.09981536865234,2.316253185272217,83.99846649169922,28.73,0
-0.3363835513591766,-0.9330994486808776,0.1284910589456558,-41.158939361572266,2.3166213035583496,83.99901580810547,28.73,0
-0.3278270959854126,-0.8675026893615723,0.1216425895690918,-45.10015106201172,2.3168575763702397,83.9993667602539,28.73,0
-0.3279338181018829,-0.8198086619377136,0.1116498559713363,-48.77581787109375,2.317009210586548,83.99959564208984,28.73,0
-0.3168067634105682,-0.7836036086082458,0.1108348742127418,-52.20942306518555,2.3171064853668213,83.99974060058594,28.73,0
-0.3040682971477508,-0.765967071056366,0.1159096360206604,-54.84282302856445,2.317168951034546,83.99983215332031,28.73,0
-0.3070890307426452,-0.7658445239067078,0.1247640997171402,-55.5798225402832,2.315372943878174,83.99989318847656,28.71,0
-0.3090275526046753,-0.765765905380249,0.1304463893175125,-54.1146125793457,2.314220428466797,83.99993133544922,28.71,0
-0.3158693611621856,-0.7825087308883667,0.1452884972095489,-51.33288192749024,2.313480854034424,83.99995422363281,28.71,0
-0.3258578181266784,-0.8548288345336914,0.1548133194446563,-48.22217559814453,2.3130061626434326,83.99996948242188,28.71,0
-0.3266700506210327,-0.9348263740539552,0.1609257906675338,-44.99707794189453,2.312701463699341,83.9999771118164,28.71,0
-0.3271912932395935,-1.0421419143676758,0.1592506468296051,-41.42629623413086,2.312505960464477,83.99998474121094,28.71,0
-0.3387213349342346,-1.1669886112213137,0.1469800919294357,-37.53694534301758,2.31238055229187,83.99999237060547,28.71,0
-0.3853050768375397,-1.2023258209228516,0.1391055583953857,-33.7584228515625,2.312300205230713,83.99999237060547,28.71,0
-0.4207976162433624,-1.0514721870422363,0.1676387786865234,-30.506010055541992,2.314084529876709,83.10435485839844,28.71,0
-0.404390275478363,-0.9490652680397034,0.185949757695198,-27.65570831298828,2.315229654312134,82.52957916259766,28.71,0
-0.3210899233818054,-0.9505196809768676,0.1865051388740539,-24.66221237182617,2.315964460372925,82.16072845458984,28.71,0
-0.2340459078550338,-0.9122686386108398,0.2036548852920532,-21.35828399658203,2.316436052322388,81.92401885986328,28.71,0
-0.2117727100849151,-0.8541346788406372,0.2090628296136856,-18.15607643127441,2.3167388439178467,81.77210998535156,28.71,0
-0.259054571390152,-0.7832409739494324,0.1901422291994094,-15.32008171081543,2.3169331550598145,81.67462158203125,28.71,0
-0.3005928993225097,-0.7265499234199524,0.1835978627204895,-12.661781311035156,2.317057847976685,81.612060546875,28.71,0
-0.3160542547702789,-0.6957666873931885,0.1961913853883743,-10.017202377319336,2.317137718200684,81.57191467285156,28.71,0
-0.3147809207439422,-0.6872072815895081,0.2154687345027923,-7.4960713386535645,2.3181073665618896,81.54615020751953,28.71,0
-0.3251593112945556,-0.6817143559455872,0.2334375977516174,-5.265534400939941,2.3187296390533447,81.52961730957031,28.71,0
-0.3430151045322418,-0.6613960266113281,0.2505667507648468,-3.440020799636841,2.3191287517547607,81.51900482177734,28.71,0
-0.3600717186927795,-0.6427590847015381,0.2671570181846618,-1.9532445669174197,2.319385051727295,81.51219940185547,28.71,0
-0.3878109753131866,-0.675581157207489,0.2834014892578125,-0.5656254291534424,2.319549560546875,81.50782775878906,28.71,0
-0.4168079793453216,-0.7526222467422485,0.2938262522220611,0.7941861152648926,2.319654941558838,81.50502014160156,28.71,0
-0.4298188388347626,-0.8916271924972534,0.289320707321167,1.935528039932251,2.3197226524353027,81.50321960449219,28.71,0
-0.4549617767333984,-1.1319724321365356,0.2696360051631927,2.8578522205352783,2.319766044616699,81.50206756591797,28.71,0
-0.5046837329864502,-1.2806143760681152,0.273796796798706,3.865325450897217,2.3234660625457764,81.50132751464844,28.71,0
-0.5869723558425903,-1.2192665338516235,0.2596736252307892,4.970433235168457,2.325840711593628,81.5008544921875,28.71,0
-0.6005960702896118,-1.1015281677246094,0.2282191067934036,5.586481094360352,2.327364444732666,81.50054931640625,28.71,0
-0.5197745561599731,-1.121132731437683,0.2192289531230926,4.967956066131592,2.3283424377441406,81.50035095214844,28.71,0
-0.479103535413742,-1.1057249307632446,0.2078618109226226,2.8979597091674805,2.328969955444336,81.50022888183594,28.71,0
-0.4418076574802398,-1.045457124710083,0.1837737113237381,-0.0569340214133262,2.3293726444244385,81.5001449584961,28.71,0
-0.3954822123050689,-0.9060207009315492,0.1515220403671264,-2.931257963180542,2.329631090164185,81.50009155273438,28.71,0
-0.3713509738445282,-0.7997451424598694,0.1364225447177887,-5.005118370056152,2.3297970294952397,81.50006103515625,28.71,0
-0.3614627122879028,-0.7147502899169922,0.1267325580120086,-6.081640243530273,2.331280469894409,81.50003814697266,28.69,0
-0.3439214527606964,-0.6769987940788269,0.1149163097143173,-6.317502498626709,2.3322324752807617,81.5000228881836,28.69,0
-0.3102733790874481,-0.6639676094055176,0.1073333173990249,-6.010295867919922,2.332843542098999,81.50001525878906,28.69,0
-0.2774844467639923,-0.6891915798187256,0.1024669930338859,-5.515794277191162,2.333235502243042,81.50000762939453,28.69,0
-0.2620401680469513,-0.7277699708938599,0.1049418374896049,-4.997827529907227,2.333487033843994,81.50000762939453,28.69,0
-0.280117779970169,-0.7973095774650574,0.1121278256177902,-4.360907554626465,2.333648443222046,81.50000762939453,28.69,0
-0.308512270450592,-0.8923160433769226,0.1223371550440788,-3.515094518661499,2.333752155303955,81.50000762939453,28.69,0
-0.3323320150375366,-0.9924701452255248,0.145682230591774,-2.5316436290740967,2.3338186740875244,81.50000762939453,28.69,0
-0.3476181328296661,-1.168698787689209,0.1494682133197784,-1.4204564094543457,2.332484245300293,80.24610137939453,28.69,0
-0.3742212057113647,-1.2594010829925537,0.1630933880805969,0.181118294596672,2.33162784576416,79.44142150878906,28.69,0
-0.4472712874412536,-1.1104909181594849,0.2222172170877456,2.7135984897613525,2.331078290939331,78.92501831054688,28.69,0
-0.4101839959621429,-1.0541133880615234,0.2489639371633529,5.7969069480896,2.33072566986084,78.59362030029297,28.69,0
-0.3527968823909759,-1.057117938995361,0.2493351101875305,7.868743896484375,2.3304994106292725,78.38095092773438,28.69,0
-0.3271646797657013,-1.0086661577224731,0.2495733052492141,7.442867279052734,2.3303542137146,78.24446868896484,28.69,0
-0.3107154071331024,-0.938388168811798,0.2497261762619018,4.8014817237854,2.330260992050171,78.1568832397461,28.69,0
-0.3169525265693664,-0.8149189352989197,0.2442265003919601,1.6626144647598269,2.3302011489868164,78.10067749023438,28.69,0
-0.3433462381362915,-0.6853035092353821,0.2350993454456329,-0.8532902598381042,2.331539869308472,78.06460571289062,28.69,0
-0.3658819794654846,-0.6133193373680115,0.2292420715093612,-2.9873266220092773,2.3323988914489746,78.04145812988281,28.69,0
-0.3915396630764007,-0.5951129198074341,0.2254832088947296,-5.102004051208496,2.3329503536224365,78.02660369873047,28.69,0
-0.4024075269699096,-0.5946246385574341,0.2286687642335891,-6.914069175720215,2.3333041667938232,78.01707458496094,28.69,0
-0.3981863558292389,-0.6055068373680115,0.2363108396530151,-8.166512489318848,2.333531141281128,78.01095581054688,28.69,0
-0.3954774439334869,-0.6348814964294434,0.2524106204509735,-8.941597938537598,2.333676815032959,78.00703430175781,28.69,0
-0.4105323553085327,-0.6873190999031067,0.2683403193950653,-9.030590057373049,2.333770275115967,78.0045166015625,28.69,0
-0.4649759232997894,-0.838523805141449,0.2785630822181701,-8.0809965133667,2.3338303565979004,78.00289916992188,28.69,0
-0.499914675951004,-1.0083293914794922,0.2683301568031311,-6.515053749084473,2.328819751739502,78.00186157226562,28.69,0
-0.533531904220581,-1.1900718212127686,0.256165474653244,-5.245011329650879,2.325604200363159,78.0011978149414,28.69,0
-0.5774965882301331,-1.183552622795105,0.2483588755130767,-4.326076507568359,2.323540449142456,78.00077056884766,28.69,0
-0.5833194851875305,-1.1345868110656738,0.2153601795434951,-2.64367151260376,2.322216272354126,78.00049591064453,28.69,0
-0.5142852067947388,-1.1703367233276367,0.1941835135221481,0.8148292303085327,2.321366310119629,78.00032043457031,28.69,0
-0.4587874412536621,-1.1820833683013916,0.1917890906333923,5.49552583694458,2.320821046829224,78.00020599365234,28.69,0
-0.4119766354560852,-1.1000572443008425,0.1790569424629211,9.097617149353027,2.3204710483551025,78.00012969970703,28.69,0
-0.376338392496109,-0.941059947013855,0.1652884036302566,9.402989387512209,2.320246458053589,78.00008392333984,28.69,0
-0.3590655922889709,-0.8166335225105286,0.1564525514841079,6.571683883666992,2.3260698318481445,78.00005340576172,28.69,0
-0.364774227142334,-0.7199904918670654,0.1563799828290939,3.038661003112793,2.3298068046569824,78.00003051757812,28.69,0
-0.3628399074077606,-0.6635683178901672,0.1563334167003631,0.9899073243141174,2.332205057144165,78.0000228881836,28.69,0
-0.3280119299888611,-0.6497509479522705,0.1507057547569275,0.5779443383216858,2.3337440490722656,78.00001525878906,28.69,0
-0.2888680100440979,-0.6632748246192932,0.1470942497253418,0.5428550243377686,2.3347318172454834,78.00000762939453,28.69,0
-0.2693454623222351,-0.6999425292015076,0.1447765976190567,-0.2427518218755722,2.335365533828736,78.00000762939453,28.69,0
-0.2848058938980102,-0.7906470894813538,0.1376914829015731,-2.0043931007385254,2.3357722759246826,78.00000762939453,28.69,0
-0.3059230744838714,-0.8768448829650879,0.133144661784172,-4.116539001464844,2.336033344268799,78.00000762939453,28.69,0
-0.330670416355133,-1.027323842048645,0.1470201015472412,-5.557974338531494,2.3316104412078857,76.56697845458984,28.69,0
-0.3633451461791992,-1.174272537231445,0.1503267884254455,-5.630351543426514,2.3287720680236816,75.6473388671875,28.69,0
-0.4123027920722961,-1.22939133644104,0.1692421436309814,-4.308255195617676,2.326950788497925,75.05716705322266,28.69,0
-0.4493187665939331,-1.0688413381576538,0.2317609041929245,-1.7939121723175049,2.32578182220459,74.67842864990234,28.69,0
-0.422693520784378,-0.9658095836639404,0.2718818485736847,1.936950445175171,2.3250317573547363,74.43537902832031,28.69,0
-0.3328358829021454,-0.9780585765838624,0.2528469562530517,6.5524001121521,2.3245503902435303,74.27940368652344,28.69,0
-0.2751704156398773,-0.9187459349632264,0.2350336909294128,10.370565414428713,2.324241399765014,74.17930603027344,28.69,0
-0.2493596076965332,-0.841498076915741,0.2236021608114242,11.047470092773438,2.324043035507202,74.11506652832031,28.69,0
-0.2831756770610809,-0.758338212966919,0.2106682956218719,8.053343772888184,2.3266701698303223,74.07384490966797,28.69,0
-0.3216702044010162,-0.6881777048110962,0.2023680806159973,3.527352809906006,2.3283560276031494,74.0473861694336,28.69,0
-0.3463737666606903,-0.6487504839897156,0.1970414817333221,0.1105237901210784,2.3294379711151123,74.03041076660156,28.69,0
-0.3510315716266632,-0.6402416825294495,0.2104164958000183,-1.218799352645874,2.330132246017456,74.01951599121094,28.69,0
-0.3540206551551819,-0.6347812414169312,0.2189998179674148,-1.1547430753707886,2.330577850341797,74.01252746582031,28.69,0
-0.3615366518497467,-0.6256792545318604,0.2357036471366882,-1.0634794235229492,2.33086371421814,74.00804138183594,28.69,0
-0.371957778930664,-0.6254358887672424,0.2520209848880768,-2.033110857009888,2.331047296524048,74.00515747070312,28.69,0
-0.4066343307495117,-0.703648567199707,0.2792858183383941,-4.063316822052002,2.331165075302124,74.00331115722656,28.69,0
-0.4456810653209686,-0.8546009063720703,0.2799895107746124,-6.165100574493408,2.330322504043579,74.00212860107422,28.69,0
-0.4763367772102356,-1.0354400873184204,0.2692455351352691,-7.463747978210449,2.3297817707061768,74.0013656616211,28.69,0
-0.5631831288337708,-1.224263310432434,0.2959373295307159,-7.888731479644775,2.329434633255005,74.0008773803711,28.69,0
-0.6301116943359375,-1.250277042388916,0.3074688017368316,-7.735135078430176,2.329211950302124,74.00056457519531,28.69,0
-0.5834981799125671,-1.2053955793380735,0.2476957440376281,-6.658522605895996,2.329069137573242,74.00035858154297,28.69,0
-0.5143998861312866,-1.232571005821228,0.2485212683677673,-3.5457937717437744,2.328977346420288,74.00022888183594,28.69,0
-0.4700565934181213,-1.2332173585891724,0.2546488046646118,1.905379295349121,2.32891845703125,74.0001449584961,28.69,0
-0.4304040670394897,-1.0992854833602903,0.2249944657087326,7.696476459503174,2.328880786895752,74.00009155273438,28.69,0
-0.3881640434265136,-0.951760232448578,0.1947684735059738,10.918474197387695,2.335282802581787,74.00006103515625,28.69,0
-0.3610568344593048,-0.7899137139320374,0.1809689402580261,10.861700057983398,2.3393914699554443,74.00003814697266,28.69,0
-0.3492587506771087,-0.6972454786300659,0.1665154248476028,9.625102043151855,2.3420281410217285,74.0000228881836,28.69,0
-0.3248941004276275,-0.6601674556732178,0.1516422033309936,9.40473747253418,2.3437201976776123,74.00001525878906,28.69,0
-0.2812694013118744,-0.6755573153495789,0.130901888012886,10.32734489440918,2.344805955886841,74.00000762939453,28.69,0
-0.2532735764980316,-0.702226996421814,0.1175919398665428,11.137958526611328,2.3455028533935547,74.00000762939453,28.69,0
-0.2465030252933502,-0.747330904006958,0.1090503856539726,10.895074844360352,2.34594988822937,74.00000762939453,28.69,0
-0.2701469361782074,-0.8602426052093506,0.10916668176651,9.599946975708008,2.3462369441986084,74.00000762939453,28.69,0
-0.2909180223941803,-0.9550939202308656,0.1204368621110916,7.726278781890869,2.3459620475769043,72.92523193359375,28.69,0
-0.3098454773426056,-1.0999306440353394,0.1220716387033462,5.674796104431152,2.345785856246948,72.23550415039062,28.69,0
-0.3387853503227234,-1.1928786039352417,0.1343162953853607,3.727739334106445,2.345672607421875,71.79287719726562,28.69,0
-0.4133350551128387,-1.1405717134475708,0.2205430567264557,2.349257707595825,2.345599889755249,71.50881958007812,28.69,0
-0.4107967913150787,-0.9726575613021852,0.2926717400550842,2.252794027328491,2.345553398132324,71.32653045654297,28.69,0
-0.3531901240348816,-0.9432687759399414,0.3109709024429321,3.992924928665161,2.3455235958099365,71.20954895019531,28.69,0
-0.282634824514389,-0.9356042742729188,0.2947253882884979,7.212612628936768,2.3455042839050293,71.13447570800781,28.69,0
-0.242954283952713,-0.9138923287391664,0.2842999398708343,9.95592975616455,2.345491886138916,71.08629608154297,28.69,0
-0.2510762512683868,-0.8383833169937134,0.2664139568805694,9.79258918762207,2.3560423851013184,71.05538177490234,28.69,0
-0.3178639709949493,-0.7395460605621338,0.2493379861116409,6.510022163391113,2.3628129959106445,71.03553771972656,28.69,0
-0.377517819404602,-0.6761179566383362,0.2439773827791214,2.511859655380249,2.3671579360961914,71.0228042602539,28.69,0
-0.4158002138137817,-0.6522067785263062,0.2405372560024261,0.0392163768410682,2.369946241378784,71.01463317871094,28.69,0
-0.434769868850708,-0.6368619799613953,0.2439273595809936,-0.6734354496002197,2.3717355728149414,71.00939178466797,28.69,0
-0.4301501810550689,-0.6326123476028442,0.257298469543457,-0.7151955962181091,2.3728840351104736,71.00602722167969,28.69,0
-0.4159899950027466,-0.6298851370811462,0.271477073431015,-1.2937114238739014,2.373620986938477,71.00386810302734,28.69,0
-0.4180983304977417,-0.6617216467857361,0.2861738502979278,-2.8006460666656494,2.374094009399414,71.00247955322266,28.69,0
-0.4530380070209503,-0.7493257522583008,0.2956053912639618,-4.462729454040527,2.3789877891540527,71.00159454345703,28.69,0
-0.4586669504642486,-0.8839138746261597,0.2792669236660003,-5.257083415985107,2.3821282386779785,71.00102233886719,28.69,0
-0.4622792899608612,-1.0430558919906616,0.257586270570755,-5.025260925292969,2.384143590927124,71.00065612792969,28.69,0
-0.5037819147109985,-1.139586329460144,0.2660639882087707,-4.392842769622803,2.38543701171875,71.00041961669922,28.69,0
-0.536013662815094,-1.2015339136123655,0.2547111809253692,-3.922506809234619,2.3862671852111816,71.0002670288086,28.69,0
-0.4783293008804321,-1.2412883043289185,0.1802522987127304,-3.1441898345947266,2.3867998123168945,71.00016784667969,28.69,0
-0.4021263718605041,-1.283593773841858,0.1380666494369506,-0.5703995227813721,2.387141704559326,71.00010681152344,28.69,0
-0.3196370899677276,-1.23237407207489,0.1277876496315002,4.219647407531738,2.3873610496521,71.00006866455078,28.69,0
-0.2667002081871032,-1.0987443923950195,0.1043978556990623,8.608428955078125,2.395305871963501,71.00004577636719,28.71,0
-0.232728362083435,-0.9905974268913268,0.0893876329064369,9.006657600402832,2.400404214859009,71.00003051757812,28.71,0
-0.1773405373096466,-0.8932060599327087,0.0909504815936088,5.360793113708496,2.4036760330200195,71.0000228881836,28.71,0
-0.147393599152565,-0.819510281085968,0.0863556563854217,1.5414832830429075,2.405775785446167,71.00001525878906,28.71,0
-0.1281753778457641,-0.7666188478469849,0.0666136369109153,0.656055748462677,2.407123327255249,71.00000762939453,28.71,0
-0.1046466752886772,-0.7830561399459839,0.0427487976849079,2.0475082397460938,2.4079880714416504,71.00000762939453,28.71,0
-0.1063406318426132,-0.8159957528114319,0.027433717623353,3.39544939994812,2.408543109893799,71.00000762939453,28.71,0
-0.1298188120126724,-0.8371344804763794,0.0288009289652109,3.472313642501831,2.408899307250977,71.00000762939453,28.71,0
-0.1392879784107208,-0.8451023101806641,0.0408738777041435,2.192505359649658,2.412340879440308,72.56917572021484,28.71,0
-0.1453647464513778,-0.8334223031997681,0.0710126981139183,0.0062365517951548,2.4145495891571045,73.576171875,28.71,0
-0.1772533357143402,-0.8986977934837341,0.1015496030449867,-2.020153045654297,2.4159669876098637,74.22240447998047,28.71,0
-0.1977176070213318,-0.9517834186553956,0.1211464330554008,-2.686457395553589,2.416876554489136,74.63712310791016,28.71,0
-0.2052526175975799,-0.907481849193573,0.1449180990457534,-1.6523622274398804,2.4174602031707764,74.90326690673828,28.71,0
-0.2212837040424347,-0.8958449959754944,0.1713689416646957,0.7129839658737183,2.417834758758545,75.07405853271484,28.71,0
-0.2539626359939575,-0.8939749002456665,0.2107346653938293,4.036544799804688,2.4180750846862797,75.18366241455078,28.71,0
-0.230151891708374,-0.8815792202949524,0.2248017638921737,7.555871963500977,2.418229341506958,75.25399780273438,28.71,0
-0.1812848895788192,-0.8456355333328247,0.2282314449548721,9.438202857971191,2.4302637577056885,75.29914093017578,28.71,0
-0.1443270742893219,-0.8337644934654236,0.2360301911830902,8.020146369934082,2.4379868507385254,75.32810974121094,28.71,0
-0.1430007815361023,-0.8093529939651489,0.2186438888311386,3.7174205780029297,2.4429430961608887,75.3467025756836,28.71,0
-0.1589429676532745,-0.7321115732192993,0.2018885761499405,-1.336669683456421,2.4461236000061035,75.35862731933594,28.71,0
-0.1747715175151825,-0.7385202646255493,0.2023315280675888,-5.278696060180664,2.448164701461792,75.36627960205078,28.71,0
-0.1625382751226425,-0.7426329851150513,0.197018027305603,-7.371387481689453,2.449474573135376,75.3711929321289,28.71,0
-0.1602854579687118,-0.7508700489997864,0.1936081200838089,-7.7649736404418945,2.450315237045288,75.37434387207031,28.71,0
-0.181230828166008,-0.7897427678108215,0.1802242845296859,-7.222222805023193,2.450854778289795,75.3763656616211,28.71,0
-0.1946723610162735,-0.8594712615013123,0.1716353148221969,-6.512076377868652,2.4590818881988525,75.37767028808594,28.71,0
-0.1697117090225219,-0.9322078227996826,0.1661234050989151,-5.7052531242370605,2.4643616676330566,75.37850189208984,28.71,0
-0.1592911779880523,-0.9564948678016664,0.1569884121417999,-4.531868934631348,2.467749834060669,75.37903594970703,28.71,0
-0.1805927455425262,-0.9720808863639832,0.1735171973705291,-3.1877334117889404,2.469924211502075,75.37937927246094,28.71,0
-0.1774695515632629,-1.0100719928741455,0.1729288697242736,-2.1782591342926025,2.471319437026977,75.37960052490234,28.71,0
-0.1530741602182388,-1.056843638420105,0.1613557636737823,-1.5125237703323364,2.472214937210083,75.37974548339844,28.71,0
-0.148614153265953,-1.1260433197021484,0.1931132376194,-0.3795257210731506,2.4727895259857178,75.37983703613281,28.71,0
-0.1009697839617729,-1.153658390045166,0.2190911173820495,2.3287315368652344,2.473158359527588,75.37989807128906,28.71,0
-0.0983832404017448,-1.109804630279541,0.2245666831731796,6.911300182342529,2.4931342601776123,75.37993621826172,28.69,0
-0.135907769203186,-1.0984551906585691,0.2280805855989456,11.994508743286133,2.505953788757324,75.37995910644531,28.69,0
-0.0984133332967758,-1.0855740308761597,0.2807155847549438,15.052412986755373,2.5141806602478027,75.37997436523438,28.69,0
-0.0855471119284629,-1.0437209606170654,0.2753092646598816,14.553570747375488,2.519460201263428,75.3799819946289,28.69,0
-0.1276702731847763,-1.0056664943695068,0.2550464868545532,11.413955688476562,2.522848129272461,75.37998962402344,28.69,0
-0.1658980548381805,-1.054016351699829,0.2812274098396301,7.75114631652832,2.525022268295288,75.37998962402344,28.69,0
-0.1512460112571716,-1.0738489627838137,0.3092243671417236,4.719876766204834,2.5264174938201904,75.37998962402344,28.69,0
-0.1250498592853546,-1.0585875511169434,0.3159956634044647,2.176292181015014,2.527312994003296,75.37998962402344,28.69,0
-0.1530208736658096,-1.0375981330871582,0.3091455399990082,-0.3158520758152008,2.5430362224578857,76.55866241455078,28.69,0
-0.1261888593435287,-1.0689104795455933,0.3047495186328888,-3.032930374145508,2.553126573562622,77.3150634765625,28.69,0
-0.0921762958168983,-1.0386250019073486,0.2963306307792663,-6.034079074859619,2.5596020221710205,77.80047607421875,28.69,0
-0.0927400887012481,-0.9744073152542114,0.2909278869628906,-8.787618637084961,2.5637574195861816,78.11199188232422,28.69,0
-0.0875041261315345,-0.9835760593414308,0.2762651741504669,-10.318231582641602,2.5664241313934326,78.31190490722656,28.69,0
-0.0505573377013206,-1.0454378128051758,0.2892465889453888,-10.207805633544922,2.568135499954224,78.44019317626953,28.69,0
-0.0604336597025394,-1.0235615968704224,0.3199684023857116,-9.015594482421877,2.569233655929565,78.52252197265625,28.69,0
-0.0835650414228439,-0.964740514755249,0.3228905797004699,-7.458752632141113,2.5699384212493896,78.57535552978516,28.69,0
-0.0872138813138008,-0.943785846233368,0.2967769801616668,-5.73239803314209,2.5947201251983643,78.60926055908203,28.69,0
-0.0503710731863975,-0.9415339231491088,0.2856165468692779,-4.069223880767822,2.610623598098755,78.63101959228516,28.69,0
-0.0491185784339904,-0.9680776000022888,0.267258882522583,-3.02338981628418,2.6208293437957764,78.64498138427734,28.69,0
-0.0595103465020656,-0.9907096028327942,0.2554779946804046,-2.5206148624420166,2.6273789405822754,78.65394592285156,28.69,0
-0.0773747339844703,-0.9604513049125672,0.2535154521465301,-1.7895491123199463,2.631582021713257,78.65969848632812,28.69,0
-0.0832412987947464,-0.9354354739189148,0.2578537762165069,-0.8045023083686829,2.634279251098633,78.66339111328125,28.69,0
-0.0422239266335964,-0.8857951164245605,0.2718334197998047,-0.4697097837924957,2.63601016998291,78.66575622558594,28.69,0
-0.0438902080059051,-0.8651343584060669,0.2640114426612854,-0.9677917957305908,2.6371209621429443,78.66727447509766,28.69,0
-0.0673506334424018,-0.8798643350601196,0.2645895183086395,-1.4844738245010376,2.6474738121032715,78.66825103759766,28.69,0
-0.0880039557814598,-0.8893172144889832,0.2705582678318023,-1.744399070739746,2.6541178226470947,78.66887664794922,28.69,0
-0.1068558394908905,-0.9233723878860474,0.2911819815635681,-2.197810173034668,2.658381462097168,78.66928100585938,28.69,0
-0.0685739293694496,-0.9396292567253112,0.3883837163448334,-2.8004674911499023,2.661117553710937,78.66954040527344,28.69,0
-0.0552023500204086,-0.9108775854110718,0.473153293132782,-3.018837213516236,2.6628735065460205,78.6697006225586,28.69,0
-0.063414566218853,-0.9092197418212892,0.5107601881027222,-2.682491540908813,2.6640002727508545,78.66980743408203,28.69,0
-0.0966735631227493,-0.91935133934021,0.4789164066314697,-1.868354320526123,2.664723396301269,78.66987609863281,28.69,0
-0.1068217232823371,-0.8978643417358398,0.4416875541210174,-0.5004000067710876,2.6651875972747803,78.669921875,28.69,0
-0.1469208747148513,-0.8896729946136475,0.3786118030548095,1.3268568515777588,2.676043510437012,78.66995239257812,28.69,0
-0.1614586561918258,-0.9068073630332948,0.3773178458213806,3.1156880855560303,2.6830103397369385,78.66996765136719,28.69,0
-0.1483970731496811,-0.9178032279014589,0.3988785445690155,4.4069600105285645,2.687481164932251,78.66997528076172,28.69,0
-0.1120260208845138,-0.885675311088562,0.4351060688495636,5.153224945068359,2.690350294113159,78.66998291015625,28.69,0
-0.0998807251453399,-0.8650574684143066,0.4415614902973175,5.481666564941406,2.6921916007995605,78.66999053955078,28.69,0
-0.1424665451049804,-0.8966083526611328,0.4233131110668182,5.273280143737793,2.693373203277588,78.66999053955078,28.69,0
-0.1921867728233337,-0.9000625610351562,0.3780156970024109,4.3191399574279785,2.69413161277771,78.66999053955078,28.69,0
-0.1793121546506881,-0.9302681088447572,0.3657397627830505,2.886417865753174,2.694618225097656,78.66999053955078,28.69,0
-0.1486588716506958,-0.9440545439720154,0.3746550977230072,1.5263224840164185,2.6986026763916016,79.71968841552734,28.69,0
-0.1569762229919433,-0.9473041296005248,0.3691808879375458,0.3131468296051025,2.701159715652466,80.39332580566406,28.69,0
-0.1511182785034179,-0.93819397687912,0.3600700795650482,-0.9490471482276917,2.7028005123138428,80.82562255859375,28.69,0
-0.1641523092985153,-0.9491409063339232,0.348625510931015,-1.9453445672988887,2.7038536071777344,81.1030502319336,28.69,0
-0.172516793012619,-0.9505682587623596,0.3412810564041137,-2.2013752460479736,2.7045295238494877,81.28108215332031,28.69,0
-0.1666890978813171,-0.9290931224822998,0.3309700191020965,-1.8784507513046265,2.704963207244873,81.39533996582031,28.69,0
-0.1629492193460464,-0.9209094047546388,0.3187552094459533,-1.287880778312683,2.705241441726685,81.46865844726562,28.69,0
-0.1549513936042785,-0.9100598096847534,0.3333075642585754,-0.1422158181667328,2.705420017242432,81.51570892333984,28.69,0
-0.1722099483013153,-0.8919016122817993,0.331450879573822,1.800334095954895,2.700026035308838,81.54590606689453,28.69,0
-0.1888832747936248,-0.8970420360565186,0.3302593529224396,3.992750644683838,2.6965644359588623,81.5652847290039,28.69,0
-0.1771921515464782,-0.9003408551216125,0.3406902551651001,5.869034767150879,2.694343090057373,81.57772064208984,28.69,0
-0.1696894615888595,-0.8968600630760193,0.3473842144012451,7.639173030853271,2.692917585372925,81.58570098876953,28.69,0
-0.1816679984331131,-0.8946263194084167,0.3516800105571747,9.53465175628662,2.692002773284912,81.5908203125,28.69,0
-0.2173440009355545,-0.8652039170265198,0.3824256658554077,10.91585922241211,2.691415548324585,81.59410858154297,28.69,0
-0.2346410304307937,-0.8295289874076843,0.4133520126342773,11.096471786499023,2.6910388469696045,81.59622192382812,28.69,0
-0.279327929019928,-0.8066349029541016,0.377221018075943,10.424211502075195,2.6907970905303955,81.59757232666016,28.69,0
-0.3136031627655029,-0.8031383156776428,0.3372409045696258,9.670361518859863,2.720021247863769,81.59844207763672,28.69,0
-0.2964146137237549,-0.896056592464447,0.3675616979598999,9.18658447265625,2.7387757301330566,81.5989990234375,28.69,0
-0.2741884589195251,-0.8997084498405457,0.3646287620067596,9.20213794708252,2.7508111000061035,81.59935760498047,28.69,0
-0.2263383418321609,-0.9132475852966307,0.3515510261058807,9.9967041015625,2.758534669876098,81.5995864868164,28.69,0
-0.1620442420244217,-0.9555228352546692,0.3543540239334106,11.058327674865724,2.76349139213562,81.5997314453125,28.69,0
-0.1375773102045059,-0.9546638131141664,0.3337617218494415,10.99085807800293,2.766672372817993,81.5998306274414,28.69,0
-0.1442669481039047,-0.9261236786842346,0.298155665397644,9.070290565490724,2.7687137126922607,81.59989166259766,28.69,0
-0.1373644173145294,-0.9301993250846864,0.2920990884304046,6.372507095336914,2.7700235843658447,81.59992980957031,28.69,0
-0.1161414459347724,-0.9328148365020752,0.3050056397914886,4.831101417541504,2.83145809173584,81.5999526977539,28.69,0
-0.1305106431245803,-0.9288955330848694,0.3468749821186065,5.597377777099609,2.8708832263946533,81.59996795654297,28.69,0
-0.1845141649246215,-0.9151847958564758,0.3625487685203552,8.331822395324707,2.896183967590332,81.5999755859375,28.69,0
-0.2471593767404556,-0.9399726986885072,0.3502161800861358,11.405019760131836,2.9124205112457275,81.59998321533203,28.69,0
-0.2201881855726242,-0.944684624671936,0.3646929562091827,12.743104934692385,2.922840118408203,81.59999084472656,28.69,0
-0.1916840672492981,-0.9253173470497132,0.3683855235576629,11.44868278503418,2.9295270442962646,81.59999084472656,28.69,0
-0.1845873147249221,-0.8960952162742615,0.3651574254035949,8.841039657592773,2.9338183403015137,81.59999084472656,28.69,0
-0.1912285834550857,-0.877342164516449,0.3518902659416199,7.364645957946777,2.9365720748901367,81.59999084472656,28.69,0
-0.2066861093044281,-0.876503050327301,0.3265828490257263,8.376850128173828,2.947624921798706,82.52429962158203,28.69,0
-0.1998125463724136,-0.8871601223945618,0.3159397840499878,11.01475429534912,2.9547181129455566,83.11746978759766,28.69,0
-0.178608164191246,-0.888401448726654,0.3259029984474182,12.944059371948242,2.959270000457764,83.49813079833984,28.69,0
-0.1538048535585403,-0.894795835018158,0.3434923589229584,11.917988777160645,2.962191104888916,83.74241638183594,28.69,0
-0.1490830779075622,-0.8988993763923645,0.343584656715393,6.967589855194092,2.964065790176392,83.89918518066406,28.69,0
-0.1684440076351165,-0.8959349989891052,0.3324483335018158,-0.9812819361686708,2.965268850326538,83.99978637695312,28.69,0
-0.1752709597349167,-0.8940326571464539,0.3364972472190857,-9.317476272583008,2.966040849685669,84.06434631347656,28.69,0
-0.1852498799562454,-0.8928118348121643,0.3390955924987793,-15.358603477478027,2.966536283493042,84.10578155517578,28.69,0
-0.1804582327604293,-0.8976261615753174,0.3407630622386932,-18.34697151184082,3.0223989486694336,84.13236999511719,28.69,0
-0.1717854440212249,-0.900715708732605,0.347430944442749,-19.429994583129883,3.058248281478882,84.1494369506836,28.69,0
-0.1662197560071945,-0.9082961678504944,0.3517099916934967,-19.623455047607425,3.081254482269287,84.16038513183594,28.69,0
-0.1850391179323196,-0.9131608605384828,0.3488582670688629,-18.79822540283203,3.0960183143615723,84.16741180419922,28.69,0
-0.1915185153484344,-0.9162827730178832,0.3414304256439209,-16.767539978027344,3.1054930686950684,84.17192077636719,28.69,0
-0.1564922034740448,-0.9126884341239928,0.3590547442436218,-13.884448051452637,3.1115734577178955,84.17481231689453,28.69,0
-0.1452098786830902,-0.9047840237617492,0.3703650236129761,-10.45432949066162,3.115475416183472,84.17667388916016,28.69,0
-0.193947285413742,-0.8997114300727844,0.3552322089672088,-6.644500255584717,3.1179795265197754,84.17786407470703,28.69,0
-0.2252241373062133,-0.9076517224311828,0.3511186242103576,-2.9814956188201904,3.1889026165008545,84.17862701416016,28.69,0
-0.2229047268629074,-0.9071495532989502,0.3540765345096588,0.003325569210574,3.234416961669922,84.17911529541016,28.69,0
-0.2158184945583343,-0.8844361901283264,0.3559747636318207,2.391712188720703,3.263625383377075,84.17943572998047,28.69,0
-0.1944776326417923,-0.8754578232765198,0.3739862442016601,4.361515522003174,3.282369613647461,84.17964172363281,28.69,0
-0.186380073428154,-0.8808915615081787,0.3911427557468414,5.414249897003174,3.294398546218872,84.17977142333984,28.69,0
-0.2203679382801056,-0.8731830716133118,0.3685661554336548,4.921914577484131,3.3021180629730225,84.17985534667969,28.69,0
-0.2309838533401489,-0.8850295543670654,0.3484800457954407,3.352060556411743,3.307072162628174,84.1799087524414,28.69,0
-0.2210032045841217,-0.898229718208313,0.3355899155139923,2.2371413707733154,3.310251235961914,84.17993927001953,28.69,0
-0.2034026533365249,-0.9011030197143556,0.3385133147239685,2.4961109161376958,3.356818914413452,84.17996215820312,28.69,0
-0.1809120774269104,-0.902946949005127,0.3515849411487579,2.9918997287750244,3.3867032527923584,84.17997741699219,28.69,0
-0.1832722574472427,-0.9041302800178528,0.3543757796287536,1.3718949556350708,3.405881404876709,84.17998504638672,28.69,0
-0.1847868710756302,-0.904889702796936,0.3561667799949646,-3.5799033641815186,3.4181888103485107,84.17999267578125,28.69,0
-0.1801610887050628,-0.9109748005867004,0.3629139363765716,-10.576708793640137,3.426086902618408,84.17999267578125,28.69,0
-0.1771925389766693,-0.9036843180656432,0.3616460859775543,-16.625274658203125,3.4311554431915283,84.17999267578125,28.69,0
-0.1696897149085998,-0.8990057110786438,0.3664302229881286,-19.091779708862305,3.434408187866211,84.17999267578125,28.69,0
-0.1760703772306442,-0.896003246307373,0.3695003986358642,-17.58287811279297,3.436495542526245,84.17999267578125,28.69,0
-0.1913606822490692,-0.8996742367744446,0.3658728897571563,-13.977776527404783,3.46008038520813,84.95024871826172,28.69,0
-0.2011731117963791,-0.9020300507545472,0.3635449707508087,-10.367337226867676,3.4752159118652344,85.4445571899414,28.69,0
-0.2018723934888839,-0.8979440927505493,0.3620510399341583,-7.247867584228516,3.484929084777832,85.76177215576172,28.69,0
-0.1967233717441558,-0.8841264247894287,0.3722878694534302,-4.045808792114258,3.4911623001098637,85.96534729003906,28.69,0
-0.2046145796775818,-0.8864545822143555,0.378857284784317,-0.5793770551681519,3.4951624870300293,86.09598541259766,28.69,0
-0.2208742499351501,-0.893546462059021,0.3718776106834411,2.662630796432495,3.497729539871216,86.17982482910156,28.69,0
-0.2313087731599807,-0.898097574710846,0.3673984706401825,5.08709192276001,3.499377012252808,86.23362731933594,28.69,0
-0.23240727186203,-0.895420491695404,0.3645240068435669,6.406521797180176,3.500434160232544,86.26815795898438,28.69,0
-0.2387100011110305,-0.8825069069862366,0.3626793324947357,6.848424434661865,3.5208516120910645,86.29031372070312,28.69,0
-0.2371569573879242,-0.8742197155952454,0.3726910650730133,7.024535179138184,3.533954381942749,86.30453491210938,28.69,0
-0.2361602932214737,-0.8689014911651611,0.3847137987613678,7.241447448730469,3.542362928390503,86.31365966796875,28.69,0
-0.2579118013381958,-0.8766841292381287,0.3756359815597534,7.251676559448242,3.5477590560913086,86.31951141357422,28.69,0
-0.2662728726863861,-0.8928741216659546,0.3698103725910187,6.885653018951416,3.55122184753418,86.32327270507812,28.69,0
-0.2436496764421463,-0.8976661562919617,0.371669590473175,6.36057186126709,3.5534441471099854,86.32568359375,28.69,0
-0.2123380750417709,-0.8839480876922607,0.3728627264499664,5.658182144165039,3.554870367050171,86.32723236083984,28.69,0
-0.1978418678045272,-0.8751446008682251,0.3680306375026703,4.329698085784912,3.555785655975342,86.3282241821289,28.69,0
-0.1997345834970474,-0.8750928044319153,0.3537341356277466,2.208921432495117,3.566471815109253,86.328857421875,28.69,0
-0.2009492218494415,-0.8750595450401306,0.3557550311088562,-0.3092428743839264,3.5733296871185303,86.32926940917969,28.69,0
-0.2073264867067337,-0.875038206577301,0.3626496791839599,-2.691926956176758,3.577730655670166,86.32952880859375,28.69,0
-0.2226146012544632,-0.8806222677230835,0.3670742809772491,-4.306978225708008,3.580554962158203,86.32969665527344,28.69,0
-0.2436211705207824,-0.8842058181762695,0.3699137270450592,-4.483607292175293,3.582367420196533,86.32980346679688,28.69,0
-0.2571019828319549,-0.8921033143997192,0.3773337006568908,-3.303647518157959,3.58353042602539,86.32987213134766,28.69,0
-0.2657531797885895,-0.8915736675262451,0.3820953965187073,-1.7869113683700562,3.5842769145965576,86.32991790771484,28.69,0
-0.2601094841957092,-0.8912338018417358,0.3795534074306488,-0.6415936946868896,3.5847558975219727,86.32994842529297,28.69,0
-0.2396943569183349,-0.8966134786605835,0.3723243474960327,0.4552454352378845,3.608015775680542,86.32997131347656,28.69,0
-0.2321908771991729,-0.9056636095046996,0.3620873689651489,1.972378253936768,3.6229426860809326,86.3299789428711,28.69,0
-0.2329733520746231,-0.8946781158447266,0.3723112046718597,3.6159284114837646,3.632521867752075,86.32998657226562,28.69,0
-0.2334755063056945,-0.8932260274887085,0.3788722455501556,4.556021690368652,3.63866925239563,86.32999420166016,28.69,0
-0.2393955290317535,-0.8866963982582092,0.37188720703125,4.199189186096191,3.642614364624024,86.32999420166016,28.69,0
-0.2375968843698501,-0.8713105320930481,0.3674046099185943,2.884674310684204,3.645146131515503,86.32999420166016,28.69,0
-0.2308448404073715,-0.8670345544815063,0.3757234811782837,1.7473232746124268,3.646770715713501,86.32999420166016,28.69,0
-0.2489028722047805,-0.8642904758453369,0.3754642903804779,1.4975019693374634,3.647813320159912,86.32999420166016,28.69,0
-0.2660892605781555,-0.8569316864013672,0.3697001934051513,1.6739431619644165,3.67740249633789,86.95694732666016,28.69,0
-0.2659229338169098,-0.8690025806427002,0.3660011291503906,1.4217501878738403,3.696391105651856,87.35929107666016,28.69,0
-0.2546206414699554,-0.8767489790916443,0.3692250549793243,0.5792179107666016,3.708576917648315,87.61749267578125,28.69,0
-0.2417697161436081,-0.8761224150657654,0.3656961917877197,-0.4092927873134613,3.716397047042847,87.78318786621094,28.69,0
-0.2167294025421142,-0.8757203221321106,0.3634315729141235,-1.1296439170837402,3.721415519714356,87.8895263671875,28.69,0
-0.2062577456235885,-0.8866578340530396,0.3675760626792907,-1.3733866214752195,3.7246360778808594,87.957763671875,28.69,0
-0.2051354199647903,-0.8992746472358704,0.375833511352539,-1.0855672359466553,3.726702928543091,88.00155639648438,28.69,0
-0.2212084978818893,-0.912969172000885,0.3755348920822143,-0.384970486164093,3.728029251098633,88.0296630859375,28.69,0
-0.2315232753753662,-0.9049642086029052,0.3753432631492615,0.5984358787536621,3.7403564453125,88.04769897460938,28.69,0
-0.2437404692173004,-0.8830337524414062,0.3752202987670898,1.888723373413086,3.748267412185669,88.05927276611328,28.69,0
-0.2571785449981689,-0.8745578527450562,0.3695436120033264,3.3974449634552,3.7533440589904794,88.06669616699219,28.69,0
-0.2546067833900451,-0.8691184520721436,0.3714984059333801,4.616436004638672,3.756602048873901,88.07146453857422,28.69,0
-0.264151930809021,-0.8600299954414368,0.3727528750896454,4.965222835540772,3.758692741394043,88.07452392578125,28.69,0
-0.2758752107620239,-0.8541975617408752,0.3735579252243042,4.393722057342529,3.7600345611572266,88.07648468017578,28.69,0
-0.2778007686138153,-0.8560523986816406,0.3796723484992981,3.3319461345672607,3.760895729064941,88.07774353027344,28.69,0
-0.2734387218952179,-0.85724276304245,0.3835962116718292,2.1597466468811035,3.761448383331299,88.07855224609375,28.69,0
-0.25944384932518,-0.8636044263839722,0.3805165588855743,0.8987707495689392,3.7654755115509033,88.07907104492188,28.69,0
-0.2504627406597137,-0.8788825273513794,0.3785402178764343,-0.6054705381393433,3.768059730529785,88.07940673828125,28.69,0
-0.2446991801261901,-0.8886871337890625,0.3772719204425812,-2.398380994796753,3.769718170166016,88.07962036132812,28.69,0
-0.2298049181699752,-0.8893814086914062,0.3764579892158508,-4.304891109466553,3.770782470703125,88.07975769042969,28.69,0
-0.2090510874986648,-0.8842291831970215,0.3759356439113617,-5.915297985076904,3.771465539932251,88.07984161376953,28.69,0
-0.2013302445411682,-0.8809227347373962,0.3811982274055481,-6.823374271392822,3.7719039916992183,88.07990264892578,28.69,0
-0.2187665551900863,-0.8788008689880371,0.3789776563644409,-7.083693504333496,3.772185325622559,88.07994079589844,28.69,0
-0.2411517202854156,-0.8774392008781433,0.3775526285171509,-7.154021739959717,3.7723658084869385,88.07996368408203,28.69,0
-0.2555172443389892,-0.8765653371810913,0.3822359144687652,-7.270805835723877,3.76605486869812,88.0799789428711,28.71,0
-0.2647362053394317,-0.8816023468971252,0.3852413594722748,-7.241856575012207,3.762004852294922,88.07998657226562,28.71,0
-0.2538590729236603,-0.8792369961738586,0.3983656466007232,-6.872186183929443,3.759405851364136,88.07999420166016,28.71,0
-0.2468787580728531,-0.8777190446853638,0.3955925107002258,-6.140557289123535,3.757737874984741,88.07999420166016,28.71,0
-0.2479969710111618,-0.8711471557617188,0.382617324590683,-5.026176452636719,3.756667375564575,88.07999420166016,28.71,0
-0.2487145662307739,-0.8669297099113464,0.3742905855178833,-3.562272787094116,3.755980491638184,88.07999420166016,28.71,0
-0.2491750866174698,-0.8642231822013855,0.3745447397232055,-1.9672123193740845,3.755539655685425,88.07999420166016,28.71,0
-0.2494706213474273,-0.8680840730667114,0.3747078478336334,-0.4169557690620422,3.7552566528320312,88.07999420166016,28.71,0
-0.2496602684259414,-0.8649640083312988,0.374812513589859,1.050809621810913,3.7454352378845215,88.61380004882812,28.71,0
-0.244184210896492,-0.8685594797134399,0.3748796880245209,2.2435173988342285,3.7391324043273926,88.95636749267578,28.71,0
-0.2406699806451797,-0.8708668351173401,0.3749227821826935,2.783226251602173,3.735087633132935,89.17620849609375,28.71,0
-0.2328169792890548,-0.8723475933074951,0.3805482089519501,2.724749088287353,3.732491970062256,89.3172836303711,28.71,0
-0.2221796065568924,-0.87889564037323,0.3841582834720611,2.730212926864624,3.730826139450073,89.40782165527344,28.71,0
-0.2321464717388153,-0.883097767829895,0.3808772563934326,3.156463146209717,3.729757070541382,89.4659194946289,28.71,0
-0.2441404014825821,-0.885794460773468,0.3787716925144195,3.462249279022217,3.729070901870728,89.50320434570312,28.71,0
-0.2574352025985718,-0.8875250220298767,0.3774204552173614,2.9813783168792725,3.728630781173706,89.52713775634766,28.71,0
-0.2659670412540436,-0.8886356353759766,0.3765532970428467,1.8631209135055544,3.712740659713745,89.54249572753906,28.71,0
-0.2602467238903045,-0.8837505578994751,0.3815945982933044,0.7764824032783508,3.702543258666992,89.55235290527344,28.71,0
-0.2509779930114746,-0.8806155920028687,0.3792320191860199,0.0468972064554691,3.695999145507813,89.55867767333984,28.71,0
-0.2450298517942428,-0.8786037564277649,0.3777158558368683,-0.4428040683269501,3.6917996406555176,89.56273651123047,28.71,0
-0.2412126660346985,-0.8717148900032043,0.3767428696155548,-0.7713964581489563,3.6891045570373535,89.56533813476562,28.71,0
-0.2443607896566391,-0.8672940135002136,0.3705207109451294,-0.8497128486633301,3.687375068664551,89.56700897216797,28.71,0
-0.2463810741901397,-0.8644569516181946,0.3665276765823364,-0.6527740955352783,3.686265230178833,89.56807708740234,28.71,0
-0.2532753646373749,-0.8626363277435303,0.369562953710556,-0.1430545300245285,3.6855528354644775,89.56876373291016,28.71,0
-0.2576997280120849,-0.8670657277107239,0.3715108036994934,0.814587414264679,3.673160552978516,89.56920623779297,28.71,0
-0.2605390250682831,-0.8699082136154175,0.3783586025238037,2.181487798690796,3.665207862854004,89.56948852539062,28.71,0
-0.2567633390426636,-0.8773301839828491,0.3827531337738037,3.639062881469727,3.660104274749756,89.56967163085938,28.71,0
-0.2543403208255768,-0.876495361328125,0.3855732977390289,4.886135101318359,3.6568291187286377,89.56978607177734,28.71,0
-0.2471875995397567,-0.8815574049949646,0.3817853331565857,5.729424953460693,3.6547272205352783,89.56986236572266,28.71,0
-0.2481951564550399,-0.8848059177398682,0.3793544471263885,5.998323917388916,3.6533782482147217,89.56990814208984,28.71,0
-0.2544395327568054,-0.8812928795814514,0.3777944445610046,5.561850070953369,3.652512550354004,89.56993865966797,28.71,0
-0.2584468126296997,-0.879038393497467,0.3767933249473572,4.346693992614746,3.651957035064697,89.56996154785156,28.71,0
-0.2722139954566955,-0.877591609954834,0.3761508464813232,2.449113368988037,3.6543548107147217,89.56997680664062,28.71,0
-0.2698534429073334,-0.8766631484031677,0.3813363313674927,0.3142160177230835,3.655893564224243,89.56998443603516,28.71,0
-0.2683385610580444,-0.8760673403739929,0.3846640586853027,-1.5179907083511353,3.656881093978882,89.56999206542969,28.71,0
-0.2673664093017578,-0.8756849765777588,0.3867996037006378,-2.8299331665039062,3.657514810562134,89.56999206542969,28.71,0
-0.261144757270813,-0.8754395842552185,0.3825722932815552,-3.6969404220581055,3.657921552658081,89.56999206542969,28.71,0
-0.2459565103054046,-0.8752821087837219,0.379859447479248,-4.253335952758789,3.658182382583618,89.56999206542969,28.71,0
-0.2362095713615417,-0.8751810193061829,0.3781185150146484,-4.714293003082275,3.658349990844727,89.56999206542969,28.71,0
-0.2355523258447647,-0.8751161694526672,0.3714035153388977,-5.318210124969482,3.658457517623901,89.56999206542969,28.71,0
-0.2519238591194153,-0.875074565410614,0.3726919889450073,-5.970880031585693,3.684692144393921,90.0572280883789,28.71,0
-0.2680279314517975,-0.8750478625297546,0.3735188543796539,-6.271501064300537,3.7015280723571777,90.36990356445312,28.71,0
-0.2727648317813873,-0.8750306963920593,0.3796472549438476,-6.005852699279785,3.7123324871063232,90.57056427001952,28.71,0
-0.2702069282531738,-0.8750196695327759,0.3835801184177398,-5.186928749084473,3.719266176223755,90.69933319091795,28.71,0
-0.2629676461219787,-0.8806104063987732,0.3861039876937866,-3.615278482437134,3.7237157821655273,90.78197479248048,28.71,0
-0.241528570652008,-0.8786004185676575,0.3821259140968323,-1.2202268838882446,3.7265713214874263,90.8350067138672,28.71,0
-0.2277701944112777,-0.8829083442687988,0.3795729875564575,1.3843868970870972,3.728403806686402,90.8690414428711,28.71,0
-0.2245386391878128,-0.8744773268699646,0.3723368942737579,3.5431082248687744,3.7295796871185294,90.89087677001952,28.71,0
-0.2336603701114654,-0.8690667748451233,0.3732909858226776,5.168484210968018,3.76843523979187,90.90489196777344,28.71,0
-0.2451119422912597,-0.8711923956871033,0.3739032447338104,6.2330522537231445,3.793370485305786,90.91388702392578,28.71,0
-0.2580586671829223,-0.8725565075874329,0.3798939287662506,6.482738971710205,3.809372663497925,90.91966247558594,28.71,0
-0.2607693672180176,-0.873431921005249,0.3837384283542633,5.962284088134766,3.8196418285369873,90.9233627319336,28.71,0
-0.2569111585617065,-0.8795914649963379,0.3806078135967254,5.051491737365723,3.8262319564819336,90.92574310302734,28.71,0
-0.248837411403656,-0.8891420960426331,0.3785987794399261,4.0191755294799805,3.830461263656616,90.9272689819336,28.71,0
-0.2436561435461044,-0.8952711224555969,0.377309501171112,3.0485928058624268,3.833175420761109,90.9282455444336,28.71,0
-0.2347333282232284,-0.8936066031455994,0.3708843290805816,2.314668893814087,3.834917068481445,90.92887115478516,28.71,0
-0.2290071845054626,-0.8869406580924988,0.3667610287666321,1.689628005027771,3.860363960266113,90.92927551269533,28.71,0
-0.2253324687480926,-0.8882606029510498,0.3697127103805542,0.8335257172584534,3.876694440841675,90.92953491210938,28.71,0
-0.2229742556810379,-0.8947054147720337,0.3772046864032745,-0.3499873280525207,3.887174367904663,90.92970275878906,28.71,0
-0.2158631086349487,-0.8932435512542725,0.3764148354530334,-1.668379783630371,3.89389967918396,90.9298095703125,28.71,0
-0.2001040428876876,-0.881109893321991,0.3759079575538635,-2.858375310897827,3.898215770721436,90.92987823486328,28.71,0
-0.1899907737970352,-0.8789209723472595,0.3811804354190826,-3.4966557025909424,3.9009854793548575,90.92992401123048,28.71,0
-0.2114895284175872,-0.8775162696838379,0.3845640122890472,-3.1682567596435547,3.902762889862061,90.9299545288086,28.71,0
-0.2308839708566665,-0.8710170388221741,0.3811376392841339,-2.058282852172852,3.9039037227630615,90.92996978759766,28.71,0
-0.2377324402332306,-0.8724439740180969,0.3789387941360473,-0.8085792064666748,3.9147346019744873,90.9299774169922,28.71,0
-0.2365296185016632,-0.8677619099617004,0.3775276839733124,0.24418905377388,3.921685218811035,90.92998504638672,28.71,0
-0.2245621681213379,-0.8703550100326538,0.382219910621643,1.14191472530365,3.9261457920074463,90.92999267578124,28.71,0
-0.2168821394443512,-0.8832146525382996,0.3852311074733734,1.8505786657333372,3.92900824546814,90.92999267578124,28.71,0
-0.2119535356760025,-0.8858694434165955,0.3815657496452331,2.341184139251709,3.930845260620117,90.92999267578124,28.71,0
-0.2031928747892379,-0.8819754123687744,0.3792135119438171,2.7706689834594727,3.9320242404937744,90.92999267578124,28.71,0
-0.1975707858800888,-0.8794764280319214,0.3833017647266388,3.2684073448181152,3.932780742645264,90.92999267578124,28.71,0
-0.1939628571271896,-0.8778727054595947,0.3859253823757171,3.673809051513672,3.9332661628723145,90.92999267578124,28.71,0
-0.2140385806560516,-0.8768435120582581,0.38760906457901,3.59721040725708,3.949504852294922,91.40289306640624,28.71,0
-0.2325198054313659,-0.876183032989502,0.3886895477771759,2.720478773117065,3.959925889968872,91.70637512207033,28.71,0
-0.2443799972534179,-0.8757591843605042,0.389382928609848,1.14397394657135,3.966613531112671,91.90113067626952,28.71,0
-0.2351978570222854,-0.875487208366394,0.3898279070854187,-0.7096413969993591,3.970905303955078,92.02611541748048,28.71,0
-0.2181097418069839,-0.8753126859664917,0.3901134729385376,-2.4437365531921387,3.9736595153808594,92.1063232421875,28.71,0
-0.2071435749530792,-0.8807984590530396,0.3846989572048187,-3.82168960571289,3.9754269123077393,92.15779876708984,28.71,0
-0.1945083439350128,-0.8843188881874084,0.3812242448329925,-4.766884326934815,3.976561307907105,92.19083404541016,28.71,0
-0.1919975578784942,-0.8865780830383301,0.3733965754508972,-5.430777072906494,3.9772891998291016,92.21202850341795,28.71,0
-0.2127773761749267,-0.8880279064178467,0.3683732450008392,-6.064614295959473,3.969034433364868,92.2256317138672,28.71,0
-0.2261126637458801,-0.8889583349227905,0.3707473278045654,-6.686329364776611,3.9637370109558105,92.23435974121094,28.71,0
-0.2234749346971511,-0.8895554542541504,0.3834664225578308,-7.045901775360107,3.960337400436402,92.23995971679688,28.71,0
-0.2217821925878524,-0.8843408823013306,0.3860310316085815,-6.907649517059326,3.958155870437622,92.2435531616211,28.71,0
-0.2206958830356598,-0.880994439125061,0.387676864862442,-6.141820430755615,3.9567558765411377,92.24586486816406,28.71,0
-0.214400976896286,-0.8844446539878845,0.3887330591678619,-4.625738620758057,3.955857276916504,92.24734497070312,28.71,0
-0.2103612720966339,-0.886658787727356,0.3894108533859253,-2.363077402114868,3.955280780792236,92.24829864501952,28.71,0
-0.2133665978908538,-0.8880797028541565,0.3842480480670929,0.1924016028642654,3.954910755157471,92.24890899658205,28.71,0
-0.2152952402830124,-0.8889915943145752,0.380934864282608,2.2801828384399414,3.9404430389404297,92.24929809570312,28.71,0
-0.2109351605176925,-0.88957679271698,0.3788086473941803,3.401463508605957,3.9311583042144775,92.24954986572266,28.71,0
-0.2025393396615982,-0.8843545317649841,0.3830419480800628,3.554989814758301,3.9251999855041504,92.2497100830078,28.71,0
-0.1971513777971267,-0.881003201007843,0.385758638381958,2.940581798553467,3.92137622833252,92.24981689453124,28.71,0
-0.2048892527818679,-0.8788524866104126,0.381904274225235,1.8548530340194704,3.9189224243164062,92.24988555908205,28.71,0
-0.2210505157709121,-0.8774722814559937,0.3794307708740234,0.7138553261756897,3.91734766960144,92.24992370605467,28.71,0
-0.2314218878746032,-0.8821843266487122,0.3834411799907684,-0.2154129743576049,3.916337013244629,92.2499542236328,28.71,0
-0.2380776405334472,-0.8796104788780212,0.3916126191616058,-1.0123881101608276,3.9156885147094727,92.24996948242188,28.71,0
-0.2479466944932937,-0.8779587149620056,0.3912588059902191,-1.77103853225708,3.900123834609986,92.2499771118164,28.71,0
-0.2430845350027084,-0.8768987059593201,0.3854339718818664,-2.4011998176574707,3.890135288238525,92.24998474121094,28.71,0
-0.2231709510087967,-0.8818162679672241,0.3816959261894226,-2.7948532104492188,3.883725166320801,92.24999237060548,28.71,0
-0.2047937959432602,-0.8849720358848572,0.3792970478534698,-2.854018211364746,3.8796114921569824,92.24999237060548,28.71,0
-0.2041959315538406,-0.8813994526863098,0.3777576088905334,-2.505068778991699,3.87697172164917,92.24999237060548,28.71,0
-0.2094100415706634,-0.8791068196296692,0.3767696619033813,-1.854806661605835,3.875277519226074,92.24999237060548,28.71,0
-0.2239516973495483,-0.8776355385780334,0.3817334473133087,-1.0720832347869873,3.874190330505371,92.24999237060548,28.71,0
-0.2332836985588073,-0.8766913414001465,0.3849189281463623,-0.0108944792300462,3.87349271774292,92.24999237060548,28.71,0
-0.2392724454402923,-0.8760854005813599,0.3869631588459015,1.598002314567566,3.8615689277648926,92.60466766357422,28.71,0
-0.2319201231002807,-0.8756965398788452,0.3882750272750854,3.501065492630005,3.853916883468628,92.83228302001952,28.71,0
-0.22160404920578,-0.8810447454452515,0.3891169130802154,4.944461822509766,3.849006175994873,92.97834777832033,28.71,0
-0.2149837911128997,-0.8844769597053528,0.3840594291687011,5.602057456970215,3.8458547592163086,93.07208251953124,28.71,0
-0.2163330614566803,-0.881081759929657,0.3808138072490692,5.920169353485107,3.843832492828369,93.13224029541016,28.71,0
-0.2171989530324936,-0.8789029121398926,0.3787309527397156,6.285531520843506,3.8425347805023193,93.17084503173828,28.71,0
-0.2233524024486541,-0.8775046467781067,0.3829920887947082,6.423270225524902,3.8417019844055176,93.19561767578124,28.71,0
-0.2328990995883941,-0.876607358455658,0.3913244009017944,5.823808670043945,3.841167449951172,93.21151733398438,28.71,0
-0.2334278523921966,-0.8816292881965637,0.3966716229915619,4.385831356048584,3.829348087310791,93.22171783447266,28.71,0
-0.2393649518489837,-0.8792542815208435,0.3889076113700866,2.445568799972534,3.821763038635254,93.22826385498048,28.71,0
-0.2375772595405578,-0.8833279013633728,0.3839251101016998,0.4265837371349334,3.816895484924317,93.2324676513672,28.71,0
-0.2308322489261627,-0.8803443908691406,0.380727618932724,-1.4243838787078855,3.813771724700928,93.23516845703124,28.71,0
-0.2265036851167678,-0.8784297108650208,0.3786756694316864,-3.027807235717773,3.811767101287842,93.23690032958984,28.71,0
-0.2237258702516555,-0.8827987909317017,0.3829565942287445,-4.257416248321533,3.8104805946350098,93.23800659179688,28.71,0
-0.233138769865036,-0.8800048232078552,0.3801060914993286,-4.881710052490234,3.809654951095581,93.2387237548828,28.71,0
-0.2335816621780395,-0.8782117962837219,0.3782767951488495,-4.830941200256348,3.8091251850128174,93.23918151855467,28.71,0
-0.228268101811409,-0.877061128616333,0.3771028518676758,-4.343373775482178,3.794554710388184,93.23947143554688,28.71,0
-0.2136626243591308,-0.8763226866722107,0.381947249174118,-3.661475658416748,3.7852044105529785,93.23966217041016,28.71,0
-0.2042896598577499,-0.8814465999603271,0.390653908252716,-2.7258946895599365,3.7792038917541504,93.23978424072266,28.71,0
-0.2318612784147262,-0.8735392689704895,0.3906435370445251,-1.3301609754562378,3.775352954864502,93.23986053466795,28.71,0
-0.255152940750122,-0.8740625977516174,0.3906368911266327,0.5005927681922913,3.772881746292114,93.23990631103516,28.71,0
-0.2533068656921386,-0.874398410320282,0.3906326293945312,2.381232738494873,3.77129578590393,93.23993682861328,28.71,0
-0.2409266084432602,-0.869016170501709,0.3906298875808716,3.9535417556762695,3.770277976989746,93.23995971679688,28.71,0
-0.2217861264944076,-0.8711599111557007,0.3906281292438507,5.18826150894165,3.769624948501587,93.23997497558594,28.71,0
-0.2151006311178207,-0.8781334161758423,0.3850292265415191,6.09527587890625,3.7448766231536874,93.23998260498048,28.73,0
-0.2164080440998077,-0.8826085925102234,0.3814361691474914,6.462390899658203,3.728994607925415,93.239990234375,28.73,0
-0.2228448390960693,-0.8798827528953552,0.3791303634643554,6.22150182723999,3.7188024520874015,93.239990234375,28.73,0
-0.2213778346776962,-0.8781334757804871,0.3832484185695648,5.70149040222168,3.71226167678833,93.239990234375,28.73,0
-0.2260341644287109,-0.8770108819007874,0.3858911395072937,5.22805643081665,3.708064079284668,93.239990234375,28.73,0
-0.2234245538711547,-0.8762904405593872,0.3875870704650879,4.720026969909668,3.7053704261779785,93.239990234375,28.73,0
-0.2217498570680618,-0.8814259171485901,0.3886754214763641,3.767052173614502,3.703641653060913,93.239990234375,28.73,0
-0.2262729108333587,-0.884721577167511,0.3837760984897613,1.9696552753448489,3.7025322914123535,93.239990234375,28.73,0
-0.2235777676105499,-0.8812387585639954,0.3806319832801819,-0.5989277958869934,3.686212539672852,93.53376770019533,28.73,0
-0.22184818983078,-0.8790037035942078,0.3842120468616485,-3.33281683921814,3.675739526748657,93.7222900390625,28.73,0
-0.2151404619216919,-0.877569317817688,0.3865095376968384,-5.549422264099121,3.669018507003784,93.84327697753906,28.73,0
-0.2108358293771743,-0.8766488432884216,0.3879839479923248,-6.7820353507995605,3.664705276489258,93.9209213256836,28.73,0
-0.2136711478233337,-0.8760581612586975,0.3833323419094085,-6.7705583572387695,3.6619372367858887,93.9707489013672,28.73,0
-0.2154906839132309,-0.875679075717926,0.3803472220897674,-5.613186359405518,3.660161018371582,94.00272369384766,28.73,0
-0.222256138920784,-0.8810335397720337,0.3840292990207672,-3.838669776916504,3.6590211391448975,94.0232391357422,28.73,0
-0.2265978157520294,-0.8788719773292542,0.3863922655582428,-1.9403812885284424,3.658289670944214,94.03640747070312,28.73,0
-0.2293840497732162,-0.8774847984313965,0.3879086673259735,-0.0020712688565254,3.647262334823608,94.04486083984376,28.73,0
-0.2311720997095108,-0.8821923732757568,0.3888818025588989,1.9870003461837769,3.640185594558716,94.05028533935548,28.73,0
-0.2267217934131622,-0.8852134346961975,0.3895063102245331,3.779362678527832,3.635644197463989,94.05376434326172,28.73,0
-0.2238658368587494,-0.881554365158081,0.384309321641922,5.123056888580322,3.632729768753052,94.05599975585938,28.73,0
-0.2164352685213089,-0.8848040103912354,0.3809741735458374,6.060596466064453,3.630859375,94.05743408203124,28.73,0
-0.2116667628288269,-0.8868893980979919,0.3788338899612427,6.715993881225586,3.6296591758728023,94.058349609375,28.73,0
-0.2086066156625747,-0.882629930973053,0.3830581307411194,6.864314556121826,3.6288888454437256,94.0589370727539,28.73,0
-0.2066427916288375,-0.8798964619636536,0.3857690095901489,6.02086353302002,3.628394603729248,94.05931854248048,28.73,0
-0.2165780663490295,-0.878142237663269,0.3875086903572082,4.146867275238037,3.6133875846862793,94.05956268310548,28.73,0
-0.2285517305135727,-0.8770164847373962,0.3830273449420929,1.944705605506897,3.603756904602051,94.0597152709961,28.73,0
-0.2306379675865173,-0.8762940764427185,0.3857492506504059,0.1481493860483169,3.59757661819458,94.059814453125,28.73,0
-0.2263790071010589,-0.8758304715156555,0.3874960243701935,-1.1910709142684937,3.5936105251312256,94.05988311767578,28.73,0
-0.2236458510160446,-0.8755329251289368,0.3886170089244842,-2.5950570106506348,3.5910651683807373,94.05992126464844,28.73,0
-0.2218918800354004,-0.8753420114517212,0.3893363773822784,-4.509923458099365,3.5894317626953125,94.05995178222656,28.73,0
-0.2207662761211395,-0.8696216940879822,0.3897980451583862,-6.7562255859375,3.588383436203003,94.05996704101562,28.73,0
-0.2200439274311065,-0.8659507632255554,0.3900943100452423,-8.513039588928223,3.5877108573913574,94.05997467041016,28.73,0
-0.2195803672075271,-0.8691927194595337,0.3958822190761566,-8.895286560058594,3.5721306800842285,94.05998229980467,28.73,0
-0.2192828804254531,-0.8712732195854187,0.3995965421199798,-7.725472927093506,3.5621321201324463,94.05998992919922,28.73,0
-0.2190919667482376,-0.8726083636283875,0.3963824212551117,-5.713687419891357,3.555715799331665,94.05998992919922,28.73,0
-0.2189694494009018,-0.8734651803970337,0.3943197727203369,-3.806436061859131,3.551598072052002,94.05998992919922,28.73,0
-0.218890830874443,-0.8740150332450867,0.3873983323574066,-2.371100187301636,3.54895567893982,94.05998992919922,28.73,0
-0.2188403755426406,-0.874367892742157,0.3885543048381805,-1.116804599761963,3.54725980758667,94.05998992919922,28.73,0
-0.2244057655334472,-0.8801921010017395,0.389296144247055,0.225516527891159,3.5461714267730717,94.05998992919922,28.73,0
-0.2279773205518722,-0.8783320188522339,0.3953699767589569,1.4738590717315674,3.545473098754883,94.05998992919922,28.73,0
-0.2302693426609039,-0.8771383166313171,0.3992678225040436,2.4541022777557373,3.530794620513916,94.30360412597656,28.73,0
-0.2261424511671066,-0.8819700479507446,0.4073670208454132,3.3590242862701416,3.5213747024536133,94.45994567871094,28.73,0
-0.217896282672882,-0.8794729709625244,0.4069668352603912,4.111714839935303,3.515329599380493,94.5602798461914,28.73,0
-0.212604358792305,-0.877870500087738,0.4011122584342956,4.021535873413086,3.511450290679932,94.62466430664062,28.73,0
-0.2148060798645019,-0.8768421411514282,0.3973551094532013,2.813657760620117,3.508960723876953,94.66598510742188,28.73,0
-0.2218167930841446,-0.8705844283103943,0.3949439823627472,1.243179202079773,3.5073630809783936,94.69249725341795,28.73,0
-0.2319136410951614,-0.8609707951545715,0.3933966755867004,0.038294818252325,3.5063376426696777,94.7095184326172,28.73,0
-0.2383932173252105,-0.8548012971878052,0.3924036920070648,-0.9176419973373412,3.5056796073913574,94.7204360961914,28.73,0
-0.2425514310598373,-0.8508420586585999,0.3973642289638519,-2.039833068847656,3.486436367034912,94.72744750976562,28.73,0
-0.2396221607923507,-0.8594968318939209,0.4061453938484192,-3.39410662651062,3.4740869998931885,94.73194122314452,28.73,0
-0.2377423197031021,-0.8650509715080261,0.4061828553676605,-4.80775260925293,3.4661619663238525,94.73482513427734,28.73,0
-0.2309381812810897,-0.8742130398750305,0.4006091356277466,-6.10903263092041,3.461076259613037,94.73667907714844,28.73,0
-0.2209738940000534,-0.8800927400588989,0.397032231092453,-7.076674938201904,3.457812547683716,94.73786926269533,28.73,0
-0.2201771736145019,-0.883866012096405,0.3947367966175079,-7.2784905433654785,3.4557180404663086,94.73863220214844,28.73,0
-0.2252636551856994,-0.8806896805763245,0.3988614976406097,-6.336813926696777,3.454373836517334,94.73912048339844,28.73,0
-0.2341256439685821,-0.8786513209342957,0.40150848031044,-4.503676891326904,3.4535112380981445,94.73943328857422,28.73,0
-0.245410531759262,-0.8773432374000549,0.4032071530818939,-2.4244658946990967,3.4350547790527344,94.73963928222656,28.73,0
-0.2470547407865524,-0.8709059953689575,0.404297262430191,-0.3485546410083771,3.423210382461548,94.7397689819336,28.73,0
-0.2537076771259308,-0.8667749166488647,0.4049968421459198,1.7359864711761477,3.415609359741211,94.73985290527344,28.73,0
-0.2523793876171112,-0.8641238212585449,0.3998480141162872,3.5502076148986816,3.410731554031372,94.73990631103516,28.73,0
-0.2403314113616943,-0.862422525882721,0.4021415710449219,4.764626502990723,3.407601356506348,94.73993682861328,28.73,0
-0.2325997054576873,-0.8613307476043701,0.3980156779289245,5.411415100097656,3.405592441558838,94.73995971679688,28.73,0
-0.2276379466056823,-0.8606300950050354,0.3953679203987121,5.575706481933594,3.404303312301636,94.73997497558594,28.73,0
-0.2188559919595718,-0.8657782077789307,0.3936687409877777,5.147335529327393,3.4034759998321533,94.73998260498048,28.73,0
-0.2188180238008499,-0.8746797442436218,0.3981760740280151,4.202490329742432,3.388854503631592,94.739990234375,28.73,0
-0.2299892008304596,-0.8747944831848145,0.40106862783432,3.123242855072021,3.3794713020324707,94.739990234375,28.73,0
-0.2371582239866256,-0.8748680949211121,0.3973271250724792,2.144037961959839,3.3734495639801025,94.739990234375,28.73,0
-0.2417588829994201,-0.8805131316184998,0.4005238115787506,1.1323050260543823,3.3695852756500244,94.739990234375,28.73,0
-0.2447113245725631,-0.8841357827186584,0.4025752544403076,0.02804596722126,3.36710524559021,94.739990234375,28.73,0
-0.2410082519054412,-0.880862832069397,0.3982939720153808,-0.9242191314697266,3.365513801574707,94.739990234375,28.73,0
-0.227436289191246,-0.8731646537780762,0.3955464959144592,-1.6141446828842163,3.364492416381836,94.739990234375,28.73,0
-0.2131288051605224,-0.8738221526145935,0.3937833309173584,-2.354253053665161,3.3638370037078857,94.739990234375,28.73,0
-0.2095448672771453,-0.8742441534996033,0.3926518261432647,-3.384511232376098,3.3400049209594727,94.9227066040039,28.73,0
-0.2072449028491974,-0.8745149374008179,0.3919256925582886,-4.325112342834473,3.3247108459472656,95.03996276855467,28.73,0
-0.222562238574028,-0.8746887445449829,0.3914597034454345,-4.473748683929443,3.3148961067199707,95.1152114868164,28.73,0
-0.2379897981882095,-0.8748002648353577,0.3967584371566772,-3.483614921569824,3.3085975646972656,95.16349792480467,28.73,0
-0.2478903234004974,-0.8748718500137329,0.4001588523387909,-1.4617472887039185,3.3045554161071777,95.19448852539062,28.73,0
-0.2486461251974105,-0.8693199753761292,0.4023410379886627,1.2186452150344849,3.3019614219665527,95.2143783569336,28.73,0
-0.2491311579942703,-0.8657571077346802,0.4037414491176605,3.931140422821045,3.3002967834472656,95.22714233398438,28.73,0
-0.2438446581363678,-0.869068443775177,0.3990423679351806,5.969217300415039,3.2992284297943115,95.2353286743164,28.73,0
-0.2348543107509613,-0.8655956983566284,0.3960267901420593,7.008444786071777,3.277885913848877,95.24058532714844,28.73,0
-0.2402803748846054,-0.8633670806884766,0.3940915465354919,7.195295810699463,3.264189481735229,95.24395751953124,28.73,0
-0.2381647229194641,-0.8731324076652527,0.4096429646015167,6.845888614654541,3.2553999423980717,95.24612426757812,28.73,0
-0.2424048036336898,-0.8738014698028564,0.4140251874923706,6.292062282562256,3.2497591972351074,95.2475128173828,28.73,0
-0.2507236003875732,-0.8686330914497375,0.4112396538257599,5.739606857299805,3.2461392879486084,95.24840545654295,28.73,0
-0.244866594672203,-0.870914101600647,0.4038543105125427,5.1092143058776855,3.2438161373138428,95.2489776611328,28.73,0
-0.2299123555421829,-0.8667801022529602,0.3991148173809051,4.156530857086182,3.2423253059387207,95.24934387207033,28.73,0
-0.2147178053855896,-0.8697249293327332,0.3904755115509033,2.667422294616699,3.241368770599365,95.24958038330078,28.73,0
-0.2049668282270431,-0.8716147541999817,0.3849312961101532,0.4328187108039856,3.225147247314453,95.2497329711914,28.73,0
-0.21550253033638,-0.8728275299072266,0.386971116065979,-2.4700772762298584,3.2147371768951416,95.24983215332033,28.73,0
-0.2334592789411544,-0.8736058473587036,0.3938779234886169,-5.3361101150512695,3.208056688308716,95.24989318847656,28.73,0
-0.2505806684494018,-0.8741053342819214,0.3983103036880493,-7.347328662872314,3.2037694454193115,95.24993133544922,28.73,0
-0.2559704184532165,-0.8744258284568787,0.4067525267601013,-8.344242095947266,3.2010183334350586,95.2499542236328,28.73,0
-0.2538314759731293,-0.8802292943000793,0.4177680313587188,-8.582755088806152,3.1992526054382324,95.24996948242188,28.73,0
-0.2524588108062744,-0.8839536309242249,0.4248371720314026,-8.062294960021973,3.198119640350342,95.2499771118164,28.73,0
-0.2459801435470581,-0.8863437175750732,0.4237759411334991,-6.703676700592041,3.197392463684082,95.24998474121094,28.73,0
-0.2418225109577179,-0.8822797536849976,0.4174971282482147,-4.710447311401367,3.175809860229492,95.24999237060548,28.73,0
-0.2335566133260727,-0.8740739822387695,0.4134677648544311,-2.295631170272827,3.161959409713745,95.24999237060548,28.73,0
-0.2394475787878036,-0.8632102012634277,0.4108819365501404,0.3718224465847015,3.15307092666626,95.24999237060548,28.73,0
-0.2600213885307312,-0.8506406545639038,0.3980269730091095,2.7714953422546387,3.147366762161255,95.24999237060548,28.73,0
-0.2508333623409271,-0.8425742387771606,0.3953751623630523,4.315049648284912,3.1437063217163086,95.24999237060548,28.73,0
-0.2393392622470855,-0.8429954648017883,0.399271160364151,5.019008159637451,3.141357183456421,95.24999237060548,28.73,0
-0.215169683098793,-0.8544613122940063,0.4241624772548675,5.3453779220581055,3.1398496627807617,95.24999237060548,28.73,0
-0.2052568048238754,-0.8618194460868835,0.4289407432079315,5.436598300933838,3.138882160186768,95.24999237060548,28.73,0
-0.2044930756092071,-0.8609436750411987,0.4208116233348846,5.126132965087891,3.123112678527832,95.414794921875,28.73,0
-0.2096007317304611,-0.8603816628456116,0.4099970459938049,4.353682041168213,3.112992763519287,95.5205535888672,28.73,0
-0.2128785252571106,-0.8600209951400757,0.4030568599700928,3.191608428955078,3.10649847984314,95.5884246826172,28.73,0
-0.2205798029899597,-0.8653873205184937,0.4097985923290252,1.6863503456115725,3.102330684661865,95.6319808959961,28.73,0
-0.2255220413208007,-0.8632333874702454,0.4197228252887726,-0.1322904974222183,3.099656105041504,95.6599349975586,28.73,0
-0.2230959087610244,-0.8618510961532593,0.4316894114017486,-2.1090517044067383,3.097939729690552,95.67787170410156,28.73,0
-0.2327345013618469,-0.8609640002250671,0.4337711036205292,-3.8290276527404794,3.0968382358551025,95.68938446044922,28.73,0
-0.2333222180604934,-0.8603947162628174,0.43510702252388,-4.88623571395874,3.0961313247680664,95.69676971435548,28.73,0
-0.2392971664667129,-0.8656271696090698,0.4303665459156036,-5.306745529174805,3.0883326530456543,95.70150756835938,28.73,0
-0.2431315332651138,-0.8633872866630554,0.4273243844509125,-5.311493873596191,3.0833280086517334,95.70455169677734,28.73,0
-0.2343966662883758,-0.8619498610496521,0.4365676641464233,-4.852388858795166,3.080116271972656,95.70650482177734,28.73,0
-0.228791132569313,-0.8498318195343018,0.4257061183452606,-3.912898302078247,3.0780551433563232,95.70775604248048,28.73,0
-0.2307915985584259,-0.8420552015304565,0.4075402617454529,-2.7940964698791504,3.076732397079468,95.70855712890624,28.73,0
-0.2152820527553558,-0.8370646238327026,0.3958824574947357,-1.560222864151001,3.075883626937866,95.70907592773438,28.73,0
-0.2053289264440536,-0.8394597172737122,0.3884011507034302,0.130832701921463,3.075338840484619,95.70940399169922,28.73,0
-0.1989415735006332,-0.846594512462616,0.4059911966323852,2.269331932067871,3.074989318847656,95.7096176147461,28.73,0
-0.2004403173923492,-0.8567709922790527,0.4116816818714142,4.300891876220703,3.0619118213653564,95.70975494384766,28.73,0
-0.1958043575286865,-0.863301694393158,0.4153335094451904,5.765845775604248,3.0535192489624023,95.7098388671875,28.73,0
-0.1928292512893676,-0.86749267578125,0.4064815044403076,6.462353706359863,3.048133373260498,95.70989990234376,28.73,0
-0.1965177804231643,-0.87018221616745,0.4063985645771026,6.09967041015625,3.0446770191192627,95.7099380493164,28.73,0
-0.2100804150104522,-0.8775060176849365,0.411943107843399,4.573611259460449,3.042459011077881,95.7099609375,28.73,0
-0.2131863534450531,-0.8822059631347656,0.4266968369483948,2.447850227355957,3.0410356521606445,95.70997619628906,28.73,0
-0.2151795774698257,-0.8796243667602539,0.4249693751335144,0.5820984244346619,3.0401222705841064,95.7099838256836,28.73,0
-0.2276542633771896,-0.8723698854446411,0.4182630181312561,-0.5543298125267029,3.039535999298096,95.70999145507812,28.73,0
-0.2300620228052139,-0.8621165752410889,0.413959264755249,-0.971939980983734,3.0249295234680176,95.70999145507812,28.73,0
-0.2316071838140487,-0.86113440990448,0.4167951345443725,-1.0034881830215454,3.0155558586120605,95.70999145507812,28.73,0
-0.2270009964704513,-0.866101861000061,0.4186150431632995,-1.30317485332489,3.009540319442749,95.70999145507812,28.73,0
-0.2240450084209442,-0.8636919260025024,0.4141851663589477,-2.555938959121704,3.005680084228516,95.70999145507812,28.73,0
-0.2165502607822418,-0.8677431344985962,0.4113423228263855,-4.78575611114502,3.0032026767730717,95.70999145507812,28.73,0
-0.2173383384943008,-0.87594074010849,0.4039201736450195,-7.144611358642578,3.001612901687622,95.70999145507812,28.73,0
-0.2234418541193008,-0.8756037354469299,0.3991570770740509,-8.583154678344727,3.0005927085876465,95.70999145507812,28.73,0
-0.232956513762474,-0.8697896599769592,0.3961004018783569,-8.596354484558105,2.9999380111694336,95.70999145507812,28.73,0
-0.227866917848587,-0.8660585284233093,0.3997365832328796,-7.221951484680176,2.989877700805664,95.86404418945312,28.73,0
-0.2190029323101043,-0.8692618608474731,0.4076678454875946,-4.742110252380371,2.983421564102173,95.96290588378906,28.73,0
-0.2133145481348037,-0.8769153952598572,0.4183554351329803,-1.617348074913025,2.979278564453125,96.02635192871094,28.73,0
-0.2208596169948578,-0.8762291669845581,0.4140185713768005,1.6776713132858276,2.9766197204589844,96.06707000732422,28.73,0
-0.2257016003131866,-0.8757888078689575,0.4056376516819,4.802511215209961,2.9749133586883545,96.09320068359376,28.73,0
-0.2232111394405365,-0.8811039924621582,0.400259256362915,7.198354721069336,2.973818302154541,96.10997009277344,28.73,0
-0.2104173600673675,-0.8789172172546387,0.4024055004119873,8.083840370178223,2.9731156826019287,96.1207275390625,28.73,0
-0.2022070437669754,-0.8775138258934021,0.4093805849552154,7.434018135070801,2.972664833068848,96.12763214111328,28.73,0
-0.1969381272792816,-0.876613199710846,0.4138568043708801,6.296902179718018,2.960439920425415,96.13206481933594,28.73,0
-0.2103501707315445,-0.8760352730751038,0.4055338203907013,5.595827102661133,2.952594757080078,96.1349105834961,28.73,0
-0.2301528006792068,-0.8756643533706665,0.3945948481559753,5.396697998046875,2.947560310363769,96.13673400878906,28.73,0
-0.2372632026672363,-0.8754263520240784,0.3931726217269897,5.279655933380127,2.9443295001983643,96.13790130615234,28.73,0
-0.2306307107210159,-0.8808713555335999,0.3978576958179474,4.624167919158936,2.942255973815918,96.13865661621094,28.73,0
-0.2095810323953628,-0.8787679076194763,0.4064620733261108,2.845717191696167,2.940925359725952,96.1391372680664,28.73,0
-0.1904747933149337,-0.8718202710151672,0.4007883071899414,0.1065810397267341,2.9400713443756104,96.13944244384766,28.73,0
-0.1838112771511078,-0.8729594349861145,0.3971472382545471,-2.657942533493042,2.939523458480835,96.13964080810548,28.73,0
-0.1963283419609069,-0.8736904859542847,0.3948105871677398,-4.847633361816406,2.932993173599243,96.1397705078125,28.73,0
-0.2155566215515136,-0.8741596341133118,0.3989088535308838,-6.70783805847168,2.928802490234375,96.13985443115234,28.73,0
-0.2390917688608169,-0.8800584673881531,0.4071366488933563,-8.44257926940918,2.9261131286621094,96.13990783691406,28.73,0
-0.2541952729225158,-0.8782462477684021,0.4124167859554291,-9.365960121154783,2.924387216567993,96.1399383544922,28.73,0
-0.2582900524139404,-0.8714854717254639,0.4158052504062652,-8.403694152832031,2.9232797622680664,96.13996124267578,28.73,0
-0.2665156126022339,-0.87834233045578,0.4179797768592834,-5.3535990715026855,2.9225690364837646,96.13997650146484,28.73,0
-0.2661965489387512,-0.8771449327468872,0.4193752706050873,-1.4293893575668335,2.922112941741944,96.13998413085938,28.73,0
-0.2436006963253021,-0.8707787394523621,0.4146730303764343,1.7051455974578855,2.921820163726806,96.1399917602539,28.73,0
-0.2290999740362167,-0.8666932582855225,0.4004598557949066,3.3548696041107178,2.9175009727478027,96.1399917602539,28.71,0
-0.2141964733600616,-0.8584736585617065,0.3913386762142181,4.0373969078063965,2.914729118347168,96.1399917602539,28.71,0
-0.1878389418125152,-0.8476009964942932,0.3910830020904541,4.461073398590088,2.912950277328491,96.1399917602539,28.71,0
-0.1765219718217849,-0.8406235575675964,0.3909189105033874,4.679225921630859,2.911808729171753,96.1399917602539,28.71,0
-0.1748571544885635,-0.858536958694458,0.4020091593265533,4.242429256439209,2.911076307296753,96.1399917602539,28.71,0
-0.2017776519060135,-0.8700327277183533,0.4147240221500397,2.9016757011413574,2.9106061458587646,96.1399917602539,28.71,0
-0.2302492260932922,-0.883007824420929,0.4228836894035339,0.9485717415809632,2.910304546356201,96.1399917602539,28.71,0
-0.2485206425189972,-0.8913345336914062,0.4225223064422607,-1.067906618118286,2.9101109504699707,96.1399917602539,28.71,0
-0.2490506321191787,-0.8854825496673584,0.4222904145717621,-2.9172654151916504,2.8980517387390137,96.12207794189452,28.71,0
-0.2269996553659439,-0.8705315589904785,0.4165438115596771,-4.774019241333008,2.890312671661377,96.11058807373048,28.71,0
-0.2128486037254333,-0.8553391098976135,0.3904648721218109,-6.879133701324463,2.8853461742401123,96.10321044921876,28.71,0
-0.1981694996356964,-0.856784999370575,0.3681311309337616,-9.190205574035645,2.8821589946746826,96.09847259521484,28.71,0
-0.1495648771524429,-0.8745062351226807,0.3985808193683624,-11.18204402923584,2.8801138401031494,96.0954360961914,28.71,0
-0.1351665556430816,-0.874683141708374,0.4181216955184936,-12.033965110778809,2.8788013458251958,96.09349060058594,28.71,0
-0.1483176350593567,-0.8915899991989136,0.4082708060741424,-11.194221496582031,2.877959012985229,96.0922393798828,28.71,0
-0.1511594653129577,-0.8912442922592163,0.4075468480587005,-8.84970474243164,2.8774185180664062,96.09143829345705,28.71,0
-0.1753742843866348,-0.8798269033432007,0.3902889192104339,-5.722221851348877,2.880284786224365,96.0909194946289,28.71,0
-0.2133050560951233,-0.8724998831748962,0.3736160099506378,-2.579507112503052,2.882124185562134,96.09059143066406,28.71,0
-0.2096579670906067,-0.873395562171936,0.3797096014022827,0.0893350169062614,2.8833045959472656,96.0903778076172,28.71,0
-0.1625352799892425,-0.8907637000083923,0.4116089940071106,2.1137285232543945,2.8840620517730717,96.09024047851562,28.71,0
-0.1546857506036758,-0.9019095301628112,0.4152868688106537,3.6063268184661865,2.88454818725586,96.09015655517578,28.71,0
-0.1720394790172577,-0.8978667855262756,0.406451553106308,4.793475151062012,2.884860038757324,96.09009552001952,28.71,0
-0.1999694257974624,-0.8728812336921692,0.3839882612228393,5.652048110961914,2.885060310363769,96.09005737304688,28.71,0
-0.2122954875230789,-0.8792380690574646,0.3751703798770904,5.794617652893066,2.8851888179779053,96.09003448486328,28.71,0
-0.1978145390748977,-0.8889153003692627,0.3863048851490021,5.054952621459961,2.8930752277374268,96.09001922607422,28.71,0
-0.171728178858757,-0.8951255679130554,0.4046459197998047,3.9246671199798575,2.898136138916016,96.09001159667967,28.71,0
-0.1661830097436905,-0.904708743095398,0.4108183681964874,2.855387687683105,2.901384115219116,96.09000396728516,28.71,0
-0.1850155293941497,-0.8940653800964355,0.4035839438438415,1.5923908948898315,2.903468370437622,96.09000396728516,28.71,0
-0.2082967013120651,-0.8816372752189636,0.3933435380458832,-0.1961709707975387,2.904805898666382,96.09000396728516,28.71,0
-0.2120416760444641,-0.8792594075202942,0.3867718279361725,-2.196619987487793,2.9056642055511475,96.09000396728516,28.71,0
-0.1976516544818878,-0.8833312392234802,0.3881522417068481,-3.906719446182251,2.906215190887451,96.09000396728516,28.71,0
-0.1940147429704666,-0.8859443068504333,0.3890381157398224,-5.190456867218018,2.906568765640259,96.09000396728516,28.71,0
-0.1860830187797546,-0.893218994140625,0.38960662484169,-5.98204231262207,2.913681030273437,96.09000396728516,28.73,0
-0.1753951162099838,-0.8922896981239319,0.3899714648723602,-5.95623254776001,2.9182450771331787,96.09000396728516,28.73,0
-0.1573406904935836,-0.8916932940483093,0.3902055919170379,-4.861314296722412,2.9211740493774414,96.09000396728516,28.73,0
-0.1513521671295166,-0.8913105726242065,0.3847580850124359,-2.9370005130767822,2.923053741455078,96.09000396728516,28.73,0
-0.1475090831518173,-0.8910649418830872,0.3812621831893921,-0.7813646793365479,2.924260139465332,96.09000396728516,28.73,0
-0.1674339026212692,-0.890907347202301,0.384616494178772,1.1286369562149048,2.925034284591675,96.09000396728516,28.73,0
-0.1858182847499847,-0.8852084279060364,0.3867690861225128,2.648137331008911,2.9255311489105225,96.09000396728516,28.73,0
-0.1864207684993744,-0.8871489763259888,0.3993460536003113,3.963609933853149,2.925849914550781,96.09000396728516,28.73,0
-0.1812096387147903,-0.8827965259552002,0.4018194377422333,5.398929119110107,2.941203117370605,96.07209014892578,28.73,0
-0.1778654307126999,-0.8800033330917358,0.3978089392185211,6.939820289611816,2.951055765151977,96.0605926513672,28.73,0
-0.1757193207740783,-0.8782108426094055,0.3952352404594421,7.939423084259033,2.957378625869751,96.05321502685548,28.73,0
-0.1743420660495758,-0.8826583027839661,0.393583595752716,7.667354106903076,2.9614362716674805,96.04847717285156,28.73,0
-0.1846537739038467,-0.8855124115943909,0.3925236463546753,6.031064987182617,2.964040279388428,96.04544067382812,28.73,0
-0.1856734603643417,-0.8929418325424194,0.3974412083625793,3.4548115730285645,2.9657113552093506,96.04349517822266,28.73,0
-0.1863278299570083,-0.8977096080780029,0.4005970358848572,0.497462660074234,2.9667837619781494,96.04224395751952,28.73,0
-0.1811499893665313,-0.8895736932754517,0.3970244824886322,-2.2100555896759038,2.967472076416016,96.04144287109376,28.73,0
-0.172229379415512,-0.8843525648117065,0.3947318196296692,-4.087305545806885,2.9968338012695312,96.04092407226562,28.73,0
-0.1553090959787368,-0.8865997195243835,0.393260508775711,-4.976749897003174,3.015676498413086,96.04059600830078,28.73,0
-0.1444506347179412,-0.8880417943000793,0.3923163115978241,-5.092556953430176,3.027768611907959,96.0403823852539,28.73,0
-0.1486778408288955,-0.8889672756195068,0.3917104005813598,-4.719053268432617,3.0355286598205566,96.04024505615234,28.73,0
-0.1681839525699615,-0.883963406085968,0.3857237696647644,-4.185588836669922,3.040508508682251,96.0401611328125,28.73,0
-0.1751040667295456,-0.8807522058486938,0.3818818926811218,-3.696356296539306,3.0437042713165283,96.04010009765624,28.73,0
-0.1683494597673416,-0.8842892050743103,0.3850141763687134,-2.923825263977051,3.04575514793396,96.0400619506836,28.73,0
-0.1696125119924545,-0.8809612989425659,0.3926220834255218,-1.2529746294021606,3.0470712184906006,96.0400390625,28.73,0
-0.1704230606555938,-0.8844233751296997,0.3975043892860412,1.4959264993667605,3.0662777423858643,96.04002380371094,28.73,0
-0.1653454601764679,-0.8810473680496216,0.3950397968292236,4.983231544494629,3.0786032676696777,96.0400161743164,28.73,0
-0.167684718966484,-0.8844786286354065,0.3934581577777862,8.46075439453125,3.086513042449951,96.04000854492188,28.73,0
-0.169185921549797,-0.8866806030273438,0.3924431502819061,10.706758499145508,3.0915892124176025,96.04000854492188,28.73,0
-0.1645515263080597,-0.8880937099456787,0.3917917907238006,10.829727172851562,3.094846725463867,96.04000854492188,28.73,0
-0.1615774482488632,-0.8890005350112915,0.3913737833499908,9.52576732635498,3.0969371795654297,96.04000854492188,28.73,0
-0.1596688479185104,-0.8895825147628784,0.3911055326461792,8.377277374267578,3.098278760910034,96.04000854492188,28.73,0
-0.1584440171718597,-0.889955997467041,0.3853355944156647,7.783545017242432,3.09913969039917,96.04000854492188,28.73,0
-0.1576579958200454,-0.8901956677436829,0.3872305750846863,6.7612409591674805,3.127235174179077,96.04000854492188,28.71,0
-0.1571535766124725,-0.8847516775131226,0.3884466588497162,4.7115631103515625,3.1452651023864746,96.04000854492188,28.71,0
-0.1512320935726165,-0.8812580704689026,0.3892270624637604,2.1208009719848637,3.1568357944488525,96.04000854492188,28.71,0
-0.1530297994613647,-0.8846138715744019,0.3897278904914856,-0.3944540917873382,3.164261102676392,96.04000854492188,28.71,0
-0.1597812324762344,-0.8923651576042175,0.3900492787361145,-2.6319680213928223,3.1690261363983154,96.04000854492188,28.71,0
-0.1753094643354416,-0.8917417526245117,0.3846577703952789,-4.404637813568115,3.172084093093872,96.04000854492188,28.71,0
-0.1740790456533432,-0.9025372266769408,0.3923933506011963,-5.459836006164551,3.174046516418457,96.04000854492188,28.71,0
-0.1620938777923584,-0.9094651341438292,0.3973576128482818,-5.836065292358398,3.1753060817718506,96.04000854492188,28.71,0
-0.154402494430542,-0.9083132743835448,0.4005433917045593,-5.658346176147461,3.203198194503784,96.02567291259766,28.71,0
-0.1494666039943695,-0.9019762873649596,0.3969900608062744,-4.65939998626709,3.221097707748413,96.01647186279295,28.71,0
-0.1518968045711517,-0.8923118114471436,0.3891119658946991,-2.481408834457397,3.2325847148895264,96.01057434082033,28.71,0
-0.1646519154310226,-0.8861097097396851,0.3840562403202057,0.7040056586265564,3.239956378936768,96.00678253173828,28.71,0
-0.172837421298027,-0.8821295499801636,0.3808117806911468,4.174086570739746,3.244687080383301,96.00435638427734,28.71,0
-0.1780904084444046,-0.8795753121376038,0.3843274414539337,7.138995170593262,3.247722864151001,96.00279235839844,28.71,0
-0.1758636981248855,-0.8779361844062805,0.3921813666820526,9.06319808959961,3.24967098236084,96.00179290771484,28.71,0
-0.1688369363546371,-0.8768842816352844,0.397221565246582,9.74632453918457,3.2509212493896484,96.00115203857422,28.71,0
-0.1699253469705581,-0.8818069696426392,0.3948583006858825,9.346392631530762,3.2755939960479736,96.00074005126952,28.71,0
-0.1762215942144394,-0.8849660754203796,0.3877439200878143,8.233504295349121,3.2914276123046875,96.00047302246094,28.71,0
-0.1802621632814407,-0.886993408203125,0.3831783235073089,6.745480060577393,3.301588535308838,96.00030517578124,28.71,0
-0.1828551739454269,-0.8882944583892822,0.3802483677864074,5.0167155265808105,3.3081092834472656,96.0001983642578,28.71,0
-0.1733236759901046,-0.8891294002532959,0.389563649892807,3.0295627117156982,3.312294006347656,96.00012969970705,28.71,0
-0.1672068983316421,-0.8896651864051819,0.3899438977241516,0.804939866065979,3.314979553222656,96.00008392333984,28.71,0
-0.163281500339508,-0.8900090456008911,0.390187919139862,-1.4825130701065063,3.3167028427124023,96.00005340576172,28.71,0
-0.1719579547643661,-0.8846319317817688,0.390344500541687,-3.620410442352295,3.3178088665008545,96.00003051757812,28.71,0
-0.1775260120630264,-0.8811812400817871,0.3848472237586975,-5.44737720489502,3.3359625339508057,96.0000228881836,28.71,0
-0.1866970360279083,-0.8845645189285278,0.3869171440601349,-6.834773540496826,3.3476123809814453,96.00001525878906,28.71,0
-0.1869847029447555,-0.886735737323761,0.3938432931900024,-7.69288158416748,3.355088710784912,96.00000762939452,28.71,0
-0.1871693134307861,-0.8881291151046753,0.3982881009578705,-7.967707633972168,3.359886646270752,96.00000762939452,28.71,0
-0.1928855627775192,-0.8834255337715149,0.3955427408218384,-7.438307762145996,3.362965583801269,96.00000762939452,28.71,0
-0.1909561455249786,-0.8804070353507996,0.393780916929245,-5.74435567855835,3.3649415969848637,96.00000762939452,28.71,0
-0.189717948436737,-0.884067714214325,0.3926502764225006,-2.9555513858795166,3.3662095069885254,96.00000762939452,28.71,0
-0.1889233589172363,-0.8864169120788574,0.3919247090816498,0.1310349106788635,3.367023229598999,96.00000762939452,28.71,0
-0.1884134262800216,-0.8823267221450806,0.3914590775966644,2.642049551010132,3.378562688827514,96.00000762939452,28.71,0
-0.1880861818790435,-0.8797018527984619,0.391160249710083,4.328708648681641,3.385967969894409,96.00000762939452,28.71,0
-0.1822784096002578,-0.8780173659324646,0.3909685015678406,5.353787899017334,3.3907203674316406,96.00000762939452,28.71,0
-0.1785513162612915,-0.8769363760948181,0.3852476775646209,5.735766410827637,3.393770217895508,96.00000762939452,28.71,0
-0.1705617010593414,-0.8818404078483582,0.387174129486084,5.414851188659668,3.3957273960113525,96.00000762939452,28.71,0
-0.1710322052240371,-0.8849875330924988,0.3884104192256927,4.556877613067627,3.39698338508606,96.00000762939452,28.71,0
-0.1769319176673889,-0.8870071768760681,0.389203816652298,3.415154457092285,3.397789478302002,96.00000762939452,28.71,0
-0.1863157898187637,-0.888303279876709,0.3897129595279693,2.041181325912476,3.398306608200073,96.00000762939452,28.71,0
-0.1867400407791137,-0.8891350626945496,0.3844419419765472,0.4895027875900268,3.4018516540527344,96.00000762939452,28.71,0
-0.1814145296812057,-0.8896688222885132,0.3866570591926574,-0.957679569721222,3.404126644134521,96.00000762939452,28.71,0
-0.1723991483449936,-0.8900113701820374,0.3880786001682281,-2.176586627960205,3.4055867195129395,96.00000762939452,28.71,0
-0.1666135936975479,-0.890231192111969,0.3889908790588379,-3.4747018814086914,3.4065237045288086,96.00000762939452,28.71,0
-0.162900760769844,-0.8903722763061523,0.3951740860939026,-5.056515693664551,3.4071249961853027,96.00000762939452,28.71,0
-0.1717136204242706,-0.8904628157615662,0.3879465758800506,-6.558863162994385,3.407510757446289,96.00000762939452,28.71,0
-0.1773692071437835,-0.8905209302902222,0.3889061510562897,-7.379680633544922,3.407758474349976,96.00000762939452,28.71,0
-0.1754008680582046,-0.8905582427978516,0.3895219564437866,-7.078858852386475,3.407917261123657,96.00000762939452,28.71,0
-0.1741376966238021,-0.8905821442604065,0.3955149054527282,-5.481439113616943,3.408478260040283,96.00000762939452,28.71,0
-0.1733270734548568,-0.8905975222587585,0.3937630653381347,-2.765331268310547,3.4088382720947266,96.00000762939452,28.71,0
-0.1728068590164184,-0.8850095868110657,0.3926388323307037,0.5468783974647522,3.409069299697876,96.00000762939452,28.71,0
-0.1724730134010315,-0.8870213627815247,0.3863195776939392,3.836800813674927,3.409217596054077,96.00000762939452,28.71,0
-0.1722587645053863,-0.8883123993873596,0.3822642564773559,6.539208889007568,3.4093127250671387,96.00000762939452,28.71,0
-0.1777190566062927,-0.8891409039497375,0.3796617686748504,8.162399291992188,3.4093737602233887,96.00000762939452,28.71,0
-0.1868209242820739,-0.889672577381134,0.3835894167423248,8.49830150604248,3.4094128608703613,96.00000762939452,28.71,0
-0.1870642155408859,-0.8900138139724731,0.3861099779605865,7.84688138961792,3.409437894821167,96.00000762939452,28.71,0
-0.181622564792633,-0.8902328014373779,0.3877275288105011,6.84487771987915,3.403486490249634,96.00000762939452,28.71,0
-0.1725326478481292,-0.8847755193710327,0.3887655735015869,5.890164852142334,3.399667263031006,96.00000762939452,28.71,0
-0.1778948158025741,-0.8812733888626099,0.3838339447975158,4.836828708648682,3.397216320037842,96.00000762939452,28.71,0
-0.1757381707429886,-0.884623646736145,0.3862668871879577,3.379856586456299,3.395643472671509,96.00000762939452,28.71,0
-0.1743541657924652,-0.8923714756965637,0.3934260010719299,1.5312988758087158,3.3946340084075928,96.00000762939452,28.71,0
-0.1790637671947479,-0.8917458057403564,0.3980202972888946,-0.4288354218006134,3.393986225128174,96.00000762939452,28.71,0
-0.187683880329132,-0.8857464790344238,0.3953708708286285,-2.3065223693847656,3.3935706615448,96.00000762939452,28.71,0
-0.1932157725095749,-0.8818964958190918,0.3880728483200073,-4.138464450836182,3.393303871154785,96.00000762939452,28.71,0
-0.1967658251523971,-0.8850235342979431,0.3889871835708618,-5.962545394897461,3.3789024353027344,96.00000762939452,28.73,0
-0.1934462785720825,-0.887030303478241,0.3895739316940307,-7.491393089294434,3.3696603775024414,96.00000762939452,28.73,0
-0.1913159787654876,-0.8883181214332581,0.3955482542514801,-8.196660995483398,3.363729238510132,96.00000762939452,28.73,0
-0.1899488717317581,-0.8891445994377136,0.3993822336196899,-7.796608924865723,3.3599231243133545,96.00000762939452,28.73,0
-0.1890715509653091,-0.889674961566925,0.3962448835372925,-6.361210823059082,3.357480525970459,96.00000762939452,28.73,0
-0.1885085254907608,-0.8844175338745117,0.3942315280437469,-3.98911190032959,3.355912923812866,96.00000762939452,28.73,0
-0.1881472170352935,-0.8810436129570007,0.3929394483566284,-0.9514060020446776,3.3549070358276367,96.00000762939452,28.73,0
-0.1935131251811981,-0.8788784146308899,0.3921102881431579,1.92590606212616,3.3542613983154297,96.00000762939452,28.73,0
-0.2025544196367263,-0.8774889707565308,0.3971759378910064,3.754486322402954,3.336862564086914,96.00000762939452,28.73,0
-0.2027588337659835,-0.8765972852706909,0.4004267752170563,4.523132801055908,3.3256969451904297,96.00000762939452,28.73,0
-0.1972922384738922,-0.8816227912902832,0.4025129973888397,4.908928394317627,3.3185315132141118,96.00000762939452,28.73,0
-0.193784087896347,-0.8904456496238708,0.4038518071174621,5.138597011566162,3.3139331340789795,96.00000762939452,28.73,0
-0.1915327608585357,-0.8905099034309387,0.3935154378414154,4.816667556762695,3.3109822273254395,96.00000762939452,28.73,0
-0.184490218758583,-0.8905511498451233,0.3812843561172485,3.707262992858887,3.309088468551636,96.00000762939452,28.73,0
-0.1687751710414886,-0.8905776143074036,0.3790329396724701,2.1283278465271,3.307873010635376,96.00000762939452,28.73,0
-0.1530923843383789,-0.8905946016311646,0.3775881230831146,0.5633412599563599,3.3070931434631348,96.00000762939452,28.73,0
-0.154223620891571,-0.8850077390670776,0.3766609132289886,-0.7562435269355774,3.289607524871826,96.00000762939452,28.73,0
-0.1661451309919357,-0.8814224004745483,0.3816636502742767,-2.0258212089538574,3.278386354446411,96.00000762939452,28.73,0
-0.1737956702709198,-0.8791215419769287,0.3848741352558136,-3.603651523590088,3.2711851596832275,96.00000762939452,28.73,0
-0.1731075793504715,-0.8832427263259888,0.3869344294071197,-5.490360736846924,3.266563892364502,96.00000762939452,28.73,0
-0.1782637685537338,-0.8858875036239624,0.3882566094398498,-7.156129360198975,3.2635982036590576,96.00000762939452,28.73,0
-0.1759749501943588,-0.8875847458839417,0.3947028815746307,-7.874031066894531,3.261695146560669,96.00000762939452,28.73,0
-0.1745061129331588,-0.8886739611625671,0.3932419419288635,-7.220558166503906,3.260473728179932,96.00000762939452,28.73,0
-0.1679657250642776,-0.8893729448318481,0.392304390668869,-5.38966178894043,3.259690046310425,96.00000762939452,28.73,0
-0.169366255402565,-0.8898215293884277,0.3805072009563446,-2.9715442657470703,3.243579626083374,96.00000762939452,28.73,0
-0.1702650338411331,-0.8901093602180481,0.3729364275932312,-0.4703531563282013,3.233240842819214,96.00000762939452,28.73,0
-0.1652440428733825,-0.890294075012207,0.3792735040187835,1.9659247398376465,3.2266058921813965,96.00000762939452,28.73,0
-0.1564240902662277,-0.8848148584365845,0.3833402693271637,4.428614139556885,3.2223479747772217,96.00000762939452,28.73,0
-0.1507639437913894,-0.8812986016273499,0.3859500885009765,6.80435848236084,3.2196154594421387,96.00000762939452,28.73,0
-0.1527293622493744,-0.8846398591995239,0.3932226896286011,8.536764144897461,3.2178618907928467,96.00000762939452,28.73,0
-0.17078398168087,-0.8867840766906738,0.3866942822933197,9.082474708557127,3.2167365550994877,96.00000762939452,28.73,0
-0.1767726242542266,-0.8881601095199585,0.3825047314167022,8.46896743774414,3.2160143852233887,96.00000762939452,28.73,0
-0.1806157827377319,-0.8946409225463867,0.3854138851165771,7.136619091033936,3.1971890926361084,96.00000762939452,28.71,0
-0.1774843335151672,-0.8932021856307983,0.3872807919979095,5.540001392364502,3.185108184814453,96.00000762939452,28.71,0
-0.1698769778013229,-0.8922789096832275,0.3828811049461365,3.967250347137451,3.1773552894592285,96.00000762939452,28.71,0
-0.164995014667511,-0.8916863799095154,0.3800576329231262,2.4313104152679443,3.172379970550537,96.00000762939452,28.71,0
-0.1618620455265045,-0.8913061618804932,0.3838434815406799,0.6610485911369324,3.169187068939209,96.00000762939452,28.71,0
-0.1598514914512634,-0.8910621404647827,0.3918707966804504,-1.4243860244750977,3.16713809967041,96.00000762939452,28.71,0
-0.1697567850351333,-0.8909055590629578,0.3914244771003723,-3.4541351795196533,3.165823221206665,96.00000762939452,28.71,0
-0.181711196899414,-0.8908050656318665,0.3855402767658233,-5.107803821563721,3.1649794578552246,96.00000762939452,28.71,0
-0.1949806213378906,-0.8907405734062195,0.381764143705368,-6.520125389099121,3.146994113922119,96.00000762939452,28.71,0
-0.1811050772666931,-0.8906991481781006,0.3849385976791382,-7.985353946685791,3.1354520320892334,96.00000762939452,28.71,0
-0.1666027903556823,-0.88507479429245,0.3869757950305938,-9.416465759277344,3.128045082092285,96.00000762939452,28.71,0
-0.1516982764005661,-0.887063205242157,0.3938809335231781,-10.263219833374023,3.1232917308807373,96.00000762939452,28.71,0
-0.1589267402887344,-0.8883392214775085,0.3871167004108429,-9.832157135009766,3.120241403579712,96.00000762939452,28.71,0
-0.1691633313894271,-0.8891581296920776,0.3827758133411407,-7.864550590515137,3.118283748626709,96.00000762939452,28.71,0
-0.1757325828075409,-0.8896836638450623,0.3855878412723541,-4.907295227050781,3.117027521133423,96.00000762939452,28.71,0
-0.1743505746126175,-0.8844231367111206,0.3929902017116546,-1.8451619148254397,3.1162211894989014,96.00000762939452,28.71,0
-0.16786590218544,-0.8866450190544128,0.3977406322956085,0.7934630513191223,3.1019325256347656,96.00000762939452,28.71,0
-0.1693021953105926,-0.8880708813667297,0.3951914012432098,2.694569826126098,3.0927627086639404,96.00000762939452,28.71,0
-0.1702239215373993,-0.8889859318733215,0.3935554623603821,3.4739341735839844,3.086878061294556,96.00000762939452,28.71,0
-0.1652176529169082,-0.8895731568336487,0.3925056159496307,3.178753614425659,3.083101749420166,96.00000762939452,28.71,0
-0.1676027029752731,-0.8843522071838379,0.3862341046333313,2.6095707416534424,3.080678224563598,96.00000762939452,28.71,0
-0.1691332906484604,-0.8865994811058044,0.3822093904018402,2.5667335987091064,3.079123020172119,96.00000762939452,28.71,0
-0.175713300704956,-0.8880416750907898,0.3796265721321106,3.037221193313598,3.078125,96.00000762939452,28.71,0
-0.1799359768629074,-0.8889671564102173,0.3779690563678741,3.468125820159912,3.077484369277954,96.00000762939452,28.71,0
-0.1826458424329757,-0.889561116695404,0.3881009221076965,3.4759624004364014,3.0655972957611084,96.00000762939452,28.71,0
-0.1843848824501037,-0.8899422883987427,0.3946029543876648,2.972265720367432,3.057968854904175,96.00000762939452,28.71,0
-0.1855008900165558,-0.8845890760421753,0.3987756073474884,1.932507038116455,3.0530731678009038,96.00000762939452,28.71,0
-0.1806193143129348,-0.8867514729499817,0.395855575799942,0.3122847974300384,3.049931526184082,96.00000762939452,28.71,0
-0.1774865984916687,-0.8937369585037231,0.3939816951751709,-1.7664276361465454,3.047915458679199,96.00000762939452,28.71,0
-0.1698784232139587,-0.8870242834091187,0.3871813714504242,-4.021147727966309,3.046621561050415,96.00000762939452,28.71,0
-0.1705937087535858,-0.8883142471313477,0.3828172981739044,-6.288506984710693,3.0457911491394043,96.00000762939452,28.71,0
-0.1710527390241623,-0.8891420960426331,0.3800166845321655,-8.252293586730957,3.0452582836151123,96.00000762939452,28.71,0
-0.1825428754091262,-0.8840755820274353,0.383817195892334,-9.071881294250488,3.0357353687286377,96.00000762939452,28.71,0
-0.189916580915451,-0.8808242082595825,0.3862561285495758,-7.982104301452637,3.029623985290528,96.00000762939452,28.71,0
-0.1890508234500885,-0.8843353986740112,0.393419086933136,-5.287253379821777,3.0257022380828857,96.00000762939452,28.71,0
-0.1828974485397339,-0.8809909224510193,0.3980158567428589,-2.0889971256256104,3.0231854915618896,96.00000762939452,28.71,0
-0.1733507961034774,-0.8788446187973022,0.4009658098220825,0.8555207252502441,3.021570205688477,96.00000762939452,28.71,0
-0.1728220880031585,-0.8774672746658325,0.3916633725166321,3.4258320331573486,3.020533800125122,96.00000762939452,28.71,0
-0.1780805587768554,-0.8765833377838135,0.3800958096981048,5.469393253326416,3.0198686122894287,96.00000762939452,28.71,0
-0.1814551502466201,-0.8816138505935669,0.3782702088356018,6.680521488189697,3.019441604614258,96.00000762939452,28.71,0
-0.1892185360193252,-0.8792443871498108,0.3770986199378967,7.088748455047607,3.0104458332061768,96.01074981689452,28.71,0
-0.188602864742279,-0.872126042842865,0.3819445371627807,7.013962745666504,3.00467300415039,96.01764678955078,28.71,0
-0.193805530667305,-0.8731556534767151,0.3906521499156952,6.611294746398926,3.0009682178497314,96.0220718383789,28.71,0
-0.1971442997455597,-0.8738164305686951,0.3962402045726776,5.965967178344727,2.9985907077789307,96.02490997314452,28.71,0
-0.1880913823843002,-0.879838228225708,0.3998262882232666,5.197158336639404,2.99706506729126,96.0267333984375,28.71,0
-0.1878795176744461,-0.8837026953697205,0.3965298533439636,4.091160297393799,2.9960858821868896,96.02790069580078,28.71,0
-0.1877435594797134,-0.8861826658248901,0.388816624879837,2.1740667819976807,2.995457649230957,96.02865600585938,28.71,0
-0.1932540833950042,-0.8877741694450378,0.3838667273521423,-0.4068447649478912,2.9950544834136963,96.02913665771484,28.71,0
-0.196790412068367,-0.8831977248191833,0.3862879276275635,-2.768892526626587,2.99112319946289,96.0294418334961,28.71,0
-0.1934620589017868,-0.8802608251571655,0.3878417313098907,-4.445934772491455,2.988600254058838,96.0296401977539,28.71,0
-0.1857283264398574,-0.8839738965034485,0.394436627626419,-5.869673728942871,2.986981153488159,96.02976989746094,28.71,0
-0.1807652711868286,-0.8807589411735535,0.3986688554286957,-7.327898979187012,2.9859421253204346,96.02985382080078,28.71,0
-0.183178037405014,-0.8786957859992981,0.3957870900630951,-8.224295616149902,2.9852752685546875,96.0299072265625,28.71,0
-0.1847264170646667,-0.8829694986343384,0.3883399665355682,-7.925402641296387,2.9848473072052,96.02993774414062,28.71,0
-0.1801223009824752,-0.8857121467590332,0.383560836315155,-6.461776256561279,2.9845728874206543,96.02996063232422,28.71,0
-0.1827654242515564,-0.8874722123146057,0.3804938495159149,-4.150378704071045,2.9843966960906982,96.02997589111328,28.71,0
-0.184461623430252,-0.8886017203330994,0.3785256445407867,-1.3450863361358645,2.9796931743621826,96.0299835205078,28.71,0
-0.1911479234695434,-0.8837288022041321,0.3772625625133514,1.4439798593521118,2.976674795150757,96.02999114990234,28.71,0
-0.1898410320281982,-0.8806016445159912,0.3764519691467285,3.839297294616699,2.9747376441955566,96.02999114990234,28.71,0
-0.1778067946434021,-0.8841925859451294,0.3871273398399353,5.838626384735107,2.973494529724121,96.02999114990234,28.71,0
-0.1812794655561447,-0.8864970207214355,0.3883804082870483,7.47635555267334,2.9726967811584477,96.02999114990234,28.71,0
-0.1891057938337326,-0.882378101348877,0.3835867643356323,8.581094741821289,2.972184896469116,96.02999114990234,28.71,0
-0.1941282749176025,-0.8909304141998291,0.3861082792282104,8.981950759887695,2.9718563556671143,96.02999114990234,28.71,0
-0.1917536407709121,-0.8964187502861023,0.3821286559104919,8.687480926513672,2.9716455936431885,96.02999114990234,28.71,0
-0.1902297437191009,-0.8943430781364441,0.3851725459098816,7.771244049072266,2.9728875160217285,96.02999114990234,28.71,0
-0.2004473358392715,-0.8930110335350037,0.3815281689167022,6.291194915771484,2.973684549331665,96.02999114990234,28.71,0
-0.2014066278934478,-0.8921562433242798,0.3903849422931671,4.327515602111816,2.974195957183838,96.02999114990234,28.71,0
-0.2020222544670105,-0.8916076421737671,0.3960687220096588,2.071382999420166,2.9745240211486816,96.02999114990234,28.71,0
-0.2024173140525818,-0.8912556171417236,0.394118458032608,-0.0929880663752555,2.9747345447540283,96.02999114990234,28.71,0
-0.2026708424091339,-0.8798341155052185,0.3872691392898559,-1.7363197803497314,2.974869728088379,96.02999114990234,28.71,0
-0.1972357779741287,-0.8781022429466248,0.3828736245632171,-2.837488889694214,2.974956512451172,96.02999114990234,28.71,0
-0.188150092959404,-0.8825886249542236,0.3856506049633026,-3.870170116424561,2.9750123023986816,96.02999114990234,28.71,0
-0.1879171878099441,-0.8798699378967285,0.3930304944515228,-5.10609769821167,2.9745891094207764,96.04432678222656,28.71,0
-0.1877677291631698,-0.8781252503395081,0.3977664709091186,-6.150025367736816,2.97431755065918,96.05352783203124,28.71,0
-0.1932695806026458,-0.8826034069061279,0.3952079713344574,-6.472448348999023,2.9741432666778564,96.0594253540039,28.71,0
-0.1912025809288025,-0.8854771852493286,0.3879683017730713,-6.009418964385986,2.974031448364258,96.06321716308594,28.71,0
-0.1898761093616485,-0.887321412563324,0.3833222985267639,-4.848872661590576,2.973959684371948,96.06564331054688,28.71,0
-0.1834270805120468,-0.8885049223899841,0.3859385550022125,-2.8788599967956543,2.9739136695861816,96.06720733642578,28.71,0
-0.1792884618043899,-0.8892644643783569,0.3820197284221649,-0.1027723476290702,2.973884105682373,96.06820678710938,28.71,0
-0.1766325384378433,-0.8897519111633301,0.3795048594474792,3.0222268104553223,2.973865032196045,96.06884765625,28.71,0
-0.1749281138181686,-0.8900647163391113,0.3834887444972992,5.737021446228027,2.9710984230041504,96.06925964355467,28.71,0
-0.1738343089818954,-0.8902654647827148,0.38604536652565,7.275013446807861,2.96932315826416,96.06952667236328,28.71,0
-0.173132374882698,-0.8903942704200745,0.3932838439941406,7.2803826332092285,2.968183755874634,96.06969451904295,28.71,0
-0.1782796829938888,-0.8848791718482971,0.3923313021659851,6.112325668334961,2.9674525260925293,96.0698013305664,28.71,0
-0.1815829277038574,-0.8813399076461792,0.3917199969291687,4.477838039398193,2.9669833183288574,96.0698699951172,28.71,0
-0.1837027668952942,-0.884666383266449,0.3913277089595794,2.887948989868164,2.966682195663452,96.06991577148438,28.71,0
-0.1794653832912445,-0.8868011236190796,0.3910759687423706,1.59895658493042,2.96648907661438,96.0699462890625,28.71,0
-0.1655505150556564,-0.8881710767745972,0.3909144103527069,0.6356174945831299,2.966365098953247,96.0699691772461,28.71,0
-0.1622185409069061,-0.8890501856803894,0.3908107280731201,-0.3014472723007202,2.9621541500091557,96.06997680664062,28.71,0
-0.1656780391931533,-0.8896144032478333,0.3851464092731476,-1.6443946361541748,2.959451675415039,96.06998443603516,28.71,0
-0.1734959185123443,-0.8843786716461182,0.3871091604232788,-3.5057594776153564,2.9577174186706543,96.06999206542967,28.71,0
-0.1785129904747009,-0.8866164684295654,0.3883687257766723,-5.638911247253418,2.956604480743408,96.06999206542967,28.71,0
-0.1817326545715332,-0.8880525827407837,0.3947748243808746,-7.760186195373535,2.955890417098999,96.06999206542967,28.71,0
-0.1837988495826721,-0.8889741897583008,0.3988859057426452,-9.630224227905272,2.955432176589966,96.06999206542967,28.71,0
-0.1739292591810226,-0.8839678168296814,0.3959263861179352,-10.898375511169434,2.9551379680633545,96.06999206542967,28.71,0
-0.1675955355167389,-0.8807550072669983,0.3884293437004089,-11.17123317718506,2.954949140548706,96.06999206542967,28.71,0
-0.1635309159755706,-0.8842909932136536,0.3836181759834289,-10.142592430114746,2.9484012126922607,96.06999206542967,28.71,0
-0.1665202528238296,-0.8921579718589783,0.3805306553840637,-7.7485032081604,2.944199085235596,96.06999206542967,28.71,0
-0.1628408581018448,-0.8916087746620178,0.3841470181941986,-4.499643325805664,2.941502332687378,96.06999206542967,28.71,0
-0.1604796350002288,-0.8912563323974609,0.3864678144454956,-1.4044259786605835,2.939771890640259,96.06999206542967,28.71,0
-0.1701598912477493,-0.8854323625564575,0.3879571557044983,0.9079210758209229,2.938661336898804,96.06999206542967,28.71,0
-0.1763721108436584,-0.8816949129104614,0.388912945985794,2.606806755065918,2.937948703765869,96.06999206542967,28.71,0
-0.1859565377235412,-0.8848941922187805,0.3895263075828552,4.030233383178711,2.9374914169311523,96.06999206542967,28.71,0
-0.1809117197990417,-0.8869472742080688,0.3955177068710327,5.130000591278076,2.9371979236602783,96.06999206542967,28.71,0
-0.1776742488145828,-0.8882648348808289,0.393764853477478,5.746203422546387,2.928746700286865,96.06641387939452,28.71,0
-0.1755966246128082,-0.8891103863716125,0.3870421946048736,5.837128162384033,2.923323154449463,96.06411743164062,28.71,0
-0.1742633283138275,-0.8840552568435669,0.3827279806137085,5.340178966522217,2.9198427200317383,96.0626449584961,28.71,0
-0.1734076887369156,-0.8864089250564575,0.3855571448802948,4.258176803588867,2.917609214782715,96.06169891357422,28.71,0
-0.1728585958480835,-0.8879193663597107,0.3873727321624756,2.9081990718841557,2.916175842285156,96.06108856201172,28.71,0
-0.1725062131881714,-0.8832908868789673,0.3941356539726257,1.740924596786499,2.9152560234069824,96.06069946289062,28.71,0
-0.1834756284952163,-0.885918378829956,0.398475706577301,0.8198714256286621,2.914665699005127,96.0604476928711,28.71,0
-0.1905151605606079,-0.8876045346260071,0.3956631422042846,-0.2118642628192901,2.9142868518829346,96.06028747558594,28.71,0
-0.1838371753692627,-0.8886866569519043,0.3938581943511963,-1.6191486120224,2.90899395942688,96.0601806640625,28.71,0
-0.1739538609981537,-0.8837832808494568,0.3926998674869537,-3.324759721755981,2.905597448348999,96.06011199951172,28.71,0
-0.1676113158464431,-0.8806366324424744,0.3919565379619598,-5.1286725997924805,2.903417587280273,96.06007385253906,28.71,0
-0.1691388189792633,-0.8842150568962097,0.3914794921875,-6.852366924285889,2.902018785476685,96.06004333496094,28.71,0
-0.1701190769672393,-0.8865114450454712,0.3911733627319336,-8.24514102935791,2.901121139526367,96.06002807617188,28.71,0
-0.1763459295034408,-0.8823873996734619,0.3909769058227539,-8.877415657043457,2.900545120239258,96.06002044677734,28.71,0
-0.1859397292137146,-0.879740834236145,0.3908508419990539,-8.276468276977539,2.9001753330230717,96.0600128173828,28.71,0
-0.1809009313583374,-0.8836401700973511,0.3963676989078522,-6.271491527557373,2.899938106536865,96.06000518798828,28.71,0
-0.1832651048898697,-0.8861425518989563,0.39431032538414,-3.2795064449310303,2.8938183784484863,96.06000518798828,28.71,0
-0.1847822815179824,-0.8821506500244141,0.3929900228977203,-0.1091038659214973,2.8898909091949463,96.06000518798828,28.71,0
-0.1857559233903885,-0.8795889019966125,0.3921427428722381,2.58467173576355,2.887370586395264,96.06000518798828,28.71,0
-0.1863807588815689,-0.8835426568984985,0.3915989995002746,4.617900848388672,2.8857531547546387,96.06000518798828,28.71,0
-0.1811839640140533,-0.8804821968078613,0.3968478441238403,6.116169452667236,2.8847150802612305,96.06000518798828,28.71,0
-0.1778489500284195,-0.8841159343719482,0.4002162516117096,7.102749824523926,2.8840489387512207,96.06000518798828,28.71,0
-0.1813065111637115,-0.8864478468894958,0.3967801034450531,7.420613765716553,2.883621454238892,96.06000518798828,28.71,0
-0.1779275983572006,-0.8879443407058716,0.4001727700233459,7.022727966308594,2.883347272872925,96.06000518798828,28.71,0
-0.1757592111825943,-0.8889046907424927,0.402349978685379,6.176262855529785,2.876285552978516,96.06000518798828,28.71,0
-0.1799654364585876,-0.8839232325553894,0.3925516307353973,5.253297328948975,2.871753692626953,96.06000518798828,28.71,0
-0.1826647520065307,-0.8863241672515869,0.3862636387348175,4.413793563842773,2.8688454627990723,96.06000518798828,28.71,0
-0.1843970119953155,-0.8878649473190308,0.3878261148929596,3.430808782577514,2.866979122161865,96.06000518798828,28.71,0
-0.1855086833238601,-0.8832559585571289,0.3944266140460968,1.9294198751449585,2.865781545639038,96.06000518798828,28.71,0
-0.1862220913171768,-0.8802981972694397,0.3930646479129791,-0.1697615832090377,2.865012884140014,96.06000518798828,28.71,0
-0.1810821443796157,-0.8784000873565674,0.397788405418396,-2.4877734184265137,2.864519596099853,96.06000518798828,28.71,0
-0.1721858382225036,-0.8827797770500183,0.3952220678329468,-4.516308784484863,2.864202976226806,96.06000518798828,28.71,0
-0.1608789265155792,-0.8855903744697571,0.3935751318931579,-6.061721324920654,2.856196403503418,96.04925537109376,28.71,0
-0.1648183465003967,-0.8873940706253052,0.3869204521179199,-7.186033248901367,2.8510582447052,96.0423583984375,28.71,0
-0.1729442179203033,-0.8885515928268433,0.3826498687267303,-7.746335983276367,2.8477606773376465,96.03793334960938,28.71,0
-0.1893544793128967,-0.8892943859100342,0.3799092471599579,-7.335652351379394,2.84564471244812,96.03508758544922,28.71,0
-0.1886900961399078,-0.8897711038589478,0.389346033334732,-5.807449817657471,2.8442866802215576,96.03326416015624,28.71,0
-0.1770681887865066,-0.8900769948959351,0.4009997844696045,-3.55850601196289,2.8434152603149414,96.03209686279295,28.71,0
-0.1696099191904068,-0.8902733325958252,0.4028807282447815,-1.1372201442718506,2.842855930328369,96.03134155273438,28.71,0
-0.1592258512973785,-0.8903993368148804,0.4040877819061279,1.158214807510376,2.8424971103668213,96.0308609008789,28.71,0
-0.1581597328186035,-0.884882390499115,0.3936668634414673,3.2904868125915527,2.835381031036377,96.03055572509766,28.71,0
-0.1574755609035492,-0.8813419342041016,0.3869793117046356,5.25356388092041,2.8308143615722656,96.03035736083984,28.71,0
-0.1626342684030532,-0.8846676349639893,0.3770898580551147,6.846533298492432,2.827883720397949,96.0302276611328,28.71,0
-0.1603470593690872,-0.8868018984794617,0.3819389343261719,7.668185234069824,2.826003074645996,96.03014373779295,28.71,0
-0.1588792502880096,-0.8881715536117554,0.3906485438346863,7.410890102386475,2.824795961380005,96.03009033203124,28.71,0
-0.1579373031854629,-0.8890505433082581,0.3906401097774505,6.174582481384277,2.824021339416504,96.03005981445312,28.71,0
-0.1629305928945541,-0.8896145820617676,0.3794391453266144,4.4246439933776855,2.823524236679077,96.03003692626952,28.71,0
-0.1717327684164047,-0.8843787908554077,0.3722510039806366,2.617362260818481,2.8232052326202397,96.03002166748048,28.71,0
-0.1717837303876876,-0.8866165280342102,0.3732358515262604,0.9022535681724548,2.8174920082092285,96.03001403808594,28.71,0
-0.1718164235353469,-0.8880525827407837,0.379465639591217,-0.6748870611190796,2.8138256072998047,96.0300064086914,28.71,0
-0.1718374043703079,-0.8945719599723816,0.3834635615348816,-2.005854368209839,2.811472654342652,96.0300064086914,28.71,0
-0.1718508750200271,-0.893157958984375,0.3860292136669159,-3.1465985774993896,2.809962749481201,96.0300064086914,28.71,0
-0.1718595176935196,-0.8978483080863953,0.3876757025718689,-4.380223274230957,2.8089938163757324,96.0300064086914,28.71,0
-0.1662672907114029,-0.9008582830429076,0.3831345438957214,-5.809590816497803,2.8083720207214355,96.0300064086914,28.71,0
-0.1682762950658798,-0.8915943503379822,0.3802202939987182,-7.063639163970947,2.8079729080200195,96.0300064086914,28.71,0
-0.1807611137628555,-0.8912470936775208,0.37275230884552,-7.635547637939453,2.8077168464660645,96.0300064086914,28.71,0
-0.1775775998830795,-0.9022197723388672,0.3847531080245971,-7.296798229217529,2.8034210205078125,96.0300064086914,28.71,0
-0.1699368208646774,-0.9092614054679872,0.398052304983139,-5.990305423736572,2.800664186477661,96.0300064086914,28.71,0
-0.1650334149599075,-0.9025847911834716,0.3953914046287536,-3.6507742404937744,2.7988951206207275,96.0300064086914,28.71,0
-0.1618866920471191,-0.8927023410797119,0.3880860209465027,-0.5408210754394531,2.797759771347046,96.0300064086914,28.71,0
