acc_x,acc_y,acc_z,bvp,eda,hr,temp,label
0.0,0.0,0.0,0.0,0.0,0.0,34.79,0
-0.0338541641831398,-0.1484374850988388,0.0598958283662796,1.5383331775665283,0.7312101125717163,10.833333015441896,34.79,0
-0.0792682915925979,-0.3391768336296081,0.1444359868764877,3.626097440719605,1.7121018171310425,25.365854263305664,34.79,0
-0.1187707632780075,-0.5150539875030518,0.2179713547229766,5.333654403686523,2.5653085708618164,38.00664520263672,34.79,0
-0.1529281437397003,-0.6487040519714355,0.2342519760131836,6.938136100769043,3.1877691745758057,47.228782653808594,34.79,0
-0.1705644130706787,-0.7117421627044678,0.2837027013301849,8.456588745117188,3.609201192855835,53.47256088256836,34.79,0
-0.1654771119356155,-0.7808696627616882,0.2939371764659881,9.57019329071045,3.885721206665039,57.56937789916992,34.79,0
-0.1789203137159347,-0.831219494342804,0.294986218214035,10.737767219543455,4.064809799194336,60.22268295288086,34.79,0
-0.1708095371723175,-0.8692435622215271,0.2956619560718536,13.103433609008787,4.152427673339844,61.93186950683594,34.79,0
-0.1991642564535141,-0.8880886435508728,0.2960962951183319,17.151830673217773,4.208743572235107,63.03043746948242,34.79,0
-0.2005828917026519,-0.9001900553703308,0.2963752150535583,22.12980842590332,4.244906902313232,63.73588562011719,34.79,0
-0.2126880139112472,-0.9079580903053284,0.2909570038318634,25.823162078857425,4.268120765686035,64.188720703125,34.79,0
-0.2204572409391403,-0.912943720817566,0.2930770814418793,25.732467651367188,4.283019542694092,64.47935485839844,34.79,0
-0.2422363609075546,-0.8825572729110718,0.2776446342468261,22.26728820800781,4.292581081390381,64.66587829589844,34.79,0
-0.1946380883455276,-0.9190340042114258,0.2901317477226257,19.172935485839844,4.298717498779297,64.78557586669922,34.79,0
-0.1976785808801651,-0.9088562726974488,0.2869498133659363,19.25069999694824,4.302655220031738,64.86239624023438,34.79,0
-0.2108253389596939,-0.913520336151123,0.2737122774124145,20.64765167236328,4.4529948234558105,64.91169738769531,34.81,0
-0.2024688571691513,-0.916513442993164,0.2764127254486084,20.558927536010746,4.549474239349365,64.94332885742188,34.81,0
-0.2027039229869842,-0.9184342622756958,0.2781457006931305,19.635007858276367,4.61138916015625,64.96363067626953,34.81,0
-0.2028547823429107,-0.9196669459342957,0.2792578339576721,20.765308380126957,4.651122570037842,64.9766616821289,34.81,0
-0.2029515951871872,-0.9204580187797546,0.2799715399742126,24.267166137695312,4.676621437072754,64.98502349853516,34.81,0
-0.2030137181282043,-0.9265634417533876,0.2860273420810699,27.682374954223636,4.6929850578308105,64.99038696289062,34.81,0
-0.2086513638496399,-0.9304815530776978,0.2899135947227478,30.25023078918457,4.703486442565918,64.99382781982422,34.81,0
-0.2122692763805389,-0.9329959750175476,0.2924075722694397,33.31683349609375,4.710225582122803,64.99604034423828,34.81,0
-0.2089932709932327,-0.934609591960907,0.2940080761909485,37.45942687988281,4.64247989654541,64.9974594116211,34.81,0
-0.2068909257650375,-0.9356451034545898,0.2894374132156372,39.87428665161133,4.599004745483398,64.99836730957031,34.81,0
-0.2055417597293853,-0.93071186542511,0.2865042090415954,36.53020858764648,4.571105003356934,64.99895477294922,34.81,0
-0.204675942659378,-0.927545964717865,0.279024064540863,22.894851684570312,4.5532002449035645,64.99932861328125,34.81,0
-0.198522537946701,-0.925514280796051,0.2742237448692322,-3.675268888473511,4.541710376739502,64.99957275390625,34.81,0
-0.194573625922203,-0.924210488796234,0.2711431682109833,-32.287410736083984,4.534336566925049,64.99972534179688,34.81,0
-0.1976372152566909,-0.9233737587928772,0.2691662311553955,-51.23299789428711,4.529604434967041,64.99982452392578,34.81,0
-0.194005474448204,-0.9228368401527404,0.2678975462913513,-58.110469818115234,4.526567935943604,64.99988555908203,34.81,0
-0.1916748434305191,-0.922492265701294,0.2670833766460418,-55.896270751953125,4.525077819824219,64.55927276611328,34.81,0
-0.190179169178009,-0.9222711324691772,0.2665609121322632,-47.96220016479492,4.5241217613220215,64.2765121459961,34.81,0
-0.1948171108961105,-0.922129213809967,0.2662256062030792,-38.24905014038086,4.523508071899414,64.09504699707031,34.81,0
-0.1977934688329696,-0.9220381379127502,0.26601043343544,-29.46849822998047,4.523114204406738,63.97859573364258,34.81,0
-0.1997035294771194,-0.9219796657562256,0.2658723592758178,-21.619613647460938,4.522861480712891,63.90386581420898,34.81,0
-0.2009292989969253,-0.921942174434662,0.2657837271690368,-13.150543212890623,4.522699356079102,63.85590744018555,34.81,0
-0.2017159312963485,-0.9219180941581726,0.2657268643379211,-3.90730357170105,4.522595405578613,63.82513046264648,34.81,0
-0.2022207379341125,-0.916304886341095,0.2656903564929962,4.227758884429932,4.522528648376465,63.80537796020508,34.81,0
-0.202544704079628,-0.9071048498153688,0.2600691616535187,10.455078125,4.522485733032227,63.79270553588867,34.81,0
-0.2027526050806045,-0.9067986011505128,0.2620595693588257,15.56917667388916,4.522458076477051,63.78457260131836,34.81,0
-0.202886015176773,-0.9066020846366882,0.2633369266986847,20.026195526123047,4.522440433502197,63.77935028076172,34.81,0
-0.2029716372489929,-0.9120737314224244,0.269754409790039,21.664794921875,4.5224289894104,63.7760009765625,34.81,0
-0.2030265778303146,-0.9155851006507874,0.2738727927207947,17.81180763244629,4.522421836853027,63.77384948730469,34.81,0
-0.2030618339776992,-0.9178385138511658,0.2709179520606994,8.632601737976074,4.522417068481445,63.7724723815918,34.81,0
-0.2030844688415527,-0.9248824119567872,0.2690217196941376,-3.645817041397095,4.522414207458496,63.77158737182617,34.81,0
-0.1919034421443939,-0.9238049983978271,0.273402601480484,-17.19303321838379,4.522412300109863,63.7710189819336,34.81,0
-0.1847281008958816,-0.9231135845184326,0.2762140035629272,-31.203399658203125,4.515984535217285,63.770652770996094,34.83,0
-0.1857211589813232,-0.9282675981521606,0.2780181765556335,-44.772979736328125,4.511859893798828,63.77042007446289,34.83,0
-0.1807606667280197,-0.9315751791000366,0.2735782265663147,-55.48023223876953,4.509212493896484,63.77027130126953,34.83,0
-0.1831750869750976,-0.9280999898910522,0.2707289159297943,-61.81056213378906,4.507513523101807,63.77017593383789,34.83,0
-0.1847245246171951,-0.9146742820739746,0.2577048540115356,-65.10990905761719,4.506423473358154,63.77011489868164,34.83,0
-0.1913166344165802,-0.9004606604576111,0.2437489777803421,-68.34500885009766,4.50572395324707,63.77007293701172,34.83,0
-0.2011448442935943,-0.913730263710022,0.212401807308197,-73.73499298095703,4.505274772644043,63.77004623413086,34.83,0
-0.2186475694179535,-0.9446370601654052,0.1922850012779235,-79.12139892578125,4.504986763000488,63.7700309753418,34.83,0
-0.2298798114061355,-0.9476779103279114,0.1849729567766189,-76.73490142822266,4.501588821411133,63.77001953125,34.83,0
-0.2426857948303222,-0.9608249068260192,0.1802805215120315,-61.72215270996094,4.49940824508667,63.77001190185547,34.83,0
-0.2509039342403412,-0.9636641144752502,0.1828669607639312,-39.97156524658203,4.498008728027344,63.7700080871582,34.83,0
-0.2561778724193573,-0.943095088005066,0.1957223266363144,-21.302202224731445,4.497110843658447,63.77000427246094,34.83,0
-0.2539646029472351,-0.9186995029449464,0.2039721608161926,-8.547443389892578,4.49653434753418,63.77000427246094,34.83,0
-0.2525442540645599,-0.903043806552887,0.2148642092943191,0.4725657999515533,4.496164321899414,63.77000427246094,34.83,0
-0.2404372096061706,-0.8985946774482727,0.2274518758058548,7.117324352264404,4.495926856994629,63.77000427246094,34.83,0
-0.2326676100492477,-0.9013372659683228,0.2355299144983291,12.484981536865234,4.495774745941162,63.77000427246094,34.83,0
-0.2332793027162552,-0.9198906421661376,0.2295183837413787,18.38728141784668,4.493381977081299,63.39025115966797,34.83,0
-0.2336718440055847,-0.942992627620697,0.2200627475976944,24.63985061645508,4.491846084594727,63.14654541015625,34.83,0
-0.2339237481355667,-0.9690137505531312,0.2139946669340133,28.928247451782227,4.490860462188721,62.99015045166016,34.83,0
-0.2396831810474395,-1.052885890007019,0.2045027464628219,30.14695167541504,4.490228176116943,62.88978576660156,34.83,0
-0.2321837097406387,-1.123503565788269,0.1984113901853561,29.309720993041992,4.4898223876953125,62.82537460327149,34.83,0
-0.2049798816442489,-1.1968107223510742,0.1889045238494873,27.59376716613769,4.489562034606934,62.78404235839844,34.83,0
-0.1819242537021637,-1.2102683782577517,0.1716080158948898,25.53960227966309,4.489394664764404,62.75751495361328,34.83,0
-0.1671284884214401,-1.1629270315170288,0.1437147855758667,23.68755340576172,4.489287376403809,62.74049377441406,34.83,0
-0.1576334089040756,-1.0149928331375122,0.1202167496085167,22.262563705444336,4.484169006347656,62.72956848144531,34.83,0
-0.1459422409534454,-0.9368504881858826,0.0939415097236633,20.595746994018555,4.480884075164795,62.72255706787109,34.83,0
-0.0992551073431968,-0.9314854145050048,0.0770795792341232,17.853017807006836,4.478775978088379,62.71805953979492,34.83,0
-0.0413051135838031,-0.9560312628746032,0.0718563348054885,13.989919662475586,4.477423191070557,62.71517181396485,34.83,0
-0.0153116965666413,-0.9717833995819092,0.0685043558478355,9.608458518981934,4.476554870605469,62.71331787109375,34.83,0
-0.0378150381147861,-0.9315122365951538,0.0719510242342948,5.349328517913818,4.475997924804688,62.71212768554688,34.83,0
-0.0578541606664657,-0.8944729566574097,0.0741629004478454,1.6989243030548096,4.475640296936035,62.71136474609375,34.83,0
-0.0539207942783832,-0.8483121991157532,0.0979734510183334,-1.238402247428894,4.47541093826294,62.71087646484375,34.83,0
-0.0513965860009193,-0.8130910992622375,0.1188514679670333,-3.893662929534912,4.472050666809082,62.71056365966797,34.81,0
-0.0721677914261818,-0.801683783531189,0.1490430980920791,-6.650933742523193,4.469893932342529,62.71036148071289,34.81,0
-0.0910953283309936,-0.8223521113395691,0.1852116733789444,-9.233635902404783,4.468510150909424,62.71023178100586,34.81,0
-0.1088397055864334,-0.8468114137649536,0.2196181267499923,-11.202750205993652,4.467621803283691,62.710147857666016,34.81,0
-0.1370203495025634,-0.8737035393714905,0.2528937458992004,-12.86766242980957,4.467051982879639,62.7100944519043,34.81,0
-0.1663006097078323,-0.90775465965271,0.2798459231853485,-14.684865951538086,4.466686248779297,62.710060119628906,34.81,0
-0.2018843293190002,-0.9855844378471376,0.2971422672271728,-16.306028366088867,4.466451644897461,62.71003723144531,34.81,0
-0.2247199118137359,-1.0355311632156372,0.3194376230239868,-17.44671058654785,4.466300964355469,62.71002197265625,34.81,0
-0.2337766885757446,-1.089975118637085,0.3449410498142242,-18.09991836547852,4.458859443664551,62.71001434326172,34.81,0
-0.284371018409729,-1.1137186288833618,0.350112110376358,-18.540603637695312,4.4540839195251465,62.71001052856445,34.81,0
-0.3224373161792755,-1.112162470817566,0.3310395181179046,-18.98462677001953,4.451019287109375,62.71000671386719,34.81,0
-0.3300727605819702,-1.055186152458191,0.2740176320075989,-19.609920501708984,4.449052333831787,62.71000289916992,34.81,0
-0.3405705094337463,-1.0410131216049194,0.215033158659935,-20.61306953430176,4.447790145874023,62.71000289916992,34.81,0
-0.3417095839977264,-1.0487109422683716,0.1715825498104095,-22.292198181152344,4.446979999542236,62.71000289916992,34.81,0
-0.3088539242744446,-1.053650975227356,0.149296224117279,-24.731143951416016,4.446460247039795,62.71000289916992,34.81,0
-0.2653779685497284,-1.0232346057891846,0.1349941492080688,-26.99492073059082,4.446126461029053,62.71000289916992,34.81,0
-0.2318798303604126,-0.9533351063728333,0.1202181205153465,-27.007488250732425,4.441321849822998,62.67059326171875,34.81,0
-0.2215781956911087,-0.9028798937797546,0.0995401665568351,-23.372074127197266,4.438238620758057,62.645301818847656,34.81,0
-0.214967206120491,-0.8649028539657593,0.0806724727153778,-17.051668167114258,4.436260223388672,62.62907028198242,34.81,0
-0.1883335560560226,-0.8405313491821289,0.0797598212957382,-10.165360450744627,4.434990406036377,62.61865615844727,34.81,0
-0.1656438261270523,-0.830488920211792,0.079174131155014,-4.119635105133057,4.434175491333008,62.61197280883789,34.81,0
-0.1454850882291793,-0.8408375978469849,0.0843960493803024,0.1972377300262451,4.433652400970459,62.60768127441406,34.81,0
-0.1213528290390968,-0.8866631984710693,0.0933449491858482,2.0396711826324463,4.433316707611084,62.60492706298828,34.81,0
-0.1002683565020561,-0.9440602660179138,0.1102833822369575,1.907233715057373,4.433101654052734,62.6031608581543,34.81,0
-0.0755420103669166,-0.9920899868011476,0.1491423696279525,1.1487187147140503,4.4320454597473145,62.602027893066406,34.81,0
-0.087662935256958,-1.0509015321731567,0.2020687013864517,0.1353088617324829,4.43136739730835,62.60129928588867,34.81,0
-0.106636993587017,-1.0438612699508667,0.2416315525770187,-1.4035179615020752,4.430932521820068,62.600833892822266,34.81,0
-0.1468023210763931,-1.0057564973831177,0.2614229321479797,-2.863948345184326,4.430653095245361,62.60053634643555,34.81,0
-0.1725781261920929,-0.9701075553894044,0.2573305666446686,-3.521727561950684,4.430473804473877,62.600341796875,34.81,0
-0.1947173178195953,-0.9808167219161988,0.2155199199914932,-4.029834270477295,4.43035888671875,62.6002197265625,34.81,0
-0.2089249789714813,-0.9988847970962524,0.1942860186100006,-5.667130947113037,4.4302849769592285,62.60013961791992,34.81,0
-0.1732604503631591,-1.0104799270629885,0.1974526494741439,-8.781416893005371,4.430237770080566,62.60009002685547,34.81,0
-0.1671663224697113,-0.9619432091712952,0.1826914846897125,-12.406476020812988,4.43158483505249,62.60005569458008,34.81,0
-0.180048793554306,-0.9195995926856996,0.1508275270462036,-15.187817573547363,4.4324493408203125,62.60003662109375,34.81,0
-0.2330982089042663,-0.8644370436668396,0.119183525443077,-17.13393783569336,4.433004379272461,62.60002136230469,34.81,0
-0.2671422660350799,-0.8234391212463379,0.1100717708468437,-20.04157829284668,4.433360576629639,62.60001373291016,34.81,0
-0.288989782333374,-0.8083245754241943,0.143408790230751,-25.400545120239254,4.433588981628418,62.60000991821289,34.81,0
-0.3198035955429077,-0.8322115540504456,0.2039869874715805,-32.289642333984375,4.433735370635986,62.600006103515625,34.81,0
-0.3451758921146393,-0.8699319362640381,0.2540581524372101,-37.66721725463867,4.433829307556152,62.60000228881836,34.81,0
-0.3558605909347534,-0.9501164555549622,0.29738649725914,-38.36323547363281,4.433889865875244,62.60000228881836,34.81,0
-0.3515218794345855,-1.0239653587341309,0.3251921236515045,-33.0956916809082,4.4279608726501465,62.60000228881836,34.81,0
-0.3319442272186279,-1.121737360954285,0.3374384045600891,-23.338298797607425,4.4241557121276855,62.60000228881836,34.81,0
-0.3361737430095672,-1.156492829322815,0.3452973663806915,-12.222175598144531,4.421713829040527,62.60000228881836,34.81,0
-0.3332902193069458,-1.1452102661132812,0.3223519027233124,-2.326322555541992,4.420146942138672,62.60000228881836,34.81,0
-0.3370375037193298,-1.1155786514282229,0.2572468519210815,5.468044757843018,4.4191412925720215,62.60000228881836,34.81,0
-0.3450400829315185,-1.1189539432525637,0.2042706459760666,11.211613655090332,4.418496131896973,62.60000228881836,34.81,0
-0.3221867978572845,-1.1435110569000244,0.1646757870912552,15.313084602355955,4.418081760406494,62.60000228881836,34.81,0
-0.2459453642368316,-1.0809016227722168,0.1504616290330886,19.012779235839844,4.417816162109375,62.60000228881836,34.81,0
-0.180224671959877,-1.0127335786819458,0.135742038488388,23.6333065032959,4.422695159912109,62.54267883300781,34.81,0
-0.1604400128126144,-0.940998375415802,0.1095025241374969,28.665639877319336,4.425826549530029,62.50589370727539,34.81,0
-0.1645366847515106,-0.883767306804657,0.0870657414197921,32.332176208496094,4.427835941314697,62.48228454589844,34.81,0
-0.1727634668350219,-0.8358441591262817,0.0614715553820133,33.98654556274414,4.429125308990479,62.46713638305664,34.81,0
-0.1612496227025985,-0.8330786824226379,0.045046679675579,34.10242462158203,4.429952621459961,62.45741271972656,34.81,0
-0.1482629179954528,-0.8424995541572571,0.0401039160788059,32.414161682128906,4.430483818054199,62.45117568969727,34.81,0
-0.1343310326337814,-0.8821319341659546,0.042529709637165,27.895042419433597,4.4308247566223145,62.44717025756836,34.81,0
-0.1197925731539726,-0.9243590831756592,0.049684215337038,20.54179000854492,4.43104362487793,62.44459915161133,34.81,0
-0.0936693027615547,-0.9458602666854858,0.0766666680574417,12.02536678314209,4.42613410949707,62.44295120239258,34.81,0
-0.1272848546504974,-0.9932451248168944,0.1163735464215278,3.8265111446380615,4.422983646392822,62.44189453125,34.81,0
-0.160052940249443,-0.978871762752533,0.1530506908893585,-4.752508163452148,4.420961856842041,62.44121551513672,34.81,0
-0.1922771483659744,-0.9472566843032836,0.1933812946081161,-15.603231430053713,4.41966438293457,62.44078063964844,34.81,0
-0.2297501266002655,-0.9493590593338012,0.2248609215021133,-28.682056427001957,4.4188313484191895,62.44050216674805,34.81,0
-0.2537981271743774,-0.9898926615715028,0.228269413113594,-40.493072509765625,4.418296813964844,62.44032287597656,34.81,0
-0.1908618956804275,-1.0103070735931396,0.2360545545816421,-46.202598571777344,4.417953968048096,62.440208435058594,34.81,0
-0.1168864071369171,-0.9954189658164978,0.2522461712360382,-43.50040435791016,4.417734146118164,62.44013214111328,34.81,0
-0.1029998362064361,-0.9410824179649352,0.2234525978565216,-34.2572135925293,4.409330368041992,62.44008255004883,34.83,0
-0.1220771074295044,-0.9006145596504211,0.1881812065839767,-22.546772003173828,4.403936862945557,62.4400520324707,34.83,0
-0.1846997737884521,-0.8522535562515259,0.1599482893943786,-11.692724227905272,4.400475978851318,62.440032958984375,34.83,0
-0.2472784966230392,-0.8324137926101685,0.1810144484043121,-2.6923182010650635,4.398254871368408,62.44002151489258,34.83,0
-0.2986334562301636,-0.8308773040771484,0.2113268226385116,5.40155029296875,4.396829605102539,62.44001388549805,34.83,0
-0.3595789968967438,-0.8690757155418396,0.2643662095069885,13.082036972045898,4.3959150314331055,62.44001007080078,34.83,0
-0.404288113117218,-0.9271758794784546,0.3040015995502472,18.88508033752441,4.395328044891357,62.44000625610352,34.83,0
-0.4049909710884094,-1.0316345691680908,0.3406328558921814,21.641843795776367,4.394951343536377,62.44000244140625,34.83,0
-0.3494642972946167,-1.1546478271484375,0.3585429191589355,22.75536346435547,4.385987758636475,62.44000244140625,34.83,0
-0.3306237757205963,-1.250383973121643,0.3868298828601837,24.283201217651367,4.380235195159912,62.44000244140625,34.83,0
-0.3297285735607147,-1.1774753332138062,0.3546028733253479,26.542659759521484,4.376543521881104,62.44000244140625,34.83,0
-0.3347518444061279,-1.1138935089111328,0.3003347814083099,28.96352767944336,4.37417459487915,62.44000244140625,34.83,0
-0.3659643828868866,-1.134665846824646,0.237519770860672,31.20853805541992,4.372654438018799,62.44000244140625,34.83,0
-0.34681037068367,-1.153594136238098,0.2028064876794815,32.85704803466797,4.371678829193115,62.44000244140625,34.83,0
-0.306529551744461,-1.1377522945404053,0.1861272752285003,33.72150802612305,4.3710527420043945,62.44000244140625,34.83,0
-0.2358974367380142,-1.0380215644836426,0.1698257476091385,34.43748474121094,4.370650768280029,62.44000244140625,34.83,0
-0.2017653584480285,-0.962824523448944,0.1425710320472717,35.39134979248047,4.3694748878479,62.57613754272461,34.83,0
-0.1966546922922134,-0.8921763300895691,0.1082872077822685,35.276222229003906,4.368720054626465,62.66350173950195,34.83,0
-0.1821794062852859,-0.8412405848503113,0.0806880444288253,31.942197799682617,4.3682355880737305,62.71957015991211,34.83,0
-0.1672922223806381,-0.8141507506370544,0.0629764944314956,25.403209686279297,4.367924690246582,62.75555038452149,34.83,0
-0.1577384918928146,-0.8247548937797546,0.0572080127894878,19.064483642578125,4.367725372314453,62.77864074707031,34.83,0
-0.1516074538230896,-0.848353385925293,0.0591039061546325,16.261302947998047,4.367597579956055,62.79345703125,34.83,0
-0.1364773511886596,-0.9026819467544556,0.0603205822408199,16.379060745239258,4.367515563964844,62.8029670715332,34.83,0
-0.1099744066596031,-0.943144679069519,0.0778946951031684,16.196685791015625,4.367462635040283,62.8090705871582,34.83,0
-0.0985641181468963,-1.0082957744598389,0.1003682985901832,14.127144813537598,4.372019290924072,62.812984466552734,34.83,0
-0.1360238492488861,-0.9773348569869996,0.1707683056592941,11.032822608947754,4.374943733215332,62.81549835205078,34.83,0
-0.1656611114740371,-0.9182814955711364,0.2215447574853897,7.495809078216553,4.376820087432861,62.81711196899414,34.83,0
-0.2014739364385604,-0.9027755856513976,0.2485323846340179,2.4996178150177,4.378024578094482,62.818145751953125,34.83,0
-0.2356520891189575,-0.9432047605514526,0.2490581721067428,-4.772873878479004,4.37879753112793,62.818809509277344,34.83,0
-0.2128034681081771,-0.9859431982040404,0.2493955940008163,-13.43092918395996,4.379293441772461,62.81923675537109,34.83,0
-0.1477605700492859,-1.0189679861068726,0.2664054632186889,-21.70992851257324,4.379611492156982,62.81951141357422,34.83,0
-0.094824232161045,-1.0009770393371582,0.2773213982582092,-27.875566482543945,4.379815578460693,62.81968688964844,34.83,0
-0.1224282532930374,-0.9558448195457458,0.2283488810062408,-30.170001983642575,4.369388580322266,62.81979751586914,34.83,0
-0.1961206644773483,-0.9044904708862304,0.180127814412117,-28.049116134643555,4.362697124481201,62.81986999511719,34.83,0
-0.2490099966526031,-0.8659363985061646,0.1603778600692749,-23.316850662231445,4.358402729034424,62.819915771484375,34.83,0
-0.2885490953922272,-0.8411946296691895,0.1868878901004791,-17.85813331604004,4.355647087097168,62.8199462890625,34.83,0
-0.3195207715034485,-0.8309145569801331,0.2150960564613342,-11.43882656097412,4.353878498077393,62.81996536254883,34.83,0
-0.3449943959712982,-0.8635018467903137,0.2499917596578598,-3.822690963745117,4.352743625640869,62.81997680664063,34.83,0
-0.3669396936893463,-0.9459899663925172,0.2947769165039062,3.0818958282470703,4.352015495300293,62.81998443603516,34.83,0
-0.3866206705570221,-1.0325127840042114,0.3347129821777344,7.075788497924805,4.351548194885254,62.81998825073242,34.83,0
-0.3600663840770721,-1.1664069890975952,0.3827327489852905,7.697082996368408,4.343903541564941,62.81999206542969,34.83,0
-0.3430253565311432,-1.2915170192718506,0.4135490655899048,5.878179550170898,4.338997840881348,62.81999588012695,34.83,0
-0.3208938539028168,-1.2486543655395508,0.3717496991157532,3.8009378910064697,4.335849761962891,62.81999588012695,34.83,0
-0.3234844803810119,-1.193158745765686,0.3001430630683899,5.054503440856934,4.333829402923584,62.81999588012695,34.83,0
-0.341940313577652,-1.1631425619125366,0.2373967319726944,12.443743705749512,4.33253288269043,62.81999588012695,34.83,0
-0.3369908630847931,-1.1606732606887815,0.1859342008829116,25.160545349121094,4.331700801849365,62.81999588012695,34.83,0
-0.3058257400989532,-1.1478930711746216,0.1585062891244888,39.46557235717773,4.331166744232178,62.81999588012695,34.83,0
-0.2410435527563095,-1.0725181102752686,0.1409046351909637,52.1136474609375,4.33082389831543,62.81999588012695,34.83,0
-0.1938723027706146,-1.001755714416504,0.1128155812621116,61.81753540039063,4.345752716064453,62.94538497924805,34.83,0
-0.1747960597276687,-0.950746774673462,0.0835940986871719,67.70817565917969,4.355332851409912,63.025856018066406,34.83,0
-0.173749566078186,-0.8900232911109924,0.0536458790302276,68.790771484375,4.361481189727783,63.07749557495117,34.83,0
-0.1618824452161789,-0.8454566597938538,0.0344268381595611,65.4622802734375,4.365426540374756,63.110633850097656,34.83,0
-0.1542668044567108,-0.8280519247055054,0.0220931638032197,59.27435302734375,4.367958545684815,63.13190078735352,34.83,0
-0.1549772918224334,-0.822480320930481,0.0141781205311417,50.65311813354492,4.369583606719971,63.14554977416992,34.83,0
-0.155433252453804,-0.8245025873184204,0.0202942509204149,39.12685394287109,4.370626449584961,63.1543083190918,34.83,0
-0.1501280814409256,-0.8425936698913574,0.0466103293001651,25.81513023376465,4.37129545211792,63.15993118286133,34.83,0
-0.1411257535219192,-0.854203462600708,0.0858895704150199,13.281442642211914,4.425892353057861,63.163536071777344,34.83,0
-0.1241530328989029,-0.91763174533844,0.139085590839386,2.579772472381592,4.460929393768311,63.16585159301758,34.83,0
-0.1468475610017776,-0.9415430426597596,0.1844192892313003,-7.540922164916992,4.483414173126221,63.16733551025391,34.83,0
-0.1838027089834213,-0.9568879008293152,0.2191096246242523,-18.431621551513672,4.4978437423706055,63.16828918457031,34.83,0
-0.2355072647333145,-0.9779309034347534,0.2637629806995392,-30.128150939941406,4.50710391998291,63.16889953613281,34.83,0
-0.2742860317230224,-1.0194239616394043,0.275625616312027,-42.00863265991211,4.5130462646484375,63.16929244995117,34.83,0
-0.2375965118408203,-1.0796384811401367,0.2664450407028198,-53.21541976928711,4.516860008239746,63.1695442199707,34.83,0
-0.1412802189588546,-1.0846940279006958,0.2829445898532867,-61.97645568847656,4.5193071365356445,63.169708251953125,34.83,0
-0.0850677341222763,-1.054351806640625,0.282337486743927,-65.53522491455078,4.5713725090026855,63.1698112487793,34.84,0
-0.1105693206191062,-0.9900976419448853,0.2371656894683838,-61.696414947509766,4.604785442352295,63.16987991333008,34.84,0
-0.1605214178562164,-0.932069718837738,0.1969814896583557,-50.37676239013672,4.626227855682373,63.169921875,34.84,0
-0.2373599857091903,-0.8668418526649475,0.1823891252279281,-33.65446090698242,4.639988422393799,63.16994857788086,34.84,0
-0.2922683358192444,-0.8249824047088623,0.206611230969429,-14.89449691772461,4.6488189697265625,63.16996765136719,34.84,0
-0.3163098096847534,-0.8093149662017822,0.2333511412143707,2.289146661758423,4.654485702514648,63.16997909545898,34.84,0
-0.3149449229240417,-0.8272493481636047,0.2673045992851257,15.46616554260254,4.658122539520264,63.16998672485352,34.84,0
-0.3028734624385834,-0.8611497282981873,0.2890939712524414,24.54936790466309,4.660456657409668,63.16999053955078,34.84,0
-0.2951267063617706,-0.950078308582306,0.3030771315097809,31.10929107666016,4.695923805236816,63.16999435424805,34.84,0
-0.2733619511127472,-1.012745380401611,0.3120507299900055,36.50490188598633,4.718684673309326,63.16999435424805,34.84,0
-0.2537968158721924,-1.092145919799805,0.3290050029754638,41.08525848388672,4.733291149139404,63.16999435424805,34.84,0
-0.2748276889324188,-1.1375027894973757,0.3286897242069244,44.8379135131836,4.742664813995361,63.16999435424805,34.84,0
-0.2939218580722809,-1.149816870689392,0.3116940855979919,48.17403793334961,4.748680591583252,63.16999435424805,34.84,0
-0.294979840517044,-1.1017416715621948,0.267200618982315,51.86264419555664,4.7525410652160645,63.16999435424805,34.84,0
-0.2956587970256805,-1.0820852518081665,0.21625617146492,56.253936767578125,4.75501823425293,63.16999435424805,34.84,0
-0.2904967367649078,-1.0918619632720947,0.1779651790857315,60.61968612670898,4.756608009338379,63.16999435424805,34.84,0
-0.2591951489448547,-1.092538356781006,0.1421966850757599,63.44645309448242,4.774612903594971,63.39211654663086,34.84,0
-0.2223142683506012,-1.0593857765197754,0.1192425191402435,63.40114974975586,4.786167621612549,63.53466033935547,34.84,0
-0.1874506920576095,-1.004523754119873,0.0989140793681144,59.94713592529297,4.793582916259766,63.62613677978516,34.84,0
-0.1930661350488662,-0.9693164229393004,0.0802706852555275,53.27740859985352,4.798341274261475,63.68484115600586,34.84,0
-0.196669802069664,-0.9467223882675172,0.0627086535096168,43.91706848144531,4.801394939422607,63.72251510620117,34.84,0
-0.1709935516119003,-0.9378206133842468,0.0458405800163745,31.966646194458008,4.803354740142822,63.7466926574707,34.84,0
-0.1489182412624359,-0.926510214805603,0.035015620291233,17.11448860168457,4.804612159729004,63.76220703125,34.84,0
-0.140349343419075,-0.9024584889411926,0.0224710088223218,0.514807939529419,4.805419445037842,63.77216339111328,34.84,0
-0.129252552986145,-0.8926212787628174,0.0312139224261045,-14.193387985229492,4.8036417961120605,63.7785530090332,34.84,0
-0.1165334954857826,-0.8863083124160767,0.0424223951995372,-23.736156463623047,4.802501201629639,63.78265380859375,34.84,0
-0.1027733609080314,-0.9326369762420654,0.0496153496205806,-28.527437210083008,4.801769256591797,63.78528594970703,34.84,0
-0.1219317689538002,-0.9567703008651732,0.0710246935486793,-31.487564086914062,4.801299571990967,63.7869758605957,34.84,0
-0.1342265307903289,-0.9274754524230956,0.0959595292806625,-34.70200729370117,4.800998210906982,63.78805923461914,34.84,0
-0.1477143764495849,-0.9310668110847472,0.1287546008825302,-38.4020881652832,4.800804615020752,63.78875350952149,34.84,0
-0.173163428902626,-0.9837515354156494,0.16099613904953,-41.804786682128906,4.800680637359619,63.78919982910156,34.84,0
-0.1671040654182434,-1.0455504655838013,0.1984802186489105,-43.53345489501953,4.800601005554199,63.78948593139648,34.84,0
-0.1240310966968536,-1.0292316675186155,0.2225353419780731,-42.10276794433594,4.788614749908447,63.789669036865234,34.84,0
-0.1243782117962837,-1.0131614208221436,0.232374757528305,-37.354862213134766,4.780922889709473,63.78978729248047,34.84,0
-0.1525898426771164,-0.9916529059410096,0.2162980437278747,-30.743268966674805,4.775986671447754,63.78986358642578,34.84,0
-0.1706944406032562,-0.9778500199317932,0.1947853714227676,-23.17928123474121,4.772818565368652,63.78991317749024,34.84,0
-0.1935084760189056,-0.957796573638916,0.1753820031881332,-13.793190002441406,4.770785808563232,63.78994369506836,34.84,0
-0.2193447649478912,-0.950525164604187,0.1685278117656707,-2.474691152572632,4.769481182098389,63.78996276855469,34.84,0
-0.2807072103023529,-0.9626521468162536,0.1417381018400192,8.002440452575684,4.768643856048584,63.78997802734375,34.84,0
-0.3312816321849823,-0.9816300868988036,0.1245459988713264,14.693817138671877,4.768106460571289,63.78998565673828,34.84,0
-0.363737404346466,-1.010602355003357,0.1191108748316764,17.873777389526367,4.744809150695801,63.78998947143555,34.84,0
-0.3789678514003753,-1.0347929000854492,0.1436117887496948,19.79268455505371,4.7298583984375,63.78999328613281,34.84,0
-0.3607530295848846,-0.9943392276763916,0.1649328470230102,21.719148635864254,4.720263481140137,63.78999710083008,34.84,0
-0.3266727030277252,-1.0467472076416016,0.1450288295745849,23.75793838500977,4.71410608291626,63.78999710083008,34.84,0
-0.2712152600288391,-1.12516188621521,0.1154622510075569,25.62161636352539,4.710155010223389,63.78999710083008,34.84,0
-0.2300280928611755,-1.1307016611099243,0.0964881256222724,26.26948356628418,4.7076191902160645,63.78999710083008,34.84,0
-0.2371831834316253,-1.0502901077270508,0.1067027226090431,24.62168312072754,4.705991744995117,63.78999710083008,34.84,0
-0.2529704570770263,-0.9818933010101318,0.1244534105062484,21.772932052612305,4.704947471618652,63.78999710083008,34.84,0
-0.2407107204198837,-0.943597972393036,0.1302470117807388,20.643369674682617,4.682702541351318,63.99062347412109,34.84,0
-0.18806092441082,-0.9190222024917604,0.1395627856254577,22.68781280517578,4.668426990509033,64.11936950683594,34.84,0
-0.1430777758359909,-0.9032509326934814,0.145541101694107,26.443134307861328,4.659265518188477,64.20199584960938,34.84,0
-0.1086124032735824,-0.9099231362342834,0.1381821036338806,29.64125061035156,4.65338659286499,64.25502014160156,34.84,0
-0.1200811564922332,-0.9142049551010132,0.1390572935342788,31.077415466308597,4.649613857269287,64.28904724121094,34.84,0
-0.1442344635725021,-0.9113550186157228,0.1396189332008361,30.451391220092773,4.647192478179932,64.31088256835938,34.84,0
-0.2045168578624725,-0.9039283394813538,0.1567726880311966,27.824865341186523,4.645638465881348,64.32489776611328,34.84,0
-0.2599959671497345,-0.8711734414100647,0.1789765357971191,23.22667694091797,4.644641399383545,64.33389282226562,34.84,0
-0.3123925924301147,-0.838957667350769,0.2100190073251724,16.532033920288086,4.62563943862915,64.33966064453125,34.84,0
-0.3740065991878509,-0.8294789791107178,0.2523313760757446,8.341537475585938,4.613444805145264,64.3433609008789,34.84,0
-0.4191446900367737,-0.8233961462974548,0.3018760979175567,0.4199118018150329,4.605618953704834,64.34574127197266,34.84,0
-0.436916172504425,-0.819492518901825,0.3616599440574646,-5.878224849700928,4.600596904754639,64.3472671508789,34.84,0
-0.4483208954334259,-0.8281829357147217,0.4056235551834106,-11.08076000213623,4.597373962402344,64.3482437133789,34.84,0
-0.4332486689090729,-0.8337599635124207,0.4282390773296356,-16.755287170410156,4.595305919647217,64.34886932373047,34.84,0
-0.406782865524292,-0.831741213798523,0.4315568804740906,-23.52446174621582,4.593978404998779,64.34927368164062,34.84,0
-0.3953964114189148,-0.8248478770256042,0.4168927371501922,-30.30467987060547,4.5931267738342285,64.34953308105469,34.84,0
-0.3824914693832397,-0.8204241394996643,0.390688806772232,-35.48340606689453,4.57238245010376,64.34970092773438,34.83,0
-0.3798075914382934,-0.8231830596923828,0.368274837732315,-38.55245208740234,4.559069633483887,64.34980773925781,34.83,0
-0.3724874556064605,-0.8417468667030334,0.3538908660411834,-40.48616409301758,4.55052661895752,64.3498764038086,34.83,0
-0.3565942645072937,-0.8592578172683716,0.333464503288269,-42.719482421875,4.5450439453125,64.34992218017578,34.83,0
-0.3296016156673431,-0.9040820002555848,0.3147582709789276,-45.14865493774414,4.541525363922119,64.3499526977539,34.83,0
-0.3010837435722351,-0.9328475594520568,0.3027536869049072,-45.05957412719727,4.539267539978027,64.34996795654297,34.83,0
-0.2827826142311096,-0.9401121139526368,0.2950498163700104,-39.71452331542969,4.537818431854248,64.3499755859375,34.83,0
-0.2766357660293579,-0.8776007890701294,0.2845081388950348,-30.00412368774414,4.536888599395752,64.34998321533203,34.83,0
-0.2838866114616394,-0.8486801385879517,0.2721453309059143,-19.226259231567383,4.522061347961426,64.34999084472656,34.83,0
-0.294137567281723,-0.8301205635070801,0.2754071354866028,-9.038753509521484,4.512546062469482,64.34999084472656,34.83,0
-0.3007160425186157,-0.8126122951507568,0.2719026207923889,0.6839103102684021,4.506439685821533,64.34999084472656,34.83,0
-0.3161332905292511,-0.8013765215873718,0.2584580779075622,9.545801162719728,4.50252103805542,64.34999084472656,34.83,0
-0.3652116060256958,-0.7773727178573608,0.2498301267623901,16.923828125,4.500006198883057,64.34999084472656,34.83,0
-0.4079028069972992,-0.7507728934288025,0.2498909831047058,23.1453914642334,4.498392581939697,64.34999084472656,34.83,0
-0.4185062348842621,-0.7393004298210144,0.2499300390481948,28.35968971252441,4.49735689163208,64.34999084472656,34.83,0
-0.4253109097480774,-0.7319380640983582,0.2667484283447265,31.63785743713379,4.496692180633545,64.34999084472656,34.83,0
-0.43527552485466,-0.7216155529022217,0.2831392884254455,32.591590881347656,4.486166477203369,64.53270721435547,34.83,0
-0.4416702389717102,-0.6926000714302063,0.3160490691661834,32.38323211669922,4.479411602020264,64.64996337890625,34.83,0
-0.4457739889621734,-0.6795774102210999,0.3371686935424804,31.79094886779785,4.475076675415039,64.72521209716797,34.83,0
-0.4484075307846069,-0.6768179535865784,0.3563198149204254,29.55866432189941,4.472294807434082,64.77349853515625,34.83,0
-0.4444998204708099,-0.6862426400184631,0.3798054456710815,24.17811393737793,4.4705095291137695,64.80448913574219,34.83,0
-0.4363943040370941,-0.6978886723518372,0.3892793953418731,16.537155151367188,4.469364166259766,64.82437896728516,34.83,0
-0.4255948662757873,-0.7165579199790955,0.3897614777088165,9.276293754577637,4.468628883361816,64.83714294433594,34.83,0
-0.4018710851669311,-0.7509298920631409,0.395668625831604,3.921670913696289,4.468156814575195,64.84532928466797,34.83,0
-0.3978420794010162,-0.7785856127738953,0.3994594812393188,-0.1845593452453613,4.462345600128174,64.8505859375,34.83,0
-0.4120498299598694,-0.7963334918022156,0.3962944746017456,-4.349461555480957,4.458616256713867,64.85395812988281,34.83,0
-0.4155697822570801,-0.8133208155632019,0.4110566675662994,-9.114480018615724,4.456223011016846,64.85612487792969,34.83,0
-0.3954375684261322,-0.8130267262458801,0.4485190510749817,-14.41508674621582,4.454687118530273,64.85751342773438,34.83,0
-0.3713223338127136,-0.8072402477264404,0.4949513673782348,-19.693981170654297,4.453701496124268,64.85840606689453,34.83,0
-0.3278577029705047,-0.7867335081100464,0.5359445214271545,-23.074506759643555,4.453068733215332,64.85897827148438,34.83,0
-0.339148998260498,-0.7679756879806519,0.545458197593689,-21.87272834777832,4.452662944793701,64.85934448242188,34.83,0
-0.3687862157821655,-0.7615357637405396,0.5403680205345154,-15.14367389678955,4.452402591705322,64.85958099365234,34.83,0
-0.3934034407138824,-0.7965874075889587,0.5035147666931152,-4.892608642578125,4.466465473175049,64.85973358154297,34.84,0
-0.4092013537883758,-0.8806570768356323,0.4294845163822174,5.48346471786499,4.475490570068359,64.85983276367188,34.84,0
-0.4193395674228668,-0.973792552947998,0.3707806169986725,12.869494438171388,4.481282234191895,64.85989379882812,34.84,0
-0.4202479124069214,-1.0839414596557615,0.3331078290939331,15.37747859954834,4.484999179840088,64.85993194580078,34.84,0
-0.4152330458164215,-1.1546287536621094,0.3201271295547485,13.3613920211792,4.48738431930542,64.85995483398438,34.84,0
-0.3784281611442566,-1.1887962818145752,0.36777463555336,9.233766555786133,4.488914966583252,64.85997009277344,34.84,0
-0.3604066669940948,-1.1435496807098389,0.4263409078121185,5.707162857055664,4.48989725112915,64.85997772216797,34.84,0
-0.348841518163681,-1.0865241289138794,0.469523161649704,4.3790435791015625,4.490527629852295,64.8599853515625,34.84,0
-0.3246263563632965,-1.0107439756393433,0.4860394895076751,5.271447658538818,4.529492378234863,64.85999298095703,34.84,0
-0.3034886717796325,-0.922928273677826,0.5134320259094238,7.080129623413086,4.554497718811035,64.85999298095703,34.84,0
-0.317912608385086,-0.8329865336418152,0.5422065258026123,8.398470878601074,4.570544719696045,64.85999298095703,34.84,0
-0.3551579117774963,-0.7920604348182678,0.5942590236663818,8.900579452514648,4.5808424949646,64.85999298095703,34.84,0
-0.3566687107086181,-0.8273719549179077,0.6332610845565796,9.212056159973145,4.587450981140137,64.85999298095703,34.84,0
-0.318453848361969,-0.8612284064292908,0.6023126244544983,10.046059608459473,4.591691970825195,64.85999298095703,34.84,0
-0.2995275259017944,-0.9221399426460266,0.5432672500610352,11.663212776184082,4.594413757324219,64.85999298095703,34.84,0
-0.309772789478302,-1.0060116052627563,0.4270064830780029,13.954910278320312,4.596160411834717,64.85999298095703,34.84,0
-0.2603698670864105,-1.0038578510284424,0.3635925650596618,16.683073043823242,4.643186092376709,65.03912353515625,34.84,0
-0.2230681329965591,-0.9968779683113098,0.3228971660137176,19.436973571777344,4.673364162445068,65.15408325195312,34.84,0
-0.2047277987003326,-0.9756053686141968,0.2743901014328003,21.74881935119629,4.692730903625488,65.22785186767578,34.84,0
-0.1817624866962433,-0.9507582783699036,0.2488588392734527,23.461713790893555,4.705159187316895,65.27519226074219,34.84,0
-0.1670246720314026,-0.906823992729187,0.254865437746048,24.55378532409668,4.713135242462158,65.30557250976562,34.84,0
-0.1519690155982971,-0.873031735420227,0.2755134701728821,25.018163681030277,4.718253612518311,65.3250732421875,34.84,0
-0.1199160665273666,-0.8345524668693542,0.3055574893951416,25.294679641723636,4.721538543701172,65.33758544921875,34.84,0
-0.0881507769227027,-0.8042609095573425,0.3304357826709747,25.497209548950195,4.723646640777588,65.34561920166016,34.84,0
-0.0789611935615539,-0.7904192805290222,0.3408034741878509,24.10458755493164,4.758050441741943,65.35076904296875,34.84,0
-0.089857168495655,-0.7983298897743225,0.3362613022327423,18.97627830505371,4.7801289558410645,65.35407257080078,34.84,0
-0.1080451309680938,-0.8257975578308105,0.3445419669151306,9.673663139343262,4.794297695159912,65.35619354248047,34.84,0
-0.1253148913383484,-0.8546202778816223,0.3498560190200805,-2.1429829597473145,4.803390502929688,65.35755920410156,34.84,0
-0.1475931704044342,-0.8899103403091431,0.3644618093967438,-14.046813011169434,4.809225559234619,65.35843658447266,34.84,0
-0.1618900895118713,-0.9125574827194214,0.379432737827301,-24.097078323364254,4.812970161437988,65.35899353027344,34.84,0
-0.1654672622680664,-0.927091121673584,0.4002357721328735,-31.589290618896484,4.815373420715332,65.3593521118164,34.84,0
-0.1845562011003494,-0.9364179372787476,0.3967926502227783,-36.79861068725586,4.816915512084961,65.35958099365234,34.84,0
-0.1968063861131668,-0.9424033761024476,0.4001808166503906,-39.58635330200195,4.838562488555908,65.35973358154297,34.87,0
-0.2046678513288498,-0.9406467080116272,0.3967573642730713,-38.63111114501953,4.85245418548584,65.35983276367188,34.87,0
-0.215310662984848,-0.9339215755462646,0.3777670860290527,-33.109962463378906,4.8613691329956055,65.35989379882812,34.87,0
-0.2221406102180481,-0.9184102416038512,0.3767757713794708,-25.04559898376465,4.867090225219727,65.35993194580078,34.87,0
-0.2153281271457672,-0.914053738117218,0.3761395812034607,-18.627199172973636,4.870761394500732,65.35995483398438,34.87,0
-0.2053584903478622,-0.9168557524681092,0.36453577876091,-16.42491912841797,4.873117446899414,65.35997009277344,34.87,0
-0.1989605575799942,-0.9130561351776124,0.357089102268219,-17.29014015197754,4.874629497528076,65.35997772216797,34.87,0
-0.2004525065422058,-0.9162155389785768,0.3467124998569488,-18.339784622192383,4.87559986114502,65.3599853515625,34.87,0
-0.2014099508523941,-0.923840880393982,0.340053379535675,-17.906370162963867,4.86704158782959,65.35999298095703,34.87,0
-0.207622155547142,-0.9287343621253968,0.3245843946933746,-16.051897048950195,4.861549377441406,65.35999298095703,34.87,0
-0.2060110121965408,-0.9374725222587584,0.3146573007106781,-13.246060371398926,4.858024597167969,65.35999298095703,34.87,0
-0.2049770802259445,-0.9430801272392272,0.3026888966560364,-9.532341003417969,4.855762481689453,65.35999298095703,34.87,0
-0.198715791106224,-0.9410809874534608,0.2894104719161987,-4.745181083679199,4.854310989379883,65.35999298095703,34.87,0
-0.1946976482868194,-0.9397980570793152,0.2640958130359649,1.6909810304641724,4.853379249572754,65.35999298095703,34.87,0
-0.1865212619304657,-0.9389747381210328,0.2534480988979339,11.668103218078612,4.852781295776367,65.35999298095703,34.87,0
-0.1756763607263565,-0.9384464025497437,0.2466150224208831,27.62557411193848,4.852397918701172,65.35999298095703,34.87,0
-0.1631189435720443,-0.9381073713302612,0.24222993850708,49.07245635986328,4.842052936553955,65.52837371826172,34.87,0
-0.1494625508785247,-0.9378897547721864,0.2450136244297027,69.20923614501953,4.835413932800293,65.63643646240234,34.87,0
-0.1183075606822967,-0.9433478713035583,0.2635933458805084,76.34600067138672,4.831153392791748,65.70578002929688,34.87,0
-0.103911854326725,-0.946850597858429,0.2755167484283447,62.27507781982422,4.828419208526611,65.75028228759766,34.87,0
-0.1058690696954727,-0.9490984678268432,0.2775707244873047,30.864818572998047,4.826664924621582,65.77883911132812,34.87,0
-0.1127228736877441,-0.9449432492256165,0.2732910811901092,-4.2067413330078125,4.8255391120910645,65.79716491699219,34.87,0
-0.1227190196514129,-0.942276656627655,0.2705446481704712,-31.32084083557129,4.824816703796387,65.80892944335938,34.87,0
-0.1403295248746872,-0.9349676370620728,0.2631843686103821,-47.68932723999024,4.824352741241455,65.81648254394531,34.87,0
-0.1572287082672119,-0.9302771091461182,0.2584609687328338,-55.70737075805664,4.816710472106934,65.82132720947266,34.87,0
-0.1736713945865631,-0.9216692447662354,0.2498319894075393,-58.38808059692383,4.811806201934815,65.82443237304688,34.87,0
-0.1618322730064392,-0.9105474352836608,0.2610877156257629,-58.757774353027344,4.808658599853516,65.82643127441406,34.87,0
-0.1542346030473709,-0.9090078473091124,0.2683109939098358,-58.94486618041992,4.806638717651367,65.82771301269531,34.87,0
-0.1717499643564224,-0.9136176109313964,0.2673487067222595,-58.40573501586914,4.805342674255371,65.82852935791016,34.87,0
-0.1550014317035675,-0.9277714490890504,0.2779267132282257,-55.05038833618164,4.804511070251465,65.82905578613281,34.87,0
-0.1498509645462036,-0.942452311515808,0.2791173160076141,-48.51921463012695,4.803977012634277,65.82939147949219,34.87,0
-0.1633390188217163,-0.9462758898735046,0.2686858177185058,-40.81695938110352,4.803634643554688,65.8296127319336,34.87,0
-0.1775926500558853,-0.9487296342849731,0.267589271068573,-33.7388801574707,4.819481372833252,65.82975006103516,34.87,0
-0.1867398023605346,-0.9447065591812134,0.2668855488300323,-27.211828231811523,4.82965087890625,65.82984161376953,34.87,0
-0.1814143806695938,-0.9365269541740416,0.2720317244529724,-20.389949798583984,4.836176872253418,65.82990264892578,34.87,0
-0.1779968291521072,-0.9312777519226074,0.2753342390060425,-12.97403621673584,4.840364933013916,65.82994079589844,34.87,0
-0.1702058613300323,-0.9279091358184814,0.2830513715744018,-5.001359462738037,4.843052387237549,65.82996368408203,34.87,0
-0.1652060747146606,-0.9257473349571228,0.2824060022830963,3.4504237174987797,4.8447771072387695,65.8299789428711,34.87,0
-0.1675952672958374,-0.9243600368499756,0.2819918692111969,11.786925315856934,4.845884323120117,65.82998657226562,34.87,0
-0.1691285073757171,-0.9234697818756104,0.2817260921001434,18.738224029541016,4.84659481048584,65.82999420166016,34.87,0
-0.1701124608516693,-0.9228984117507936,0.2815555334091186,23.184837341308597,4.932433605194092,65.82999420166016,34.87,0
-0.1763416826725006,-0.9281295537948608,0.2814460694789886,24.98872184753418,4.98751974105835,65.82999420166016,34.87,0
-0.1803392320871353,-0.9314866065979004,0.2813758254051208,24.924694061279297,5.022871017456055,65.82999420166016,34.87,0
-0.1773068606853485,-0.933640956878662,0.2813307344913482,23.94855117797852,5.045557498931885,65.82999420166016,34.87,0
-0.1697630882263183,-0.9350234866142272,0.2813017964363098,22.623517990112305,5.060116291046143,65.82999420166016,34.87,0
-0.1649219244718551,-0.935910701751709,0.2812832295894623,21.189228057861328,5.069458961486816,65.82999420166016,34.87,0
-0.1618151366710662,-0.9308823347091676,0.2812713384628296,19.80663108825684,5.075454711914063,65.82999420166016,34.87,0
-0.1598213911056518,-0.9276553988456726,0.2812636792659759,18.41779899597168,5.079302310943604,65.82999420166016,34.87,0
-0.1697374582290649,-0.9255845546722412,0.2756609916687011,16.63804817199707,5.255991458892822,65.96613311767578,34.87,0
-0.1761010289192199,-0.9242555499076844,0.2776632905006408,14.123779296875,5.369380474090576,66.05349731445312,34.87,0
-0.1801847964525222,-0.923402726650238,0.2789482474327087,10.783465385437012,5.442147254943848,66.10956573486328,34.87,0
-0.1716099679470062,-0.9284532070159912,0.2797728776931762,6.540454387664795,5.488844394683838,66.14554595947266,34.87,0
-0.1661071479320526,-0.931694269180298,0.2803020775318146,1.4351215362548828,5.51881217956543,66.16864013671875,34.87,0
-0.162575751543045,-0.93377423286438,0.2806416749954223,-4.123288154602051,5.538043975830078,66.18345642089844,34.87,0
-0.1603095084428787,-0.93510901927948,0.2752618491649627,-9.589119911193848,5.550385475158691,66.19296264648438,34.87,0
-0.1644529402256012,-0.9359655976295472,0.2718093693256378,-14.644449234008787,5.558305740356445,66.19906616210938,34.87,0
-0.1671119481325149,-0.9309175610542296,0.2695937752723694,-19.196308135986328,5.723001480102539,66.2029800415039,34.87,0
-0.1688183546066284,-0.9276779890060424,0.2681719362735748,-22.92350959777832,5.828693866729736,66.20549774169922,34.87,0
-0.164315640926361,-0.9255990386009216,0.2672594785690307,-24.81743431091309,5.896521091461182,66.20710754394531,34.87,0
-0.1670238375663757,-0.9242648482322692,0.2722716927528381,-24.044517517089844,5.940048694610596,66.20814514160156,34.87,0
-0.1631640344858169,-0.9290064573287964,0.2754882276058197,-21.280733108520508,5.967982292175293,66.20880889892578,34.87,0
-0.1606870293617248,-0.9320493340492249,0.2775524258613586,-18.02749252319336,5.985908508300781,66.20923614501953,34.87,0
-0.1590974330902099,-0.9340021014213562,0.2788771092891693,-14.933045387268066,5.997412204742432,66.20951080322266,34.87,0
-0.1580773144960403,-0.935255229473114,0.2741294503211975,-12.026485443115234,6.004794597625732,66.20968627929688,34.87,0
-0.157422661781311,-0.9360594153404236,0.276680439710617,-9.65249729156494,6.107966423034668,66.20980072021484,34.84,0
-0.1570025533437729,-0.9365755319595336,0.2783175110816955,-7.914053440093994,6.174176216125488,66.20986938476562,34.84,0
-0.1567329466342926,-0.9313089847564696,0.2793681025505066,-6.282529354095459,6.216665744781494,66.20991516113281,34.84,0
-0.1621576994657516,-0.927929162979126,0.2800423204898834,-4.579899787902832,6.243933200836182,66.20994567871094,34.84,0
-0.1656389981508255,-0.9257602095603944,0.280474990606308,-3.3081214427948,6.261431694030762,66.20996856689453,34.84,0
-0.1678730994462967,-0.9243683218955994,0.2807526290416717,-2.671096086502075,6.272661209106445,66.20997619628906,34.84,0
-0.1693068146705627,-0.9234750866889954,0.2809308171272278,-2.194220781326294,6.279867649078369,66.2099838256836,34.84,0
-0.1758246570825576,-0.9284996390342712,0.2810451686382293,-1.465445876121521,6.284492492675781,66.20999145507812,34.84,0
-0.1744096577167511,-0.9317240715026855,0.2811185419559479,-0.689658522605896,6.303985595703125,66.20999145507812,34.84,0
-0.1679038256406784,-0.9337933659553528,0.2811656296253204,-0.2240460216999054,6.316495418548584,66.20999145507812,34.84,0
-0.1637287586927414,-0.9295235276222228,0.2811958491802215,-0.0577980317175388,6.324523448944092,66.20999145507812,34.84,0
-0.1610494405031204,-0.9267833828926086,0.2812152504920959,-0.1660641729831695,6.329675197601318,66.20999145507812,34.84,0
-0.1593300104141235,-0.9250249266624452,0.281227707862854,-0.7478514313697815,6.332981586456299,66.20999145507812,34.84,0
-0.1638243496417999,-0.9238964319229126,0.2812356948852539,-1.6514302492141724,6.335103511810303,66.20999145507812,34.84,0
-0.1667085587978363,-0.9231722354888916,0.2868385910987854,-2.3710155487060547,6.336464881896973,66.20999145507812,34.84,0
-0.1685594767332077,-0.922707498073578,0.2904342114925384,-2.893707752227783,6.337338447570801,66.20999145507812,34.84,0
-0.1641495078802108,-0.9224092364311218,0.2871438860893249,-3.831014394760132,6.308520317077637,66.34971618652344,34.84,0
-0.1613194495439529,-0.922217845916748,0.2906301319599151,-5.389071464538574,6.290026664733887,66.43938446044922,34.84,0
-0.1595032811164856,-0.922095000743866,0.2872696220874786,-6.761530876159668,6.278158187866211,66.4969253540039,34.84,0
-0.1639355421066284,-0.9220162034034728,0.2907108068466186,-6.900702953338623,6.270541667938232,66.53385162353516,34.84,0
-0.1723776906728744,-0.9219655990600586,0.287321388721466,-5.5820631980896,6.26565408706665,66.55754852294922,34.84,0
-0.1777953654527664,-0.921933114528656,0.2851462662220001,-3.406700611114502,6.26251745223999,66.57275390625,34.84,0
-0.1812721192836761,-0.9219123125076294,0.2837503850460052,-1.04338276386261,6.260504722595215,66.58251190185547,34.84,0
-0.1835032999515533,-0.9218989610671996,0.2828546166419983,0.9389933347702026,6.259212970733643,66.58877563476562,34.84,0
-0.1793373674154281,-0.9274881482124328,0.2878775298595428,1.9818834066390991,6.200543880462647,66.5927963256836,34.84,0
-0.1766639202833175,-0.9310749769210817,0.2911009490489959,2.0528602600097656,6.162893295288086,66.59537506103516,34.84,0
-0.1693504750728607,-0.9277790188789368,0.2875717580318451,1.808220386505127,6.138731479644775,66.59703063964844,34.84,0
-0.1590593606233596,-0.931261658668518,0.2853069305419922,1.7372064590454102,6.123225688934326,66.59809112548828,34.84,0
-0.1524551063776016,-0.933496594429016,0.2838535010814667,1.6558079719543457,6.113275051116943,66.5987777709961,34.84,0
-0.148216888308525,-0.9349308609962464,0.282920777797699,1.3133825063705444,6.106889247894287,66.59921264648438,34.84,0
-0.1510948091745376,-0.9302535057067872,0.2823221981525421,1.0327297449111938,6.1027913093566895,66.59949493408203,34.84,0
-0.1529416888952255,-0.9272518157958984,0.2819380760192871,1.171472191810608,6.100161552429199,66.59967803955078,34.84,0
-0.1541269123554229,-0.9309232831001282,0.2816915810108185,1.371569037437439,6.032371520996094,66.59979248046875,34.87,0
-0.1604852974414825,-0.9332794547080994,0.2815333902835846,1.130974292755127,5.98886775970459,66.59986877441406,34.87,0
-0.1589679718017578,-0.9291937351226808,0.2814318537712097,0.6863858699798584,5.960949420928955,66.59991455078125,34.87,0
-0.1579942405223846,-0.9265717267990112,0.2813667058944702,0.4548132419586181,5.943033218383789,66.59994506835938,34.87,0
-0.1517715752124786,-0.924889087677002,0.2813248932361603,0.1127441748976707,5.931535720825195,66.59996795654297,34.87,0
-0.1533759981393814,-0.9294070601463318,0.2812980711460113,-0.7803002595901489,5.92415714263916,66.5999755859375,34.87,0
-0.1544056236743927,-0.9323064088821412,0.2812808454036712,-2.0949978828430176,5.919422149658203,66.59998321533203,34.87,0
-0.1606641560792923,-0.9341670274734496,0.2812697887420654,-3.4259254932403564,5.916383266448975,66.59999084472656,34.87,0
-0.1646805256605148,-0.9353610873222352,0.2756649255752563,-4.412593364715576,5.846035003662109,66.59999084472656,34.87,0
-0.161660224199295,-0.9305295944213868,0.2776658236980438,-4.99920654296875,5.800889492034912,66.59999084472656,34.87,0
-0.1485264152288437,-0.9330267906188964,0.27894988656044,-5.622859001159668,5.771917819976807,66.59999084472656,34.87,0
-0.14009790122509,-0.9346293807029724,0.2797739207744598,-6.58196496963501,5.753325462341309,66.59999084472656,34.87,0
-0.1458845138549804,-0.935657799243927,0.2747049629688263,-7.304941654205322,5.74139404296875,66.59999084472656,34.87,0
-0.15519580245018,-0.930720031261444,0.2770497798919678,-6.765785217285156,5.733736991882324,66.59999084472656,34.87,0
-0.1555734723806381,-0.9275512099266052,0.2785545289516449,-4.632080078125,5.728823184967041,66.59999084472656,34.87,0
-0.155815839767456,-0.931115448474884,0.2795202136039734,-1.6685447692871094,5.725669860839844,66.59999084472656,34.87,0
-0.1559713780879974,-0.9278050065040588,0.2801399230957031,0.9677095413208008,5.6419358253479,66.72896575927734,34.87,0
-0.156071200966835,-0.9256805181503296,0.2805376052856445,2.7419049739837646,5.588200092315674,66.81173706054688,34.87,0
-0.1561352610588073,-0.924317181110382,0.2807928323745727,3.7515087127685542,5.553715705871582,66.86485290527344,34.87,0
-0.161774143576622,-0.923442244529724,0.2809566259384155,4.0841474533081055,5.531585693359375,66.89894104003906,34.87,0
-0.1653928458690643,-0.9284785389900208,0.2866595089435577,3.9644365310668954,5.517383575439453,66.92081451416016,34.87,0
-0.1677151322364807,-0.9317105412483216,0.2903192937374115,3.894778251647949,5.508269786834717,66.93485260009766,34.87,0
-0.169205442070961,-0.9281868934631348,0.2870701551437378,3.939639806747437,5.502420902252197,66.94386291503906,34.87,0
-0.1757595986127853,-0.925925612449646,0.2849850356578827,3.69257116317749,5.498667240142822,66.94964599609375,34.87,0
-0.1743679046630859,-0.9244744777679444,0.2892447113990783,3.1721765995025635,5.429697036743164,66.95335388183594,34.87,0
-0.1734748035669326,-0.9235432147979736,0.2863805592060089,2.8847906589508057,5.385435581207275,66.95573425292969,34.87,0
-0.1729016602039337,-0.9229455590248108,0.2901402711868286,2.961890935897827,5.357031345367432,66.95726013183594,34.87,0
-0.1725338548421859,-0.9225620031356812,0.2869552671909332,2.96837854385376,5.338802814483643,66.95824432373047,34.87,0
-0.1722978204488754,-0.9279136657714844,0.2849113047122955,2.392164707183838,5.327105045318604,66.95886993408203,34.87,0
-0.1665485650300979,-0.9313480257987976,0.2835996150970459,1.1195749044418335,5.319598197937012,66.95927429199219,34.87,0
-0.1572612524032592,-0.9279542565345764,0.2883556187152862,-0.3240507543087005,5.3147807121276855,66.95953369140625,34.87,0
-0.1568989604711532,-0.9313740730285645,0.2914077639579773,-1.2504867315292358,5.3116888999938965,66.95970153808594,34.87,0
-0.1622642427682876,-0.9335687160491944,0.2933664321899414,-1.6443955898284912,5.245699405670166,66.95980834960938,34.89,0
-0.1657073646783828,-0.9293793439865112,0.2890256345272064,-2.158711671829224,5.2033514976501465,66.95987701416016,34.89,0
-0.1679169684648513,-0.9266908764839172,0.2862399518489837,-3.079895257949829,5.176175117492676,66.95992279052734,34.89,0
-0.1637371927499771,-0.9249655604362488,0.2844522595405578,-3.961246252059937,5.1587347984313965,66.95995330810547,34.89,0
-0.1554570794105529,-0.9238583445549012,0.2833050191402435,-4.555507183074951,5.147542476654053,66.95996856689453,34.89,0
-0.1557411551475525,-0.9231477975845336,0.2825687825679779,-5.402604579925537,5.140359878540039,66.95997619628906,34.89,0
-0.1615212261676788,-0.922691822052002,0.2820963263511657,-6.963674545288086,5.1357502937316895,66.9599838256836,34.89,0
-0.1652305424213409,-0.9223991632461548,0.2817931175231933,-8.957852363586426,5.132792472839356,66.95999145507812,34.89,0
-0.1620131880044937,-0.9278091788291932,0.2815985381603241,-10.800065994262695,5.084530830383301,66.95999145507812,34.89,0
-0.1599484831094741,-0.9312809705734252,0.2814736664295196,-11.778085708618164,5.053559303283691,66.95999145507812,34.89,0
-0.1586234718561172,-0.9279112219810486,0.2813935279846191,-10.976274490356444,5.033683300018311,66.95999145507812,34.89,0
-0.1577731519937515,-0.9257487058639526,0.2813421189785003,-8.34799861907959,5.020927906036377,66.95999145507812,34.89,0
-0.1572274714708328,-0.9243609309196472,0.2813091278076172,-5.357264995574951,5.012742519378662,66.95999145507812,34.89,0
-0.1568772792816162,-0.9234703183174132,0.2812879383563995,-3.427236557006836,5.0074896812438965,66.95999145507812,34.89,0
-0.1566525548696518,-0.922898769378662,0.2812743484973907,-2.396444797515869,5.0041184425354,66.95999145507812,34.89,0
-0.1565083414316177,-0.9225320219993592,0.2812656164169311,-1.480579137802124,5.001955032348633,66.95999145507812,34.89,0
-0.1564157903194427,-0.927894413471222,0.2868577837944031,-0.677874743938446,4.971646785736084,67.02806091308594,34.89,0
-0.156356394290924,-0.9313356876373292,0.2904465198516845,-0.4278558492660522,4.9521965980529785,67.07174682617188,34.89,0
-0.1563182771205902,-0.933544099330902,0.2871517837047577,-0.6185005307197571,4.9397149085998535,67.09978485107422,34.89,0
-0.1562938094139099,-0.9349613189697266,0.2850374281406402,-0.6691938042640686,4.931704521179199,67.1177749633789,34.89,0
-0.1562781184911728,-0.9302730560302734,0.27808278799057,-0.329137921333313,4.9265642166137695,67.12931823730469,34.89,0
-0.1562680453062057,-0.927264392375946,0.2792174518108368,0.1792789846658706,4.92326545715332,67.13672637939453,34.89,0
-0.1562615782022476,-0.9309313893318176,0.2799456417560577,0.6094463467597961,4.921148300170898,67.1414794921875,34.89,0
-0.1562574356794357,-0.9332846403121948,0.2804129421710968,0.8962507247924805,4.919789791107178,67.14453125,34.89,0
-0.1506569981575012,-0.9347948431968688,0.2807128131389618,0.994323432445526,4.905281066894531,67.14649200439453,34.89,0
-0.1470629572868347,-0.9357640147209167,0.2809052765369415,0.9247056245803832,4.895970344543457,67.14775085449219,34.89,0
-0.1447565108537674,-0.9307881593704224,0.2754310071468353,0.7797167897224426,4.889995098114014,67.1485595703125,34.89,0
-0.1488741338253021,-0.9275949597358704,0.2719179391860962,0.5899417400360107,4.886160850524902,67.14907836914062,34.89,0
-0.1459188163280487,-0.9255457520484924,0.2752612233161926,0.3033565580844879,4.883699893951416,67.14940643310547,34.89,0
-0.1496200412511825,-0.924230694770813,0.2774067521095276,-0.1528330594301223,4.882120609283447,67.14962005615234,34.89,0
-0.1519952714443206,-0.928984522819519,0.2787836194038391,-0.9005764126777649,4.881107330322266,67.1497573852539,34.89,0
-0.1535195559263229,-0.926437497138977,0.2740694582462311,-1.8748304843902588,4.880456924438477,67.14984130859375,34.89,0
-0.1544977575540542,-0.9248029589653016,0.2710441648960113,-2.8188998699188232,4.871776580810547,67.14990234375,34.87,0
-0.1495277434587478,-0.9293517470359802,0.2747004926204681,-3.732850790023804,4.866206169128418,67.14994049072266,34.87,0
-0.1463382691144943,-0.9322709441184998,0.2770468890666961,-4.924827098846436,4.862631320953369,67.14996337890625,34.87,0
-0.1498892158269882,-0.9341443181037904,0.2785526812076568,-6.481518268585205,4.860337257385254,67.14997863769531,34.87,0
-0.1465702354907989,-0.9297487139701844,0.2795190215110779,-7.985656261444092,4.858865261077881,67.14998626708984,34.87,0
-0.1500380784273147,-0.926927924156189,0.2745413780212402,-8.682231903076172,4.857920169830322,67.14999389648438,34.87,0
-0.1578613221645355,-0.9307154417037964,0.2713470160961151,-7.893265724182129,4.857314109802246,67.14999389648438,34.87,0
-0.1572840511798858,-0.933146059513092,0.2748948335647583,-5.631490707397461,4.856925010681152,67.14999389648438,34.87,0
-0.1513158231973648,-0.9403036832809448,0.2771716117858886,-2.84371280670166,4.84703540802002,67.14999389648438,34.87,0
-0.1418879777193069,-0.9337014555931092,0.2786327302455902,-0.6677592396736145,4.840688705444336,67.14999389648438,34.87,0
-0.1470332741737365,-0.9294645190238952,0.273972600698471,0.57100909948349,4.836615562438965,67.14999389648438,34.87,0
-0.1503352373838424,-0.9267455339431764,0.2709819972515106,1.4161354303359983,4.8340020179748535,67.14999389648438,34.87,0
-0.1524542421102523,-0.9250006079673768,0.2690628170967102,2.3704850673675537,4.832324504852295,67.14999389648438,34.87,0
-0.1538141071796417,-0.9294785857200624,0.2734289765357971,3.351937055587769,4.831248283386231,67.14999389648438,34.87,0
-0.1490890085697174,-0.9323523044586182,0.2706331312656402,4.02118444442749,4.830557346343994,67.14999389648438,34.87,0
-0.1460567116737365,-0.9341965317726136,0.2744367122650146,4.153315544128418,4.830113887786865,67.14999389648438,34.87,0
-0.1497085392475128,-0.9353800415992736,0.2712798416614532,3.82611346244812,4.818353176116943,67.22522735595703,34.87,0
-0.1520520597696304,-0.9361395239830016,0.2692539393901825,3.5659778118133545,4.810806274414063,67.27351379394531,34.87,0
-0.1591537743806839,-0.93662691116333,0.2679538428783417,3.889850616455078,4.805963039398193,67.30449676513672,34.87,0
-0.1637112498283386,-0.9369397163391112,0.2727172970771789,4.552680492401123,4.802855014801025,67.32437896728516,34.87,0
-0.1610382050275802,-0.9371404647827148,0.275774210691452,4.763092041015625,4.800860404968262,67.33714294433594,34.87,0
-0.1593227982521057,-0.9372692704200744,0.277735948562622,4.163693904876709,4.799580097198486,67.34532928466797,34.87,0
-0.152624174952507,-0.937351942062378,0.2789948880672455,3.0553548336029053,4.798758506774902,67.3505859375,34.87,0
-0.1483253836631775,-0.9318072199821472,0.2798027992248535,1.7852046489715576,4.79823112487793,67.35395812988281,34.87,0
-0.1455666571855545,-0.928248941898346,0.2747235000133514,0.3861356079578399,4.782285690307617,67.35612487792969,34.87,0
-0.1493940502405166,-0.925965428352356,0.2714639008045196,-1.2425518035888672,4.772052764892578,67.35751342773438,34.87,0
-0.1574480235576629,-0.930097758769989,0.2693720757961273,-3.007847309112549,4.765485763549805,67.35840606689453,34.87,0
-0.1626165956258773,-0.9327496886253356,0.2680296599864959,-4.610029697418213,4.7612714767456055,67.35897827148438,34.87,0
-0.1603357195854187,-0.9344515204429626,0.2727659344673157,-6.046631813049316,4.758566856384277,67.35934448242188,34.87,0
-0.158871978521347,-0.935543656349182,0.2758054137229919,-7.710153579711914,4.756831169128418,67.35958099365234,34.87,0
-0.1523348540067672,-0.936244547367096,0.2777559757232666,-9.530047416687012,4.755717277526856,67.35973358154297,34.87,0
-0.1537374854087829,-0.936694324016571,0.2790077328681946,-10.486577987670898,4.755002498626709,67.35983276367188,34.87,0
-0.1546376198530197,-0.9369829893112184,0.2742132544517517,-9.656646728515623,4.738018035888672,67.35989379882812,34.84,0
-0.1552152633666992,-0.9371682405471802,0.2711364328861236,-7.236026763916016,4.727118492126465,67.35993194580078,34.84,0
-0.1555859595537185,-0.9372870922088624,0.2747596800327301,-4.06328821182251,4.720123767852783,67.35995483398438,34.84,0
-0.1558238565921783,-0.9373633861541748,0.2770848870277405,-0.8736180067062378,4.715634822845459,67.35997009277344,34.84,0
-0.1559765189886093,-0.9374123215675354,0.27857705950737,1.7823667526245115,4.712754249572754,67.35997772216797,34.84,0
-0.1560744941234588,-0.937443733215332,0.2795346677303314,3.5692241191864014,4.7109055519104,67.3599853515625,34.84,0
-0.1505395919084549,-0.9318661093711852,0.2745514214038849,4.48664140701294,4.709719181060791,67.35999298095703,34.84,0
-0.1469876170158386,-0.9282867312431335,0.2713534533977508,4.8317718505859375,4.708957672119141,67.35999298095703,34.84,0
-0.1503059417009353,-0.9259896874427797,0.2693012058734894,4.945779323577881,4.695156574249268,67.35999298095703,34.84,0
-0.1524354517459869,-0.9301133155822754,0.2679841816425323,5.044020652770996,4.686299800872803,67.35999298095703,34.84,0
-0.1538020372390747,-0.9327596426010132,0.2671389877796173,5.20737886428833,4.6806159019470215,67.35999298095703,34.84,0
-0.1490812599658966,-0.9344578981399536,0.2665965855121612,5.423272609710693,4.676968574523926,67.35999298095703,34.84,0
-0.1460517346858978,-0.9355477690696716,0.266248494386673,5.515246868133545,4.674627780914307,67.35999298095703,34.84,0
-0.1441075652837753,-0.936247169971466,0.2660251259803772,5.208847999572754,4.673125743865967,67.35999298095703,34.84,0
-0.1484576910734176,-0.9366959929466248,0.2658817768096924,4.478415489196777,4.67216157913208,67.35999298095703,34.84,0
-0.151249349117279,-0.9369840621948242,0.2657897770404815,3.486609697341919,4.671543121337891,67.35999298095703,34.84,0
-0.1586386412382125,-0.9371688961982728,0.2657307386398315,2.2088449001312256,4.6550798416137695,67.42806243896484,34.84,0
-0.1577828973531723,-0.9316897392272948,0.2712906301021576,0.5218655467033386,4.644514560699463,67.47174835205078,34.84,0
-0.1572337299585342,-0.9281735420227052,0.2748586535453796,-1.3059163093566897,4.637734413146973,67.49978637695312,34.84,0
-0.1624790728092193,-0.9259170293807985,0.2771483957767486,-2.690253496170044,4.633383274078369,67.51777648925781,34.84,0
-0.1658452302217483,-0.9244689345359802,0.2730200588703155,-3.4783291816711426,4.630590915679932,67.5293197631836,34.84,0
-0.1680054366588592,-0.929137408733368,0.2703707218170166,-4.285007476806641,4.628798961639404,67.53672790527344,34.84,0
-0.1637939661741256,-0.9321333765983582,0.2742682993412018,-5.705495834350586,4.627648830413818,67.5414810180664,34.84,0
-0.1610912829637527,-0.9340559840202332,0.2767695486545563,-7.229703903198242,4.62691068649292,67.5445327758789,34.84,0
-0.148161306977272,-0.9352898001670836,0.2783747017383575,-7.545076370239258,4.617256164550781,67.54649353027344,34.84,0
-0.1398635953664779,-0.9360816478729248,0.2794047892093658,-5.923933506011963,4.611060619354248,67.5477523803711,34.84,0
-0.1345386058092117,-0.9309920072555542,0.2744680643081665,-2.794935703277588,4.60708475112915,67.5485610961914,34.84,0
-0.1367191076278686,-0.9221280217170716,0.2712999582290649,0.8646421432495117,4.6045331954956055,67.54907989501953,34.84,0
-0.1437162011861801,-0.9164395928382874,0.2692668735980987,4.083714485168457,4.602895736694336,67.54940795898438,34.84,0
-0.1538043022155761,-0.9183868765830994,0.2735599279403686,6.242676734924316,4.601844787597656,67.54962158203125,34.84,0
-0.1546804904937744,-0.925234317779541,0.2763149440288543,7.520697593688965,4.601170539855957,67.54975891113281,34.84,0
-0.1496450006961822,-0.9352263808250428,0.2836807370185852,8.688366889953613,4.600737571716309,67.54984283447266,34.84,0
-0.1464135199785232,-0.941638708114624,0.2828099131584167,10.03241729736328,4.593115329742432,67.5499038696289,34.84,0
-0.1443397402763366,-0.9401559829711914,0.2822510600090027,10.862709045410156,4.588223457336426,67.54994201660156,34.84,0
-0.1430089026689529,-0.9336066842079164,0.2818924188613891,10.489151000976562,4.585084438323975,67.54996490478516,34.84,0
-0.1421548575162887,-0.9294037222862244,0.281662255525589,9.260631561279297,4.583069801330566,67.54998016357422,34.84,0
-0.1416067779064178,-0.9323042631149292,0.2815145552158355,8.1426420211792,4.581777095794678,67.54998779296875,34.84,0
-0.1412550508975982,-0.93416565656662,0.2870175540447235,7.525492668151855,4.580947399139404,67.54999542236328,34.84,0
-0.1410293281078338,-0.9297624230384828,0.2849512696266174,7.004051685333252,4.580414772033691,67.54999542236328,34.84,0
-0.1408844739198684,-0.926936686038971,0.2836252748966217,6.096208572387695,4.58007287979126,67.54999542236328,34.84,0
-0.1407915204763412,-0.9251232743263244,0.2827743291854858,4.610797882080078,4.572968006134033,67.54999542236328,34.84,0
-0.140731856226921,-0.9239595532417296,0.2878260016441345,2.636512756347656,4.568408489227295,67.54999542236328,34.84,0
-0.1462913453578949,-0.9288105368614196,0.2854700982570648,0.4846341907978058,4.5654826164245605,67.54999542236328,34.84,0
-0.1498591154813766,-0.9263258576393129,0.283958226442337,-1.5447638034820557,4.563604831695557,67.54999542236328,34.84,0
-0.1521486937999725,-0.9247313141822816,0.2829879820346832,-3.4489872455596924,4.562399864196777,67.54999542236328,34.84,0
-0.1536180227994918,-0.9237080216407776,0.2823653221130371,-5.426931858062744,4.561626434326172,67.54999542236328,34.84,0
-0.1545609533786773,-0.9230513572692872,0.2819657623767853,-7.5202555656433105,4.561130046844482,67.54999542236328,34.84,0
-0.1551660597324371,-0.9226298928260804,0.2817093431949615,-9.533571243286133,4.560811519622803,67.54999542236328,34.84,0
-0.1555543839931488,-0.9223594665527344,0.2815447747707367,-11.348657608032228,4.5546393394470215,67.63956451416016,34.84,0
-0.1502058207988739,-0.9221858978271484,0.2814391553401947,-12.864567756652832,4.550678253173828,67.6970443725586,34.84,0
-0.146773412823677,-0.927672266960144,0.2813713848590851,-13.46838665008545,4.548136234283447,67.73393249511719,34.84,0
-0.1445706933736801,-0.9311931133270264,0.2813279032707214,-12.215063095092772,4.546504974365234,67.75760650634766,34.84,0
-0.1431571245193481,-0.933452606201172,0.2813000082969665,-9.057000160217283,4.5454583168029785,67.77279663085938,34.84,0
-0.1422499716281891,-0.9349026083946228,0.2756843268871307,-5.2533793449401855,4.54478645324707,67.78254699707031,34.84,0
-0.1416678130626678,-0.9358331561088562,0.2776782810688019,-2.052928686141968,4.544355392456055,67.78880310058594,34.84,0
-0.1412942111492157,-0.9364303350448608,0.2789578735828399,0.3269508779048919,4.544078826904297,67.79281616210938,34.84,0
-0.1410544663667678,-0.9368135333061218,0.2797790467739105,2.2196431159973145,4.535179615020752,67.7953872680664,34.84,0
-0.1464983820915222,-0.9314616918563844,0.2747082412242889,3.7244527339935294,4.529468536376953,67.79704284667969,34.84,0
-0.149991974234581,-0.9280272126197816,0.2714540958404541,4.801212787628174,4.525803565979004,67.79810333251953,34.84,0
-0.1466361880302429,-0.931420922279358,0.2693657875061035,5.54953670501709,4.523451328277588,67.79878234863281,34.84,0
-0.1444826275110244,-0.933598816394806,0.2680256366729736,5.965281486511231,4.521941661834717,67.7992172241211,34.84,0
-0.1431006044149398,-0.9349964261054992,0.2727633714675903,5.913233280181885,4.520973205566406,67.79949951171875,34.84,0
-0.1422137022018432,-0.9414911270141602,0.2758037745952606,5.686372756958008,4.520351409912109,67.7996826171875,34.84,0
-0.141644537448883,-0.9400612711906432,0.277754932641983,5.859635829925537,4.519952297210693,67.79979705810547,34.84,0
-0.1412792801856994,-0.9391436576843262,0.2734093070030212,6.30758810043335,4.512810707092285,67.79987335205078,34.91,0
-0.1410448849201202,-0.9329570531845092,0.2706205248832702,6.2081403732299805,4.508227825164795,67.79991912841797,34.91,0
-0.1464922279119491,-0.934584617614746,0.2688308358192444,5.252258777618408,4.505286693572998,67.7999496459961,34.91,0
-0.1443902552127838,-0.9356290698051452,0.2676823139190674,3.943809509277344,4.50339937210083,67.79997253417969,34.91,0
-0.1430413275957107,-0.9362993240356444,0.2669452726840973,2.624056816101074,4.502188205718994,67.79998016357422,34.91,0
-0.1421756595373153,-0.9367294907569884,0.272070050239563,1.1000087261199951,4.501410961151123,67.79998779296875,34.91,0
-0.1416201293468475,-0.9370055198669434,0.2697610557079315,-0.6662042140960693,4.500912189483643,67.79999542236328,34.91,0
-0.1412636190652847,-0.9371826648712158,0.2738770544528961,-2.136420249938965,4.50059175491333,67.79999542236328,34.91,0
-0.1410348266363144,-0.9316985607147216,0.2765184640884399,-2.8076443672180176,4.49258279800415,67.79999542236328,34.91,0
-0.1408880054950714,-0.9281792044639589,0.2782135605812073,-2.8478965759277344,4.487442970275879,67.79999542236328,34.91,0
-0.1463915556669235,-0.9315184354782104,0.2793013751506805,-2.8522326946258545,4.484144687652588,67.79999542236328,34.91,0
-0.1499234139919281,-0.93366140127182,0.2799994945526123,-3.20969033241272,4.482028007507324,67.79999542236328,34.91,0
-0.1521899551153183,-0.935036599636078,0.2804474830627441,-3.761518001556397,4.480669498443604,67.79999542236328,34.91,0
-0.1480467170476913,-0.9303213357925416,0.2751372158527374,-3.714400768280029,4.479797840118408,67.79999542236328,34.91,0
-0.1453878283500671,-0.9272953867912292,0.2717293798923492,-2.0648393630981445,4.479238510131836,67.79999542236328,34.91,0
-0.1436815112829208,-0.925353467464447,0.2751402258872986,1.336758375167847,4.478879451751709,67.79999542236328,34.91,0
-0.1425864994525909,-0.9241072535514832,0.2773290872573852,5.27517032623291,4.472222328186035,67.81432342529297,34.91,0
-0.1474815458059311,-0.9233075380325316,0.2787337899208069,8.22177791595459,4.467949867248535,67.82352447509766,34.91,0
-0.1450251340866089,-0.9227943420410156,0.2796352505683899,9.715075492858888,4.465208053588867,67.82942199707031,34.91,0
-0.1434487551450729,-0.9224649667739868,0.2802137434482574,10.286469459533691,4.463448524475098,67.83321380615234,34.91,0
-0.1424371302127838,-0.927851378917694,0.2805849909782409,10.31997776031494,4.462319374084473,67.83563995361328,34.91,0
-0.1417879164218902,-0.931308090686798,0.2808232307434082,9.72169589996338,4.461595058441162,67.83720397949219,34.91,0
-0.1413712948560714,-0.9335263967514038,0.2809761166572571,8.427778244018555,4.461130142211914,67.83820343017578,34.91,0
-0.1411039233207702,-0.9349499940872192,0.2810742259025574,6.694607734680176,4.460831642150879,67.8388442993164,34.91,0
-0.1409323513507843,-0.9358635544776917,0.2811371982097626,4.873008728027344,4.458344459533691,67.8392562866211,34.91,0
-0.1408222466707229,-0.9308520555496216,0.2811776101589203,3.2490241527557373,4.4567484855651855,67.83952331542969,34.91,0
-0.1407515853643417,-0.9276359677314758,0.2812035381793976,1.984724521636963,4.455724239349365,67.83969116210938,34.91,0
-0.1463040113449096,-0.9311698079109192,0.2812201976776123,0.961997926235199,4.455067157745361,67.83979797363281,34.91,0
-0.1554650068283081,-0.9334376454353333,0.2812308669090271,-0.1421511173248291,4.454645156860352,67.8398666381836,34.91,0
-0.1557462364435196,-0.934893012046814,0.2812377214431762,-1.520672082901001,4.45437479019165,67.83991241455078,34.91,0
-0.1503289341926574,-0.9358269572257996,0.2756443321704864,-2.9606268405914307,4.4542012214660645,67.8399429321289,34.91,0
-0.146852433681488,-0.9364263415336608,0.2720548212528229,-4.0781660079956055,4.454089641571045,67.8399658203125,34.91,0
-0.1390236318111419,-0.9312132000923156,0.2753490507602691,-4.874155044555664,4.447132587432861,67.83997344970703,34.87,0
-0.1395973414182663,-0.9278677105903624,0.2718653380870819,-5.635755062103272,4.4426679611206055,67.83998107910156,34.87,0
-0.1455632895231247,-0.9313185214996338,0.2696296870708465,-6.196157455444336,4.439802646636963,67.8399887084961,34.87,0
-0.1437941044569015,-0.9335330724716188,0.2681949734687805,-5.928840637207031,4.437963962554932,67.8399887084961,34.87,0
-0.1426587551832199,-0.9349542260169984,0.267274260520935,-4.807909965515137,4.436783790588379,67.8399887084961,34.87,0
-0.1419301480054855,-0.941464066505432,0.2722811698913574,-3.88077163696289,4.436026573181152,67.8399887084961,34.87,0
-0.1414625644683838,-0.9456416964530944,0.269896537065506,-4.138440608978272,4.435540676116943,67.8399887084961,34.87,0
-0.1411624997854232,-0.9483226537704468,0.2683662176132202,-4.970156669616699,4.435228824615479,67.8399887084961,34.87,0
-0.1409699320793151,-0.9444453716278076,0.2673841416835785,-4.461374759674072,4.4297380447387695,67.8399887084961,34.87,0
-0.1408463567495346,-0.9419571161270142,0.2667539119720459,-1.4694316387176514,4.426214694976807,67.8399887084961,34.87,0
-0.1407670527696609,-0.9347625374794006,0.2663494646549225,3.169800043106079,4.423953533172607,67.8399887084961,34.87,0
-0.1407161653041839,-0.930145502090454,0.266089916229248,7.730490207672119,4.422502517700195,67.8399887084961,34.87,0
-0.140683501958847,-0.9271825551986694,0.2659233510494232,11.05494499206543,4.421571254730225,67.8399887084961,34.87,0
-0.1406625360250473,-0.9308788776397704,0.2658164501190185,12.85879135131836,4.420973300933838,67.8399887084961,34.87,0
-0.1406490951776504,-0.9332509636878968,0.2657478749752044,13.414523124694824,4.420589923858643,67.8399887084961,34.87,0
-0.1462382376194,-0.9403709769248962,0.2657038569450378,13.068975448608398,4.42034387588501,67.8399887084961,34.87,0
-0.1498250216245651,-0.9449402093887328,0.2656756043434143,11.711545944213867,4.418808937072754,67.88656616210938,34.87,0
-0.1465290486812591,-0.9478724598884584,0.2656574845314026,9.027643203735352,4.417823791503906,67.91645812988281,34.87,0
-0.144413873553276,-0.949754238128662,0.2600480616092682,5.485320568084717,4.417191505432129,67.93563842773438,34.87,0
-0.1374587118625641,-0.9453640580177308,0.2564482688903808,2.556450128555298,4.416785717010498,67.94795227050781,34.87,0
-0.1385930627584457,-0.9369489550590516,0.2597359120845794,1.5366878509521484,4.416525363922119,67.95584869384766,34.87,0
-0.1393210142850875,-0.9315485954284668,0.2674435079097748,2.265137195587158,4.416358470916748,67.96092224121094,34.87,0
-0.1397881805896759,-0.9280829429626464,0.2723897993564605,3.298661231994629,4.416251182556152,67.96417236328125,34.87,0
-0.1400879770517349,-0.9314566850662231,0.2699662446975708,3.266897678375244,4.416182518005371,67.96626281738281,34.87,0
-0.1458781510591507,-0.9336217641830444,0.2684109508991241,1.7669098377227783,4.4129252433776855,67.96760559082031,34.87,0
-0.1439961642026901,-0.9350111484527588,0.2674128711223602,-0.8938366174697876,4.410834789276123,67.96846008300781,34.87,0
-0.1427884250879287,-0.935902774333954,0.2667723596096039,-4.149023056030273,4.409493446350098,67.96900939941406,34.87,0
-0.1420133560895919,-0.9364749789237976,0.2663612961769104,-7.294874668121338,4.408632278442383,67.96936798095703,34.87,0
-0.1471137404441833,-0.9368422031402588,0.2660975158214569,-9.657628059387209,4.408079624176025,67.96959686279297,34.87,0
-0.1447890996932983,-0.9370778799057008,0.2659282386302948,-11.113003730773926,4.4077253341674805,67.96974182128906,34.87,0
-0.1488950550556183,-0.9372290968894958,0.2658196091651916,-12.186699867248535,4.407497882843018,67.96983337402344,34.87,0
-0.1459322422742843,-0.9373261332511902,0.2657499015331268,-13.259072303771973,4.407351970672607,67.96989440917969,34.87,0
-0.1440308839082718,-0.9317906498908995,0.2657051682472229,-13.872025489807127,4.40083122253418,67.96993255615234,34.87,0
-0.1428107023239135,-0.933836042881012,0.2656764388084411,-13.30167007446289,4.396646499633789,67.96995544433594,34.87,0
-0.142027661204338,-0.9351486563682556,0.2656580209732055,-11.28408145904541,4.393961429595947,67.969970703125,34.87,0
-0.1415251493453979,-0.9359910488128662,0.2656461894512176,-7.96515417098999,4.392238140106201,67.96997833251953,34.87,0
-0.1412026584148407,-0.936531662940979,0.2656385898590088,-3.8612585067749023,4.391132354736328,67.96998596191406,34.87,0
-0.1465934813022613,-0.9368785619735718,0.2656337320804596,-0.0417819581925869,4.390422344207764,67.9699935913086,34.87,0
-0.150053009390831,-0.937101185321808,0.2656306028366089,2.5848844051361084,4.38996696472168,67.9699935913086,34.87,0
-0.1522731333971023,-0.9372440576553344,0.2656286060810089,4.195293426513672,4.389674663543701,67.9699935913086,34.87,0
-0.1536978781223297,-0.937335729598999,0.2656273245811462,5.5225324630737305,4.387650966644287,67.9699935913086,34.87,0
-0.149014413356781,-0.9317967891693116,0.2656264901161194,6.556989669799805,4.3863525390625,67.9699935913086,34.87,0
-0.1460088491439819,-0.933840036392212,0.2656259536743164,6.543737888336182,4.385519027709961,67.9699935913086,34.87,0
-0.1496778130531311,-0.935151219367981,0.2656256258487701,5.352983474731445,4.384984016418457,67.9699935913086,34.87,0
-0.1520323455333709,-0.9359926581382751,0.265625387430191,4.065770149230957,4.384640693664551,67.9699935913086,34.87,0
-0.1535433530807495,-0.9365326762199402,0.2656252384185791,3.65887188911438,4.384420394897461,67.9699935913086,34.87,0
-0.1489152610301971,-0.9368792176246644,0.2656251490116119,3.892143487930298,4.384279251098633,67.9699935913086,34.87,0
-0.151542991399765,-0.9371016025543212,0.2656250894069671,4.220972537994385,4.384188652038574,67.9699935913086,34.87,0
-0.1532293111085891,-0.9372443556785583,0.2656250596046448,4.55738639831543,4.386884689331055,68.02373504638672,34.87,0
-0.1487137228250503,-0.937335968017578,0.2656250298023224,4.572652816772461,4.388614654541016,68.05821990966797,34.87,0
-0.1458158791065216,-0.9373947381973268,0.2656250298023224,3.744127511978149,4.389725208282471,68.08035278320312,34.87,0
-0.1439562141895294,-0.9374324679374696,0.2656250298023224,2.234384536743164,4.390437602996826,68.09455871582031,34.87,0
-0.1427627801895141,-0.9374566674232484,0.2656250298023224,0.4666040241718292,4.390894889831543,68.10367584228516,34.87,0
-0.1419969052076339,-0.93747216463089,0.2656250298023224,-1.7247157096862793,4.391188144683838,68.10952758789062,34.87,0
-0.1415054053068161,-0.9374821186065674,0.2656250298023224,-4.449366092681885,4.391376495361328,68.11328125,34.87,0
-0.1411899924278259,-0.9374884963035583,0.2656250298023224,-7.0218825340271,4.391497611999512,68.11569213867188,34.87,0
-0.1465853601694107,-0.931894838809967,0.2656250298023224,-8.536637306213379,4.396624565124512,68.11723327636719,34.87,0
-0.1500477939844131,-0.93390291929245,0.2656250298023224,-8.828030586242676,4.399914741516113,68.11822509765625,34.87,0
-0.1522697806358337,-0.935191571712494,0.2656250298023224,-8.391661643981934,4.402026176452637,68.11885833740234,34.87,0
-0.1536957174539566,-0.9360185861587524,0.2656250298023224,-7.36286735534668,4.403380870819092,68.11927032470703,34.87,0
-0.1490130275487899,-0.9365493059158324,0.2656250298023224,-5.094069480895996,4.404250621795654,68.1195297241211,34.87,0
-0.1516057252883911,-0.9368898868560792,0.2656250298023224,-1.3201595544815063,4.404808521270752,68.11969757080078,34.87,0
-0.1532695740461349,-0.9371084570884703,0.2656250298023224,3.029144525527954,4.4051666259765625,68.11980438232422,34.87,0
-0.1543373316526413,-0.931650936603546,0.2656250298023224,6.733834266662598,4.405396461486816,68.119873046875,34.87,0
-0.1550225615501403,-0.928148627281189,0.2656250298023224,9.258176803588867,4.439972400665283,68.11991882324219,34.84,0
-0.1554622948169708,-0.9314988255500792,0.2656250298023224,10.595130920410156,4.462161064147949,68.11994934082031,34.84,0
-0.1501467227935791,-0.9336487650871276,0.2656250298023224,11.055444717407228,4.476400852203369,68.1199722290039,34.84,0
-0.1467354893684387,-0.9350284934043884,0.2656250298023224,11.085737228393556,4.485538959503174,68.11997985839844,34.84,0
-0.1445463597774505,-0.9359139204025269,0.2656250298023224,10.926048278808594,4.491403102874756,68.11998748779297,34.84,0
-0.143141508102417,-0.9420799016952516,0.2656250298023224,10.493972778320312,4.495166301727295,68.1199951171875,34.84,0
-0.1422399431467056,-0.9404391050338744,0.2656250298023224,9.596905708312988,4.497581481933594,68.1199951171875,34.84,0
-0.1416613757610321,-0.9337883591651917,0.2656250298023224,8.2724609375,4.499131202697754,68.1199951171875,34.84,0
-0.141290083527565,-0.929520308971405,0.2656250298023224,6.856462001800537,4.561637878417969,68.1199951171875,34.84,0
-0.1410518139600753,-0.9323790669441224,0.2656250298023224,5.471272945404053,4.601751327514648,68.1199951171875,34.84,0
-0.1408988982439041,-0.928615927696228,0.2656250298023224,3.7726759910583496,4.627493858337402,68.1199951171875,34.84,0
-0.1463985443115234,-0.9317986965179444,0.2656250298023224,1.6651628017425537,4.64401388168335,68.1199951171875,34.84,0
-0.1443301290273666,-0.9338412284851074,0.2656250298023224,-0.4074155688285827,4.65461540222168,68.1199951171875,34.84,0
-0.1430027335882187,-0.935151994228363,0.2656250298023224,-2.2784459590911865,4.661418914794922,68.1199951171875,34.84,0
-0.147748664021492,-0.935993194580078,0.2656250298023224,-4.396304607391357,4.66578483581543,68.1199951171875,34.84,0
-0.1507943272590637,-0.930935263633728,0.2656250298023224,-7.048734664916992,4.668586730957031,68.1199951171875,34.84,0
-0.1527488678693771,-0.9276893734931946,0.2656250298023224,-9.771944999694824,4.737405776977539,68.17015075683594,34.84,0
-0.1484054028987884,-0.931204080581665,0.2656250298023224,-11.86347198486328,4.781569957733154,68.20233917236328,34.84,0
-0.1456180214881897,-0.9334596395492554,0.2656250298023224,-13.137624740600586,4.809912204742432,68.2229995727539,34.84,0
-0.1438292264938354,-0.9349071383476256,0.2656250298023224,-13.801252365112305,4.828100681304932,68.23625946044922,34.84,0
-0.142681285738945,-0.9358360767364502,0.2656250298023224,-13.958436965942385,4.839772701263428,68.24476623535156,34.84,0
-0.1419446021318435,-0.930834412574768,0.2656250298023224,-13.801363945007324,4.847263336181641,68.2502212524414,34.84,0
-0.1470696181058883,-0.9332224130630492,0.2656250298023224,-13.453365325927734,4.852070331573486,68.25372314453125,34.84,0
-0.1503585577011108,-0.9291571378707886,0.2656250298023224,-12.072868347167969,4.855154991149902,68.25597381591797,34.84,0
-0.1524692177772522,-0.9321460127830504,0.2656250298023224,-8.517925262451172,4.9048752784729,68.25741577148438,34.84,0
-0.1482259333133697,-0.9340640902519226,0.2656250298023224,-3.359759569168091,4.936782836914063,68.25833892822266,34.84,0
-0.1455028355121612,-0.935295045375824,0.2656250298023224,1.4264752864837646,4.957259654998779,68.2589340209961,34.84,0
-0.1437553167343139,-0.9360849857330322,0.2656250298023224,4.727290153503418,4.970400333404541,68.25931549072266,34.84,0
-0.142633855342865,-0.9365919232368468,0.2656250298023224,6.802572250366211,4.978833198547363,68.25955963134766,34.84,0
-0.1419141739606857,-0.936917245388031,0.2656250298023224,8.0806303024292,4.9842448234558105,68.25971984863281,34.84,0
-0.1414523124694824,-0.9371260404586792,0.2656250298023224,8.653616905212402,4.987717628479004,68.25981903076172,34.84,0
-0.1411559283733368,-0.9372600317001344,0.2656250298023224,8.516183853149414,4.989946365356445,68.2598876953125,34.84,0
-0.1465635001659393,-0.9317482113838196,0.2656250298023224,7.611159324645996,5.02742338180542,68.25992584228516,34.84,0
-0.1500337570905685,-0.9282110333442688,0.2656250298023224,5.919768333435059,5.051474094390869,68.25995635986328,34.84,0
-0.1522607803344726,-0.9315388798713684,0.2656250298023224,3.806131601333618,5.066908359527588,68.25997161865234,34.84,0
-0.1536899507045745,-0.9336745142936708,0.2656250298023224,2.15236759185791,5.076813220977783,68.25997924804688,34.84,0
-0.1546071022748947,-0.9350450038909912,0.2656250298023224,1.7144452333450315,5.083169460296631,68.2599868774414,34.84,0
-0.1495979130268097,-0.9359245300292968,0.2656250298023224,2.286064863204956,5.087248802185059,68.25999450683594,34.84,0
-0.1519810706377029,-0.936488926410675,0.2656250298023224,2.9144253730773926,5.089866638183594,68.25999450683594,34.84,0
-0.1479126662015915,-0.9368511438369752,0.2656250298023224,2.819693088531494,5.091546535491943,68.25999450683594,34.84,0
-0.145301803946495,-0.9370836019515992,0.2656250298023224,1.7056220769882202,5.100428581237793,68.25999450683594,34.84,0
-0.1436263024806976,-0.937232792377472,0.2656250298023224,-0.4710154831409454,5.106128692626953,68.25999450683594,34.84,0
-0.1425510644912719,-0.9373285174369812,0.2656250298023224,-3.257895469665528,5.109786510467529,68.25999450683594,34.84,0
-0.1418610364198684,-0.9373899698257446,0.2656250298023224,-5.576575756072998,5.112133979797363,68.25999450683594,34.84,0
-0.1414182186126709,-0.9374293684959412,0.2656250298023224,-6.426872730255127,5.113640308380127,68.25999450683594,34.84,0
-0.146731823682785,-0.9374547004699708,0.2656250298023224,-5.8368682861328125,5.114607334136963,68.25999450683594,34.84,0
-0.1501417756080627,-0.9374709129333496,0.2600272595882416,-4.756052494049072,5.115227699279785,68.25999450683594,34.84,0
-0.1467323154211044,-0.9374813437461852,0.2564349174499511,-4.030203819274902,5.115625858306885,68.25999450683594,34.84,0
-0.144544318318367,-0.9374880194664,0.254129558801651,-3.779350519180298,5.106241226196289,68.3208999633789,34.84,0
-0.1431401968002319,-0.937492311000824,0.2582478821277618,-3.5610461235046387,5.100218772888184,68.3599853515625,34.84,0
-0.1422391086816787,-0.9374950528144836,0.2552930116653442,-2.6184539794921875,5.096354007720947,68.38507080078125,34.84,0
-0.1472586095333099,-0.9374968409538268,0.2589945197105407,-0.2724207043647766,5.093873500823975,68.40116882324219,34.84,0
-0.1504798382520675,-0.9374979734420776,0.2613699436187744,3.250118494033813,5.092281818389893,68.4114990234375,34.84,0
-0.1525470465421676,-0.9374986886978148,0.2628943622112274,6.556793212890625,5.0912604331970215,68.41812896728516,34.84,0
-0.1482758820056915,-0.943096935749054,0.2638726234436035,8.245335578918457,5.090604782104492,68.42237854003906,34.84,0
-0.1455349028110504,-0.941091775894165,0.2645004391670227,8.164608001708984,5.090184211730957,68.42510986328125,34.84,0
-0.1493736654520034,-0.9398049712181092,0.2593055367469787,7.145505905151367,5.07797908782959,68.42686462402344,34.84,0
-0.1462393850088119,-0.9389792084693908,0.255971759557724,5.91112756729126,5.070146560668945,68.42798614501953,34.84,0
-0.144227996468544,-0.9384492635726928,0.2594301104545593,4.757134437561035,5.065120220184326,68.4287109375,34.84,0
-0.1429371982812881,-0.9325113892555236,0.261649489402771,3.998655080795288,5.061894416809082,68.4291763305664,34.84,0
-0.1421088427305221,-0.9287008047103882,0.2630737423896789,3.9489808082580566,5.059824466705322,68.42947387695312,34.84,0
-0.1471750140190124,-0.931853175163269,0.2639877498149872,4.246699810028076,5.058495998382568,68.4296646118164,34.84,0
-0.1504261940717697,-0.9338762164115906,0.2645743191242218,3.832303285598755,5.057643413543701,68.4297866821289,34.84,0
-0.1525126099586486,-0.9351744651794434,0.2649507224559784,2.0760161876678467,5.057096481323242,68.42986297607422,34.84,0
-0.1538515537977218,-0.9360076189041138,0.265192300081253,-0.4303596317768097,5.038383483886719,68.4299087524414,34.84,0
-0.1547108143568039,-0.936542272567749,0.2653473317623138,-2.6980011463165283,5.026374340057373,68.42993927001953,34.84,0
-0.1552622318267822,-0.9368853569030762,0.2654468119144439,-4.432683944702148,5.018667697906494,68.42996215820312,34.84,0
-0.1500183343887329,-0.9371055364608764,0.2599128782749176,-5.868335247039795,5.013721942901611,68.42997741699219,34.84,0
-0.1466531008481979,-0.9372468590736388,0.2619592845439911,-7.172989368438721,5.010548114776611,68.42998504638672,34.84,0
-0.1444934904575348,-0.9317397475242616,0.2632725536823272,-8.393576622009277,5.008511066436768,68.42999267578125,34.84,0
-0.1487053483724594,-0.9282056093215942,0.2641153335571289,-9.377503395080566,5.007204055786133,68.42999267578125,34.84,0
-0.1514082700014114,-0.9259375929832458,0.2646561861038208,-9.754568099975586,5.0063652992248535,68.42999267578125,34.84,0
-0.1531428545713424,-0.9300799369812012,0.2650032639503479,-9.555890083312988,4.986546993255615,68.42999267578125,34.84,0
-0.1542560160160064,-0.9327382445335388,0.2652260065078735,-9.492876052856444,4.9738287925720215,68.42999267578125,34.84,0
-0.1549703776836395,-0.9344441890716552,0.2653689384460449,-10.072222709655762,4.965667247772217,68.42999267578125,34.84,0
-0.1554288119077682,-0.9355389475822448,0.2654606699943542,-10.61956024169922,4.960429191589356,68.42999267578125,34.84,0
-0.1557230055332183,-0.9362415075302124,0.2655195295810699,-9.648839950561523,4.957067966461182,68.42999267578125,34.84,0
-0.1503140330314636,-0.9366923570632936,0.2655573189258575,-6.428520202636719,4.954910755157471,68.42999267578125,34.84,0
-0.1468428671360016,-0.9369816780090332,0.2655815780162811,-1.918587684631348,4.953526496887207,68.42999267578125,34.84,0
-0.1502130478620529,-0.9371673464775084,0.2599993646144867,2.3119282722473145,4.952638149261475,68.42999267578125,34.84,0
-0.1467780619859695,-0.9372864961624146,0.2564170062541961,5.589293956756592,4.924525260925293,68.48373413085938,34.84,0
-0.1445736736059188,-0.9373629689216614,0.2597158253192901,7.997037887573242,4.906484127044678,68.51821899414062,34.84,0
-0.1431590318679809,-0.9374120831489564,0.2618328332901001,9.538606643676758,4.894906044006348,68.54035186767578,34.84,0
-0.1422511935234069,-0.9374435544013976,0.2631914019584656,10.191134452819824,4.887475967407227,68.55455780029297,34.84,0
-0.1416686028242111,-0.9430615305900574,0.2640632688999176,10.083250999450684,4.8827080726623535,68.56367492675781,34.84,0
-0.1412947177886963,-0.9410690665245056,0.2590250074863434,9.204355239868164,4.879648208618164,68.56952667236328,34.84,0
-0.1410547792911529,-0.939790427684784,0.2613894939422607,7.454498291015625,4.877684593200684,68.57328033447266,34.84,0
-0.1409008055925369,-0.9389698505401612,0.2573091089725494,5.353497505187988,4.876424312591553,68.57569122314453,34.84,0
-0.1408019959926605,-0.9384432435035706,0.254690557718277,4.058934688568115,4.856335639953613,68.57723236083984,34.84,0
-0.1463363617658615,-0.9381053447723388,0.2530101239681244,3.9590041637420654,4.843443870544434,68.5782241821289,34.84,0
-0.1498879939317703,-0.937888503074646,0.2519317269325256,3.873379230499268,4.835170745849609,68.578857421875,34.84,0
-0.1521672308444976,-0.9377493262290956,0.2568374574184418,2.5394504070281982,4.829861640930176,68.57926940917969,34.84,0
-0.1536299139261245,-0.9376599788665771,0.2599856555461883,0.1285739690065384,4.826454639434815,68.57952880859375,34.84,0
-0.1489708125591278,-0.9376026391983032,0.2620059847831726,-2.6008377075195312,4.824267864227295,68.57969665527344,34.84,0
-0.140383094549179,-0.9375658631324768,0.2633025348186493,-5.5024237632751465,4.822864532470703,68.57980346679688,34.84,0
-0.1348719894886016,-0.9375422596931458,0.2585368156433105,-8.31387710571289,4.821964263916016,68.57987213134766,34.84,0
-0.1369330435991287,-0.9375271201133728,0.2554784417152405,-10.032124519348145,4.802106380462647,68.57991790771484,34.83,0
-0.143853485584259,-0.9431151747703552,0.2591135203838348,-10.077937126159668,4.78936243057251,68.57994842529297,34.83,0
-0.1426968574523925,-0.9467012882232666,0.2614462971687317,-9.14004135131836,4.781184196472168,68.57997131347656,34.83,0
-0.1419546008110046,-0.9434048533439636,0.2629433572292328,-8.255130767822266,4.775936126708984,68.5799789428711,34.83,0
-0.1414782553911209,-0.9412893652915956,0.2639040648937225,-7.891452312469482,4.772568225860596,68.57998657226562,34.83,0
-0.1467703431844711,-0.9343340396881104,0.2645206153392792,-8.102303504943848,4.770406723022461,68.57999420166016,34.83,0
-0.1501664966344833,-0.9298704862594604,0.2649162709712982,-8.459735870361328,4.769019603729248,68.57999420166016,34.83,0
-0.1523459553718567,-0.9270060658454896,0.2707679569721222,-7.671663761138916,4.768129348754883,68.57999420166016,34.83,0
-0.1537446081638336,-0.9307655692100524,0.2745232284069061,-4.643791198730469,4.7482781410217285,68.57999420166016,34.83,0
-0.154642179608345,-0.9331782460212708,0.2713353633880615,-0.0961444452404975,4.735538959503174,68.57999420166016,34.83,0
-0.1552181988954544,-0.9347265362739564,0.2692895829677582,4.086922645568848,4.727363586425781,68.57999420166016,34.83,0
-0.1555878520011901,-0.9301223754882812,0.2679767310619354,7.022154331207275,4.722116947174072,68.57999420166016,34.83,0
-0.1558250784873962,-0.9327654838562012,0.2671342194080353,9.120771408081056,4.71875,68.57999420166016,34.83,0
-0.1559773087501526,-0.9288638830184937,0.2665935158729553,10.668167114257812,4.716589450836182,68.57999420166016,34.83,0
-0.1560750007629394,-0.9263600707054138,0.2718442976474762,11.173967361450195,4.715202808380127,68.57999420166016,34.83,0
-0.1561376899480819,-0.9247532486915588,0.2696161866188049,10.07627773284912,4.71431303024292,68.57999420166016,34.83,0
-0.1561779230833053,-0.9237220883369446,0.2681863009929657,7.526817321777344,4.701347827911377,68.63373565673828,34.83,0
-0.1562037467956543,-0.9230603575706482,0.2672686874866485,4.3000569343566895,4.693027496337891,68.66822052001953,34.83,0
-0.1618180871009826,-0.9282334446907043,0.2666798233985901,1.1796133518218994,4.687687873840332,68.69035339355469,34.83,0
-0.1598232835531234,-0.9315532445907592,0.2663019299507141,-1.220573902130127,4.684261322021484,68.70455932617188,34.83,0
-0.1529453545808792,-0.933683693408966,0.2660594284534454,-2.4742696285247803,4.682062149047852,68.71367645263672,34.83,0
-0.1485314965248108,-0.935050904750824,0.2659038007259369,-2.873988389968872,4.68065071105957,68.71952819824219,34.83,0
-0.1512967050075531,-0.9359282851219176,0.2658039331436157,-3.352624654769897,4.679745197296143,68.72328186035156,34.83,0
-0.158669039607048,-0.9364913702011108,0.2657398283481598,-4.397796630859375,4.679163932800293,68.72569274902344,34.83,0
-0.1634001731872558,-0.9312549233436584,0.2656987011432647,-5.691895961761475,4.669610023498535,68.72723388671875,34.83,0
-0.1608385741710662,-0.9334922432899476,0.2656722962856293,-7.013186931610107,4.663478851318359,68.72822570800781,34.83,0
-0.159194678068161,-0.934928059577942,0.2656553387641907,-8.541805267333984,4.659544467926025,68.7288589477539,34.83,0
-0.1581397205591201,-0.9358494877815248,0.2656444609165191,-9.949110984802246,4.65701961517334,68.7292709350586,34.83,0
-0.1630604863166809,-0.9364408254623412,0.2600397169589996,-10.253948211669922,4.655399322509766,68.72953033447266,34.83,0
-0.1662183552980423,-0.9368202686309814,0.2564429044723511,-9.063118934631348,4.654359340667725,68.72969818115234,34.83,0
-0.1626471132040023,-0.9370638132095336,0.2597324550151825,-7.3280348777771,4.653692245483398,68.72980499267578,34.83,0
-0.1603552997112274,-0.9372200965881348,0.2618435025215149,-6.19306230545044,4.653264045715332,68.72987365722656,34.83,0
-0.1588845402002334,-0.937320351600647,0.2631982564926147,-5.554266929626465,4.641972064971924,68.72991943359375,34.83,0
-0.1579407006502151,-0.9429824948310852,0.2640676498413086,-4.431392192840576,4.634725570678711,68.72994995117188,34.83,0
-0.1573349982500076,-0.9410183429718018,0.2646255791187286,-2.28493070602417,4.630075454711914,68.72997283935547,34.83,0
-0.1569462865591049,-0.9341601133346558,0.2649836242198944,0.7906855344772339,4.627090930938721,68.72998046875,34.83,0
-0.1566968411207199,-0.9353566765785216,0.2596156299114227,4.5485615730285645,4.625175952911377,68.72998809814453,34.83,0
-0.1565367579460144,-0.9361245632171632,0.2561707496643066,8.37526798248291,4.623946666717529,68.72999572753906,34.83,0
-0.156434029340744,-0.9366173148155212,0.2595578134059906,11.260936737060549,4.623157978057861,68.72999572753906,34.83,0
-0.1563681066036224,-0.9369335174560548,0.2617314159870147,12.747369766235352,4.62265157699585,68.72999572753906,34.83,0
-0.1563257873058319,-0.9371364712715148,0.2631263136863708,13.350184440612791,4.614981651306152,68.72999572753906,34.83,0
-0.1507008671760559,-0.9372667074203492,0.26402148604393,13.575820922851562,4.61005973815918,68.72999572753906,34.83,0
-0.1470911055803299,-0.9373502731323242,0.2645959556102752,13.430432319641112,4.606901168823242,68.72999572753906,34.83,0
-0.1503723561763763,-0.937403917312622,0.264964610338211,13.025446891784668,4.604874134063721,68.72999572753906,34.83,0
-0.1524780690670013,-0.9374383687973022,0.265201210975647,12.622246742248535,4.603573322296143,68.72999572753906,34.83,0
-0.1538293957710266,-0.9374604225158693,0.2653530240058899,11.9909086227417,4.602738380432129,68.72999572753906,34.83,0
-0.1546965986490249,-0.9374746084213256,0.2654504477977752,10.514561653137209,4.602202892303467,68.72999572753906,34.83,0
-0.1552531123161316,-0.9374837279319764,0.2655129730701446,8.008707046508789,4.601859092712402,68.72999572753906,34.83,0
-0.1556102484464645,-0.9374895691871644,0.2655531167984009,5.010554790496826,4.597507476806641,68.7801513671875,34.83,0
-0.1558394432067871,-0.9374933242797852,0.2655788660049438,2.212364673614502,4.594714641571045,68.81233978271484,34.83,0
-0.1559865325689315,-0.9374957084655762,0.2599976062774658,-0.2174688130617141,4.592922687530518,68.83300018310547,34.83,0
-0.1560809165239334,-0.9374972581863404,0.2620136737823486,-2.7046830654144287,4.591772556304932,68.84626007080078,34.83,0
-0.1505437195301056,-0.9374982118606568,0.2633074522018432,-5.490248680114746,4.591034412384033,68.85476684570312,34.83,0
-0.1525880396366119,-0.9374988675117492,0.2641377449035644,-8.091109275817871,4.5905609130859375,68.86022186279297,34.83,0
-0.1483021974563598,-0.9374992847442628,0.2646705508232116,-9.874834060668944,4.590256690979004,68.86372375488281,34.83,0
-0.145551785826683,-0.9374995231628418,0.2650125026702881,-10.886971473693848,4.590061664581299,68.86597442626953,34.83,0
-0.1437867283821106,-0.937499701976776,0.2652319371700287,-11.722796440124512,4.589477062225342,68.86741638183594,34.83,0
-0.148251786828041,-0.9374998211860656,0.2653727531433105,-12.972113609313965,4.589101791381836,68.86833953857422,34.83,0
-0.151117205619812,-0.9374998807907104,0.26546311378479,-14.55127239227295,4.588860988616943,68.86893463134766,34.83,0
-0.1529560685157776,-0.9374999403953552,0.2655211091041565,-15.13119411468506,4.5887064933776855,68.86931610107422,34.83,0
-0.1541361510753631,-0.9374999403953552,0.2655583322048187,-12.855831146240234,4.588607311248779,68.86956024169922,34.83,0
-0.1492956727743148,-0.9374999403953552,0.2655822038650512,-7.547947406768799,4.588543891906738,68.86972045898438,34.83,0
-0.1461893320083618,-0.9374999403953552,0.2655975222587585,-1.393817663192749,4.588502883911133,68.86981964111328,34.83,0
-0.1497936397790908,-0.9374999403953552,0.2656073570251465,3.325802087783813,4.588476657867432,68.86988830566406,34.83,0
-0.1521066725254058,-0.9374999403953552,0.2656136751174927,6.311591625213623,4.583869457244873,68.86992645263672,34.83,0
-0.153591051697731,-0.9374999403953552,0.2656177282333374,8.482062339782715,4.580913066864014,68.86995697021484,34.83,0
-0.1545436382293701,-0.9374999403953552,0.2656203210353851,10.17946434020996,4.579015731811523,68.8699722290039,34.83,0
-0.1551549583673477,-0.9374999403953552,0.2656219899654388,10.85318088531494,4.577797889709473,68.86997985839844,34.83,0
-0.1499494910240173,-0.9374999403953552,0.2656230628490448,10.038796424865724,4.577016353607178,68.86998748779297,34.83,0
-0.1466089189052581,-0.943097710609436,0.2656237483024597,8.090306282043457,4.576515197753906,68.8699951171875,34.83,0
-0.1444651335477829,-0.941092312335968,0.2656241953372955,5.854669570922852,4.576193332672119,68.8699951171875,34.83,0
-0.1430893838405609,-0.9398053288459778,0.2656244933605194,4.033048152923584,4.575986862182617,68.8699951171875,34.83,0
-0.1422065049409866,-0.93897944688797,0.2656246721744537,2.8317933082580566,4.579526424407959,68.8699951171875,34.83,0
-0.1472376883029937,-0.9384494423866272,0.2656247913837433,1.892516016960144,4.581798076629639,68.8699951171875,34.83,0
-0.1560641974210739,-0.938109278678894,0.2656248807907104,0.4657496213912964,4.583255767822266,68.8699951171875,34.83,0
-0.1561307609081268,-0.9378910064697266,0.2656249105930328,-1.8255760669708248,4.58419132232666,68.8699951171875,34.83,0
-0.1505756974220276,-0.9377509355545044,0.2600271701812744,-4.381537437438965,4.584791660308838,68.8699951171875,34.83,0
-0.147010788321495,-0.9376610517501832,0.2564348578453064,-6.35856819152832,4.585176944732666,68.8699951171875,34.83,0
-0.1447230279445648,-0.9376033544540404,0.2541295289993286,-7.759868144989014,4.585423946380615,68.8699951171875,34.83,0
-0.1432548761367797,-0.937566339969635,0.2526500821113586,-9.096216201782228,4.585582733154297,68.8699951171875,34.83,0
-0.147910475730896,-0.9375425577163696,0.2572984397411346,-10.376551628112791,4.584766864776611,68.90582275390625,34.83,0
-0.1508981734514236,-0.9375272989273072,0.260281503200531,-11.230440139770508,4.584243297576904,68.92881774902344,34.83,0
-0.152815505862236,-0.937517523765564,0.2621958553791046,-11.706765174865724,4.583907127380371,68.94357299804688,34.83,0
-0.1540459394454956,-0.9375112652778624,0.2578265964984894,-12.180824279785156,4.583691596984863,68.95304107666016,34.83,0
-0.1492377817630767,-0.9375072121620178,0.255022644996643,-12.714332580566406,4.583552837371826,68.95911407470703,34.83,0
-0.1461521834135055,-0.9375046491622924,0.2532232403755188,-12.863248825073242,4.5834641456604,68.9630126953125,34.83,0
-0.1497697979211807,-0.9375029802322388,0.2520684897899627,-11.912702560424805,4.583406925201416,68.96551513671875,34.83,0
-0.152091383934021,-0.9375019073486328,0.2513274252414703,-9.26421070098877,4.583370208740234,68.96712493896484,34.83,0
-0.1535812467336654,-0.9375012516975404,0.2564496397972107,-5.060340881347656,4.584264755249023,68.96815490722656,34.83,0
-0.1545373499393463,-0.937500774860382,0.2653345465660095,-0.4458614587783813,4.5848388671875,68.96881866455078,34.83,0
-0.1551509201526641,-0.9375004768371582,0.2654386162757873,3.271369695663452,4.585206985473633,68.96924591064453,34.83,0
-0.1555446684360504,-0.937500298023224,0.259907603263855,5.703447818756104,4.585443496704102,68.96951293945312,34.83,0
-0.1557973623275756,-0.9319024085998536,0.2563581168651581,7.303624153137207,4.58559513092041,68.96968841552734,34.83,0
-0.1559595167636871,-0.9339078068733216,0.2540802657604217,8.624296188354492,4.585692405700684,68.96980285644531,34.83,0
-0.1560635864734649,-0.935194730758667,0.2526184916496277,9.88382339477539,4.585754871368408,68.9698715209961,34.83,0
-0.1505326032638549,-0.9416183829307556,0.257278174161911,10.817505836486816,4.585794925689697,68.96991729736328,34.83,0
-0.1469831317663192,-0.9401429295539856,0.2602684795856476,10.954537391662598,4.589493274688721,68.9699478149414,34.81,0
-0.1447052806615829,-0.9391961097717284,0.2621874809265136,10.325961112976074,4.591866493225098,68.969970703125,34.81,0
-0.1488412618637085,-0.9329906702041626,0.2578212320804596,9.392355918884276,4.593389511108398,68.96997833251953,34.81,0
-0.1514955013990402,-0.9346061944961548,0.2550192177295685,8.288078308105469,4.594367027282715,68.96998596191406,34.81,0
-0.1476010680198669,-0.9356428980827332,0.2588188052177429,6.941718578338623,4.59499454498291,68.9699935913086,34.81,0
-0.1506996154785156,-0.936308205127716,0.2612571716308594,5.594054698944092,4.595396995544434,68.9699935913086,34.81,0
-0.1470903009176254,-0.9367351531982422,0.2628219723701477,4.274214267730713,4.59565544128418,68.9699935913086,34.81,0
-0.1503718346357345,-0.9370091557502748,0.2638261914253235,2.366774320602417,4.595821380615234,68.9699935913086,34.81,0
-0.1524777263402938,-0.937184989452362,0.264470636844635,-0.5984426736831665,4.599140644073486,68.9699935913086,34.81,0
-0.1594269424676895,-0.9317000508308412,0.264884203672409,-4.382200241088867,4.60127067565918,68.9699935913086,34.81,0
-0.163886547088623,-0.9281801581382751,0.2651495933532715,-8.39389705657959,4.602637767791748,68.9699935913086,34.81,0
-0.1667484641075134,-0.9259212613105774,0.2653199136257171,-11.860433578491213,4.603515148162842,68.9699935913086,34.81,0
-0.1685850769281387,-0.9300694465637208,0.2654291987419128,-13.866519927978516,4.60407829284668,68.9699935913086,34.81,0
-0.1585681736469268,-0.93832927942276,0.2710971236228943,-14.089886665344238,4.604439735412598,68.9699935913086,34.81,0
-0.1521399021148681,-0.9436299800872804,0.2691366970539093,-13.298177719116213,4.604671478271484,68.9699935913086,34.81,0
-0.1480146050453186,-0.941433846950531,0.2678785920143127,-12.639636993408203,4.604820251464844,68.9699935913086,34.81,0
-0.145367220044136,-0.9400244951248168,0.2614734470844269,-12.431978225708008,4.602161884307861,68.9986572265625,34.81,0
-0.1380705088376999,-0.9391200542449952,0.2573629915714264,-11.750579833984377,4.6004557609558105,69.01705169677734,34.81,0
-0.1333878934383392,-0.9385396838188172,0.2603229284286499,-9.439610481262209,4.599360942840576,69.02885437011719,34.81,0
-0.1359806358814239,-0.9381672143936156,0.2622224390506744,-5.427265167236328,4.598658561706543,69.03643035888672,34.81,0
-0.1432422846555709,-0.9379281997680664,0.2578436434268951,-0.7171582579612732,4.598207950592041,69.04129028320312,34.81,0
-0.1479023993015289,-0.9377747774124146,0.2606313824653625,3.777956008911133,4.597918510437012,69.0444107055664,34.81,0
-0.1508929878473281,-0.9376763105392456,0.2568226158618927,7.676530361175537,4.597733020782471,69.04641723632812,34.81,0
-0.1528121829032898,-0.9376131296157836,0.2599761486053467,10.611903190612791,4.59761381149292,69.04769897460938,34.81,0
-0.148446038365364,-0.9375725984573364,0.2619999051094055,12.148146629333496,4.596619129180908,69.04852294921875,34.81,0
-0.1456440985202789,-0.9375466108322144,0.2632986307144165,12.22046184539795,4.595980644226074,69.04905700683594,34.81,0
-0.1438459753990173,-0.9375299215316772,0.2641320824623108,11.15627098083496,4.595571041107178,69.04939270019531,34.81,0
-0.1426920294761657,-0.9375191926956176,0.2646669447422027,9.359153747558594,4.595308303833008,69.04961395263672,34.81,0
-0.1475492715835571,-0.9375123381614684,0.2650101780891418,7.52876091003418,4.595139503479004,69.04975128173828,34.81,0
-0.1506663709878921,-0.9375079274177552,0.2652304470539093,6.708795070648193,4.595031261444092,69.04984283447266,34.81,0
-0.1526667475700378,-0.937505066394806,0.2653717994689941,7.271690845489502,4.594961643218994,69.0499038696289,34.81,0
-0.1483526974916458,-0.9375032782554626,0.2654625177383423,8.20971965789795,4.594916820526123,69.04994201660156,34.81,0
-0.1455841958522796,-0.9375020861625672,0.2599229514598846,8.08084774017334,4.59121561050415,69.04996490478516,34.81,0
-0.1438075304031372,-0.9375013113021852,0.2563679814338684,6.418229103088379,4.588840484619141,69.04998016357422,34.81,0
-0.1426673680543899,-0.9375008344650269,0.2540866136550903,3.7319319248199454,4.587316513061523,69.04998779296875,34.81,0
-0.1419356763362884,-0.937500536441803,0.2582203149795532,0.5212519764900208,4.586338520050049,69.04999542236328,34.81,0
-0.1414661109447479,-0.9375003576278688,0.2608731091022491,-2.947129487991333,4.585710525512695,69.04999542236328,34.81,0
-0.1411647796630859,-0.9375002384185792,0.2625755071640014,-6.122320175170898,4.585307598114014,69.04999542236328,34.81,0
-0.1465691775083542,-0.9375001788139344,0.2636680006980896,-8.303277969360352,4.585049152374268,69.04999542236328,34.81,0
-0.150037407875061,-0.9375001192092896,0.2643691003322601,-9.26939868927002,4.584883213043213,69.04999542236328,34.81,0
-0.1522631198167801,-0.9375000596046448,0.2648190259933471,-9.24095344543457,4.579267978668213,69.04999542236328,34.81,0
-0.1536914557218551,-0.9375000596046448,0.2651077806949615,-8.713973045349121,4.575664520263672,69.04999542236328,34.81,0
-0.1490103006362915,-0.9375000596046448,0.2652930915355682,-8.515507698059082,4.573352336883545,69.04999542236328,34.81,0
-0.1516039818525314,-0.9375000596046448,0.2654120028018951,-8.84671401977539,4.571868419647217,69.04999542236328,34.81,0
-0.1532684564590454,-0.931902289390564,0.2654882967472076,-8.29975700378418,4.570916175842285,69.04999542236328,34.81,0
-0.154336616396904,-0.9283099174499512,0.2655372619628906,-5.333471775054932,4.570304870605469,69.04999542236328,34.81,0
-0.1550220996141433,-0.9316023588180542,0.2655687034130096,-0.3022916316986084,4.569912433624268,69.04999542236328,34.81,0
-0.1554619967937469,-0.9337152242660522,0.2655888795852661,5.126131534576416,4.569660663604736,69.04999542236328,34.81,0
-0.1557442992925644,-0.9350711703300476,0.2656018137931824,9.58424186706543,4.569958209991455,69.0750732421875,34.81,0
-0.1559254676103592,-0.9359413385391236,0.2712078988552093,12.212332725524902,4.570148944854736,69.09117126464844,34.81,0
-0.1616395115852356,-0.9309019446372986,0.2692077755928039,12.401373863220217,4.5702714920043945,69.10150146484375,34.81,0
-0.1653064489364624,-0.9276679754257202,0.2679242193698883,10.018468856811523,4.570350170135498,69.1081314086914,34.81,0
-0.1676596850156784,-0.925592601299286,0.2671005129814148,5.702013969421387,4.570400714874268,69.11238098144531,34.81,0
-0.1691698580980301,-0.9242607355117798,0.2665719091892242,0.8683979511260986,4.570433139801025,69.1151123046875,34.81,0
-0.1645412147045135,-0.9290037751197816,0.2662326693534851,-2.75301194190979,4.570453643798828,69.11686706542969,34.81,0
-0.1559730470180511,-0.9320476055145264,0.266014963388443,-4.159884929656982,4.570466995239258,69.11798858642578,34.81,0
-0.1448767185211181,-0.9395987391471864,0.2658752501010895,-3.5831315517425537,4.611790180206299,69.11871337890625,34.81,0
-0.137755736708641,-0.9388468265533448,0.2657856047153473,-1.8337128162384035,4.638309001922607,69.11917877197266,34.81,0
-0.1443814486265182,-0.9327665567398072,0.2657280564308166,0.1702770888805389,4.655327320098877,69.11947631835938,34.81,0
-0.1542312204837799,-0.9344623684883118,0.2656911313533783,1.3595929145812988,4.666248798370361,69.11966705322266,34.81,0
-0.1605522334575653,-0.9355506300926208,0.2656674385070801,1.058802366256714,4.673257350921631,69.11978912353516,34.81,0
-0.1590109318494796,-0.936249017715454,0.2656522393226623,-0.3630511164665222,4.677755355834961,69.11986541748047,34.81,0
-0.1524240374565124,-0.9366971850395204,0.2656424939632416,-2.0708467960357666,4.6806416511535645,69.11991119384766,34.81,0
-0.1481969356536865,-0.9369847774505616,0.2656362354755401,-3.650459289550781,4.682494163513184,69.11994171142578,34.81,0
-0.1510820090770721,-0.9371693730354308,0.2656322121620178,-4.850457668304443,4.799362182617188,69.11996459960938,34.81,0
-0.1585312485694885,-0.9316900372505188,0.2656296193599701,-5.194221019744873,4.874361515045166,69.11997985839844,34.81,0
-0.1633117496967315,-0.9281737208366394,0.2656279504299164,-4.759217262268066,4.922492027282715,69.11998748779297,34.81,0
-0.1663796007633209,-0.9315149188041688,0.2656269073486328,-4.644855499267578,4.953379154205322,69.1199951171875,34.81,0
-0.1683483719825744,-0.9336591362953186,0.2656262218952179,-5.56025505065918,4.973200798034668,69.1199951171875,34.81,0
-0.1584162712097168,-0.9350351691246032,0.2656257748603821,-6.319669723510742,4.985921382904053,69.1199951171875,34.81,0
-0.152042418718338,-0.9359182119369508,0.2656255066394806,-4.897505283355713,4.994084358215332,69.1199951171875,34.81,0
-0.1479520350694656,-0.9364848732948304,0.2656253278255462,-0.703203022480011,4.999322891235352,69.1199951171875,34.81,0
-0.1509248465299606,-0.936848521232605,0.2656252086162567,5.083803653717041,5.164728164672852,69.1199951171875,34.81,0
-0.1528326272964477,-0.9370819330215454,0.2656251192092895,10.853970527648926,5.270875930786133,69.1199951171875,34.81,0
-0.1540569216012954,-0.937231719493866,0.2656250894069671,15.456157684326172,5.338995456695557,69.1199951171875,34.81,0
-0.1492448300123214,-0.9373278617858888,0.2656250596046448,18.409576416015625,5.3827104568481445,69.1199951171875,34.81,0
-0.1461567133665084,-0.9373895525932312,0.2656250298023224,19.83559226989746,5.410764217376709,69.1199951171875,34.81,0
-0.1441749334335327,-0.937429130077362,0.2600272595882416,20.016300201416016,5.428767681121826,69.1199951171875,34.81,0
-0.1429031491279602,-0.9374545216560364,0.2564349174499511,19.096904754638672,5.440321445465088,69.1199951171875,34.81,0
-0.1420869827270507,-0.93747079372406,0.254129558801651,17.12759780883789,5.447735786437988,69.1199951171875,34.81,0
-0.1415632218122482,-0.9318834543228148,0.252650111913681,14.355545043945312,5.634141445159912,69.14507293701172,34.81,0
-0.1412270963191986,-0.9282978773117064,0.2517006993293762,11.523324012756348,5.75376558303833,69.16117095947266,34.81,0
-0.1466091722249984,-0.9315946102142334,0.256689190864563,9.38333511352539,5.830533504486084,69.17150115966797,34.81,0
-0.1500630676746368,-0.933710277080536,0.2598905265331268,7.719825267791748,5.879798889160156,69.17813110351562,34.81,0
-0.1522795855998993,-0.9350679516792296,0.2619449496269226,5.77096700668335,5.911414623260498,69.18238067626953,34.81,0
-0.1537020206451416,-0.9359392523765564,0.2632633447647095,3.384625196456909,5.931703567504883,69.18511199951172,34.81,0
-0.1490170806646347,-0.9364984035491944,0.2585116624832153,0.7032017707824707,5.944724082946777,69.1868667602539,34.81,0
-0.146010547876358,-0.9368572235107422,0.2554622888565063,-2.71213960647583,5.953079700469971,69.18798828125,34.81,0
-0.1384833604097366,-0.9426853060722352,0.2591031491756439,-7.196757793426514,6.058252811431885,69.18871307373047,34.81,0
-0.133652850985527,-0.9408276081085204,0.2558418810367584,-12.10246467590332,6.125746726989746,69.18917846679688,34.81,0
-0.1305529028177261,-0.939635455608368,0.2537489831447601,-16.450828552246094,6.169060230255127,69.1894760131836,34.81,0
-0.1285635381937027,-0.9388704299926758,0.2524058818817138,-19.778743743896484,6.196856498718262,69.18966674804688,34.81,0
-0.1328846514225006,-0.9383794665336608,0.2571417391300201,-22.000391006469727,6.214694499969482,69.18978881835938,34.81,0
-0.1356576830148697,-0.9380643963813782,0.2601809203624725,-23.175336837768555,6.226141929626465,69.18986511230469,34.81,0
-0.1430350393056869,-0.9378622174263,0.2621313035488128,-23.56750869750977,6.2334885597229,69.18991088867188,34.81,0
-0.1477693915367126,-0.937732458114624,0.2577851712703705,-23.038179397583008,6.238203048706055,69.18994140625,34.81,0
-0.145209863781929,-0.9376491904258728,0.2605938613414764,-20.52386283874512,6.25959062576294,69.1899642944336,34.83,0
-0.1435673087835312,-0.9375957250595092,0.2567985355854034,-15.205936431884766,6.273315906524658,69.18997955322266,34.83,0
-0.1425132006406784,-0.9375614523887634,0.2543629109859466,-8.095979690551758,6.282124042510986,69.18998718261719,34.83,0
-0.1418367326259613,-0.9375394582748412,0.2527998685836792,-1.4051687717437744,6.287776470184326,69.18999481201172,34.83,0
-0.1414026170969009,-0.9375253319740297,0.2517967820167541,3.508394241333008,6.291404247283936,69.18999481201172,34.83,0
-0.1411240249872207,-0.9375162720680236,0.2567508518695831,6.894503593444824,6.293732166290283,69.18999481201172,34.83,0
-0.1465430259704589,-0.9375104308128356,0.2599300742149353,9.53683090209961,6.295226097106934,69.18999481201172,34.83,0
-0.1500206291675567,-0.9375066757202148,0.2619703114032745,11.522712707519531,6.29618501663208,69.18999481201172,34.83,0
-0.1522523462772369,-0.9375042915344238,0.2632796168327331,12.241838455200195,6.2972588539123535,69.18999481201172,34.83,0
-0.1480867564678192,-0.9375027418136596,0.2641198635101318,11.288214683532717,6.297948360443115,69.18999481201172,34.83,0
-0.1454135328531265,-0.9375017881393432,0.2590613067150116,8.827625274658203,6.298390865325928,69.18999481201172,34.83,0
-0.1436980068683624,-0.9375011324882508,0.2558150291442871,5.389203071594238,6.298674583435059,69.18999481201172,34.83,0
-0.1481948494911193,-0.9375007152557372,0.2593295276165008,2.043363094329834,6.298856735229492,69.18999481201172,34.83,0
-0.1454828977584839,-0.943098247051239,0.2615849375724792,0.1541408747434616,6.298973560333252,69.18999481201172,34.83,0
-0.1437425166368484,-0.941092610359192,0.26303231716156,-0.169774442911148,6.29904842376709,69.18999481201172,34.83,0
