acc_x,acc_y,acc_z,bvp,eda,hr,temp,label
0.0,0.0,0.0,0.0,0.0,0.0,23.41,0
-0.0052083330228924,-0.0208333320915699,0.1640624850988388,-0.1083333194255828,0.124974325299263,11.999999046325684,23.41,0
-0.0163871962577104,-0.0487804897129535,0.3883384168148041,-0.9324390888214112,0.292622834444046,28.09756088256836,23.41,0
-0.0261108819395303,-0.0780730918049812,0.5834198594093323,-2.3445515632629395,0.4384481608867645,42.09966659545898,23.41,0
-0.0278666354715824,-0.0834290236234664,0.7097277045249939,-4.204960823059082,0.54483562707901,52.31496047973633,23.41,0
-0.0180759113281965,-0.1035243794322013,0.8007331490516663,-6.29019021987915,0.6168643832206726,59.231143951416016,23.41,0
-0.0283110179007053,-0.1333690583705902,0.8659988641738892,-8.003135681152344,0.6641256213188171,63.7691535949707,23.41,0
-0.0628364607691764,-0.1248013228178024,0.8747922778129578,-8.86971378326416,0.6947343945503235,66.70819854736328,23.41,0
-0.0571259111166,-0.130462571978569,0.8916370868682861,-8.902015686035156,0.7071167230606079,68.60145568847656,23.41,0
-0.0646447837352752,-0.139695942401886,0.9136532545089722,-8.579042434692383,0.7150753736495972,69.81832885742188,23.41,0
-0.0582800917327404,-0.1456251889467239,0.9333875179290771,-8.876670837402344,0.7201860547065735,70.59974670410156,23.41,0
-0.0765834897756576,-0.1438340097665786,0.9348607063293456,-10.697639465332031,0.7234666347503662,71.10134887695312,23.41,0
-0.0883308351039886,-0.1594770699739456,0.9525988698005676,-13.775797843933104,0.7255721688270569,71.42328643798828,23.41,0
-0.0902722626924514,-0.1639186441898346,0.9639827013015748,-17.033811569213867,0.7269234657287598,71.62989807128906,23.41,0
-0.0747249722480773,-0.1667690426111221,0.9824838042259216,-20.4287052154541,0.7277906537055969,71.76248931884766,23.41,0
-0.0871385708451271,-0.1630005240440368,0.9943568706512452,-24.792734146118164,0.7283471822738647,71.84757995605469,23.41,0
-0.111898235976696,-0.1549843251705169,0.9851830005645752,-29.413270950317383,0.7466071248054504,71.90218353271484,23.37,0
-0.0997987240552902,-0.1610355377197265,0.990491271018982,-32.124107360839844,0.7583253383636475,71.93722534179688,23.37,0
-0.1032295003533363,-0.1593210846185684,0.9827023148536682,-32.66718673706055,0.7658454179763794,71.959716796875,23.37,0
-0.0998333990573883,-0.1638186126947403,0.9721060395240784,-33.58533477783203,0.7706713676452637,71.97415161132812,23.37,0
-0.0976539775729179,-0.1611070930957794,0.9597081542015076,-36.91521835327149,0.7737683653831482,71.98341369628906,23.37,0
-0.1018531247973442,-0.1649647802114486,0.9461541175842284,-41.92537307739258,0.7757558226585388,71.9893569946289,23.37,0
-0.0989501178264617,-0.1674404144287109,0.9430537223815918,-46.28702545166016,0.7770313024520874,71.99317169189453,23.37,0
-0.0914893597364425,-0.1690291315317154,0.9410640597343444,-48.28000259399414,0.7778497934341431,71.99562072753906,23.37,0
-0.0811037048697471,-0.1700486838817596,0.9341894388198853,-48.47704315185547,0.7811293601989746,71.9971923828125,23.37,0
-0.0744387879967689,-0.1763007491827011,0.9297776818275452,-49.513465881347656,0.7832340002059937,71.99819946289062,23.37,0
-0.0645638555288314,-0.1747151911258697,0.9101531505584716,-52.75445556640625,0.784584641456604,71.99884796142578,23.37,0
-0.0750200152397155,-0.1625021249055862,0.8975592851638794,-55.618919372558594,0.7854514122009277,71.99925994873047,23.37,0
-0.0761324018239975,-0.1658600270748138,0.8894772529602051,-54.51945495605469,0.7860076427459717,71.99952697753906,23.37,0
-0.0712484940886497,-0.1904060393571853,0.8786928653717041,-49.02756118774414,0.7863646149635315,71.99969482421875,23.37,0
-0.0681142807006836,-0.211756020784378,0.8605765700340271,-40.56280899047852,0.7865936756134033,71.99980163574219,23.37,0
-0.0828962475061416,-0.2198594361543655,0.8433527946472168,-28.84678077697754,0.7867406606674194,71.99987030029297,23.37,0
-0.0923824608325958,-0.2418530732393264,0.8211039900779724,-13.04519271850586,0.7854578495025635,72.53730010986328,23.37,0
-0.0984701663255691,-0.2671628594398498,0.790032684803009,4.647426128387451,0.7846345901489258,72.88219451904297,23.37,0
-0.1079746782779693,-0.3113940954208374,0.7532995939254761,20.529905319213867,0.7841063141822815,73.10353088378906,23.37,0
-0.1252696812152862,-0.3453769385814667,0.7241286039352417,35.99591827392578,0.7837672829627991,73.24556732177734,23.37,0
-0.1419663876295089,-0.3783807158470154,0.7110061049461365,58.54253005981445,0.7835497260093689,73.33672332763672,23.37,0
-0.1638769209384918,-0.4219517409801483,0.6969870924949646,92.64415740966795,0.7834100723266602,73.39521789550781,23.37,0
-0.1947311609983444,-0.4499131143093109,0.6879904866218567,133.050537109375,0.7833204865455627,73.43275451660156,23.37,0
-0.2257271856069564,-0.4958460032939911,0.6878147721290588,170.70321655273438,0.7832629680633545,73.45684814453125,23.37,0
-0.2512164413928985,-0.5421164035797119,0.6932997703552246,200.65240478515625,0.7832260727882385,73.47230529785156,23.37,0
-0.2731717526912689,-0.6053967475891113,0.6856241822242737,221.50929260253903,0.7832024097442627,73.48222351074219,23.37,0
-0.2984569370746612,-0.6851908564567566,0.6862962245941162,234.1094665527344,0.783187210559845,73.48859405517578,23.37,0
-0.3090857565402984,-0.7531914114952087,0.6755319237709045,242.91921997070312,0.7831774353981018,73.49268341064453,23.37,0
-0.2935156226158142,-0.8304169178009033,0.6406351327896118,249.9915008544922,0.7831711769104004,73.49530792236328,23.37,0
-0.2835235893726349,-0.8911713361740112,0.6014471054077148,246.7523193359375,0.7831671833992004,73.49698638916016,23.37,0
-0.30510014295578,-0.9581488966941832,0.5595051646232605,220.05772399902344,0.7831646203994751,73.4980697631836,23.37,0
-0.3077512085437774,-1.0347179174423218,0.5269914269447327,165.20571899414062,0.7831629514694214,73.49876403808594,23.37,0
-0.3038547337055206,-1.0894532203674316,0.4949304461479187,89.46443939208984,0.7799487113952637,73.49920654296875,23.39,0
-0.3237452805042267,-1.107785940170288,0.4575622379779815,9.177331924438477,0.7778859734535217,73.4994888305664,23.39,0
-0.3365098834037781,-1.1083552837371826,0.4335814714431762,-55.84904479980469,0.7765622138977051,73.49967193603516,23.39,0
-0.372690349817276,-1.086329460144043,0.4125942289829254,-94.02889251708984,0.7757127285003662,73.49978637695312,23.39,0
-0.3959088921546936,-1.05540132522583,0.404723584651947,-109.22657775878906,0.7751675844192505,73.49986267089844,23.39,0
-0.394015908241272,-1.024357795715332,0.4108681976795196,-113.05757904052734,0.774817705154419,73.49990844726562,23.39,0
-0.3760077655315399,-0.982044756412506,0.43160480260849,-113.92543029785156,0.77459317445755,73.49993896484375,23.39,0
-0.3532556295394897,-0.9492929577827454,0.456107884645462,-114.5038604736328,0.7744491100311279,73.49996185302734,23.39,0
-0.3162635266780853,-0.922676920890808,0.4774303436279297,-113.75013732910156,0.7697662711143494,73.4999771118164,23.39,0
-0.2981218993663788,-0.8999985456466675,0.4911138713359833,-109.48682403564452,0.7667611241340637,73.49998474121094,23.39,0
-0.2976751923561096,-0.8854448795318604,0.4998951554298401,-101.2157974243164,0.7648325562477112,73.49999237060547,23.39,0
-0.3141818344593048,-0.9040940403938292,0.5111282467842102,-90.65586853027344,0.763594925403595,73.49999237060547,23.39,0
-0.3135792911052704,-0.9272575378417968,0.5239347815513611,-79.8702163696289,0.7628006935119629,73.49999237060547,23.39,0
-0.3019970655441284,-0.9589158296585084,0.5209577679634094,-69.79235076904297,0.7622910141944885,73.49999237060547,23.39,0
-0.2889665067195892,-1.0016233921051023,0.513449490070343,-60.301265716552734,0.7619639039039612,73.49999237060547,23.39,0
-0.2694086730480194,-1.057019591331482,0.4862399995326996,-51.140167236328125,0.7617539763450623,73.49999237060547,23.39,0
-0.2624553740024566,-1.0981674194335938,0.4351918697357178,-42.545509338378906,0.7620782256126404,73.95856475830078,23.39,0
-0.2467975914478302,-1.1133781671524048,0.3912365734577179,-34.98430252075195,0.7622863054275513,74.25285339355469,23.39,0
-0.1975649148225784,-1.0951507091522217,0.3462352752685547,-28.491134643554688,0.7624198198318481,74.44170379638672,23.39,0
-0.1603724360466003,-1.0666600465774536,0.3173560202121734,-22.61172103881836,0.7625055313110352,74.56289672851562,23.39,0
-0.1700910925865173,-1.037180781364441,0.2932252287864685,-17.068859100341797,0.7625605463981628,74.64067840576172,23.39,0
-0.2043168395757675,-1.0406538248062134,0.2833372354507446,-12.1145658493042,0.7625958323478699,74.69058990478516,23.39,0
-0.2262809574604034,-1.0260893106460571,0.2769916951656341,-8.114775657653809,0.7626184821128845,74.72261810302734,23.39,0
-0.2403762638568878,-0.9887537360191344,0.2561261653900146,-5.11803150177002,0.7626330256462097,74.74317169189453,23.39,0
-0.2382262647151947,-0.9535983800888062,0.2427358776330948,-2.8294708728790283,0.7603469491004944,74.75636291503906,23.39,0
-0.2312487512826919,-0.9198421239852904,0.2341427505016327,-0.8735741972923279,0.7588798999786377,74.76483154296875,23.39,0
-0.2379665225744247,-0.8869837522506714,0.2230304032564163,0.8509252071380615,0.7579384446144104,74.770263671875,23.39,0
-0.2422776073217392,-0.8602994084358215,0.2270946949720382,2.165399074554444,0.7573342323303223,74.77375030517578,23.39,0
-0.2338486611843109,-0.8375771641731262,0.2297029197216034,3.0268654823303223,0.7569465041160583,74.77598571777344,23.39,0
-0.228439450263977,-0.8062019944190979,0.2313767224550247,3.751668691635132,0.7566977143287659,74.77742004394531,23.39,0
-0.2137725800275802,-0.7804694175720215,0.2324508726596832,4.607306480407715,0.7565380334854126,74.7783432006836,23.39,0
-0.1987624615430832,-0.7583579421043396,0.2443357557058334,5.45375919342041,0.7564355731010437,74.77893829345703,23.39,0
-0.2003253698348999,-0.7553636431694031,0.2575605511665344,5.982633590698242,0.7568290829658508,74.7793197631836,23.37,0
-0.2069261372089386,-0.8094198107719421,0.2828407883644104,6.071254253387451,0.7570816278457642,74.7795639038086,23.37,0
-0.2223576754331588,-0.8888921737670898,0.3158575296401977,5.680304050445557,0.7572436928749084,74.77971649169922,23.37,0
-0.2266629785299301,-0.9622840285301208,0.3370457589626312,4.637665748596191,0.7573477029800415,74.77981567382812,23.37,0
-0.2238280922174453,-1.0261759757995603,0.3506431579589844,2.883039951324463,0.7574144601821899,74.7798843383789,23.37,0
-0.2276065945625305,-1.0783737897872925,0.3761624991893768,0.7431533336639404,0.7574573159217834,74.77992248535156,23.37,0
-0.2356292009353637,-1.0502958297729492,0.4205282330513,-1.2463057041168213,0.7574847936630249,74.77995300292969,23.37,0
-0.2631687521934509,-0.9986903071403505,0.4378040432929992,-2.698572397232056,0.7575024366378784,74.77996826171875,23.37,0
-0.2528531849384308,-0.9823662042617798,0.4320973455905914,-3.5051631927490234,0.7570544481277466,74.77997589111328,23.37,0
-0.2070488184690475,-1.005476951599121,0.3948484659194946,-3.8973968029022217,0.7567669749259949,74.77998352050781,23.37,0
-0.1720564365386963,-1.0091125965118408,0.3653464913368225,-4.3640642166137695,0.756582498550415,74.77999114990234,23.37,0
-0.1831869781017303,-0.9666635394096376,0.3408160507678985,-5.186600685119629,0.7564640641212463,74.77999114990234,23.37,0
-0.2127210199832916,-0.9226288199424744,0.3194760680198669,-6.094210147857666,0.7563880681991577,74.77999114990234,23.37,0
-0.2596631348133087,-0.8663809895515442,0.2945857346057892,-6.562019348144531,0.7563393115997314,74.77999114990234,23.37,0
-0.2953856587409973,-0.8134910464286804,0.2618192434310913,-6.3069329261779785,0.7563080191612244,74.77999114990234,23.37,0
-0.3295058608055115,-0.7851471304893494,0.2407915890216827,-5.491204738616943,0.7562879323959351,74.77999114990234,23.37,0
-0.3514022529125213,-0.772555410861969,0.238492801785469,-4.566468715667725,0.754897952079773,75.14541625976562,23.37,0
-0.3598563373088836,-0.7700725197792053,0.2426153421401977,-3.847636222839356,0.7540059089660645,75.37992858886719,23.37,0
-0.3484883606433868,-0.7684791684150696,0.2620542645454407,-3.271688461303711,0.7534334659576416,75.53042602539062,23.37,0
-0.3467908203601837,-0.7786521911621094,0.2913223803043365,-2.690706253051758,0.7530661225318909,75.62700653076172,23.37,0
-0.3457014262676239,-0.8075717687606812,0.3268983066082001,-2.10291075706482,0.7528303265571594,75.68898010253906,23.37,0
-0.3673934042453766,-0.9100973010063172,0.3721199631690979,-1.4820823669433594,0.7526790499687195,75.72875213623047,23.37,0
-0.3701185286045074,-0.9982833862304688,0.4067384004592895,-0.7433257699012756,0.7525819540023804,75.75428009033203,23.37,0
-0.3438784778118133,-1.0884627103805542,0.4457478523254394,-0.0435320511460304,0.7525196671485901,75.77066040039062,23.37,0
-0.3718213140964508,-1.1631280183792114,0.4819774031639099,0.2479219585657119,0.7529389262199402,75.78117370605469,23.37,0
-0.4121445119380951,-1.2054461240768433,0.4884341359138489,-0.0271918773651123,0.7532079815864563,75.78791809082031,23.37,0
-0.4044349789619446,-1.1542346477508545,0.4142088592052459,-0.6264880299568176,0.7533806562423706,75.79224395751953,23.37,0
-0.3659008145332336,-1.0877833366394043,0.3441842496395111,-1.1902105808258057,0.7534914612770081,75.7950210571289,23.37,0
-0.2572051882743835,-1.0451387166976929,0.2992464900016784,-1.544810175895691,0.7535625696182251,75.79680633544922,23.37,0
-0.1594617068767547,-1.012174129486084,0.3543746173381805,-1.7329633235931396,0.753608226776123,75.7979507446289,23.37,0
-0.135919988155365,-0.9742259979248048,0.3785571455955505,-1.835796356201172,0.7536375522613525,75.7986831665039,23.37,0
-0.1543989181518554,-0.9330797791481018,0.354891687631607,-1.9483622312545776,0.7536563277244568,75.79915618896484,23.37,0
-0.1830509603023529,-0.9010767340660096,0.3061178922653198,-2.188981533050537,0.753209114074707,75.7994613647461,23.39,0
-0.2014381885528564,-0.8805390000343323,0.2692199051380157,-2.4867000579833984,0.7529221177101135,75.79965209960938,23.39,0
-0.2076402753591537,-0.8673590421676636,0.245540902018547,-2.577446699142456,0.7527379393577576,75.79977416992188,23.39,0
-0.2060226500034332,-0.8644986748695374,0.2303450852632522,-2.3669893741607666,0.752619743347168,75.79985809326172,23.39,0
-0.1937889903783798,-0.8850541710853577,0.2261910587549209,-2.0169756412506104,0.7525438666343689,75.79991149902344,23.39,0
-0.1859381347894668,-0.8982455134391785,0.2235252410173416,-1.6848796606063845,0.7524952292442322,75.79994201660156,23.39,0
-0.1920954585075378,-0.9067109823226928,0.2218144685029983,-1.4466814994812012,0.7524639964103699,75.79996490478516,23.39,0
-0.2072424292564392,-0.9345347285270692,0.2151188254356384,-1.3224802017211914,0.7524439692497253,75.79998016357422,23.39,0
-0.2113651037216186,-0.9635859131813048,0.2108219414949417,-1.221279501914978,0.7524310946464539,75.79998779296875,23.39,0
-0.2028152495622635,-0.9598382115364076,0.2248577773571014,-1.0882657766342163,0.7524228096008301,75.79999542236328,23.39,0
-0.2085239887237548,-0.9574331641197203,0.2394629418849945,-0.9993226528167723,0.7524175047874451,75.79999542236328,23.39,0
-0.2065897583961486,-0.9838786125183104,0.2712267935276031,-0.9243312478065492,0.7524141073226929,75.79999542236328,23.39,0
-0.2053484767675399,-0.94487202167511,0.2804154455661773,-0.6254257559776306,0.7524119019508362,75.79999542236328,23.39,0
-0.2101496756076812,-0.8862531781196594,0.2975077629089355,0.0643725842237472,0.7524105310440063,75.79999542236328,23.39,0
-0.2188285738229751,-0.8710260987281799,0.3364654779434204,0.969197690486908,0.7524096369743347,75.79999542236328,23.39,0
-0.2188004255294799,-0.8948408961296082,0.3670640885829925,1.7146607637405396,0.752409040927887,75.79999542236328,23.39,0
-0.1907934844493866,-0.9213193655014038,0.3811027407646179,2.039005279541016,0.7537857890129089,76.10093688964844,23.39,0
-0.1672224700450897,-0.8991273045539856,0.3845141530036926,1.939049482345581,0.7546693086624146,76.29405975341797,23.39,0
-0.1688892692327499,-0.8568968772888184,0.3811056315898895,1.5560544729232788,0.7552363276481628,76.4179916381836,23.39,0
-0.1811544746160507,-0.8130024671554565,0.3621249198913574,1.0308294296264648,0.7556002140045166,76.49752807617188,23.39,0
-0.2002211362123489,-0.7960291504859924,0.3443464040756225,0.4680679142475128,0.7558337450027466,76.54856872558594,23.39,0
-0.218054786324501,-0.8075277209281921,0.3329371809959411,-0.1259474605321884,0.7559835910797119,76.5813217163086,23.39,0
-0.2742815911769867,-0.8093090653419495,0.3200176358222961,-0.8009235262870789,0.7560797333717346,76.60234069824219,23.39,0
-0.3103647232055664,-0.8048544526100159,0.3229221701622009,-1.4920297861099243,0.7561414241790771,76.61582946777344,23.39,0
-0.3391185700893402,-0.8019957542419434,0.3303838968276977,-1.9498722553253172,0.7538860440254211,76.6244888305664,23.39,0
-0.3519733548164367,-0.811356782913208,0.3351724147796631,-1.9499180316925049,0.7524386644363403,76.63004302978516,23.39,0
-0.3714183866977691,-0.8901351690292358,0.3662342727184295,-1.5630292892456057,0.7515098452568054,76.63361358642578,23.39,0
-0.3727015256881714,-0.9966683387756348,0.4029613137245178,-1.1284524202346802,0.7509137392044067,76.63590240478516,23.39,0
-0.3735249638557434,-1.0874263048171997,0.4265305995941162,-0.9104697108268738,0.7505311965942383,76.63736724853516,23.39,0
-0.3796511888504028,-1.162462830543518,0.4640471041202545,-0.7311726808547974,0.7502856850624084,76.63831329345703,23.39,0
-0.4115715026855469,-1.205019235610962,0.4713297188282013,0.0466663278639316,0.7501281499862671,76.638916015625,23.39,0
-0.4040672481060028,-1.131569504737854,0.4256233274936676,1.756749391555786,0.750027060508728,76.6393051147461,23.39,0
-0.3656648099422455,-1.0676404237747192,0.3739005029201507,3.628018379211426,0.7495028972625732,76.63955688476562,23.39,0
-0.346618115901947,-1.0266144275665283,0.3407077491283417,4.273591995239258,0.7491665482521057,76.63971710205078,23.39,0
-0.3287972807884216,-1.0170795917510986,0.3250043392181396,3.2226104736328125,0.7489506602287292,76.63981628417969,23.39,0
-0.3005675673484802,-1.0221562385559082,0.3205245733261108,1.4088919162750244,0.7488121390342712,76.63988494873047,23.39,0
-0.2488647103309631,-1.0086208581924438,0.312051922082901,0.0264146886765956,0.7487232685089111,76.63992309570312,23.39,0
-0.1820981502532959,-0.960750162601471,0.2954191267490387,-0.5168523192405701,0.7486662268638611,76.63995361328125,23.39,0
-0.1448489874601364,-0.9188339710235596,0.2847451567649841,-0.4534936249256134,0.748629629611969,76.63996887207031,23.39,0
-0.1433357149362564,-0.8863368034362793,0.2666996717453003,-0.2372874617576599,0.7486061453819275,76.63997650146484,23.39,0
-0.1535601317882537,-0.8710797429084778,0.255119115114212,-0.2884153127670288,0.7499681711196899,76.63998413085938,23.39,0
-0.1657193452119827,-0.8724842071533203,0.2420895993709564,-0.7654656171798706,0.750842273235321,76.6399917602539,23.39,0
-0.1679246574640274,-0.8901788592338562,0.2337280064821243,-1.3976234197616575,0.7514032125473022,76.6399917602539,23.39,0
-0.1637421250343322,-0.9015342593193054,0.222764253616333,-1.6958286762237549,0.7517632246017456,76.6399917602539,23.39,0
-0.1666557937860489,-0.9480059146881104,0.2213261127471923,-1.471620798110962,0.751994252204895,76.6399917602539,23.39,0
-0.1685256212949752,-0.9834265112876892,0.2260009795427322,-1.127112865447998,0.7521424889564514,76.6399917602539,23.39,0
-0.1697255671024322,-0.9781685471534728,0.2290010303258896,-1.1317297220230105,0.7522376179695129,76.6399917602539,23.39,0
-0.1872889399528503,-0.9747942686080932,0.2309262901544571,-1.3138214349746704,0.7522986531257629,76.6399917602539,23.39,0
-0.2041578739881515,-0.9950199723243712,0.2377595901489257,-1.1655668020248413,0.7509607076644897,76.88719177246094,23.39,0
-0.2149833887815475,-0.9352285861968994,0.264535903930664,-0.6584292650222778,0.7501020431518555,77.04582977294922,23.39,0
-0.2219305783510208,-0.8800646066665649,0.2817194163799286,-0.1681791692972183,0.7495510578155518,77.14763641357422,23.39,0
-0.2151933312416076,-0.9006412625312805,0.3039423525333404,0.099861666560173,0.7491974234580994,77.21296691894531,23.39,0
-0.1772831082344055,-0.9418350458145142,0.3182037472724914,0.1536498665809631,0.7489705085754395,77.25489807128906,23.39,0
-0.1473567336797714,-0.9514775276184082,0.3273558914661407,0.1451771259307861,0.7488248944282532,77.28180694580078,23.39,0
-0.1449450403451919,-0.9072855710983276,0.3276314437389374,0.2113913297653198,0.7487314343452454,77.299072265625,23.39,0
-0.1601906716823578,-0.8621323704719543,0.3278082609176636,0.2825443744659424,0.7486714720726013,77.31015014648438,23.39,0
-0.1979633122682571,-0.8387534022331238,0.3167261779308319,0.3174585998058319,0.7481740117073059,77.3172607421875,23.39,0
-0.211008071899414,-0.8349456787109375,0.3040165603160858,0.4795849621295929,0.7478547692298889,77.32182312011719,23.39,0
-0.2361727803945541,-0.8380998969078064,0.2958602607250213,0.7054359316825867,0.7476499080657959,77.32475280761719,23.39,0
-0.2803108990192413,-0.8569174408912659,0.2962237894535064,0.6210892200469971,0.7475184798240662,77.32662963867188,23.39,0
-0.3254295289516449,-0.8689934015274048,0.3020548522472381,0.126303568482399,0.747434139251709,77.32783508300781,23.39,0
-0.3599818348884582,-0.8655475378036499,0.3057968914508819,-0.4921577274799347,0.7473799586296082,77.32861328125,23.39,0
-0.3989488482475281,-0.9081183671951294,0.3361872136592865,-0.9929453134536744,0.7473452091217041,77.32910919189453,23.39,0
-0.4295534193515777,-0.9690245389938354,0.3780810534954071,-1.3465651273727417,0.7473229169845581,77.32942962646484,23.39,0
-0.4268025755882263,-1.0416972637176514,0.4161616563796997,-1.5412547588348389,0.7463904023170471,77.32963562011719,23.39,0
-0.4194394648075104,-1.1163233518600464,0.457392930984497,-1.4763188362121582,0.7457919716835022,77.32976531982422,23.39,0
-0.4147142469882965,-1.164214015007019,0.4894505441188812,-1.0620588064193726,0.7454079389572144,77.32984924316406,23.39,0
-0.3892907798290252,-1.1333719491958618,0.4596433341503143,-0.2659894526004791,0.7451614737510681,77.32990264892578,23.39,0
-0.3673776686191559,-1.0855904817581177,0.4181236624717712,0.9757274985313416,0.7450032830238342,77.32994079589844,23.39,0
-0.3645106554031372,-1.0493292808532717,0.3690876364707947,2.42820143699646,0.7449017763137817,77.32996368408203,23.39,0
-0.3682685494422912,-1.0316567420959473,0.3376191258430481,3.363898038864136,0.7448366284370422,77.3299789428711,23.39,0
-0.3370935022830963,-1.0371087789535522,0.3174244463443756,3.308763027191162,0.7447948455810547,77.32998657226562,23.39,0
-0.2890982627868652,-1.02381432056427,0.2932691276073456,2.6356818675994877,0.7415547966957092,77.32999420166016,23.39,0
-0.2247110456228256,-1.0040870904922483,0.2777676284313202,1.9314614534378047,0.7394755482673645,77.32999420166016,23.39,0
-0.1665977090597152,-0.9690362215042114,0.2678196728229522,1.3613083362579346,0.7381411790847778,77.32999420166016,23.39,0
-0.1293039172887802,-0.9409447908401488,0.2670334279537201,0.8306184411048889,0.7372848987579346,77.32999420166016,23.39,0
-0.1333597749471664,-0.9285151362419128,0.2553333044052124,0.2643499672412872,0.7367353439331055,77.32999420166016,23.39,0
-0.147158145904541,-0.9261362552642822,0.2366292774677276,-0.2889250516891479,0.7363826632499695,77.32999420166016,23.39,0
-0.1504153758287429,-0.9190118312835692,0.2246261239051818,-0.6654806137084961,0.7361563444137573,77.32999420166016,23.39,0
-0.1581034511327743,-0.9256353378295898,0.2057276368141174,-0.8068201541900635,0.7360110878944397,77.32999420166016,23.39,0
-0.1630372107028961,-0.935483694076538,0.1991974413394928,-0.8473677039146423,0.7386721968650818,77.54136657714844,23.39,0
-0.1718011945486068,-0.9641948938369752,0.2006045132875442,-0.991613745689392,0.7403799295425415,77.67701721191406,23.39,0
-0.1662298589944839,-0.9546312689781188,0.2127030491828918,-1.349293231964111,0.7414758801460266,77.76406860351562,23.39,0
-0.1682522743940353,-0.9428960680961608,0.2204671949148178,-1.747212290763855,0.7421792149543762,77.81993103027344,23.39,0
-0.1863434612751007,-0.9577562212944032,0.2254497706890106,-1.780454158782959,0.7426305413246155,77.85578155517578,23.39,0
-0.2091488987207412,-0.9672926068305968,0.2398428469896316,-1.3109740018844604,0.7429201602935791,77.8787841796875,23.39,0
-0.2181863337755203,-0.9062392115592957,0.2658728361129761,-0.687256932258606,0.7431060671806335,77.89354705810547,23.39,0
-0.2071927189826965,-0.8894497752189636,0.2881751358509063,-0.3084866404533386,0.7432253360748291,77.90302276611328,23.39,0
-0.194539874792099,-0.889870822429657,0.3024874627590179,-0.2122992724180221,0.742842972278595,77.90910339355469,23.39,0
-0.164028912782669,-0.9013365507125854,0.3060745298862457,-0.1613194793462753,0.7425975799560547,77.91300964355469,23.39,0
-0.1388509571552276,-0.9030968546867372,0.3139742910861969,-0.0175437424331903,0.7424401044845581,77.91551208496094,23.39,0
-0.1394865214824676,-0.881835401058197,0.3246416747570038,0.0998012796044349,0.742339015007019,77.91712188720703,23.39,0
-0.156687706708908,-0.8793865442276001,0.3314873874187469,0.103455051779747,0.7422741651535034,77.91815185546875,23.39,0
-0.1789219975471496,-0.8946083784103394,0.3414783477783203,0.1272952854633331,0.7422325611114502,77.91881561279297,23.39,0
-0.209984004497528,-0.9323657155036926,0.3590855002403259,0.2142460793256759,0.7422058582305908,77.91924285888672,23.39,0
-0.2355155795812606,-0.9509984254837036,0.3703847527503967,0.1052476242184639,0.7421886920928955,77.91950988769531,23.39,0
-0.268693596124649,-0.940564751625061,0.3776359856128692,-0.3623672127723694,0.7421776652336121,77.91968536376953,23.39,0
-0.2955831289291382,-0.9002823829650879,0.3710938394069671,-0.9418964385986328,0.7421706318855286,77.9197998046875,23.39,0
-0.3128392696380615,-0.8688336610794067,0.3612976968288421,-1.288726806640625,0.7421661019325256,77.91986846923828,23.39,0
-0.3239132761955261,-0.871042788028717,0.3606088757514953,-1.3966602087020874,0.7421631813049316,77.91991424560547,23.39,0
-0.3310199379920959,-0.9060471057891846,0.3713623881340027,-1.4480127096176147,0.7421613335609436,77.9199447631836,23.39,0
-0.3355805873870849,-0.9676952958106996,0.3838611245155334,-1.434394359588623,0.7421601414680481,77.91996765136719,23.39,0
-0.3497028946876526,-1.0688331127166748,0.4030776619911194,-1.182039737701416,0.742159366607666,77.91997528076172,23.39,0
-0.3867546319961548,-1.1561286449432373,0.4210075139999389,-0.5794363021850586,0.7421588897705078,77.91998291015625,23.39,0
-0.4105323255062103,-1.1897587776184082,0.4269160628318786,0.5022996068000793,0.7403221130371094,77.91999053955078,23.39,0
-0.4089981615543365,-1.1273740530014038,0.3971211910247803,2.052730798721313,0.739143431186676,77.91999053955078,23.39,0
-0.3632314205169678,-0.9977747201919556,0.3556094467639923,3.5134434700012207,0.7383869886398315,77.91999053955078,23.39,0
-0.3450565040111542,-0.9649853110313416,0.3289695978164673,4.042430877685547,0.7379015684127808,77.91999053955078,23.39,0
-0.3333928883075714,-0.9943228960037231,0.3118737041950226,3.3501229286193848,0.7375900149345398,77.91999053955078,23.39,0
-0.2363434582948684,-1.052334547042847,0.3120980858802795,1.9815349578857424,0.7373901009559631,77.91999053955078,23.39,0
-0.1796604990959167,-1.0615742206573486,0.3122420608997345,0.7485790252685547,0.7372618317604065,77.91999053955078,23.39,0
-0.1264913082122802,-1.028319239616394,0.3011389076709747,0.129302516579628,0.7371795177459717,77.91999053955078,23.39,0
-0.125957041978836,-1.0013803243637085,0.2828180193901062,0.0579008795320987,0.7371266484260559,77.15690612792969,23.39,0
-0.1368097215890884,-0.9896902441978456,0.2710607051849365,0.1231392621994018,0.7370927333831787,76.66720581054688,23.39,0
-0.1605676710605621,-0.9765904545783995,0.2467222213745117,-0.0069581279531121,0.7370709776878357,76.35294342041016,23.39,0
-0.175814151763916,-0.962585985660553,0.2255054116249084,-0.2767410576343536,0.7370570302009583,76.1512680053711,23.39,0
-0.1800006926059723,-0.9424031972885132,0.206291913986206,-0.4570373892784118,0.7370480895042419,76.02184295654297,23.39,0
-0.188285157084465,-0.9518421292304992,0.1939617991447448,-0.4473510384559631,0.7370423078536987,75.93878173828125,23.39,0
-0.1991994231939315,-0.963497281074524,0.1916468143463134,-0.2620061337947845,0.7370386123657227,75.88548278808594,23.39,0
-0.1950080096721649,-0.982172429561615,0.2013567388057708,-0.0176722835749387,0.7370362281799316,75.85127258300781,23.39,0
-0.1811226606369018,-0.9885593056678772,0.2131857872009277,0.0101543981581926,0.7397890090942383,75.8293228149414,23.39,0
-0.1666140705347061,-0.987060248851776,0.2263747602701187,-0.272924393415451,0.7415555715560913,75.81523895263672,23.39,0
-0.1629010587930679,-0.9469138383865356,0.2404364496469497,-0.551317572593689,0.7426892518997192,75.80619812011719,23.39,0
-0.1717138141393661,-0.9267479181289672,0.2550581991672516,-0.6081667542457581,0.7434167861938477,75.8003921508789,23.39,0
-0.1773693412542343,-0.869024395942688,0.286832720041275,-0.6410667300224304,0.7438836693763733,75.79666900634766,23.39,0
-0.1754009574651718,-0.8039919137954712,0.3128215372562408,-0.7553269863128662,0.7441833019256592,75.79428100585938,23.39,0
-0.1741377562284469,-0.7566600441932678,0.3294996619224548,-0.7928268909454346,0.7443755865097046,75.7927474975586,23.39,0
-0.1733271032571792,-0.8158495426177979,0.3234094083309173,-0.7273277640342712,0.7444989681243896,75.79176330566406,23.39,0
-0.1672091037034988,-0.893018364906311,0.3250988125801086,-0.6494684219360352,0.7441192269325256,75.79113006591797,23.39,0
-0.1856740266084671,-0.9593341946601868,0.3373785018920898,-0.5027732849121094,0.7438755631446838,75.79072570800781,23.39,0
-0.2199148386716842,-1.001891851425171,0.356454461812973,-0.2581645846366882,0.7437191605567932,75.79046630859375,23.39,0
-0.2642797231674194,-1.0124096870422363,0.3854896426200866,-0.079693354666233,0.7436187863349915,75.79029846191406,23.39,0
-0.2983483374118805,-0.9911705255508424,0.4041227400302887,-0.1120463907718658,0.7435543537139893,75.79019165039062,23.39,0
-0.3202115893363952,-0.9775404334068298,0.4160803854465484,-0.2510336935520172,0.7435130476951599,75.79012298583984,23.39,0
-0.3342421650886535,-0.9408045411109924,0.4069608151912689,-0.2685762345790863,0.7434865236282349,75.79007720947266,23.39,0
-0.3488439619541168,-0.9004362225532532,0.4011083841323852,-0.0648795068264007,0.7434694766998291,75.79004669189453,23.39,0
-0.3582145571708679,-0.8689324259757996,0.4085481762886047,0.2234746813774109,0.7402453422546387,75.79003143310547,23.39,0
-0.3642280697822571,-0.8431172966957092,0.4357137084007263,0.3834457695484161,0.7381762862205505,75.79002380371094,23.39,0
-0.3512938618659973,-0.8209528923034668,0.4531469941139221,0.3571332693099975,0.7368484735488892,75.7900161743164,23.39,0
-0.3206023573875427,-0.8179245591163635,0.4531391263008117,0.2256049960851669,0.7359963655471802,75.79000854492188,23.39,0
-0.3009063005447387,-0.8495678305625916,0.447536289691925,0.0838765129446983,0.7354495525360107,75.79000854492188,23.39,0
-0.3106575906276703,-0.9706345796585084,0.4383429288864136,0.1398089379072189,0.7350986003875732,75.79000854492188,23.39,0
-0.3001221120357513,-0.9699594378471376,0.4044542908668518,0.6521857380867004,0.7348734140396118,75.79000854492188,23.39,0
-0.2877632677555084,-0.9303417205810548,0.3715109825134277,1.450317144393921,0.7347288727760315,75.79000854492188,23.39,0
-0.2630387544631958,-0.9105151295661926,0.3223809897899627,1.880112648010254,0.734636127948761,75.22037506103516,23.39,0
-0.2415741980075836,-0.9089871048927308,0.274058848619461,1.632874608039856,0.7345766425132751,74.85482025146484,23.39,0
-0.2501905858516693,-0.9024087190628052,0.2038640677928924,1.0622152090072632,0.7345384359359741,74.62022399902344,23.39,0
-0.2893067300319671,-0.9485670924186708,0.1420237720012664,0.5347830057144165,0.7345139384269714,74.46967315673828,23.39,0
-0.3144092261791229,-1.0173733234405518,0.1079360023140907,0.1174906864762306,0.7344982028007507,74.37306213378906,23.39,0
-0.3193230032920837,-1.0503336191177368,0.0804626643657684,-0.1359732002019882,0.7344881296157837,74.3110580444336,23.39,0
-0.3168786168098449,-1.0378990173339844,0.0572340823709964,-0.1839893162250518,0.7344816327095032,74.27127075195312,23.39,0
-0.292918860912323,-0.9795392155647278,0.01993621699512,-0.2040555626153946,0.7344774603843689,74.24573516845703,23.39,0
-0.283140629529953,-0.9196961522102356,0.0127939162775874,-0.3996442854404449,0.734474778175354,74.2293472290039,23.39,0
-0.2880610823631286,-0.8756945729255676,0.019405947998166,-0.7078732252120972,0.7344730496406555,74.21883392333984,23.39,0
-0.2912187278270721,-0.8362613320350647,0.0516380406916141,-0.9092593789100648,0.7344719767570496,74.21208190917969,23.39,0
-0.2820495665073395,-0.8109553456306458,0.0779205188155174,-0.920272409915924,0.7344712615013123,74.20775604248047,23.39,0
-0.2593720257282257,-0.7611287832260132,0.1003848761320114,-0.830610454082489,0.734470784664154,74.2049789428711,23.39,0
-0.261612206697464,-0.6955662965774536,0.1203989759087562,-0.7372447848320007,0.7344704866409302,74.20319366455078,23.39,0
-0.2742453813552856,-0.6702854037284851,0.1444384306669235,-0.6773280501365662,0.7344703078269958,74.2020492553711,23.39,0
-0.310341477394104,-0.7044415473937988,0.1878544390201568,-0.6926156282424927,0.7344701886177063,74.2013168334961,23.39,0
-0.3391036689281463,-0.7543498277664185,0.2213141024112701,-0.8528944849967957,0.7358472347259521,74.20084381103516,23.41,0
-0.3519637882709503,-0.7583892345428467,0.2707754671573639,-1.113385558128357,0.7367309331893921,74.2005386352539,23.41,0
-0.3602166771888733,-0.766579270362854,0.3081147074699402,-1.255475640296936,0.7372980713844299,74.20034790039062,23.41,0
-0.387904018163681,-0.799824059009552,0.3432724177837372,-1.1424541473388672,0.7376620173454285,74.20022583007812,23.41,0
-0.3888788223266601,-0.7987675070762634,0.4553990066051483,-0.851386308670044,0.7378956079483032,74.20014190673828,23.41,0
-0.4062977135181427,-0.809285044670105,0.5273553729057312,-0.5535358786582947,0.7380455136299133,74.20008850097656,23.41,0
-0.4342694878578186,-0.8832079172134399,0.5847284197807312,-0.3982183635234833,0.7381417155265808,74.20005798339844,23.41,0
-0.4354268312454223,-0.8914629220962524,0.638340413570404,-0.4633429944515228,0.7382034063339233,74.20003509521484,23.41,0
-0.4193762242794037,-0.8687716126441956,0.6335611343383789,-0.6161960959434509,0.7387019395828247,74.20001983642578,23.41,0
-0.386684775352478,-0.8374163508415222,0.6472873687744141,-0.5315770506858826,0.739021897315979,74.20001220703125,23.41,0
-0.376900851726532,-0.8172943592071533,0.6952804923057556,-0.0616946443915367,0.7392272353172302,74.20000457763672,23.41,0
-0.3650242984294891,-0.8323700428009033,0.7484708428382874,0.6231844425201416,0.7393589615821838,74.20000457763672,23.41,0
-0.413380354642868,-0.8308492302894592,0.7826053500175476,1.2418291568756104,0.7394435405731201,74.20000457763672,23.41,0
-0.4500102698802948,-0.7794932723045349,0.7541308999061584,1.635257124900818,0.7394977807998657,74.20000457763672,23.41,0
-0.4847127795219421,-0.7017537951469421,0.6686843633651733,1.769511580467224,0.7395325899124146,74.20000457763672,23.41,0
-0.5293739438056946,-0.7022450566291809,0.5858607888221741,1.6729570627212524,0.7395549416542053,74.20000457763672,23.41,0
-0.5468393564224243,-0.6857669949531555,0.4767316579818725,1.4856036901474,0.7381921410560608,73.72710418701172,23.41,0
-0.5580476522445679,-0.6248123645782471,0.3675144612789154,1.4513529539108276,0.7373175621032715,73.42362213134766,23.41,0
-0.5484471917152405,-0.535315215587616,0.2862296104431152,1.687318205833435,0.7367563247680664,73.22886657714844,23.41,0
-0.5422861576080322,-0.5170655250549316,0.306836724281311,2.021458387374878,0.7363961338996887,73.1038818359375,23.41,0
-0.5831145644187927,-0.5221472382545471,0.3424522876739502,2.192899465560913,0.7361649870872498,73.02367401123047,23.41,0
-0.5925225615501404,-0.4974195063114166,0.432481586933136,2.084383487701416,0.7360166907310486,72.97219848632812,23.41,0
-0.6097556352615356,-0.464757353067398,0.490257203578949,1.7782942056655884,0.7359215021133423,72.93916320800781,23.41,0
-0.626412570476532,-0.4829810857772827,0.6113008856773376,1.4636386632919312,0.7358604073524475,72.91796875,23.41,0
-0.6986775994300842,-0.5226649045944214,0.8233263492584229,1.1399033069610596,0.7339851260185242,72.90436553955078,23.41,0
-0.7226620316505432,-0.5537294745445251,0.9873809814453124,0.6061341762542725,0.732781708240509,72.89563751220703,23.41,0
-0.654087245464325,-0.5624693632125854,1.059075117111206,-0.1089959815144538,0.7320094108581543,72.8900375366211,23.41,0
-0.6156776547431946,-0.5736758708953857,1.1162798404693604,-0.625246524810791,0.7315137982368469,72.88644409179688,23.41,0
-0.6302130222320557,-0.6256497502326965,1.2089682817459106,-0.6842707395553589,0.7311957478523254,72.8841323852539,23.41,0
-0.6115521192550659,-0.6254169940948486,1.212472677230835,-0.5680983066558838,0.7309916019439697,72.88265228271484,23.41,0
-0.5883810520172119,-0.5972787141799927,1.175537109375,-0.7550735473632812,0.7308605909347534,72.88169860839844,23.41,0
-0.5511201024055481,-0.5288412570953369,1.0286829471588137,-1.3121377229690552,0.7307765483856201,72.88108825683594,23.41,0
-0.4992192983627319,-0.4513353705406189,0.8672671318054199,-1.866671085357666,0.7325586676597595,72.88069915771484,23.39,0
-0.4603145718574524,-0.4015965461730957,0.7412886619567871,-2.1759653091430664,0.7337023615837097,72.88044738769531,23.39,0
-0.4353477656841278,-0.3640792667865753,0.6324540972709656,-2.3637046813964844,0.7344362735748291,72.88028717041016,23.39,0
-0.413727730512619,-0.3232094943523407,0.540219247341156,-2.577332019805908,0.7349072694778442,72.88018035888672,23.39,0
-0.3662665784358978,-0.2689927816390991,0.4530393183231354,-2.7609992027282715,0.7352095246315002,72.88011169433594,23.39,0
-0.3358087539672851,-0.2397973835468292,0.3970922827720642,-2.785719156265259,0.7354034781455994,72.88007354736328,23.39,0
-0.3274582028388977,-0.2434525489807129,0.400373101234436,-2.593793630599976,0.7355279922485352,72.88004302978516,23.39,0
-0.3332948684692383,-0.2457982301712036,0.4024785459041595,-2.2556724548339844,0.7356078624725342,72.8800277709961,23.39,0
-0.3762249052524566,-0.2529013156890869,0.4262208044528961,-1.9276258945465088,0.7342820167541504,72.88002014160156,23.39,0
-0.4597526788711548,-0.2630574405193329,0.5198260545730591,-1.702774167060852,0.7334311604499817,72.88001251220703,23.39,0
-0.518953800201416,-0.2695750594139099,0.6022875905036926,-1.5369818210601809,0.7328851222991943,72.8800048828125,23.39,0
-0.5569456815719604,-0.284953236579895,0.7503688335418701,-1.3446040153503418,0.7325347065925598,72.8800048828125,23.39,0
-0.530946671962738,-0.3172131776809692,0.8845832943916321,-1.013357639312744,0.7323098182678223,72.8800048828125,23.39,0
-0.5254575610160828,-0.3435135185718536,0.9315299987792968,-0.478350967168808,0.732165515422821,72.8800048828125,23.39,0
-0.6338904500007629,-0.4051737487316131,0.9224732518196106,0.0906877964735031,0.7320728898048401,72.8800048828125,23.39,0
-0.6251075863838196,-0.4279504120349884,0.899867832660675,0.3734648525714874,0.732013463973999,72.8800048828125,23.39,0
-0.4851246774196625,-0.4425671696662903,0.8685676455497742,0.3005720376968384,0.7319753170013428,72.4608383178711,23.39,0
-0.4008894860744476,-0.468740701675415,0.8428832292556763,0.2143852859735489,0.7319508194923401,72.19184112548828,23.39,0
-0.4140054881572723,-0.4351573884487152,0.8599870800971985,0.4170210361480713,0.7319351434707642,72.01921844482422,23.39,0
-0.8086689710617065,-0.3296389281749725,0.8373767137527466,0.8587450385093689,0.7319250702857971,71.90843963623047,23.39,0
-0.5133594274520874,-0.3514876365661621,0.7109111547470093,1.4001635313034058,0.7319185733795166,71.83734893798828,23.39,0
-0.5197688341140747,-0.3878999948501587,0.8312727212905884,1.9768996238708496,0.7319144010543823,71.7917251586914,23.39,0
-0.4399154186248779,-0.3944740295410156,0.8413406014442444,2.3004422187805176,0.7319117784500122,71.76244354248047,23.39,0
-0.4558433890342712,-0.3874973058700561,0.8030193448066711,1.9742693901062007,0.7319100499153137,71.74365234375,23.39,0
-0.4268806278705597,-0.3718245029449463,0.7672314643859863,1.0484353303909302,0.7346632480621338,71.73159790039062,23.39,0
-0.3970984518527984,-0.3617666065692901,0.7610581517219543,0.0064663747325539,0.7364301085472107,71.72386169433594,23.39,0
-0.4339637160301208,-0.3777031302452087,0.8018786907196045,-0.8055123686790466,0.737563967704773,71.7188949584961,23.39,0
-0.4184373021125793,-0.404723584651947,0.8336727023124695,-1.3337587118148804,0.7382916212081909,71.71570587158203,23.39,0
-0.3972777724266052,-0.4164659976959228,0.8372829556465149,-1.5796098709106443,0.7387585639953613,71.71366119384766,23.39,0
-0.3948943614959717,-0.4407949149608612,0.7948176264762878,-1.565419316291809,0.7390581965446472,71.71234893798828,23.39,0
-0.4269514679908752,-0.4620055854320526,0.7619680762290955,-1.3592710494995115,0.7392504811286926,71.71150970458984,23.39,0
-0.4363283216953277,-0.475617378950119,0.7856692671775818,-0.90096253156662,0.7393739223480225,71.71096801757812,23.39,0
-0.4255525469779968,-0.478754848241806,0.8176726698875427,-0.0909556224942207,0.7454206347465515,71.71062469482422,23.37,0
-0.3962461650371551,-0.4919638633728027,0.8382106423377991,1.0056549310684204,0.7493010759353638,71.71040344238281,23.37,0
-0.3438523709774017,-0.5116361975669861,0.8289996385574341,2.1787140369415283,0.7517912983894348,71.71025848388672,23.37,0
-0.3550112545490265,-0.5130652189254761,0.8174907565116882,3.0354104042053223,0.7533893585205078,71.71016693115234,23.37,0
-0.4013567864894867,-0.480395644903183,0.7765183448791504,2.925994873046875,0.7544149160385132,71.7101058959961,23.37,0
-0.475880891084671,-0.4594301879405975,0.8006045818328857,1.637702465057373,0.755073070526123,71.71006774902344,23.37,0
-0.4957172870635986,-0.4403779804706573,0.8272572755813599,0.0227840114384889,0.7554954290390015,71.71004486083984,23.37,0
-0.4412738680839538,-0.416955828666687,0.8051770329475403,-1.103142023086548,0.7557664513587952,71.71002960205078,23.37,0
-0.4343240857124328,-0.3963270485401153,0.7854094505310059,-2.434734582901001,0.7591539621353149,71.71002197265625,23.37,0
-0.4410596489906311,-0.3439042866230011,0.7951148152351379,-5.037570953369141,0.761327862739563,71.71001434326172,23.37,0
-0.4509799182415008,-0.3102623522281647,0.7845498919487,-8.062134742736816,0.7627229690551758,71.71000671386719,23.37,0
-0.490932822227478,-0.3166617751121521,0.7497810125350952,-9.594712257385254,0.7636182904243469,71.71000671386719,23.37,0
-0.5613545179367065,-0.3207685649394989,0.6770883798599243,-9.92978572845459,0.7641928195953369,71.71000671386719,23.37,0
-0.5841559767723083,-0.3122085034847259,0.6136451363563538,-11.592177391052246,0.7645615339279175,71.71000671386719,23.37,0
-0.6603641510009766,-0.29551962018013,0.5953220129013062,-15.11665153503418,0.7647981643676758,71.71000671386719,23.37,0
-0.7148679494857788,-0.2736141085624695,0.6283454895019531,-17.500263214111328,0.7649500370025635,71.71000671386719,23.37,0
-0.7218564748764038,-0.2595564126968384,0.6495380401611328,-16.90546226501465,0.7714738845825195,71.35533142089844,23.37,0
-0.7151457667350769,-0.2561327517032623,0.7135181427001953,-16.276554107666016,0.775660514831543,71.12771606445312,23.37,0
-0.694045901298523,-0.2539356350898742,0.7433813810348511,-18.846494674682617,0.7783472537994385,70.98165130615234,23.37,0
-0.6749074459075928,-0.2749167680740356,0.7233614325523376,-22.254779815673828,0.7800714373588562,70.8879165649414,23.37,0
-0.6234411001205444,-0.2939790189266205,0.7217093706130981,-21.568796157836918,0.7811779379844666,70.8277587890625,23.37,0
-0.5960107445716858,-0.3174076378345489,0.7150513529777527,-16.59661293029785,0.7818880081176758,70.78915405273438,23.37,0
-0.6343852281570435,-0.3436383008956909,0.699583113193512,-12.02287769317627,0.7823436856269836,70.7643814086914,23.37,0
-0.6590117812156677,-0.3548738658428192,0.6784608960151672,-11.781814575195312,0.7826361060142517,70.74848175048828,23.37,0
-0.6524245738983154,-0.3620842099189758,0.6649059057235718,-14.117003440856934,0.7929227352142334,70.73828125,23.37,0
-0.6258062124252319,-0.3667113780975342,0.678598165512085,-7.418661117553711,0.7995240688323975,70.73173522949219,23.37,0
-0.5919307470321655,-0.3808763921260834,0.6985806226730347,20.98710250854492,0.8037604093551636,70.72753143310547,23.37,0
-0.5981802940368652,-0.4011622369289398,0.7114042043685913,61.64320755004883,0.8064790964126587,70.7248306274414,23.37,0
-0.6077886819839478,-0.4029849767684936,0.7028403282165527,84.74250793457031,0.8082237839698792,70.72309875488281,23.37,0
-0.5971614718437195,-0.4097524583339691,0.7085400819778442,76.59124755859375,0.8093433976173401,70.72199249267578,23.37,0
-0.5903415083885193,-0.436486542224884,0.7066000699996948,53.26823425292969,0.8100619316101074,70.72127532958984,23.37,0
-0.5971603989601135,-0.4480451643466949,0.6885617971420288,32.300052642822266,0.8105230331420898,70.72081756591797,23.37,0
-0.61273193359375,-0.4666583836078644,0.665790319442749,16.59044075012207,0.8172457218170166,70.72052764892578,23.37,0
-0.6171270608901978,-0.4786032736301422,0.6455790996551514,6.863590240478516,0.8215599656105042,70.7203369140625,23.37,0
-0.6087520718574524,-0.4862688183784485,0.6326087117195129,4.7915754318237305,0.824328601360321,70.72021484375,23.37,0
-0.6145730018615723,-0.5135791897773743,0.6242850422859192,5.360640525817871,0.8261053562164307,70.72013854980469,23.37,0
-0.6295040845870972,-0.5143120884895325,0.6133456230163574,2.508680820465088,0.8272455930709839,70.7200927734375,23.37,0
-0.6054993867874146,-0.4755980372428894,0.611923098564148,-2.033552408218384,0.8279772996902466,70.72006225585938,23.37,0
-0.5956922769546509,-0.4395580291748047,0.6222057938575745,-3.687429666519165,0.8284468650817871,70.72003936767578,23.37,0
-0.6341808438301086,-0.4388207197189331,0.6511957049369812,-3.437570333480835,0.8287482261657715,70.72002410888672,23.37,0
-0.6364895105361938,-0.4383475482463836,0.6418108940124512,-5.21898078918457,0.8349090814590454,70.72001647949219,23.37,0
-0.6211777329444885,-0.4324461221694946,0.6245927214622498,-8.633540153503418,0.8388627767562866,70.72000885009766,23.37,0
-0.6225470900535583,-0.4286589324474334,0.6303364038467407,-9.445516586303713,0.8414000272750854,70.72000885009766,23.37,0
-0.6402192115783691,-0.4374240934848785,0.6508156657218933,-5.921868324279785,0.8430283069610596,70.72000885009766,23.37,0
-0.6515601277351379,-0.4374512732028961,0.6639581322669983,-0.6691431999206543,0.8440732359886169,70.72000885009766,23.37,0
-0.6924247145652771,-0.403882086277008,0.6276099681854248,3.3466169834136963,0.8447437882423401,70.72000885009766,23.37,0
-0.7186492681503296,-0.3879370987415313,0.5930882692337036,6.0025177001953125,0.8451741337776184,70.72000885009766,23.37,0
-0.6739031672477722,-0.3665089607238769,0.5765320062637329,9.003813743591309,0.8454502820968628,70.72000885009766,23.37,0
-0.6507854461669922,-0.3583554029464721,0.5659071803092957,12.6674222946167,0.8511360883712769,70.36891174316406,23.37,0
-0.6359498500823975,-0.3755140006542206,0.5702843070030212,14.520537376403809,0.8547849059104919,70.14360046386719,23.37,0
-0.6376247406005859,-0.3865253925323486,0.5507022142410278,11.86923885345459,0.8571264743804932,69.99900817871094,23.37,0
-0.6386995911598206,-0.387994110584259,0.5213422179222107,5.273989677429199,0.8586291670799255,69.90621948242188,23.37,0
-0.7009649276733398,-0.4169255197048187,0.4633162319660187,-2.078885078430176,0.8595935106277466,69.84667205810547,23.37,0
-0.8192920684814453,-0.4466875791549682,0.4316762685775757,-7.6860151290893555,0.8602123856544495,69.80845642089844,23.37,0
-0.7384899258613586,-0.4545916020870209,0.4449582099914551,-10.904595375061035,0.8606095314025879,69.78392791748047,23.37,0
-0.8321778774261475,-0.4708594977855682,0.4926662147045135,-11.966974258422852,0.8608644008636475,69.7681884765625,23.37,0
-0.7859436869621277,-0.5092881917953491,0.6464335322380066,-11.495158195495604,0.8587329983711243,69.75808715820312,23.37,0
-0.8290443420410156,-0.5059606432914734,0.5939726233482361,-10.422120094299316,0.8573651909828186,69.7516098022461,23.37,0
-0.8007261157035828,-0.4758363366127014,0.5043284893035889,-9.468395233154297,0.8564873933792114,69.74745178222656,23.37,0
-0.82173752784729,-0.4844931662082672,0.3684311807155609,-8.673638343811035,0.8559240698814392,69.74478149414062,23.37,0
-0.8352214097976685,-0.4900486171245575,0.2812201082706451,-7.640552997589111,0.8555625677108765,69.7430648803711,23.37,0
-0.8438746333122253,-0.4992115497589111,0.2476441711187362,-6.329132080078125,0.8553305864334106,69.7419662475586,23.37,0
-0.8662210702896118,-0.5330806374549866,0.2932703495025635,-5.297661304473877,0.8551816940307617,69.74126434326172,23.37,0
-0.8917573094367981,-0.5492181181907654,0.3281483948230743,-4.875755310058594,0.8550861477851868,69.74081420898438,23.37,0
-0.8521672487258911,-0.5315853357315063,0.3169444501399994,-4.683816909790039,0.8582380414009094,69.74052429199219,23.37,0
-0.7987717390060425,-0.5258674025535583,0.304156631231308,-4.238210201263428,0.8602607250213623,69.7403335571289,23.37,0
-0.7868966460227966,-0.5110024213790894,0.284754604101181,-3.5366666316986084,0.8615587949752808,69.7402114868164,23.37,0
-0.8408514261245728,-0.529451847076416,0.2834990620613098,-2.7998502254486084,0.8623918294906616,69.7401351928711,23.37,0
-0.8754764795303345,-0.5412915945053101,0.2882910966873169,-2.1263797283172607,0.8629264235496521,69.7400894165039,23.37,0
-0.8529146909713745,-0.5209007859230042,0.2969641089439392,-1.640446424484253,0.8632694482803345,69.74005889892578,23.37,0
-0.8104469776153564,-0.5078151226043701,0.3081277310848236,-1.5650523900985718,0.8634896278381348,69.74003601074219,23.37,0
-0.7775958180427551,-0.4882219731807709,0.3208896815776825,-1.871343851089477,0.8636308908462524,69.74002075195312,23.37,0
-0.7901005148887634,-0.4812459945678711,0.3290795683860779,-2.2327024936676025,0.8660169243812561,69.7400131225586,23.37,0
-0.7981253266334534,-0.4879647493362427,0.3455308973789215,-2.4502713680267334,0.8675481677055359,69.74000549316406,23.37,0
-0.7920796275138855,-0.4810809195041656,0.3336973190307617,-2.600642204284668,0.868530809879303,69.74000549316406,23.37,0
-0.8161886930465698,-0.482261061668396,0.3261032104492187,-2.725802183151245,0.8691614270210266,69.74000549316406,23.37,0
-0.8260627388954163,-0.4886161684989929,0.3268275260925293,-2.741636276245117,0.8695660829544067,69.74000549316406,23.37,0
-0.8156059980392456,-0.4814989566802978,0.3384878933429718,-2.6479032039642334,0.8698257803916931,69.74000549316406,23.37,0
-0.7976999282836914,-0.471333771944046,0.3403730690479278,-2.5984983444213867,0.8699924349784851,69.74000549316406,23.37,0
-0.7694154977798462,-0.4648103415966034,0.3359850943088531,-2.778165102005005,0.8700994253158569,69.74000549316406,23.37,0
-0.8408285975456238,-0.5054062008857727,0.3499624729156494,-3.258887529373169,0.8651183843612671,69.42115020751953,23.37,0
-0.8754618763923645,-0.5146649479866028,0.3477368056774139,-3.922062635421753,0.8619218468666077,69.2165298461914,23.37,0
-0.8361119627952576,-0.4926177859306335,0.3407107293605804,-4.573352336883545,0.8598704934120178,69.08522033691406,23.37,0
-0.7772728204727173,-0.4728714227676391,0.3417995572090149,-5.217014789581299,0.8585540652275085,69.0009536743164,23.37,0
-0.7171221375465393,-0.476992666721344,0.3592916429042816,-6.024163722991943,0.8577092885971069,68.9468765258789,23.37,0
-0.790476381778717,-0.5300174355506897,0.4097014665603637,-7.144018173217773,0.85716712474823,68.91217041015625,23.37,0
-0.8599420189857483,-0.5584478974342346,0.4420515894889831,-8.625764846801758,0.856819212436676,68.88990020751953,23.37,0
-0.8653366565704346,-0.5207151770591736,0.4124320745468139,-10.31825828552246,0.8565959334373474,68.87560272216797,23.37,0
-0.8240164518356323,-0.4853049218654632,0.3766306638717651,-11.948954582214355,0.8564526438713074,68.8664321899414,23.37,0
-0.7807061672210693,-0.4737762212753296,0.3704486787319183,-13.579401016235352,0.856360673904419,68.86054229736328,23.37,0
-0.7809010148048401,-0.460779994726181,0.4056658744812011,-15.292086601257324,0.8563016653060913,68.85676574707031,23.37,0
-0.8034171462059021,-0.4804286360740661,0.4282662272453308,-16.068758010864258,0.8562638163566589,68.85433959960938,23.37,0
-0.8178666830062866,-0.4706468880176544,0.4203787446022033,-14.260002136230469,0.8562394976615906,68.852783203125,23.37,0
-0.8159440159797668,-0.5147495269775391,0.3817303776741028,-9.7316255569458,0.8562238812446594,68.8517837524414,23.37,0
-0.7643302083015442,-0.5374542474746704,0.3289391994476318,-4.156555652618408,0.8562138676643372,68.85114288330078,23.37,0
-0.7368052005767822,-0.5352315306663513,0.2614742219448089,0.9581285119056702,0.8562074899673462,68.8507308959961,23.37,0
-0.8087056279182434,-0.4946207106113434,0.2181790769100189,4.985613822937012,0.8575805425643921,68.85047149658203,23.39,0
-0.8884338140487671,-0.5021456480026245,0.2407747060060501,7.58096981048584,0.8584616780281067,68.85030364990234,23.39,0
-0.9172077178955078,-0.5013769268989563,0.2720686197280884,8.967079162597656,0.8590271472930908,68.8501968383789,23.39,0
-0.885293185710907,-0.5008836388587952,0.2977490127086639,9.867351531982422,0.8593900203704834,68.85012817382812,23.39,0
-0.8256278038024902,-0.5173603892326355,0.3254247605800628,10.330452919006348,0.8596228957176208,68.85008239746094,23.39,0
-0.7817402482032776,-0.5167386531829834,0.3487832248210907,9.886051177978516,0.8597723245620728,68.85005187988281,23.39,0
-0.7815645933151245,-0.5331330299377441,0.3861644566059112,8.841353416442871,0.8598682284355164,68.85002899169922,23.39,0
-0.7870496511459351,-0.5324584245681763,0.4045557975769043,8.016876220703125,0.8599297404289246,68.85002136230469,23.39,0
-0.7905696630477905,-0.5152321457862854,0.377173900604248,7.656155109405518,0.8636417388916016,68.85001373291016,23.39,0
-0.7480463981628418,-0.4929817914962768,0.3763950765132904,7.542890071868896,0.8660238981246948,68.85000610351562,23.39,0
-0.7263551950454712,-0.4787027835845947,0.3702974915504455,7.566932678222656,0.867552638053894,68.85000610351562,23.39,0
-0.7516194581985474,-0.4919304549694061,0.3607866466045379,7.564448833465576,0.8685336709022522,68.85000610351562,23.39,0
-0.7846259474754333,-0.5060169696807861,0.3714764714241028,7.208179950714111,0.8691632747650146,68.85000610351562,23.39,0
-0.8226009011268616,-0.5150569081306458,0.4063254594802856,6.481569290161133,0.8695672750473022,68.85000610351562,23.39,0
-0.8021888732910156,-0.5096626281738281,0.4230917394161224,5.785987377166748,0.8698265552520752,68.85000610351562,23.39,0
-0.7666984796524048,-0.5006031394004822,0.4170580506324768,5.3718461990356445,0.8699929714202881,68.85000610351562,23.39,0
-0.7607161402702332,-0.4947892725467682,0.3740015625953674,5.134734630584717,0.8691815137863159,68.52757263183594,23.39,0
-0.7792680859565735,-0.4910582900047302,0.3463703989982605,5.047056674957275,0.8686608076095581,68.32064819335938,23.39,0
-0.7687825560569763,-0.4998595118522644,0.3846160471439361,5.20574426651001,0.8683266043663025,68.18785858154297,23.39,0
-0.7452602386474609,-0.4999098479747772,0.4147576689720154,5.526118278503418,0.8681121468544006,68.10264587402344,23.39,0
-0.746958315372467,-0.4943443834781647,0.4229052662849426,5.74962854385376,0.8679745197296143,68.04795837402344,23.39,0
-0.7872324585914612,-0.4963705539703369,0.4057428538799286,5.620789051055908,0.8678861856460571,68.01286315917969,23.39,0
-0.8074802756309509,-0.4920730590820312,0.3891312181949615,4.868165493011475,0.8678295016288757,67.99034118652344,23.39,0
-0.8092786073684692,-0.4893151819705963,0.3840686082839966,3.4250447750091557,0.8677931427955627,67.97589111328125,23.39,0
-0.7880415916442871,-0.4931431114673614,0.3920152485370636,1.7179315090179443,0.8663926720619202,67.96661376953125,23.39,0
-0.7744129300117493,-0.4955996572971344,0.3971149623394012,0.2533990740776062,0.865493893623352,67.96066284179688,23.39,0
-0.776862382888794,-0.5027738809585571,0.3947898745536804,-1.041128396987915,0.8649170994758606,67.95684051513672,23.39,0
-0.7672387361526489,-0.5073778629302979,0.3988955616950989,-2.62780499458313,0.8645469546318054,67.95439147949219,23.39,0
-0.7610628008842468,-0.5047346949577332,0.3959325850009918,-4.495113372802734,0.8643094301223755,67.95281982421875,23.39,0
-0.7682949900627136,-0.4974406659603119,0.3940311074256897,-5.833164691925049,0.8641570210456848,67.9518051147461,23.39,0
-0.7841317653656006,-0.4983575642108917,0.3984086215496063,-5.674397468566895,0.8640592098236084,67.95115661621094,23.39,0
-0.7998926639556885,-0.5157393217086792,0.4236089587211609,-3.8277955055236816,0.8639964461326599,67.95074462890625,23.39,0
-0.7988115549087524,-0.5156983733177185,0.4285855293273926,-1.044924020767212,0.8625790476799011,67.95047760009766,23.37,0
-0.7757266759872437,-0.5044765472412109,0.3925947844982147,1.6939278841018677,0.8616694211959839,67.95030212402344,23.37,0
-0.7609121203422546,-0.4916772544384002,0.375095784664154,3.6665198802948,0.8610856533050537,67.9501953125,23.37,0
-0.7681983113288879,-0.5058544874191284,0.3638659119606018,4.205152988433838,0.8607110381126404,67.95012664794922,23.37,0
-0.7896674871444702,-0.509354829788208,0.3398659229278564,2.931492567062378,0.8604706525802612,67.95008087158203,23.37,0
-0.8034451603889465,-0.5004056096076965,0.3188663125038147,0.4195722639560699,0.8603163957595825,67.9500503540039,23.37,0
-0.8290802240371704,-0.5002602934837341,0.2997922003269195,-2.181224584579468,0.8602173924446106,67.95002746582031,23.37,0
-0.8343358039855957,-0.4945692718029022,0.293149322271347,-4.018647193908691,0.86015385389328,67.95001983642578,23.37,0
-0.8377085328102112,-0.4797215461730957,0.2776907384395599,-4.6317524909973145,0.8591948747634888,67.95001220703125,23.37,0
-0.8342751860618591,-0.4813886880874634,0.2677703201770782,-3.989843606948853,0.8585794568061829,67.95000457763672,23.37,0
-0.8544629216194153,-0.4768607914447784,0.2334150969982147,-2.818397521972656,0.8581845164299011,67.95000457763672,23.37,0
-0.8506249189376831,-0.4851505756378174,0.2393567711114883,-2.041552782058716,0.8579310178756714,67.95000457763672,23.37,0
-0.7977819442749023,-0.4848727285861969,0.2487675696611404,-1.8009638786315918,0.8577683568000793,67.95000457763672,23.37,0
-0.8534347414970398,-0.5070855021476746,0.2716001868247986,-1.5211776494979858,0.8576639890670776,67.95000457763672,23.37,0
-0.8611606359481812,-0.5157425999641418,0.3086439371109009,-0.8078231811523438,0.8575969934463501,67.95000457763672,23.37,0
-0.8325320482254028,-0.5101026892662048,0.3324165046215057,0.158692330121994,0.857554018497467,67.95000457763672,23.37,0
-0.8029643297195435,-0.4952877759933471,0.3140857219696045,0.9079191088676452,0.8543131947517395,67.6598129272461,23.37,0
-0.7895872592926025,-0.4857804179191589,0.2911265194416046,1.084210753440857,0.8522334694862366,67.47358703613281,23.37,0
-0.8089914917945862,-0.4852769076824188,0.2763926386833191,0.6599583029747009,0.850898802280426,67.35408020019531,23.37,0
-0.8214439749717712,-0.4793560206890106,0.2837305963039398,-0.0350464396178722,0.8500422835350037,67.27738189697266,23.37,0
-0.8238375186920166,-0.4699585735797882,0.2828418910503387,-0.5061385035514832,0.849492609500885,67.22816467285156,23.37,0
-0.8197757601737976,-0.4639278054237366,0.2822715938091278,-0.5469302535057068,0.8491398692131042,67.19657897949219,23.37,0
-0.8227669596672058,-0.4600576162338257,0.2819055914878845,-0.3079974353313446,0.8489134907722473,67.17630767822266,23.37,0
-0.8414798378944397,-0.4799650609493255,0.2928662598133087,0.0531252548098564,0.8487682342529297,67.16329956054688,23.37,0
-0.870281994342804,-0.5039360523223877,0.3054979741573334,0.3851851522922516,0.848675012588501,67.15495300292969,23.37,0
-0.8663744926452637,-0.5081236958503723,0.3136042654514313,0.3331714570522308,0.8486151695251465,67.14959716796875,23.37,0
-0.841475784778595,-0.4996155500411987,0.3076108694076538,-0.3486541509628296,0.8485767841339111,67.14615631103516,23.37,0
-0.8198994398117065,-0.4885577261447906,0.2981669008731842,-1.377335548400879,0.8485521674156189,67.14395141601562,23.37,0
-0.8284440636634827,-0.4926570057868957,0.2865085303783417,-2.26318621635437,0.8485363721847534,67.14253234863281,23.37,0
-0.8227319717407227,-0.4896899163722992,0.2958201766014099,-2.8854129314422607,0.8485261797904968,67.1416244506836,23.37,0
-0.8190662860870361,-0.4877858161926269,0.3073936104774475,-3.367121458053589,0.8485196828842163,67.14104461669922,23.37,0
-0.8279094099998474,-0.4809660911560058,0.303625226020813,-3.601020097732544,0.848515510559082,67.14067077636719,23.37,0
-0.8223888874053955,-0.4821873605251312,0.3012069165706634,-3.439438819885254,0.8462174534797668,67.14042663574219,23.37,0
-0.8188461065292358,-0.4829711019992828,0.2996549606323242,-3.1028778553009038,0.8447427153587341,67.14027404785156,23.37,0
-0.827768087387085,-0.4890718460083008,0.304256796836853,-2.919135570526123,0.8437963128089905,67.14017486572266,23.37,0
-0.833493709564209,-0.4985847175121307,0.3072099983692169,-2.9982619285583496,0.8431889414787292,67.1401138305664,23.37,0
-0.8371680974960327,-0.4990917444229126,0.3035074174404144,-3.4108808040618896,0.842799186706543,67.14007568359375,23.37,0
-0.8395261168479919,-0.4994171261787414,0.3011313080787658,-4.148575782775879,0.8425490260124207,67.14004516601562,23.37,0
-0.8298438191413879,-0.4940281808376312,0.3052042424678802,-4.740211009979248,0.8423885107040405,67.14002990722656,23.37,0
-0.8236302733421326,-0.4905698597431183,0.3022202253341675,-4.539511203765869,0.8422855138778687,67.14002227783203,23.37,0
-0.8196427822113037,-0.488350510597229,0.3003052473068237,-3.472078800201416,0.8390061855316162,67.1400146484375,23.37,0
-0.8226816058158875,-0.4813284873962402,0.2990763485431671,-2.009643077850342,0.8369017243385315,67.14000701904297,23.37,0
-0.8302295207977295,-0.4824199378490448,0.2982876896858215,-0.562410295009613,0.8355512022972107,67.14000701904297,23.37,0
-0.8238778114318848,-0.4831203520298004,0.3145748972892761,0.6923547387123108,0.8346844911575317,67.14000701904297,23.37,0
-0.8309971690177917,-0.4891676008701324,0.319429337978363,1.5656596422195437,0.8341283202171326,67.14000701904297,23.37,0
-0.835565984249115,-0.4930483996868133,0.3113490641117096,1.9684630632400515,0.8337714076042175,67.14000701904297,23.37,0
-0.8273023962974548,-0.4899410903453827,0.2949680685997009,2.162472724914551,0.8335423469543457,67.14000701904297,23.37,0
-0.8219993114471436,-0.4879469871520996,0.2900534570217132,2.444610357284546,0.8333953619003296,67.14000701904297,23.37,0
-0.8185961246490479,-0.4922650754451751,0.303692877292633,2.8083813190460205,0.8323827981948853,66.8856430053711,23.37,0
-0.8220099210739136,-0.4950361847877502,0.3180436491966247,3.1600537300109863,0.831732988357544,66.72240447998047,23.37,0
-0.8242006897926331,-0.4912167489528656,0.3216553628444671,3.550535202026367,0.8313159942626953,66.61764526367188,23.37,0
-0.8200088143348694,-0.4831678569316864,0.3127776086330414,3.976669788360596,0.8310483694076538,66.55042266845703,23.37,0
-0.8117209672927856,-0.4836003184318542,0.3126781582832336,4.235808372497559,0.8308766484260559,66.50727844238281,23.37,0
-0.8231956362724304,-0.4894756376743316,0.31821209192276,4.10475492477417,0.8307664394378662,66.4795913696289,23.37,0
-0.8361571431159973,-0.4932460784912109,0.3329590260982513,3.640899181365967,0.8306956887245178,66.46182250976562,23.37,0
-0.8388773202896118,-0.4956657290458679,0.3368249833583832,3.178424835205078,0.8306503295898438,66.45042419433594,23.37,0
-0.8294274210929871,-0.4916207492351532,0.3113170564174652,3.07151198387146,0.8301622867584229,66.44310760498047,23.37,0
-0.8177652955055237,-0.4834271371364593,0.2949475347995758,3.357576370239258,0.8298490643501282,66.43841552734375,23.37,0
-0.8102812170982361,-0.4837667047977447,0.2956380546092987,3.598477363586426,0.8296480774879456,66.4354019165039,23.37,0
-0.8166738748550415,-0.4895824193954468,0.318472295999527,3.2730085849761963,0.8295190930366516,66.43346405029297,23.37,0
-0.8207763433456421,-0.498912364244461,0.3331260085105896,2.4121127128601074,0.8294363021850586,66.43222045898438,23.37,0
-0.8346046209335327,-0.4993020296096802,0.3313343524932861,1.558702826499939,0.8293831944465637,66.43142700195312,23.37,0
-0.8322832584381104,-0.4939543008804321,0.324586808681488,1.0325289964675903,0.8293491005897522,66.43091583251953,23.37,0
-0.8251957297325134,-0.4905224442481994,0.3146588504314422,0.7915903925895691,0.8293272256851196,66.43058776855469,23.37,0
-0.8150495886802673,-0.493917852640152,0.3138854205608368,0.8268463611602783,0.8274770975112915,66.43037414550781,23.37,0
-0.8141362071037292,-0.4960968196392059,0.3133890926837921,1.0178526639938354,0.8262898325920105,66.43023681640625,23.37,0
-0.8247455954551697,-0.497495174407959,0.324266105890274,0.8789015412330627,0.8255279064178467,66.4301528930664,23.37,0
-0.8259562849998474,-0.4983925521373749,0.3256485760211944,0.173527643084526,0.8250389099121094,66.43009948730469,23.37,0
-0.8267332315444946,-0.4877728819847107,0.3153402209281921,-0.6839717626571655,0.8247250914573669,66.43006134033203,23.37,0
-0.8272318243980408,-0.4809577763080597,0.3087249100208282,-1.26650869846344,0.8245237469673157,66.43003845214844,23.37,0
-0.8443451523780823,-0.4821820259094238,0.3100773692131042,-1.5866087675094604,0.8243945240974426,66.43002319335938,23.37,0
-0.8497297167778015,-0.488565444946289,0.3333363831043243,-1.6200668811798096,0.8243116140365601,66.43001556396484,23.37,0
-0.8419896364212036,-0.4870641827583313,0.3482626974582672,-1.236707329750061,0.8228812217712402,66.43000793457031,23.37,0
-0.8146314024925232,-0.4805029928684234,0.3410482108592987,-0.6646748781204224,0.8219633102416992,66.43000793457031,23.37,0
-0.7970744967460632,-0.4762924015522003,0.3420161604881286,-0.301159918308258,0.821374237537384,66.43000793457031,23.37,0
-0.7970030307769775,-0.4791880548000335,0.3482351005077362,-0.1789367944002151,0.8209961652755737,66.43000793457031,23.37,0
-0.8193482756614685,-0.4922418594360351,0.3634215891361236,-0.1255790591239929,0.8207535743713379,66.43000793457031,23.37,0
-0.8224925994873047,-0.4950212836265564,0.3843629658222198,-0.0841719880700111,0.8205978870391846,66.43000793457031,23.37,0
-0.8021193742752075,-0.4968049526214599,0.39780193567276,0.0283825062215328,0.820497989654541,66.43000793457031,23.37,0
-0.7834472060203552,-0.4867540597915649,0.3840351998806,0.3012377619743347,0.8204338550567627,66.43000793457031,23.37,0
-0.771464467048645,-0.4859017431735992,0.3807982802391052,0.5121662616729736,0.8194745182991028,66.18639373779297,23.37,0
-0.7637746334075928,-0.4909525513648987,0.3899165391921997,0.353756844997406,0.8188588619232178,66.0300521850586,23.37,0
-0.7644375562667847,-0.4997916519641876,0.3957681357860565,-0.0918284207582473,0.8184637427330017,65.92971801757812,23.37,0
-0.7928518652915955,-0.5166596174240112,0.4163166582584381,-0.4816740751266479,0.8182101845741272,65.8653335571289,23.37,0
-0.7830976247787476,-0.5162889361381531,0.4239057600498199,-0.6315425038337708,0.8180474638938904,65.82401275634766,23.37,0
-0.7656424045562744,-0.5048555135726929,0.4175804555416107,-0.5163474678993225,0.8179430365562439,65.79750061035156,23.37,0
-0.7544406056404114,-0.4919204413890838,0.3855323493480682,-0.2023893594741821,0.8178760409355164,65.78047943115234,23.37,0
-0.7472519278526306,-0.4892172217369079,0.3705635070800781,0.0886552780866622,0.8178330063819885,65.76956176757812,23.37,0
-0.7538342475891113,-0.4930802285671234,0.3777506947517395,0.1643711328506469,0.814592182636261,65.7625503540039,23.37,0
-0.7636561393737793,-0.5011570453643799,0.3991563320159912,0.11623165756464,0.8125124573707581,65.758056640625,23.37,0
-0.7755570411682129,-0.5007425546646118,0.4128932356834411,0.1426597237586975,0.8111777901649475,65.75517272949219,23.37,0
-0.7943899035453796,-0.5004765391349792,0.4049154818058014,0.2384364008903503,0.8103212714195251,65.7533187866211,23.37,0
-0.8008779883384705,-0.5003058314323425,0.3941980302333832,0.2425791472196579,0.8097715973854065,65.75212860107422,23.37,0
-0.7938461303710938,-0.5001962780952454,0.3929179608821869,0.0804392471909523,0.8094188570976257,65.7513656616211,23.37,0
-0.7837356925010681,-0.5001259446144104,0.3976942598819732,-0.0630211383104324,0.8091924786567688,65.7508773803711,23.37,0
-0.7996385097503662,-0.5056785941123962,0.3895638585090637,0.1494331508874893,0.8090472221374512,65.75056457519531,23.37,0
-0.7930507063865662,-0.5092419981956482,0.395541787147522,0.7371786236763,0.8112490177154541,65.75035858154297,23.37,0
-0.7832252383232117,-0.5059309601783752,0.399378091096878,1.2719931602478027,0.8126620054244995,65.75022888183594,23.37,0
-0.7769198417663574,-0.4982083737850189,0.3962422311306,1.3429306745529177,0.8135687708854675,65.7501449584961,23.37,0
-0.7784711718559265,-0.4932524561882019,0.3942298293113708,0.9263019561767578,0.8141506910324097,65.75009155273438,23.37,0
-0.7794666886329651,-0.4900720417499542,0.3929383754730224,0.3651624321937561,0.8145241141319275,65.75006103515625,23.37,0
-0.7801055908203125,-0.4824332594871521,0.3865118026733398,0.1519409865140915,0.8147637248039246,65.75003814697266,23.37,0
-0.7861133813858032,-0.4775311350822449,0.3823876082897186,0.5166683197021484,0.8149175047874451,65.7500228881836,23.37,0
-0.8011643886566162,-0.4855807721614837,0.3853387236595154,1.248707294464111,0.8150162100791931,65.75001525878906,23.37,0
-0.7996276617050171,-0.4907465577125549,0.4040258824825287,2.033754587173462,0.813702404499054,65.75000762939453,23.37,0
-0.7930437326431274,-0.494061678647995,0.4104204773902893,2.6772730350494385,0.812859296798706,65.75000762939453,23.37,0
-0.7832207679748535,-0.4905913472175598,0.3977308273315429,2.9075348377227783,0.8123182058334351,65.75000762939453,23.37,0
-0.7769169807434082,-0.4827665090560913,0.3839895725250244,2.5214998722076416,0.8119709491729736,65.75000762939453,23.37,0
-0.7896648645401001,-0.4889405369758606,0.3863667547702789,1.750708818435669,0.8117481470108032,65.75000762939453,23.37,0
-0.7586613297462463,-0.4985004365444183,0.4270767271518707,0.9622882008552552,0.8116051554679871,65.75000762939453,23.37,0
-0.7387650012969971,-0.5046354532241821,0.4532020390033722,0.1410585790872573,0.811513364315033,65.75000762939453,23.37,0
-0.7427900433540344,-0.5029747486114502,0.4475766718387604,-0.8731896281242371,0.8114544749259949,65.75000762939453,23.37,0
-0.7453730702400208,-0.4963112473487854,0.4439666271209717,-2.0220537185668945,0.8072852492332458,65.52430725097656,23.37,0
-0.7470306754112244,-0.5032305717468262,0.4416499137878418,-3.1713247299194336,0.8046097159385681,65.37946319580078,23.37,0
-0.7480944395065308,-0.513268768787384,0.4513587355613708,-4.145310878753662,0.8028926849365234,65.28650665283203,23.37,0
-0.7431793212890625,-0.5141128897666931,0.4575892984867096,-4.594812870025635,0.8017908334732056,65.22685241699219,23.37,0
-0.7456228733062744,-0.5146546363830566,0.4559899270534515,-4.320812702178955,0.8010836839675903,65.1885757446289,23.37,0
-0.7471910119056702,-0.5094044804573059,0.4493657648563385,-3.575345754623413,0.8006299138069153,65.16400909423828,23.37,0
-0.7481973767280579,-0.5004374980926514,0.4395169913768768,-2.6885344982147217,0.8003386855125427,65.14824676513672,23.37,0
-0.7488431930541992,-0.5002807378768921,0.4443921744823456,-1.793415665626526,0.8001518249511719,65.13813018798828,23.37,0
-0.7436598539352417,-0.4945823848247528,0.4419229924678802,-1.0649291276931765,0.7986547350883484,65.13163757324219,23.37,0
-0.7459312677383423,-0.490925520658493,0.4459362030029297,-0.7550617456436157,0.7976939678192139,65.12747192382812,23.37,0
-0.7473888993263245,-0.488578736782074,0.4429138600826263,-0.8141521215438843,0.7970774173736572,65.12479400634766,23.37,0
-0.7539221048355103,-0.4870727062225342,0.4353765249252319,-0.7266827821731567,0.7966817617416382,65.12307739257812,23.37,0
-0.7637125253677368,-0.4917040169239044,0.4361372888088226,-0.1116681918501854,0.796427845954895,65.12197875976562,23.37,0
-0.7755932211875916,-0.4946761131286621,0.4422232508659363,0.6663483381271362,0.7962648868560791,65.12126922607422,23.37,0
-0.7608264684677124,-0.4909856617450714,0.4573244452476501,0.9363497495651244,0.7961603403091431,65.12081909179688,23.37,0
-0.7457522749900818,-0.488617330789566,0.4614177346229553,0.6152256727218628,0.796093225479126,65.12052917480469,23.37,0
-0.7472740411758423,-0.4926952719688415,0.4584468007087707,0.1046277731657028,0.7942140698432922,65.1203384399414,23.35,0
-0.7482506632804871,-0.4897144734859466,0.4565402269363403,-0.3269392251968384,0.7930081486701965,65.1202163696289,23.35,0
-0.7544751763343811,-0.4822037816047668,0.4497189223766327,-0.5465728640556335,0.7922342419624329,65.1201400756836,23.35,0
-0.7528719305992126,-0.4829816222190857,0.4509391784667969,-0.4188279509544372,0.7917376160621643,65.1200942993164,23.35,0
-0.7518430352210999,-0.4834808111190796,0.4461244940757751,-0.0502425730228424,0.7914189100265503,65.12006378173828,23.35,0
-0.7511827349662781,-0.4949966967105865,0.45423024892807,0.2471980899572372,0.7912144064903259,65.12004089355469,23.35,0
-0.7395634651184082,-0.5023869276046753,0.4650298357009887,0.4309132397174835,0.7910831570625305,65.12002563476562,23.35,0
-0.7489002346992493,-0.5127273201942444,0.4663626253604889,0.6634535193443298,0.7909989356994629,65.1200180053711,23.35,0
-0.7492942214012146,-0.5081676840782166,0.4560223817825317,0.8592579364776611,0.7918630838394165,65.12001037597656,23.35,0
-0.743949294090271,-0.5052415728569031,0.4493865966796875,0.7484639286994934,0.7924176454544067,65.12001037597656,23.35,0
-0.7181281447410583,-0.4977659583091736,0.4507259130477905,0.3549309372901916,0.7927735447883606,65.12001037597656,23.35,0
-0.712753176689148,-0.4929685592651367,0.4515854120254516,-0.0445014759898185,0.7930019497871399,65.12001037597656,23.35,0
-0.7204993367195129,-0.495487630367279,0.4577347636222839,-0.3581554591655731,0.7931485176086426,65.12001037597656,23.35,0
-0.7422637343406677,-0.4971042275428772,0.461681067943573,-0.6633352041244507,0.7932425737380981,65.12001037597656,23.35,0
-0.7506330609321594,-0.492543876171112,0.458615779876709,-0.8591820001602173,0.7933028936386108,65.12001037597656,23.35,0
-0.7448084950447083,-0.4952150881290436,0.4622464478015899,-0.7555803656578064,0.7933416366577148,65.12001037597656,23.35,0
-0.7354728579521179,-0.4969293177127838,0.4701741635799408,-0.3666630089282989,0.7896939516067505,64.91221618652344,23.35,0
-0.7574706673622131,-0.5036271810531616,0.4640661776065826,0.1731103956699371,0.7873530983924866,64.77886962890625,23.35,0
-0.777185320854187,-0.5191210508346558,0.4937330782413482,0.7667036652565002,0.7858508825302124,64.69329071044922,23.35,0
-0.767445981502533,-0.5122708082199097,0.4959782361984253,1.2622801065444946,0.7848868370056152,64.63837432861328,23.35,0
-0.7276091575622559,-0.5022768974304199,0.4750279784202575,1.4549223184585571,0.7842682003974915,64.60313415527344,23.35,0
-0.7188374996185303,-0.479070097208023,0.4335944354534149,1.3026906251907349,0.7838711738586426,64.58051300048828,23.35,0
-0.7244039177894592,-0.475372850894928,0.4237980842590332,0.986460030078888,0.7836163640022278,64.56600189208984,23.35,0
-0.7727583050727844,-0.4953912496566772,0.4119135737419128,0.704704761505127,0.7834528684616089,64.55668640136719,23.35,0
-0.8261805176734924,-0.5026401281356812,0.3930912315845489,0.5812116861343384,0.7810525894165039,64.55070495605469,23.35,0
-0.8212793469429016,-0.4904987215995788,0.3810121417045593,0.6452639698982239,0.7795122265815735,64.54686737060547,23.35,0
-0.8013407588005066,-0.4771093130111694,0.362064927816391,0.8475849628448486,0.7785237431526184,64.5444107055664,23.35,0
-0.7941430807113647,-0.4685167372226715,0.333112359046936,1.106395602226257,0.7778893709182739,64.54283142089844,23.35,0
-0.8063173890113831,-0.4741980731487274,0.3257278203964233,1.329806566238403,0.777482271194458,64.54181671142578,23.35,0
-0.819727897644043,-0.4722462594509125,0.3153910934925079,1.380031943321228,0.7772210240364075,64.54116821289062,23.35,0
-0.8339317440986633,-0.4877870082855224,0.3255508840084076,1.1328227519989014,0.7770533561706543,64.5407485961914,23.35,0
-0.8430469632148743,-0.5033579468727112,0.3432663977146148,0.6230857372283936,0.7769457697868347,64.54048156738281,23.35,0
-0.8377010822296143,-0.5077527165412903,0.3546352088451385,0.0630984306335449,0.7736635208129883,64.5403060913086,23.37,0
-0.8398681282997131,-0.482584148645401,0.3171488642692566,-0.2926865816116333,0.7715571522712708,64.54019927978516,23.37,0
-0.8524543642997742,-0.4664324223995209,0.2818967401981354,-0.3275498449802398,0.7702053785324097,64.54013061523438,23.37,0
-0.804553747177124,-0.467262715101242,0.3208494484424591,-0.2245329320430755,0.7693378925323486,64.54008483886719,23.37,0
-0.7962049841880798,-0.4789910912513733,0.3514448404312134,-0.25515216588974,0.7687811851501465,64.54005432128906,23.37,0
-0.8188360929489136,-0.4865176975727081,0.3598836660385132,-0.4073571264743805,0.7684239149093628,64.54003143310547,23.37,0
-0.8333594799041748,-0.4857500493526459,0.34290811419487,-0.4871206283569336,0.7681946754455566,64.54002380371094,23.37,0
-0.814690887928009,-0.4796596467494964,0.3488075137138366,-0.5992120504379272,0.768047571182251,64.5400161743164,23.37,0
-0.8251015543937683,-0.4757511913776397,0.2854200899600982,-0.9828299283981324,0.7642810344696045,64.54000854492188,23.37,0
-0.8485758304595947,-0.4732429683208465,0.2391439229249954,-1.5299501419067385,0.7618638873100281,64.54000854492188,23.37,0
-0.8860313892364502,-0.4828288853168487,0.2038487792015075,-1.9204686880111692,0.7603126764297485,64.54000854492188,23.37,0
-0.8708837628364563,-0.4777850210666656,0.2483716756105423,-2.0492734909057617,0.7593172192573547,64.54000854492188,23.37,0
-0.877956211566925,-0.4689503908157348,0.2433572560548782,-2.028038263320923,0.7586783766746521,64.54000854492188,23.37,0
-0.8768970966339111,-0.4744763672351837,0.2345415204763412,-1.9642547369003296,0.758268415927887,64.54000854492188,23.37,0
-0.8594241142272949,-0.4612292945384979,0.2232863157987594,-1.9161570072174072,0.7580053210258484,64.54000854492188,23.37,0
-0.8538087606430054,-0.4583258628845215,0.210465595126152,-1.896038293838501,0.7578364610671997,64.54000854492188,23.37,0
-0.8781940340995789,-0.4564626216888428,0.1630535721778869,-1.969109058380127,0.7572687864303589,64.34654998779297,23.37,0
-0.8882452845573425,-0.4608646631240845,0.1326272636651992,-2.324103355407715,0.7569044828414917,64.22239685058594,23.37,0
-0.8835000395774841,-0.4636896550655365,0.1186991930007934,-3.046313524246216,0.7566707134246826,64.1427230834961,23.37,0
-0.8860526084899902,-0.4599047899246216,0.0761743113398552,-3.8644614219665527,0.756520688533783,64.09159088134766,23.37,0
-0.9044840335845948,-0.457475870847702,0.0432865135371685,-4.371588706970215,0.7564244270324707,64.05877685546875,23.37,0
-0.8715300559997559,-0.4559171497821808,0.1117454096674919,-4.564478397369385,0.7563626766204834,64.0377197265625,23.37,0
-0.8895665407180786,-0.4661123752593994,0.150080606341362,-4.842314720153809,0.7563230395317078,64.02420806884766,23.37,0
-0.906739056110382,-0.4782528877258301,0.1187041923403739,-5.375288963317871,0.7562975883483887,64.01553344726562,23.37,0
-0.8897705078125,-0.4692506194114685,0.1265574842691421,-5.756729602813721,0.7562812566757202,64.00997161865234,23.37,0
-0.873283326625824,-0.4634734988212585,0.1539883762598037,-5.485625267028809,0.7562707662582397,64.00640106201172,23.37,0
-0.9018872380256652,-0.46536386013031,0.1044186502695083,-4.448245525360107,0.7562640309333801,64.00410461425781,23.37,0
-0.914645791053772,-0.4665769636631012,0.0670098811388015,-2.8761234283447266,0.7562597393989563,64.00263214111328,23.37,0
-0.8836490511894226,-0.4617576897144317,0.0877852812409401,-1.218779683113098,0.7562569379806519,64.0016860961914,23.37,0
-0.8917459845542908,-0.4642627239227295,0.0899221897125244,0.0275194831192493,0.7562551498413086,64.00108337402344,23.37,0
-0.9137355089187622,-0.4714680910110473,0.091293528676033,0.7090975046157837,0.7562540173530579,64.00069427490234,23.37,0
-0.9222493171691896,-0.4648965299129486,0.0753802582621574,1.1249996423721311,0.7562533020973206,64.00044250488281,23.37,0
-0.916517436504364,-0.4550815224647522,0.0483747124671936,1.563865303993225,0.7557939291000366,64.00028228759766,23.35,0
-0.9016435146331788,-0.443185031414032,0.025446331128478,1.927903175354004,0.7554991245269775,64.00018310546875,23.35,0
-0.8976960778236389,-0.4411483407020569,0.0107322158291935,1.8355073928833008,0.7553099393844604,64.00011444091797,23.35,0
-0.8727717399597168,-0.4510368406772613,0.1076472625136375,0.9593858122825624,0.755188524723053,64.00007629394531,23.35,0
-0.8959611058235168,-0.4629804790019989,0.1250595599412918,-0.6597183346748352,0.7551106214523315,64.00004577636719,23.35,0
-0.9220382571220398,-0.4762429893016815,0.1082448959350586,-2.4546895027160645,0.755060613155365,64.00003051757812,23.35,0
-0.9051864743232728,-0.4735585749149322,0.0974542126059532,-3.771397352218628,0.7550285458564758,64.0000228881836,23.35,0
-0.8719808459281921,-0.4662380814552307,0.1129204705357551,-4.541150569915772,0.7550079226493835,64.00001525878906,23.35,0
-0.8506714105606079,-0.4671379923820495,0.1396391540765762,-5.221427917480469,0.7600439786911011,64.00000762939453,23.35,0
-0.8593873381614685,-0.4677155017852783,0.1511878967285156,-6.120142936706543,0.7632758617401123,64.00000762939453,23.35,0
-0.8761762380599976,-0.4736838936805725,0.1530014276504516,-6.93691873550415,0.7653498649597168,64.00000762939453,23.35,0
-0.892548143863678,-0.4775140583515167,0.1373719274997711,-6.887866497039795,0.7666808366775513,64.00000762939453,23.35,0
-0.9142502546310424,-0.4799720346927643,0.1217440441250801,-5.283637046813965,0.7675349712371826,64.00000762939453,23.35,0
-0.8945907950401306,-0.4759516417980194,0.1285082846879959,-2.176240921020508,0.7680830955505371,64.00000762939453,23.35,0
-0.881974458694458,-0.4733715951442718,0.1496425122022628,1.451561450958252,0.7684348821640015,64.00000762939453,23.35,0
-0.873878002166748,-0.4717158675193786,0.1408141404390335,4.188089847564697,0.7686606049537659,64.00000762939453,23.35,0
-0.8854755163192749,-0.4818488657474518,0.1295508295297622,4.9876885414123535,0.7683465480804443,63.835205078125,23.35,0
-0.8929181098937988,-0.4883516430854797,0.1335182338953018,3.967482566833496,0.7681450247764587,63.72944641113281,23.35,0
-0.8920965790748596,-0.4813292026519775,0.1360642910003662,2.374138355255127,0.7680156826972961,63.66157531738281,23.35,0
-0.869178295135498,-0.4824203848838806,0.1768826246261596,1.4304383993148804,0.767932653427124,63.61801910400391,23.35,0
-0.8656662106513977,-0.4775228798389435,0.1806863844394683,1.3801252841949463,0.7678794264793396,63.59006881713867,23.35,0
-0.8858034610748291,-0.4743799269199371,0.1495407670736313,1.9210493564605715,0.7678452134132385,63.5721321105957,23.35,0
-0.8987263441085815,-0.4779607355594635,0.1407488584518432,3.00977635383606,0.7678232789039612,63.56061935424805,23.35,0
-0.884628415107727,-0.4746609330177307,0.1630955785512924,4.815474510192871,0.7678092122077942,63.5532341003418,23.35,0
-0.8811789751052856,-0.4725432991981506,0.1662408709526062,7.349977016448975,0.768718421459198,63.54849243164063,23.35,0
-0.8789653182029724,-0.4711843132972717,0.1626615673303604,10.12648105621338,0.7693018913269043,63.54545211791992,23.35,0
-0.8831424713134766,-0.4703122079372406,0.165962353348732,11.886786460876465,0.7696763277053833,63.54349899291992,23.35,0
-0.8802253603935242,-0.4753503203392029,0.173678383231163,11.22157859802246,0.7699165940284729,63.54224395751953,23.35,0
-0.8839511275291443,-0.4785834848880768,0.1730323135852813,8.125667572021484,0.7700707912445068,63.54143905639648,23.35,0
-0.8751465678215027,-0.4806583523750305,0.1782154738903045,4.186386585235596,0.770169734954834,63.540924072265625,23.35,0
-0.8694962859153748,-0.4819898605346679,0.1815417259931564,0.9705280661582948,0.7702332139015198,63.54059219360352,23.35,0
-0.8714680075645447,-0.4828443527221679,0.1836763173341751,-0.8102012276649475,0.7702739834785461,63.54037857055664,23.35,0
-0.8783311247825623,-0.4833927154541015,0.1906439512968063,-0.7886337041854858,0.7716773152351379,63.54024505615234,23.35,0
-0.8771377205848694,-0.4837446212768554,0.1895176023244857,0.9018524885177612,0.7725778818130493,63.540157318115234,23.35,0
-0.8707740902900696,-0.4839704632759094,0.177599236369133,3.201202392578125,0.7731558084487915,63.54010009765625,23.35,0
-0.8554947376251221,-0.4729198515415191,0.1699507087469101,5.081623554229736,0.773526668548584,63.54006576538086,23.35,0
-0.8568848967552185,-0.4770237505435943,0.1706400960683822,6.6358795166015625,0.7737646698951721,63.54004287719727,23.35,0
-0.8577769994735718,-0.479657381772995,0.1766802817583084,8.518208503723145,0.7739174365997314,63.5400276184082,23.35,0
-0.8639472723007202,-0.4813475012779236,0.1917520761489868,10.625404357910156,0.7740154266357422,63.540016174316406,23.35,0
-0.8791025280952454,-0.4880298972129822,0.1958265155553817,11.787805557250977,0.7740783095359802,63.54001235961914,23.35,0
-0.8832305669784546,-0.4867205023765564,0.1928434818983078,10.731732368469238,0.7745776176452637,63.54000854492188,23.35,0
-0.880281925201416,-0.4802824258804321,0.1797335892915725,7.427977085113525,0.7748980522155762,63.54000473022461,23.35,0
-0.8671941161155701,-0.4761508405208587,0.1769181936979293,3.3696436882019043,0.7751036882400513,63.54000473022461,23.35,0
-0.8587951064109802,-0.4790972173213959,0.1807092130184173,0.1776966452598571,0.775235652923584,63.54000473022461,23.35,0
-0.8757961988449097,-0.486585795879364,0.1943376064300537,-1.777564525604248,0.775320291519165,63.54000473022461,23.35,0
-0.8979020714759827,-0.4969893097877502,0.1974857598543167,-3.0215907096862797,0.7753746509552002,63.54000473022461,23.35,0
-0.889697253704071,-0.4868723750114441,0.1939082890748977,-3.873673915863037,0.7754095196723938,63.54000473022461,23.35,0
-0.8732362985610962,-0.4747821092605591,0.1804169267416,-4.284353733062744,0.7754318714141846,63.54000473022461,23.35,0
-0.8514770865440369,-0.4670232832431793,0.1773567199707031,-4.153821468353272,0.7768234014511108,63.34654235839844,23.35,0
-0.8543065786361694,-0.4732396602630615,0.1809906214475631,-3.3499553203582764,0.7777163982391357,63.222389221191406,23.35,0
-0.8673179149627686,-0.4828267395496368,0.1945182085037231,-2.0494964122772217,0.7782894968986511,63.14271545410156,23.35,0
-0.8868634104728699,-0.4889791905879974,0.2031994313001632,-1.0214776992797852,0.7786572575569153,63.09158706665039,23.35,0
-0.8994065523147583,-0.4929274916648865,0.1975749880075454,-0.9313839077949524,0.778893232345581,63.05877685546875,23.35,0
-0.8906627297401428,-0.4842657148838043,0.1827699989080429,-1.5470911264419556,0.7790446877479553,63.0377197265625,23.35,0
-0.8682581186294556,-0.4731093049049377,0.1732690036296844,-2.235987663269043,0.779141902923584,63.024208068847656,23.35,0
-0.8482823371887207,-0.4659497737884521,0.1783673614263534,-2.706742525100708,0.779204249382019,63.015533447265625,23.35,0
-0.8522563576698303,-0.4725507497787475,0.1816391944885254,-2.8619604110717773,0.7815396189689636,63.00996780395508,23.35,0
-0.8604044318199158,-0.4823846518993377,0.1893366426229477,-2.6068952083587646,0.783038318157196,63.00639724731445,23.35,0
-0.8880245089530945,-0.4942932724952698,0.1998742073774337,-2.0706212520599365,0.7840000987052917,63.00410461425781,23.35,0
-0.8721628189086914,-0.4907399713993072,0.2010388225317001,-1.5473426580429075,0.7846173048019409,63.00263595581055,23.35,0
-0.8563859462738037,-0.4772641360759735,0.1961884349584579,-1.1004726886749268,0.7850134372711182,63.00168991088867,23.35,0
-0.8518590331077576,-0.4686160981655121,0.1818801909685135,-0.6023253202438354,0.7852676510810852,63.00108337402344,23.35,0
-0.848953902721405,-0.4686640799045563,0.178295761346817,-0.0390278734266757,0.7854307889938354,63.00069427490234,23.35,0
-0.858285129070282,-0.4798904061317444,0.2039843499660492,0.4299412667751312,0.785535454750061,63.00044631958008,23.35,0
-0.8698711395263672,-0.4870948195457458,0.2092742621898651,0.6377516984939575,0.784684419631958,63.00028610229492,23.35,0
-0.8717085719108582,-0.4861204326152801,0.2014734745025634,0.5991488099098206,0.7841382622718811,63.00018310546875,23.35,0
-0.8672899603843689,-0.4798973500728607,0.1908695995807647,0.46331587433815,0.7837877869606018,63.000118255615234,23.35,0
-0.8644543886184692,-0.47590371966362,0.1840646415948867,0.2937468886375427,0.7835628390312195,63.00007629394531,23.35,0
-0.8682324290275574,-0.4733408391475677,0.1796976029872894,0.0380416624248027,0.7834185361862183,63.00004959106445,23.35,0
-0.8762547373771667,-0.4828916788101196,0.1936884224414825,-0.3445923328399658,0.7833259105682373,63.000030517578125,23.35,0
-0.8814029693603516,-0.4834230840206146,0.1914713680744171,-0.7585258483886719,0.7832664847373962,63.00001907348633,23.35,0
-0.8679134845733643,-0.4781663417816162,0.1900485903024673,-0.9847562313079834,0.78322833776474,63.0000114440918,23.35,0
-0.848061203956604,-0.474792867898941,0.2171244174242019,-0.9221484661102296,0.7873352766036987,63.00000762939453,23.35,0
-0.8409188985824585,-0.4726279675960541,0.2177067995071411,-0.7279196977615356,0.789970874786377,63.00000381469727,23.35,0
-0.8643242716789246,-0.4712386429309845,0.2012872099876403,-0.5674490928649902,0.7916622757911682,63.00000381469727,23.35,0
-0.8737466931343079,-0.4703470766544342,0.1851522922515869,-0.4358076751232147,0.7927476763725281,63.00000381469727,23.35,0
-0.8685979247093201,-0.4697749018669128,0.163602277636528,-0.4480573236942291,0.7934442162513733,63.00000381469727,23.35,0
-0.8820870518684387,-0.4750055074691772,0.1665660440921783,-0.7246116399765015,0.7938912510871887,63.00000381469727,23.35,0
-0.8571569919586182,-0.4727644324302673,0.1796635687351226,-0.9665746092796326,0.7941781282424927,63.00000381469727,23.35,0
-0.8467560410499573,-0.4769240021705627,0.1936665773391723,-0.8424116373062134,0.7943622469902039,63.00000381469727,23.35,0
-0.862472414970398,-0.4739955961704254,0.180261805653572,-0.5871847867965698,0.7949393391609192,62.89252471923828,23.35,0
-0.8613627552986145,-0.4777140915393829,0.1884527206420898,-0.5272895693778992,0.7953096628189087,62.82355117797852,23.35,0
-0.8550528287887573,-0.4801004230976105,0.1993069499731063,-0.517512857913971,0.7955473065376282,62.77928924560547,23.35,0
-0.862199068069458,-0.4816318154335022,0.1950770169496536,-0.3751008808612823,0.7956998348236084,62.750885009765625,23.35,0
-0.8387961983680725,-0.4658212661743164,0.1755691766738891,-0.1654840558767318,0.7957977056503296,62.7326545715332,23.35,0
-0.885353147983551,-0.4780660569667816,0.1742457151412964,0.1159215569496154,0.7958605289459229,62.72095489501953,23.35,0
-0.881644070148468,-0.4747284948825836,0.1622008383274078,0.4792228043079376,0.795900821685791,62.71344757080078,23.35,0
-0.8792637586593628,-0.4781844317913055,0.1880577802658081,0.6765428781509399,0.7959266901016235,62.7086296081543,23.35,0
-0.8777362108230591,-0.4748044610023498,0.1878579556941986,0.5058177709579468,0.7945661544799805,62.70553970336914,23.35,0
-0.8711581826210022,-0.4782331883907318,0.1933274865150451,0.1813017129898071,0.7936930060386658,62.703556060791016,23.35,0
-0.8725345134735107,-0.4748357534408569,0.1800442039966583,-0.0197888687252998,0.7931326627731323,62.7022819519043,23.35,0
-0.8790155649185181,-0.4726554751396179,0.1827152967453003,-0.1201766356825828,0.7927730679512024,62.70146560668945,23.35,0
-0.8775769472122192,-0.4600607454776764,0.1564405858516693,-0.2240080386400222,0.7925423383712769,62.7009391784668,23.35,0
-0.8766537308692932,-0.4519781768321991,0.1619700789451599,-0.2906410694122314,0.79239422082901,62.70060348510742,23.35,0
-0.8872568011283875,-0.4579868018627167,0.1543230414390564,-0.3119068443775177,0.792299211025238,62.70038604736328,23.35,0
-0.8772679567337036,-0.461842805147171,0.1774044930934906,-0.4545267224311828,0.7922382354736328,62.70024871826172,23.35,0
-0.8932487964630127,-0.4587195813655853,0.1530324071645736,-0.8039973974227905,0.7912812232971191,62.70016098022461,23.35,0
-0.8867110013961792,-0.4567152857780456,0.1429895907640457,-1.160822868347168,0.7906671166419983,62.700103759765625,23.35,0
-0.8769176602363586,-0.4610268175601959,0.1589357852935791,-1.2536749839782717,0.7902730107307434,62.70006561279297,23.35,0
-0.8706328868865967,-0.4637936949729919,0.1635713577270507,-1.177124261856079,0.7900200486183167,62.700042724609375,23.35,0
-0.8721974492073059,-0.4655693173408508,0.1777417510747909,-1.2892143726348877,0.7898577451705933,62.70002746582031,23.35,0
-0.884397029876709,-0.4723066091537475,0.1700421720743179,-1.5904321670532229,0.7897535562515259,62.70001602172852,23.35,0
-0.886628270149231,-0.471032440662384,0.1595032513141632,-1.6475985050201416,0.7896867394447327,62.70001220703125,23.35,0
-0.871266782283783,-0.4702147245407104,0.1751310676336288,-1.1683937311172483,0.7896438241004944,62.700008392333984,23.35,0
-0.8782020211219788,-0.4752877354621887,0.16836678981781,-0.3127335608005523,0.7877798676490784,62.70000457763672,23.35,0
-0.8770548701286316,-0.4729455411434173,0.1752214133739471,0.4871600866317749,0.786583662033081,62.70000457763672,23.35,0
-0.8763186931610107,-0.4714424610137939,0.1796203106641769,0.7783660888671875,0.7858160138130188,62.70000457763672,23.35,0
-0.8814440369606018,-0.4760756492614746,0.1768454909324646,0.3956158757209778,0.7853233814239502,62.70000457763672,23.35,0
-0.8847332000732422,-0.473451167345047,0.1806625425815582,-0.3229112029075622,0.7850072383880615,62.70000457763672,23.35,0
-0.8700506687164307,-0.477364718914032,0.194307655096054,-0.8950803279876709,0.7848044037818909,62.70000457763672,23.35,0
-0.871823787689209,-0.4798761904239654,0.1862709820270538,-1.1153799295425415,0.7846742272377014,62.70000457763672,23.35,0
-0.872961699962616,-0.4814879298210144,0.1867112815380096,-0.9414889216423036,0.7845906615257263,62.70000457763672,23.35,0
-0.8680941462516785,-0.4825222492218017,0.1925916224718094,-0.3032570481300354,0.7836191654205322,62.59968948364258,23.35,0
-0.8313838243484497,-0.4719904661178589,0.2131586074829101,0.5469802021980286,0.7829957604408264,62.53531265258789,23.35,0
-0.8526074290275574,-0.4708295464515686,0.1927706748247146,0.9672234654426576,0.782595694065094,62.49399948120117,23.35,0
-0.8718252778053284,-0.4756823182106018,0.1852846443653106,0.5598045587539673,0.7823389172554016,62.46748733520508,23.35,0
-0.8897559642791748,-0.4731987714767456,0.1804805397987365,-0.5292283892631531,0.7821741700172424,62.45047378540039,23.35,0
-0.8900672793388367,-0.471604973077774,0.182995319366455,-1.8586403131484983,0.7820684313774109,62.43955612182617,23.35,0
-0.8678759932518005,-0.4649843871593475,0.1846091598272323,-2.701032876968384,0.7820005416870117,62.43254852294922,23.35,0
-0.870428204536438,-0.4663334488868713,0.1800470501184463,-2.31016206741333,0.7819570302963257,62.42805099487305,23.35,0
-0.8776638507843018,-0.4671992063522339,0.1659238040447235,-0.7373533248901367,0.781929075717926,62.42516708374024,23.35,0
-0.8711117506027222,-0.4677547812461853,0.179251417517662,1.013577938079834,0.7819111347198486,62.423316955566406,23.35,0
-0.8781025409698486,-0.4681113362312317,0.1766087561845779,1.9294354915618896,0.781899631023407,62.42212677001953,23.35,0
-0.8769910335540771,-0.4739379286766052,0.1917061805725097,1.7684218883514404,0.7818922400474548,62.421363830566406,23.35,0
-0.8874732851982117,-0.4720793068408966,0.1790037304162979,0.9593251943588256,0.7818874716758728,62.420875549316406,23.35,0
-0.8886024355888367,-0.4764843285083771,0.1764498054981231,0.0675056725740432,0.7818844318389893,62.42056274414063,23.35,0
-0.8669359087944031,-0.4737134575843811,0.1916041672229766,-0.5943772196769714,0.7818824648857117,62.42036056518555,23.35,0
-0.8698249459266663,-0.4775330424308777,0.1957315951585769,-0.7862681150436401,0.7818812131881714,62.42023086547852,23.35,0
-0.8772767186164856,-0.4799842238426208,0.1815870106220245,-0.1570717692375183,0.7800440192222595,62.42014694213867,23.37,0
-0.8876566290855408,-0.4815572500228882,0.1669120639562606,1.1244412660598757,0.7788649797439575,62.42009353637695,23.37,0
-0.8719267249107361,-0.4769689440727234,0.1742878407239914,2.061484813690185,0.7781083583831787,62.42005920410156,23.37,0
-0.8730277419090271,-0.4740244448184967,0.1846189647912979,1.867493748664856,0.7776228189468384,62.42003631591797,23.37,0
-0.8737342953681946,-0.4721348285675049,0.1856511235237121,0.8724356293678284,0.7773112058639526,62.420021057128906,23.37,0
-0.8741877675056458,-0.4765199720859527,0.180715724825859,0.0475706532597541,0.7771112322807312,62.420013427734375,23.37,0
-0.8576854467391968,-0.4681385457515716,0.1831462383270263,0.1272576600313186,0.7769829034805298,62.42000961303711,23.37,0
-0.8918774127960205,-0.4795531630516052,0.1791082322597503,1.2173432111740112,0.7769005298614502,62.42000579833984,23.37,0
-0.902624249458313,-0.4924761652946472,0.1877124160528183,2.6226646900177,0.7754709124565125,62.42000198364258,23.37,0
-0.8927276730537415,-0.4951716363430023,0.1988318711519241,3.316729784011841,0.7745534181594849,62.42000198364258,23.37,0
-0.8807788491249084,-0.4857058823108673,0.1947721391916275,2.9238181114196777,0.7739646434783936,62.42000198364258,23.37,0
-0.8731107711791992,-0.4796313047409057,0.1753735244274139,1.8620078563690183,0.7735868096351624,62.42000198364258,23.37,0
-0.8737875819206238,-0.4757329821586609,0.1629246026277542,0.6611257195472717,0.7733443379402161,62.42000198364258,23.37,0
-0.8686241507530212,-0.4676335155963897,0.1773266941308975,-0.3495639264583587,0.7731887102127075,62.42000198364258,23.37,0
-0.865310549736023,-0.4624357223510742,0.1865691393613815,-0.8297852873802185,0.7730888724327087,62.42000198364258,23.37,0
-0.8743796348571777,-0.4758934080600738,0.1869026273488998,-0.5719167590141296,0.7730247974395752,62.42000198364258,23.37,0
-0.90818852186203,-0.4845297634601593,0.1927144080400467,0.1345372945070266,0.7725244164466858,62.35909652709961,23.37,0
-0.9074940085411072,-0.478876531124115,0.1852485388517379,0.7706102132797241,0.772203266620636,62.320011138916016,23.37,0
-0.8846572637557983,-0.4696508646011352,0.1748595982789993,1.160892367362976,0.7719971537590027,62.29492950439453,23.37,0
-0.8644041419029236,-0.4581325650215149,0.1625947952270507,1.278797626495361,0.7718648910522461,62.2788314819336,23.37,0
-0.8626024127006531,-0.461936354637146,0.1603217273950576,0.849319338798523,0.7717800140380859,62.26850128173828,23.37,0
-0.9006305932998657,-0.4811707139015198,0.1756563186645507,-0.182218536734581,0.7717255353927612,62.26187133789063,23.37,0
-0.9194371104240416,-0.4823186695575714,0.1854971796274185,-1.25261390209198,0.7716906070709229,62.25761795043945,23.37,0
-0.8867238759994507,-0.4718598127365112,0.1974102556705474,-1.7639857530593872,0.7716681957244873,62.25489044189453,23.37,0
-0.8657304048538208,-0.4651479125022888,0.1882620602846145,-1.6228374242782593,0.7707355618476868,62.25313949584961,23.37,0
-0.8858446478843689,-0.4552428424358368,0.143206849694252,-0.980539858341217,0.7701370716094971,62.25201416015625,23.37,0
-0.893155038356781,-0.4544841051101684,0.1478796601295471,-0.1097805798053741,0.7697529792785645,62.25129318237305,23.37,0
-0.8922486305236816,-0.4651927351951599,0.167671725153923,0.4741006195545196,0.7695065140724182,62.25083160400391,23.37,0
-0.8188958764076233,-0.4888582527637481,0.3147197067737579,0.3902322947978973,0.7693483233451843,62.25053405761719,23.37,0
-0.7550289630889893,-0.5096431970596313,0.4146844148635864,-0.1902281939983368,0.7692468166351318,62.25034332275391,23.37,0
-0.6972495317459106,-0.5173839926719666,0.4788359999656677,-0.8994964361190796,0.7691816687583923,62.250221252441406,23.37,0
-0.6601700186729431,-0.5167537927627563,0.5144070386886597,-1.497967004776001,0.7691398859024048,62.25014114379883,23.37,0
-0.6531678438186646,-0.5163493752479553,0.5316367149353027,-1.6670763492584229,0.7714083790779114,62.250091552734375,23.37,0
-0.6374787092208862,-0.5216876268386841,0.553889274597168,-1.1343200206756592,0.7728642225265503,62.25005722045898,23.37,0
-0.6218125820159912,-0.5195156335830688,0.5737674832344055,-0.2013026624917984,0.7737984657287598,62.250038146972656,23.37,0
-0.5613789558410645,-0.529317319393158,0.620110809803009,0.4332799315452575,0.7743980288505554,62.2500228881836,23.37,0
-0.5058028101921082,-0.5356075167655945,0.6610468029975891,0.3712010681629181,0.7747827768325806,62.25001525878906,23.37,0
-0.4757350385189056,-0.539644181728363,0.6817194223403931,-0.2597625255584717,0.775029718875885,62.2500114440918,23.37,0
-0.490025907754898,-0.5366368889808655,0.6725947856903076,-0.9906930327415466,0.775188148021698,62.25000762939453,23.37,0
-0.4991969764232635,-0.5291092395782471,0.6667391657829285,-1.2663030624389648,0.7752898335456848,62.25000381469727,23.37,0
-0.5050824284553528,-0.529876172542572,0.6741768717765808,-0.9057873487472534,0.7680104970932007,62.25000381469727,23.37,0
-0.5032616257667542,-0.5303683280944824,0.6789500117301941,-0.2230246216058731,0.7633389830589294,62.25000381469727,23.37,0
-0.5076909065246582,-0.5306841731071472,0.6820130944252014,0.5805559158325195,0.7603411078453064,62.25000381469727,23.37,0
-0.532924473285675,-0.5420824289321899,0.706369936466217,1.4831657409667969,0.7584172487258911,62.25000381469727,23.37,0
-0.5379223823547363,-0.538201630115509,0.6884140968322754,2.094651937484741,0.7571825981140137,62.25000381469727,23.37,0
-0.5355319380760193,-0.5189178586006165,0.648902177810669,1.996255874633789,0.7563902735710144,62.25000381469727,23.37,0
-0.5228023529052734,-0.5065426230430603,0.6347412467002869,1.5246973037719729,0.7558818459510803,62.25000381469727,23.37,0
-0.5146332383155823,-0.5041986703872681,0.6424469351768494,1.3438856601715088,0.7555555105209351,62.25000381469727,23.37,0
-0.5373796224594116,-0.5138900279998779,0.6529897451400757,1.5395352840423584,0.7571821808815002,62.18193435668945,23.37,0
-0.5575747489929199,-0.5201093554496765,0.6541577577590942,1.772569179534912,0.7582260966300964,62.13825225830078,23.37,0
-0.5649370551109314,-0.5241006016731262,0.6605051159858704,1.936447262763977,0.758895993232727,62.1102180480957,23.37,0
-0.5640639662742615,-0.5210641622543335,0.658980667591095,2.048779964447021,0.7593259215354919,62.092227935791016,23.37,0
-0.557905912399292,-0.5191155672073364,0.6524046063423157,1.8521753549575808,0.7596018314361572,62.08068084716797,23.37,0
-0.553954005241394,-0.5234628319740295,0.6481844782829285,1.0775597095489502,0.7597788572311401,62.073272705078125,23.37,0
-0.551417887210846,-0.5206548571586609,0.645476222038269,0.1111385002732276,0.759892463684082,62.06851959228516,23.37,0
-0.5497903823852539,-0.5244506597518921,0.6493359804153442,-0.1722928583621978,0.7599653601646423,62.065467834472656,23.37,0
-0.5319526195526123,-0.5212888121604919,0.657410740852356,0.4877224564552307,0.7664389610290527,62.06351089477539,23.37,0
-0.5317009091377258,-0.5192596912384033,0.6569948792457581,1.2946178913116455,0.7705933451652527,62.06225204467773,23.37,0
-0.5315393805503845,-0.5179575085639954,0.6679235696792603,1.3825278282165527,0.7732593417167664,62.06144714355469,23.37,0
-0.5258379578590393,-0.5171218514442444,0.6749369502067566,0.8478184342384338,0.7749702334403992,62.06092834472656,23.37,0
-0.5221790671348572,-0.5165855884552002,0.6794377565383911,0.3219613432884216,0.7760682106018066,62.06059646606445,23.37,0
-0.5254287719726562,-0.5162414312362671,0.6823261380195618,-0.1408936083316803,0.7767727971076965,62.06038284301758,23.37,0
-0.538709819316864,-0.5160205960273743,0.6673864126205444,-1.1616075038909912,0.7772249579429626,62.060245513916016,23.37,0
-0.5248417258262634,-0.5158788561820984,0.6745922565460205,-3.582852602005005,0.777515172958374,62.060157775878906,23.37,0
-0.5159419775009155,-0.5157878994941711,0.6848143339157104,-7.927495002746582,0.7754060626029968,62.06010055541992,23.35,0
-0.5102306604385376,-0.515729546546936,0.6857764720916748,-12.743374824523926,0.7740525603294373,62.06006622314453,23.35,0
-0.5177609920501709,-0.5156921148300171,0.6863939166069031,-14.289837837219238,0.7731839418411255,62.06004333496094,23.35,0
-0.5169957280158997,-0.5156680941581726,0.6867901682853699,-10.524608612060549,0.772626519203186,62.06002807617188,23.35,0
-0.5109068751335144,-0.5212504267692566,0.6814466714859009,-3.2359988689422607,0.7722687721252441,62.06001663208008,23.35,0
-0.5237927436828613,-0.5248328447341919,0.6668220162391663,5.62944221496582,0.7720392346382141,62.06001281738281,23.35,0
-0.5544532537460327,-0.5159363150596619,0.6462411880493164,15.621445655822754,0.7718918919563293,62.06000900268555,23.35,0
-0.5741294026374817,-0.5102270245552063,0.6330335736274719,24.373159408569336,0.7717973589897156,62.06000518798828,23.35,0
-0.5643653273582458,-0.506563127040863,0.641351044178009,27.6250057220459,0.7694416642189026,62.06000518798828,23.35,0
-0.5580992698669434,-0.5042118430137634,0.6522864699363708,23.757614135742188,0.7679299712181091,62.06000518798828,23.35,0
-0.5540781021118164,-0.5083007216453552,0.6593042016029358,14.988324165344238,0.7669598460197449,62.06000518798828,23.35,0
-0.5514975190162659,-0.5053269267082214,0.6526122093200684,4.706932544708252,0.7663372755050659,62.06000518798828,23.35,0
-0.5498414635658264,-0.503418505191803,0.6483176946640015,-4.169590473175049,0.7659377455711365,62.06000518798828,23.35,0
-0.5487787127494812,-0.5077915787696838,0.6511595249176025,-9.651078224182127,0.7656813263893127,62.06000518798828,23.35,0
-0.5480967164039612,-0.5105979442596436,0.6641787886619568,-11.384658813476562,0.7655167579650879,62.06000518798828,23.35,0
-0.5476590394973755,-0.512398898601532,0.6613382697105408,-10.91367244720459,0.7654111385345459,62.06000518798828,23.35,0
-0.5473781228065491,-0.5135546922683716,0.6539176106452942,-10.317648887634276,0.7685565948486328,61.99551773071289,23.35,0
-0.5471978783607483,-0.5142964124679565,0.6435576677322388,-10.390142440795898,0.7705751657485962,61.954132080078125,23.35,0
-0.5526799559593201,-0.5203701853752136,0.642507016658783,-10.569220542907717,0.7718705534934998,61.92757415771485,23.35,0
-0.5561980605125427,-0.5186702013015747,0.6530283093452454,-10.35812759399414,0.7727018594741821,61.91053009033203,23.35,0
-0.5472602248191833,-0.5175792574882507,0.6597802639007568,-9.943219184875488,0.7732353806495667,61.89959335327149,23.35,0
-0.5471222400665283,-0.5112813711166382,0.6585155129432678,-9.501409530639648,0.7735777497291565,61.892574310302734,23.35,0
-0.5470336675643921,-0.5072397589683533,0.6521061062812805,-8.712738037109375,0.7737974524497986,61.88806915283203,23.35,0
-0.5469768047332764,-0.5046460628509521,0.6479929089546204,-7.357543468475342,0.7739384770393372,61.88517761230469,23.35,0
-0.5525380969047546,-0.5085793733596802,0.6621466279029846,-6.06869649887085,0.7735700011253357,61.8833236694336,23.35,0
-0.5561070442199707,-0.5167012810707092,0.6768274307250977,-5.610593795776367,0.7733335494995117,61.88213348388672,23.35,0
-0.5527995824813843,-0.5163156986236572,0.6694554090499878,-5.782344818115234,0.7731817960739136,61.8813705444336,23.35,0
-0.5506770610809326,-0.5160682797431946,0.6591266989707947,-6.168423175811768,0.7730844020843506,61.88087844848633,23.35,0
-0.5437171459197998,-0.5159094929695129,0.6524983048439026,-7.086127281188965,0.773021936416626,61.88056564331055,23.35,0
-0.5448484420776367,-0.515807569026947,0.6538423895835876,-8.348581314086914,0.7729818224906921,61.88036346435547,23.35,0
-0.5511722564697266,-0.5213399529457092,0.6603026986122131,-8.710929870605469,0.7729560732841492,61.88023376464844,23.35,0
-0.5552304983139038,-0.5248903036117554,0.6756440997123718,-8.044238090515137,0.7729395627975464,61.880149841308594,23.35,0
-0.5466393232345581,-0.5159731507301331,0.6630982160568237,-8.085710525512695,0.7738468050956726,61.88009643554688,23.35,0
-0.5411259531974792,-0.5102506279945374,0.6438514590263367,-9.828378677368164,0.7744290232658386,61.88006210327149,23.35,0
-0.5375878214836121,-0.506578266620636,0.6370977759361267,-11.767132759094238,0.7748026847839355,61.88003921508789,23.35,0
-0.5353172421455383,-0.5098193287849426,0.6383614540100098,-10.811612129211426,0.7750424742698669,61.88002395629883,23.35,0
-0.5506534576416016,-0.5230948328971863,0.6615634560585022,-3.742612600326538,0.775196373462677,61.8800163269043,23.35,0
-0.5604953169822693,-0.5316142439842224,0.676453173160553,10.592207908630373,0.7752951383590698,61.88001251220703,23.35,0
-0.5500179529190063,-0.5258859992027283,0.6692152619361877,29.20289802551269,0.7753584980964661,61.880008697509766,23.35,0
-0.5488919615745544,-0.51661217212677,0.6533747911453247,47.25087738037109,0.7753991484642029,61.8800048828125,23.35,0
-0.5481693744659424,-0.510660707950592,0.6432092785835266,61.85672378540039,0.774966299533844,61.8800048828125,23.35,0
-0.5477056503295898,-0.5124391913414001,0.6478812098503113,69.86495208740234,0.7746885418891907,61.8800048828125,23.35,0
-0.5474080443382263,-0.5135805606842041,0.656477153301239,65.59991455078125,0.7745103240013123,61.8800048828125,23.35,0
-0.5416193008422852,-0.5087152123451233,0.6563957929611206,47.70139694213867,0.7743959426879883,61.8800048828125,23.35,0
-0.5435022115707397,-0.5111907124519348,0.6507458090782166,24.43206596374512,0.774322509765625,61.8800048828125,23.35,0
-0.5447105169296265,-0.5127793550491333,0.6527177095413208,5.801931858062744,0.7742754220962524,61.8800048828125,23.35,0
-0.5454859733581543,-0.5193966031074524,0.6595809459686279,-5.566272735595703,0.7742452025413513,61.8800048828125,23.35,0
-0.5515813827514648,-0.5236431956291199,0.6695831418037415,-11.923096656799316,0.7742257714271545,61.8800048828125,23.35,0
-0.5498952865600586,-0.5207706093788147,0.6704041957855225,-14.72356128692627,0.7732951045036316,61.84059524536133,23.35,0
-0.5488132238388062,-0.5189271569252014,0.6597355604171753,-15.119951248168944,0.7726978659629822,61.81530380249024,23.35,0
-0.5537165999412537,-0.5177441239356995,0.65288907289505,-15.248941421508787,0.7723146080970764,61.799072265625,23.35,0
-0.5456677675247192,-0.5169849395751953,0.6540931463241577,-16.127052307128906,0.7720686197280884,61.78865814208984,23.35,0
-0.5461002588272095,-0.5164977312088013,0.6492680907249451,-16.643999099731445,0.7719107866287231,61.78197479248047,23.35,0
-0.5463778376579285,-0.5105872750282288,0.6461716294288635,-15.96187686920166,0.771809458732605,61.77768325805664,23.35,0
-0.5409581661224365,-0.5067943334579468,0.6497822999954224,-15.026152610778809,0.771744430065155,61.77492904663086,23.35,0
-0.5430779457092285,-0.5043601989746094,0.6520994305610657,-14.81615924835205,0.7717027068138123,61.77316284179688,23.35,0
-0.5500360727310181,-0.5083959102630615,0.6535863876342773,-14.717223167419434,0.7730530500411987,61.77202987670898,23.35,0
-0.5489035844802856,-0.510985791683197,0.6601384282112122,-13.654192924499512,0.7739196419715881,61.77130126953125,23.35,0
-0.5481768250465393,-0.5182455778121948,0.6587453484535217,-11.757508277893066,0.7744757533073425,61.77083587646485,23.35,0
-0.5533081889152527,-0.5173067450523376,0.6578513979911804,-9.992191314697266,0.7748326659202576,61.770538330078125,23.35,0
-0.5566012263298035,-0.516704261302948,0.6572777032852173,-8.784078598022461,0.7750617265701294,61.77034378051758,23.35,0
-0.5531167387962341,-0.51631760597229,0.6569095253944397,-7.729340076446533,0.7752087116241455,61.77022171020508,23.35,0
-0.5564783811569214,-0.5160694718360901,0.6510754823684692,-6.40760612487793,0.7753030061721802,61.7701416015625,23.35,0
-0.5530378818511963,-0.5159102082252502,0.6529293060302734,-4.939607620239258,0.775363564491272,61.77009201049805,23.35,0
-0.5564277768135071,-0.5102102756500244,0.6485211849212646,-3.746750593185425,0.7744845747947693,61.770057678222656,23.35,0
-0.5586031675338745,-0.5121501684188843,0.6512901186943054,-2.9669132232666016,0.773920476436615,61.77003860473633,23.35,0
-0.5599992275238037,-0.5133950710296631,0.664262592792511,-2.319572925567627,0.7735584378242493,61.77002334594727,23.35,0
-0.5552973747253418,-0.5141939520835876,0.666989803314209,-1.5673850774765017,0.7733261585235596,61.770015716552734,23.35,0
-0.5522800087928772,-0.5147066116333008,0.6575444340705872,-0.9306234121322632,0.7731770873069763,61.77001190185547,23.35,0
-0.5503436326980591,-0.5150356292724609,0.6514829397201538,-0.7405235767364502,0.7730814218521118,61.7700080871582,23.35,0
-0.5491009950637817,-0.5152467489242554,0.6475930213928223,-0.8800564408302307,0.7730200290679932,61.77000427246094,23.35,0
-0.5539013147354126,-0.5209800601005554,0.6506944298744202,-0.9910960793495178,0.7729806303977966,61.77000427246094,23.35,0
-0.5625796318054199,-0.5246593356132507,0.6582825183868408,-0.911886751651764,0.7729552984237671,61.77000427246094,23.35,0
-0.5625510811805725,-0.5214227437973022,0.6519565582275391,-0.6389350891113281,0.7729390859603882,61.77000427246094,23.35,0
-0.5625327825546265,-0.5193456411361694,0.647896945476532,-0.2237378358840942,0.7729286551475525,61.77000427246094,23.35,0
-0.5569232702255249,-0.5180127024650574,0.6396939158439636,0.1430240124464035,0.7729219794273376,61.77000427246094,23.35,0
-0.5589211583137512,-0.5115594863891602,0.6288319230079651,0.2350876033306121,0.7729176878929138,61.77000427246094,23.35,0
-0.5602033138275146,-0.5130159854888916,0.6274591088294983,0.0075626648031175,0.7729149460792542,61.77000427246094,23.35,0
-0.5554283261299133,-0.5139507055282593,0.6377736926078796,-0.3390739560127258,0.7729131579399109,61.77000427246094,23.35,0
-0.5579618215560913,-0.5201483368873596,0.6387951970100403,-0.5256996750831604,0.7729120254516602,61.77000427246094,23.35,0
-0.5763809680938721,-0.5297233462333679,0.6450484991073608,-0.5057448744773865,0.7738291621208191,61.72343063354492,23.35,0
-0.5826035737991333,-0.5302702784538269,0.6490615010261536,-0.5144344568252563,0.7744176983833313,61.69354248046875,23.35,0
-0.5754013061523438,-0.5194257497787476,0.6348435282707214,-0.6812268495559692,0.774795413017273,61.67435836791992,23.35,0
-0.5539860129356384,-0.512466311454773,0.6257192492485046,-0.9029070138931274,0.7750378251075745,61.66204833984375,23.35,0
-0.5514384508132935,-0.5135979652404785,0.6198638081550598,-1.0451685190200806,0.7751933932304382,61.65414810180664,23.35,0
-0.5554013252258301,-0.5143241882324219,0.6217038631439209,-1.1006380319595337,0.7752931714057922,61.64907836914063,23.35,0
-0.5691400170326233,-0.5259857773780823,0.6340802907943726,-1.1219048500061035,0.7753572463989258,61.64582443237305,23.35,0
-0.5835545063018799,-0.5334694981575012,0.6476205587387085,-1.160630702972412,0.7753983736038208,61.64373779296875,23.35,0
-0.576011598110199,-0.5326743721961975,0.6507121324539185,-1.2499691247940063,0.7740476131439209,61.64239883422852,23.35,0
-0.5655732154846191,-0.5265663266181946,0.6415005922317505,-1.3753703832626345,0.7731807827949524,61.64154052734375,23.35,0
-0.5644721984863281,-0.517048716545105,0.629991352558136,-1.3841941356658936,0.7726244926452637,61.64098739624024,23.35,0
-0.5693634152412415,-0.516538679599762,0.6170076131820679,-1.149824142456055,0.7722675204277039,61.64063262939453,23.35,0
-0.5725023150444031,-0.5218091011047363,0.6254687309265137,-0.8238727450370789,0.7720384001731873,61.64040756225586,23.35,0
-0.5633211135864258,-0.5251913666725159,0.6420941352844238,-0.6326088309288025,0.7718913555145264,61.640262603759766,23.35,0
-0.5574291944503784,-0.5217641592025757,0.6359700560569763,-0.4668757319450378,0.7717970013618469,61.640167236328125,23.35,0
-0.5592458248138428,-0.513966977596283,0.6208444237709045,-0.0882420167326927,0.7717364430427551,61.64010620117188,23.35,0
-0.5660094618797302,-0.5145609974861145,0.6167353987693787,0.358950138092041,0.773074746131897,61.64006805419922,23.35,0
-0.5759477019309998,-0.5261377096176147,0.6308917999267578,0.502629280090332,0.7739335894584656,61.640045166015625,23.35,0
-0.5711299777030945,-0.527969241142273,0.6455743312835693,0.3691320121288299,0.7744847536087036,61.64002990722656,23.35,0
-0.5568426847457886,-0.5179490447044373,0.6326056718826294,0.3694429695606231,0.7748384475708008,61.640018463134766,23.35,0
-0.558869481086731,-0.5171164274215698,0.6186853051185608,0.6634137630462646,0.7750654220581055,61.64001083374024,23.35,0
-0.5657679438591003,-0.522179901599884,0.6153498291969299,0.973874807357788,0.7752110958099365,61.64000701904297,23.35,0
-0.5701949596405029,-0.5254293084144592,0.6188070774078369,1.0692161321640017,0.7753045558929443,61.6400032043457,23.35,0
-0.5674381852149963,-0.5331124067306519,0.6378190517425537,1.008593201637268,0.7753645181655884,61.6400032043457,23.35,0
-0.5544735193252563,-0.5268474221229553,0.6332265138626099,0.872959315776825,0.7735669612884521,61.6400032043457,23.35,0
-0.5517513155937195,-0.5228269100189209,0.6246815323829651,0.6605271697044373,0.7724133729934692,61.6400032043457,23.35,0
-0.5611999034881592,-0.5202467441558838,0.6191978454589844,0.4167231619358063,0.7716730833053589,61.6400032043457,23.35,0
-0.5728611946105957,-0.5185909867286682,0.6212764978408813,0.1921948492527008,0.7711979746818542,61.6400032043457,23.35,0
-0.5691491961479187,-0.5231261849403381,0.6338059902191162,-0.0450414642691612,0.7708930969238281,61.6400032043457,23.35,0
-0.5611693263053894,-0.5260366201400757,0.6418467164039612,-0.2940156161785126,0.7706974744796753,61.6400032043457,23.35,0
-0.561646044254303,-0.5223065614700317,0.6358112692832947,-0.4824534952640533,0.7705718874931335,61.6400032043457,23.35,0
-0.5843430757522583,-0.5255106091499329,0.637535810470581,-0.6320427060127258,0.7704913020133972,61.6400032043457,23.35,0
-0.5877131819725037,-0.5275667905807495,0.6442403197288513,-0.7925267815589905,0.7708985209465027,61.60417556762695,23.35,0
-0.5618870258331299,-0.5232885479927063,0.6429451107978821,-0.8632730841636658,0.7711598873138428,61.58118438720703,23.35,0
-0.5565088391304016,-0.5149452686309814,0.6253206133842468,-0.6758065223693848,0.7713276147842407,61.5664291381836,23.35,0
-0.5586552023887634,-0.5095909833908081,0.614010214805603,-0.2366520762443542,0.7714352607727051,61.55696105957031,23.35,0
-0.5712282061576843,-0.5229482650756836,0.6347407102584839,0.2601264715194702,0.7715043425559998,61.55088424682617,23.35,0
-0.5792968273162842,-0.5371179580688477,0.6536421179771423,0.5789303779602051,0.7715486288070679,61.5469856262207,23.35,0
-0.5676814913749695,-0.5294179320335388,0.6489786505699158,0.6473824977874756,0.7715770602226257,61.54448318481445,23.35,0
-0.5602273941040039,-0.5188787579536438,0.629192590713501,0.6805634498596191,0.771595299243927,61.542877197265625,23.35,0
-0.5610415935516357,-0.5121152997016907,0.6108972430229187,0.8666555285453796,0.7720662951469421,61.54184722900391,23.35,0
-0.555966317653656,-0.5133726596832275,0.6159496903419495,1.0290696620941162,0.7723685503005981,61.54118728637695,23.35,0
-0.5751003623008728,-0.5309728980064392,0.6471809148788452,0.9362559914588928,0.7725625038146973,61.54076385498047,23.35,0
-0.5649884343147278,-0.5366699695587158,0.667223334312439,0.6939821839332581,0.7726870179176331,61.540489196777344,23.35,0
-0.5640969276428223,-0.5179349184036255,0.6353031992912292,0.5456699132919312,0.7727668881416321,61.540313720703125,23.35,0
-0.5579270124435425,-0.5059118270874023,0.6092209219932556,0.540056049823761,0.7728181481361389,61.54020309448242,23.35,0
-0.5483697652816772,-0.5037938952445984,0.6036783456802368,0.5651140213012695,0.7728510499000549,61.540130615234375,23.35,0
-0.5478342771530151,-0.5024347305297852,0.6169147491455078,0.4952129423618316,0.7728721499443054,61.54008483886719,23.35,0
-0.5586861371994019,-0.5183557868003845,0.6478002071380615,0.2963037192821502,0.772426426410675,61.54005432128906,23.35,0
-0.5712480545043945,-0.5285730361938477,0.6564251780509949,0.0611779317259788,0.772140383720398,61.540035247802734,23.35,0
-0.5737117528915405,-0.5295320749282837,0.6563624143600464,-0.0574690736830234,0.7719568014144897,61.54002380371094,23.35,0
