acc_x,acc_y,acc_z,bvp,eda,hr,temp,label
0.0,0.0,0.0,0.0,0.0,0.0,24.87,0
-0.0651041641831398,-0.1536458283662796,0.0338541641831398,-1.3149999380111694,0.0627851635217666,15.083332061767578,24.87,0
-0.1398628056049347,-0.3471798896789551,0.0876524448394775,-3.451951265335083,0.1470091789960861,35.317073822021484,24.87,0
-0.2098733335733413,-0.5155211687088013,0.1344476789236068,-5.62966775894165,0.2202695608139038,52.91694259643555,24.87,0
-0.271626204252243,-0.6383352279663086,0.163249135017395,-7.64890193939209,0.2737169563770294,65.75699615478516,24.87,0
-0.3079457879066467,-0.7050163745880127,0.188238650560379,-10.059494972229004,0.3099031150341034,74.45025634765625,24.87,0
-0.320670485496521,-0.7931933999061584,0.1935292184352874,-13.336433410644531,0.3336464464664459,80.15428161621094,24.87,0
-0.4126016497611999,-0.8056666851043701,0.1634796559810638,-17.076305389404297,0.3490238189697265,83.84850311279297,24.87,0
-0.3991488516330719,-0.8696033358573914,0.1385324001312255,-20.80560302734375,0.3575542271137237,86.22821807861328,24.89,0
-0.3793129026889801,-0.8771302700042725,0.1336870342493057,-25.27215003967285,0.3630370795726776,87.75775909423828,24.89,0
-0.3665751516819,-0.887560248374939,0.1305755525827407,-31.496461868286133,0.3665578961372375,88.73995971679688,24.89,0
-0.3583986461162567,-0.9054498672485352,0.1285782605409622,-38.97743606567383,0.3688179552555084,89.37044525146484,24.89,0
-0.3475533127784729,-0.90573650598526,0.1384914815425872,-46.637603759765625,0.3702684938907623,89.77510070800781,24.89,0
-0.3461907804012298,-0.8947250843048096,0.1392558217048645,-55.14694213867188,0.3711993992328644,90.03479766845703,24.89,0
-0.3565118312835693,-0.8932561874389648,0.1285508573055267,-66.29693603515625,0.3717968165874481,90.2014617919922,24.89,0
-0.357537567615509,-0.9035090804100036,0.1272787451744079,-80.15540313720703,0.3721802234649658,90.30841827392578,24.89,0
-0.3581958413124084,-0.9100887775421144,0.1264623701572418,-94.83484649658205,0.3733444809913635,90.3770523071289,24.89,0
-0.3642160594463348,-0.9143112897872924,0.1147429198026657,-109.24222564697266,0.374091625213623,90.4210968017578,24.89,0
-0.3680794835090637,-0.9114232659339904,0.1016242727637291,-124.47453308105467,0.3745711147785187,90.4493637084961,24.89,0
-0.376156598329544,-0.9151676893234252,0.087607704102993,-142.57208251953125,0.3748788237571716,90.4675064086914,24.89,0
-0.3869377970695495,-0.9063751101493835,0.0786126777529716,-164.5934295654297,0.3750762939453125,90.4791488647461,24.89,0
-0.3770632147789001,-0.9063302874565125,0.0784379616379737,-186.85073852539065,0.375203013420105,90.4866180419922,24.89,0
-0.3651285171508789,-0.9118992686271667,0.0895213931798935,-198.55116271972656,0.3752843141555786,90.4914093017578,24.89,0
-0.3574694991111755,-0.9154731631278992,0.0966340973973274,-188.3296661376953,0.3753364980220794,90.4944839477539,24.89,0
-0.3581521511077881,-0.9177666902542114,0.1011986210942268,-153.49639892578125,0.3758289217948913,90.4964599609375,24.89,0
-0.3585902452468872,-0.91923850774765,0.1041278690099716,-98.26154327392578,0.3761449456214905,90.49772644042967,24.89,0
-0.3532736003398895,-0.9201830625534058,0.106007695198059,-28.339862823486328,0.3763477504253387,90.49854278564452,24.89,0
-0.3498617112636566,-0.9207891821861268,0.10721405595541,44.74462890625,0.3764778971672058,90.49906158447266,24.89,0
-0.3476721346378326,-0.9211781620979308,0.1023904532194137,102.89892578125,0.3765614032745361,90.49939727783205,24.89,0
-0.3462670147418976,-0.9158300161361694,0.0992949455976486,135.67271423339844,0.3766149878501892,90.4996109008789,24.89,0
-0.3453652858734131,-0.9123979210853576,0.0973084270954132,149.25686645507812,0.3766493797302246,90.49974822998048,24.89,0
-0.350384384393692,-0.9157931804656982,0.0960335955023765,156.45179748535156,0.3766714632511139,90.49983978271484,24.89,0
-0.3536053299903869,-0.9123742580413818,0.0952154770493507,164.5477752685547,0.376685619354248,94.50163269042967,24.89,0
-0.3500745892524719,-0.9101802110671996,0.0946904569864273,174.62994384765625,0.3766947090625763,97.06975555419922,24.89,0
-0.3534065186977386,-0.9143699407577516,0.0999513044953346,184.46055603027344,0.3767005503177643,98.71782684326172,24.89,0
-0.3499470055103302,-0.9170587062835692,0.1033274158835411,190.04200744628903,0.3767043054103851,99.77546691894533,24.89,0
-0.3477268815040588,-0.918784201145172,0.1054940074682235,189.7475128173828,0.3767067193984985,100.4542007446289,24.89,0
-0.3574976921081543,-0.9478803873062134,0.1180799528956413,187.8568115234375,0.3767082691192627,100.8897705078125,24.89,0
-0.3637680411338806,-0.9441615343093872,0.1317546665668487,190.7813415527344,0.3767092525959015,101.16929626464844,24.89,0
-0.3621942102909088,-0.9193838834762572,0.1517258584499359,199.86268615722656,0.3767098784446716,101.3486785888672,24.89,0
-0.355586439371109,-0.897885262966156,0.1701399832963943,210.99636840820312,0.376710295677185,101.46379089355467,24.87,0
-0.3289548456668854,-0.9064797759056092,0.1819571107625961,221.41221618652344,0.3767105638980865,101.53766632080078,24.87,0
-0.3062664568424225,-0.9567774534225464,0.2007362097501754,233.6566619873047,0.3767107129096985,101.58507537841795,24.87,0
-0.2917063534259796,-0.9834578037261964,0.2239831089973449,250.68942260742188,0.376710832118988,101.6155014038086,24.87,0
-0.2711669504642486,-0.9669930934906006,0.2500971853733063,267.4309997558594,0.3767108917236328,101.63502502441406,24.87,0
-0.2579859495162964,-0.9340358972549438,0.2724534571170807,270.8735046386719,0.3767109215259552,101.64755249023438,24.87,0
-0.2607226967811584,-0.8737013936042786,0.2700071036815643,251.5764923095703,0.3767109513282776,101.65559387207033,24.87,0
-0.2848700881004333,-0.8349822163581848,0.2572416365146637,211.61412048339844,0.3767109811306,101.66075134277344,24.87,0
-0.3059642612934112,-0.8157322406768799,0.2322561740875244,158.2860107421875,0.3762520551681518,101.6640625,24.87,0
-0.3362946212291717,-0.8201720118522644,0.2050263881683349,94.7361297607422,0.3759575486183166,101.66619110107422,24.87,0
-0.3613566756248474,-0.8286190032958984,0.1875518709421157,20.542375564575195,0.3757685422897339,101.66755676269533,24.87,0
-0.394233375787735,-0.8340398073196411,0.1819355189800262,-60.03060150146485,0.3756472468376159,101.6684341430664,24.87,0
-0.432125061750412,-0.8263230323791504,0.1895268112421035,-133.6129150390625,0.3755694031715393,101.6689910888672,24.87,0
-0.4676373302936554,-0.815773069858551,0.1943984627723693,-185.0612335205078,0.3755194544792175,101.66934967041016,24.87,0
-0.4960248172283172,-0.8146004676818848,0.1975248157978058,-209.4617156982422,0.3754874169826507,101.6695785522461,24.87,0
-0.5198400616645813,-0.8306412696838379,0.1939333528280258,-213.06517028808597,0.3754668533802032,101.66973114013672,24.87,0
-0.5295255184173584,-0.8577286601066589,0.2140196561813354,-204.23585510253903,0.3768307864665985,101.66983032226562,24.87,0
-0.5525344014167786,-0.9142962098121644,0.2493009865283966,-189.02572631835935,0.3777060806751251,101.66989135742188,24.87,0
-0.5728979706764221,-1.0289669036865234,0.2775402963161468,-172.14974975585938,0.3782677948474884,101.66992950439452,24.87,0
-0.6083572506904602,-1.0969581604003906,0.2676737904548645,-155.705810546875,0.3786282837390899,101.66995239257812,24.87,0
-0.6199173927307129,-1.140591025352478,0.222157597541809,-138.61483764648438,0.3788596093654632,101.6699676513672,24.87,0
-0.548967182636261,-1.1350054740905762,0.1537635028362274,-120.2309112548828,0.3790080845355987,101.66997528076172,24.87,0
-0.4698488116264343,-1.0250632762908936,0.0930787920951843,-102.5541534423828,0.3791033625602722,101.66998291015624,24.87,0
-0.4078796207904815,-0.9209219813346864,0.0485370606184005,-87.6097412109375,0.3791644871234894,101.66999053955078,24.87,0
-0.4072957932949066,-0.8932745456695557,0.0031594196334481,-74.76629638671875,0.379203736782074,102.32560729980467,24.87,0
-0.4349099993705749,-0.8867275714874268,-0.0371568873524665,-62.27876281738281,0.3792289197444916,102.74634552001952,24.87,0
-0.4694245457649231,-0.8881238698959351,-0.0854206755757331,-50.28116226196289,0.3792450726032257,103.01634979248048,24.87,0
-0.4915739893913269,-0.8386399745941162,-0.1051980406045913,-40.39641952514648,0.3792554438114166,103.18962097167967,24.87,0
-0.5001904368400574,-0.7844929099082947,-0.1010966971516609,-33.0068473815918,0.3792620897293091,103.30081939697266,24.87,0
-0.5057199597358704,-0.7497444748878479,-0.0872691348195076,-26.734886169433597,0.3792663514614105,103.37217712402344,24.87,0
-0.514866292476654,-0.7330427169799805,-0.0727976337075233,-20.639175415039062,0.3792690932750702,103.41796875,24.87,0
-0.5207358598709106,-0.7391178011894226,-0.052315104752779,-15.272772789001465,0.379270851612091,103.44735717773438,24.87,0
-0.5077093243598938,-0.7598097324371338,-0.016779500991106,-11.32378101348877,0.3783537745475769,103.46621704101562,24.89,0
-0.4769585430622101,-0.7786864042282104,0.0172207523137331,-8.578173637390137,0.3777652382850647,103.4783172607422,24.89,0
-0.4348333477973938,-0.8131914734840393,0.0446379333734512,-6.483021259307861,0.3773875534534454,103.486083984375,24.89,0
-0.4077998101711273,-0.8689215183258057,0.0678304806351661,-4.787380695343018,0.3771451711654663,103.4910659790039,24.89,0
-0.3904512524604797,-0.9158813953399658,0.0883118957281112,-3.4520182609558105,0.3769896328449249,103.49427032470705,24.89,0
-0.3961112797260284,-0.9348219633102416,0.095857910811901,-2.476834535598755,0.3768898248672485,103.49632263183594,24.89,0
-0.4053413271903991,-0.9525747299194336,0.1007005125284195,-1.88326096534729,0.376825749874115,103.49764251708984,24.89,0
-0.456046849489212,-1.0871185064315796,0.1038082167506218,-1.631312370300293,0.3767846524715423,103.4984893798828,24.89,0
-0.5109778046607971,-1.1566675901412964,0.1225958839058876,-1.5341126918792725,0.377217561006546,103.49903106689452,24.89,0
-0.5350338220596313,-1.0669535398483276,0.1514460444450378,-1.278276443481445,0.3774953782558441,103.49937438964844,24.89,0
-0.4944938123226166,-0.9701958894729614,0.141971543431282,-0.5802916288375854,0.3776736557483673,103.49959564208984,24.89,0
-0.4404886960983276,-0.9752756357192992,0.1190980374813079,0.5017507672309875,0.3777880668640136,103.49974060058594,24.89,0
-0.3722446858882904,-0.9953289031982422,0.0932235866785049,1.532905340194702,0.3778614699840545,103.49983215332033,24.89,0
-0.3172540664672851,-0.9746112823486328,0.0934121757745742,2.187475681304932,0.3779085874557495,103.49989318847656,24.89,0
-0.2595731317996979,-0.9445225596427916,0.1159242987632751,2.5932111740112305,0.377938836812973,103.49993133544922,24.89,0
-0.2617412507534027,-0.8580400347709656,0.1135779619216919,2.9252402782440186,0.3779582381248474,103.4999542236328,24.89,0
-0.2911215126514435,-0.7913450002670288,0.0896811187267303,2.9663538932800293,0.3784296214580536,103.49996948242188,24.89,0
-0.3435627222061157,-0.7765328288078308,0.0407588556408882,2.4875950813293457,0.3787321448326111,103.4999771118164,24.89,0
-0.3996075689792633,-0.7782227993011475,0.0037655897904187,1.811349868774414,0.3789262771606445,103.49998474121094,24.89,0
-0.4635627865791321,-0.8016983866691589,-0.0199745595455169,1.4597738981246948,0.3790508508682251,103.49999237060548,24.89,0
-0.47101891040802,-0.816763699054718,-0.0128185227513313,1.506428360939026,0.3791308104991913,103.49999237060548,24.89,0
-0.459010511636734,-0.8096384406089783,-0.0026284155901521,1.6510109901428225,0.3791821002960205,103.49999237060548,24.89,0
-0.4289131164550781,-0.7938702702522278,0.0207043327391147,1.7043874263763428,0.3792150318622589,103.49999237060548,24.89,0
-0.4040005505084991,-0.7949467301368713,0.0412757210433483,1.6562421321868896,0.3792361617088318,103.49999237060548,24.89,0
-0.4048064351081848,-0.8348219394683838,0.071270577609539,1.5751891136169434,0.37879079580307,104.32398986816406,24.89,0
-0.4221169352531433,-0.8772048950195312,0.0905195474624633,1.7345459461212158,0.3785049617290497,104.852783203125,24.89,0
-0.4220302700996399,-0.9211971759796144,0.0972746536135673,2.424354553222656,0.3783215284347534,105.19213104248048,24.89,0
-0.4107790887355804,-1.0669821500778198,0.1128052398562431,3.433080673217773,0.3782038390636444,105.40990447998048,24.89,0
-0.3923631906509399,-1.171734094619751,0.1395651996135711,4.055345058441162,0.3781282901763916,105.5496597290039,24.89,0
-0.4085337817668915,-1.2837400436401367,0.1231515556573867,3.723833322525024,0.3780798316001892,105.63935089111328,24.89,0
-0.4021178185939789,-1.215674638748169,0.0902271270751953,2.457810878753662,0.3780487179756164,105.69690704345705,24.89,0
-0.3812071084976196,-1.0936254262924194,0.0635003522038459,0.817775547504425,0.3780287504196167,105.7338409423828,24.89,0
-0.3397989571094513,-0.9481279253959656,0.0351530946791172,-0.6037100553512573,0.3784748613834381,105.7575454711914,24.91,0
-0.3188233375549316,-0.8939404487609863,0.0113636851310729,-1.7774657011032104,0.3787611722946167,105.77275848388672,24.91,0
-0.3501445949077606,-0.9599259495735168,-0.0095007643103599,-2.892554521560669,0.3789449036121368,105.7825164794922,24.91,0
-0.3870381116867065,-0.9239028096199036,-0.0228903666138649,-3.719214200973511,0.3790628015995025,105.78878021240234,24.91,0
-0.3939209282398224,-0.8951874375343323,-0.0482763648033142,-3.938032865524292,0.3791384696960449,105.79280090332033,24.91,0
-0.3479579389095306,-0.8431729674339294,-0.047774314880371,-3.734530687332153,0.3791870176792145,105.79537963867188,24.91,0
-0.3408526480197906,-0.8041952848434448,-0.0362565815448761,-3.435553789138794,0.379218190908432,105.79703521728516,24.91,0
-0.3866728544235229,-0.7511927485466003,-0.0120718386024236,-3.1111323833465576,0.3792381882667541,105.798095703125,24.91,0
-0.4216753840446472,-0.7843520641326904,-0.0189425591379404,-2.795459985733032,0.3778738677501678,105.7987823486328,24.91,0
-0.4273446798324585,-0.822425127029419,-0.0233517922461032,-2.471072196960449,0.3769983351230621,105.7992172241211,24.91,0
-0.4029940366744995,-0.8580538034439087,0.0018074858235195,-1.961962342262268,0.3764364719390869,105.79949951171876,24.91,0
-0.370573878288269,-0.8977115750312805,0.0347465872764587,-1.2519093751907349,0.3760758936405182,105.7996826171875,24.91,0
-0.3385729193687439,-0.9847371578216552,0.0782761052250862,-0.6708480715751648,0.3758444786071777,105.79979705810548,24.91,0
-0.3348298668861389,-1.068574070930481,0.1118086203932762,-0.3767730295658111,0.3756959736347198,105.79987335205078,24.91,0
-0.3436233401298523,-1.1111801862716677,0.1333278566598892,-0.0268367081880569,0.3756006956100464,105.79991912841795,24.91,0
-0.3772553503513336,-1.0881423950195312,0.1527354419231414,0.6777974367141724,0.3755395412445068,105.7999496459961,24.91,0
-0.4100340008735657,-1.0677602291107178,0.1651901006698608,1.4846659898757937,0.3759592175483703,105.79997253417967,24.91,0
-0.453460544347763,-1.004300236701965,0.2011716663837433,2.1242754459381104,0.3762285411357879,105.79998016357422,24.91,0
-0.4869269728660583,-0.9355863332748412,0.2298603355884552,2.789102792739868,0.3764013946056366,105.79998779296876,24.91,0
-0.4804149270057678,-0.9642608165740968,0.225879967212677,3.563260555267334,0.3765123188495636,105.79999542236328,24.91,0
-0.4258559048175812,-1.0330424308776855,0.1953367292881012,3.992001533508301,0.3765835165977478,105.79999542236328,24.91,0
-0.3796475231647491,-1.071584701538086,0.1813336163759231,3.79066014289856,0.3766292035579681,105.79999542236328,24.91,0
-0.3276025354862213,-1.0347434282302856,0.2059338688850402,3.202881336212158,0.3766584992408752,105.79999542236328,24.91,0
-0.3109963834285736,-0.9159386157989502,0.2049275636672973,2.352778673171997,0.3766773045063019,105.79999542236328,24.91,0
-0.317132830619812,-0.8173054456710815,0.1874884516000747,1.0907166004180908,0.3785257935523987,106.05077362060548,24.91,0
-0.3770486116409302,-0.759606122970581,0.1371126174926757,-0.2780840098857879,0.3797120749950409,106.2117156982422,24.91,0
-0.4434879720211029,-0.7169802188873291,0.0991865321993827,-1.077684760093689,0.3804733455181122,106.31499481201172,24.91,0
-0.5085160136222839,-0.6672343015670776,0.0748477578163147,-1.218234658241272,0.3809618949890136,106.38127136230467,24.91,0
-0.5446494817733765,-0.6073213219642639,0.0648263022303581,-1.312014102935791,0.3812754154205322,106.4238052368164,24.91,0
-0.5734356641769409,-0.5688726305961609,0.0583951137959957,-1.6659674644470217,0.3814766108989715,106.45110321044922,24.91,0
-0.6087023019790649,-0.5721873641014099,0.0430723987519741,-1.896696925163269,0.381605714559555,106.46862030029295,24.91,0
-0.6369321942329407,-0.5743145942687988,0.0276413857936859,-1.711586356163025,0.3816885650157928,106.47986602783205,24.91,0
-0.6774395704269409,-0.6092663407325745,0.0121408756822347,-1.3885862827301023,0.3817417323589325,106.48707580566406,24.89,0
-0.7090326547622681,-0.715662956237793,0.0021935408003628,-1.1848859786987305,0.3817758560180664,106.49170684814452,24.89,0
-0.7349050641059875,-0.8175288438796997,-0.0097878603264689,-0.7962173819541931,0.3817977607250213,106.4946746826172,24.89,0
-0.7515084743499756,-0.866107165813446,-0.00628128554672,0.1661402881145477,0.3818118274211883,106.49658203125,24.89,0
-0.7509680390357971,-0.8580975532531738,0.0127623556181788,1.5002411603927612,0.3818208575248718,106.497802734375,24.89,0
-0.7282301187515259,-0.8473596572875977,0.0305812433362007,2.4710326194763184,0.381826639175415,106.49858856201172,24.89,0
-0.7192360162734985,-0.94682639837265,0.0476141534745693,2.391845941543579,0.3818303644657135,106.49909210205078,24.89,0
-0.7134641408920288,-1.0106583833694458,0.075338214635849,1.2053520679473877,0.3818327486515045,106.49942016601562,24.89,0
-0.6705756187438965,-1.0460243225097656,0.1155210211873054,-0.3621508479118347,0.3813749849796295,106.49962615966795,24.89,0
-0.6038678288459778,-1.051926851272583,0.1525035798549652,-1.4074922800064087,0.381081223487854,106.49976348876952,24.89,0
-0.4658964574337005,-1.0109325647354126,0.2098235040903091,-1.8490475416183472,0.3808926939964294,106.49984741210938,24.89,0
-0.3493655025959015,-0.9398425817489624,0.2857925593852997,-2.307958602905273,0.3807717263698578,106.4999008178711,24.89,0
-0.2969737350940704,-0.8942211270332336,0.317751795053482,-3.0108747482299805,0.3806940913200378,106.49993896484376,24.89,0
-0.2969383597373962,-0.8649439215660095,0.2990769743919372,-3.5013742446899414,0.3806442618370056,106.49996185302734,24.89,0
-0.3137089908123016,-0.8461554646492004,0.2758969962596893,-3.511629581451416,0.3806122839450836,106.4999771118164,24.89,0
-0.3244714140892029,-0.8340981602668762,0.2498258799314499,-3.3068389892578125,0.3805917501449585,106.49998474121094,24.89,0
-0.3257803320884704,-0.8207626938819885,0.2274971604347229,-3.164668560028076,0.3810378611087799,106.49999237060548,24.89,0
-0.32662034034729,-0.8066069483757019,0.2075701057910919,-3.159413576126098,0.3813241720199585,106.49999237060548,24.89,0
-0.3215616345405578,-0.8031203746795654,0.1835865080356598,-3.1990320682525635,0.3815079033374786,106.49999237060548,24.89,0
-0.3183152377605438,-0.8120784759521484,0.1569996774196624,-2.91635537147522,0.3816258013248443,106.49999237060548,24.89,0
-0.3218296468257904,-0.8626094460487366,0.1175466775894165,-1.975443720817566,0.3817014694213867,106.49999237060548,24.89,0
-0.3408783376216888,-0.9174284338951112,0.0810324624180793,-0.6586882472038269,0.3817500174045563,106.49999237060548,24.89,0
-0.3587004542350769,-0.9917925000190736,0.0408064201474189,0.3726236224174499,0.3817811906337738,106.49999237060548,24.89,0
-0.3701376616954803,-1.022721767425537,0.0037961138878017,0.8159230947494507,0.3818011879920959,106.49999237060548,24.89,0
-0.3830751776695251,-1.0649614334106443,-0.0255527459084987,0.985764741897583,0.3808957934379577,106.62896728515624,24.89,0
-0.4081710577011108,-1.108861804008484,-0.0387893803417682,1.3777828216552734,0.3803147673606872,106.71173858642578,24.89,0
-0.4466672539710998,-0.9970901608467102,-0.002501695184037,2.1810741424560547,0.3799419105052948,106.76485443115234,24.89,0
-0.4433830082416534,-0.9253615736961364,0.0263834279030561,3.2733747959136963,0.379702627658844,106.79894256591795,24.89,0
-0.3685043156147003,-0.9632968902587892,0.0169313661754131,4.52248477935791,0.3795490860939026,106.82081604003906,24.89,0
-0.3204514682292938,-1.0100326538085938,-0.0003299725940451,5.7934088706970215,0.3794505298137665,106.83485412597656,24.89,0
-0.3008094727993011,-1.0680139064788818,-0.0058095320127904,6.7559003829956055,0.3793872892856598,106.84386444091795,24.89,0
-0.2882043719291687,-1.0604407787322998,-0.00372822326608,7.104878902435303,0.3793466985225677,106.84964752197266,24.89,0
-0.2913106977939605,-0.9660163521766664,-0.0023925590794533,6.73770809173584,0.381156712770462,106.85335540771484,24.93,0
-0.2933041453361511,-0.8718335628509521,-0.0015354066854342,5.635096073150635,0.3823182880878448,106.8557357788086,24.93,0
-0.3001812100410461,-0.8057946562767029,-0.0065831099636852,3.870643138885498,0.3830637037754059,106.85726165771484,24.93,0
-0.3213878273963928,-0.791403591632843,-0.0098224356770515,1.7674407958984375,0.3835420906543731,106.85824584960938,24.93,0
-0.3405947983264923,-0.7877659797668457,-0.0119012482464313,-0.2235543876886367,0.3838490843772888,106.85887145996094,24.93,0
-0.3417251706123352,-0.7686382532119751,-0.0132353100925683,-1.787866473197937,0.3840461075305938,106.8592758178711,24.93,0
-0.3424505889415741,-0.7843520641326904,-0.0140914348885416,-2.8813164234161377,0.3841725289821625,106.85953521728516,24.93,0
-0.3597094416618347,-0.8056318163871765,-0.0090430714190006,-3.647516012191773,0.3842536509037018,106.85970306396484,24.93,0
-0.3875784873962402,-0.841679036617279,-0.0002055482909781,-4.114140510559082,0.385223925113678,106.85980987548828,24.93,0
-0.411061018705368,-0.8872031569480896,-0.0001319090661127,-4.248795032501221,0.3858466148376465,106.85987854003906,24.93,0
-0.409337431192398,-0.972395658493042,-0.0056824260391294,-4.213400840759277,0.3862462043762207,106.85992431640624,24.93,0
-0.3914380073547363,-1.0774472951889038,-0.014842202886939,-4.054549217224121,0.3865026533603668,106.85995483398438,24.93,0
-0.3855489790439605,-1.1616567373275757,-0.0151226455345749,-3.5012028217315674,0.3866672217845917,106.85997009277344,24.93,0
-0.4153563678264618,-1.1485241651535034,0.0126862535253167,-2.5728847980499268,0.3867728412151336,106.85997772216795,24.93,0
-0.4344850480556488,-1.056129813194275,0.0473257265985012,-1.8302581310272217,0.3868406116962433,106.8599853515625,24.93,0
-0.4299674034118652,-0.9240654110908508,0.080750897526741,-1.6008808612823486,0.3868840932846069,106.85999298095705,24.93,0
-0.4382637739181518,-0.9904539585113524,0.1077990233898162,-1.5683220624923706,0.3887480795383453,106.85999298095705,24.93,0
-0.4547834694385528,-1.0722427368164062,0.1195591762661933,-1.199917912483215,0.3899442851543426,106.85999298095705,24.93,0
-0.4150048792362213,-1.163914442062378,0.1383017152547836,-0.1753306984901428,0.3907119333744049,106.85999298095705,24.93,0
-0.361488401889801,-1.2003530263900757,0.1727207005023956,1.3742517232894895,0.3912045657634735,106.85999298095705,24.93,0
-0.2263846695423126,-1.2125416994094849,0.2116021364927292,2.8093414306640625,0.3915207087993622,106.85999298095705,24.93,0
-0.0837051346898078,-1.175581455230713,0.2533473372459411,3.504596948623657,0.3917236030101776,106.85999298095705,24.93,0
0.0246517024934291,-1.1014825105667114,0.2857347726821899,3.4098031520843506,0.3918538093566894,106.85999298095705,24.93,0
0.038211140781641,-0.9979523420333862,0.2785302996635437,2.940556287765503,0.3919373452663421,106.85999298095705,24.93,0
0.0133261634036898,-0.9147193431854248,0.2067335844039917,2.488952398300171,0.3956634700298309,106.86715698242188,24.93,0
-0.0418280065059661,-0.8389140963554382,0.1438652575016021,2.1489830017089844,0.3980546593666076,106.87175750732422,24.93,0
-0.0996138751506805,-0.7622777819633484,0.0923244431614875,1.8233330249786377,0.3995892107486725,106.8747100830078,24.93,0
-0.1422952860593795,-0.724292516708374,0.0592485144734382,1.4746291637420654,0.4005739986896515,106.87660217285156,24.93,0
-0.1696857661008834,-0.7558935284614563,0.0436200611293315,1.143373727798462,0.4012059569358825,106.87781524658205,24.93,0
-0.1704700738191604,-0.8769331574440002,0.0167972948402166,0.841228723526001,0.4016115069389343,106.87859344482422,24.93,0
-0.1597778499126434,-0.9714027643203736,-0.0116115612909197,0.5971733927726746,0.401871770620346,106.87909698486328,24.93,0
-0.147318422794342,-1.0936033725738523,-0.0578316003084182,0.4835436344146728,0.4020388126373291,106.8794174194336,24.93,0
-0.1449204534292221,-1.239198088645935,-0.1098840609192848,0.5575081706047058,0.4067363440990448,106.87962341308594,24.89,0
-0.1881637722253799,-1.3886101245880127,-0.1768749803304672,0.8235114812850952,0.4097509682178497,106.8797607421875,24.89,0
-0.2550992667675018,-1.462103009223938,-0.2198658883571624,1.2414147853851318,0.4116855561733246,106.87984466552734,24.89,0
-0.348434567451477,-1.25736665725708,-0.1802816987037658,1.7138079404830933,0.4129270911216736,106.87989807128906,24.89,0
-0.357951819896698,-1.0811965465545654,-0.1100966408848762,2.110109567642212,0.4137238264083862,106.87993621826172,24.89,0
-0.3136794865131378,-1.0353139638900757,-0.059458140283823,2.3286073207855225,0.4142351150512695,106.87995910644533,24.89,0
-0.2404858618974685,-1.0562491416931152,-0.0381568111479282,2.3470191955566406,0.414563238620758,106.87997436523438,24.89,0
-0.2047099471092224,-1.0640863180160522,-0.0356823951005935,2.122384786605835,0.4147738218307495,106.8799819946289,24.89,0
-0.1593599319458007,-0.9907469153404236,-0.0452900044620037,1.512492537498474,0.4204175174236297,106.87998962402344,24.89,0
-0.1582457721233368,-0.904497504234314,-0.0402600653469562,0.4834003448486328,0.4240393042564392,106.87998962402344,24.89,0
-0.1799218654632568,-0.8435498476028442,-0.0258365925401449,-0.7215632796287537,0.4263635575771332,106.87998962402344,24.89,0
-0.2050278931856155,-0.815632700920105,-0.0165804382413625,-1.7706979513168335,0.4278551340103149,106.87998962402344,24.89,0
-0.2323350459337234,-0.82010817527771,-0.0162381455302238,-2.6016054153442383,0.4288123548030853,106.87998962402344,24.89,0
-0.2666525244712829,-0.850969135761261,-0.021616255864501,-3.2853024005889893,0.4294266402721405,106.87998962402344,24.89,0
-0.2942732870578766,-0.8427850604057312,-0.0250676181167364,-3.709729194641113,0.4298208653926849,106.87998962402344,24.89,0
-0.3119986951351166,-0.826337456703186,-0.0216847285628318,-3.756399631500244,0.4300738573074341,106.87998962402344,24.89,0
-0.3233738541603088,-0.8269778490066528,0.0084750866517424,-3.5534827709198,0.4352858364582062,106.87998962402344,24.89,0
-0.3362715244293213,-0.8553776741027832,0.0502210184931755,-3.244133472442627,0.4386305809020996,106.87998962402344,24.89,0
-0.3333529829978943,-0.9351785778999328,0.077011153101921,-2.762587547302246,0.440777063369751,106.87998962402344,24.89,0
-0.2587089538574219,-1.075954556465149,0.0718124210834503,-2.1132142543792725,0.4421545565128326,106.87998962402344,24.89,0
-0.1996111571788787,-1.1662964820861816,0.0740739479660987,-1.5424331426620483,0.4430385529994964,106.87998962402344,24.89,0
-0.2232611179351806,-1.173892855644226,0.1035141423344612,-1.1940516233444214,0.4436058402061462,106.87998962402344,24.89,0
-0.2552316188812256,-1.1675721406936646,0.1447982639074325,-0.863003134727478,0.4439699053764343,106.87998962402344,24.89,0
-0.2589551210403442,-1.051560401916504,0.1936831325292587,-0.2385590821504593,0.4442035257816314,106.87998962402344,24.89,0
-0.2333557903766632,-1.044284105300903,0.2306524068117141,0.7138898372650146,0.4480255842208862,107.04120635986328,24.89,0
-0.205732062458992,-1.0843967199325562,0.2431816011667251,1.7227826118469238,0.4504783749580383,107.14466857910156,24.89,0
-0.1544180959463119,-1.1045409440994265,0.2288310229778289,2.449048519134521,0.4520524144172668,107.21106719970705,24.89,0
-0.1046944186091423,-1.111870527267456,0.2140238732099533,2.743160486221313,0.4530625641345978,107.25367736816406,24.89,0
-0.0727846249938011,-1.054998755455017,0.2213148176670074,2.9068267345428467,0.4537108242511749,107.28102111816406,24.89,0
-0.0914911776781082,-0.979317307472229,0.22039595246315,3.531331777572632,0.4541268348693847,107.29856872558594,24.89,0
-0.1090937405824661,-0.9195537567138672,0.2086107283830642,4.6916093826293945,0.4543938040733337,107.30982971191406,24.89,0
-0.1203900501132011,-0.9147875905036926,0.1786565482616424,5.597424507141113,0.4545651376247406,107.31705474853516,24.89,0
-0.138834923505783,-0.906131148338318,0.1482381373643875,5.358314514160156,0.459265798330307,107.32169342041016,24.93,0
-0.1618673354387283,-0.8669893145561218,0.1175218001008033,3.796915292739868,0.4622823894023895,107.32466888427734,24.93,0
-0.1710504293441772,-0.8530659079551697,0.0978098213672638,1.458598494529724,0.464218258857727,107.32657623291016,24.93,0
-0.1769436150789261,-0.8553261756896973,0.0795620381832122,-0.7871743440628052,0.4654605984687805,107.32780456542967,24.93,0
-0.1695299744606018,-0.8791677951812744,0.0566561110317707,-2.224799633026123,0.4662578701972961,107.3285903930664,24.93,0
-0.1591745465993881,-0.9168590903282166,0.030760858207941,-2.6709020137786865,0.4667695164680481,107.32909393310548,24.93,0
-0.1525290310382843,-0.974633812904358,0.0029472261667251,-2.394720554351806,0.4670978486537933,107.32942199707033,24.93,0
-0.1706554144620895,-1.0005147457122805,-0.020499737933278,-1.8628082275390625,0.4673085510730743,107.32962799072266,24.93,0
-0.2046789824962616,-1.028319239616394,-0.0299488753080368,-1.5823612213134766,0.4679026901721954,107.32976531982422,24.93,0
-0.2712955474853515,-1.1133358478546145,-0.0304150134325027,-1.699740290641785,0.4682839810848236,107.32984924316406,24.93,0
-0.3252417743206024,-1.2462633848190308,-0.0307141542434692,-1.7929803133010864,0.468528687953949,107.32990264892578,24.93,0
-0.3262747228145599,-1.253199815750122,-0.0085150273516774,-1.519636869430542,0.4686857163906097,107.32994079589844,24.93,0
-0.3213398158550262,-1.084120273590088,0.072904385626316,-1.1650919914245603,0.4687864780426025,107.32996368408205,24.93,0
-0.323770672082901,-0.908441424369812,0.1587413251399994,-1.1095291376113892,0.4688511490821838,107.3299789428711,24.93,0
-0.2973417639732361,-0.8796674609184265,0.2026309818029403,-1.2494182586669922,0.4688926637172699,107.32998657226562,24.93,0
-0.2300012558698654,-0.9339730739593506,0.2028079628944397,-1.3750168085098269,0.4689192771911621,107.32999420166016,24.93,0
-0.0804282650351524,-1.0136054754257202,0.1749326735734939,-1.4986096620559692,0.4698545932769775,107.32999420166016,24.93,0
-0.034820906817913,-0.9919378757476808,0.1738372445106506,-1.6280804872512815,0.4704548120498657,107.32999420166016,24.93,0
-0.0727260261774063,-0.9500439763069152,0.1787320226430893,-1.696837067604065,0.4708400070667267,107.32999420166016,24.93,0
-0.1810179650783538,-0.9007678031921388,0.1594821214675903,-1.708717942237854,0.4710871875286102,107.32999420166016,24.93,0
-0.2561112642288208,-0.8859385251998901,0.1247375458478927,-1.7414203882217407,0.4712458252906799,107.32999420166016,24.93,0
-0.2931062877178192,-0.8876174688339233,0.0688538253307342,-1.823310732841492,0.4713476300239563,107.32999420166016,24.93,0
-0.305651992559433,-0.9110860228538512,0.0329908728599548,-1.904523849487305,0.4714129567146301,107.32999420166016,24.93,0
-0.319300889968872,-0.909353494644165,0.0211716424673795,-1.8814077377319336,0.4714548885822296,107.32999420166016,24.93,0
-0.3336577415466308,-0.8690572381019592,0.0191845167428255,-1.6301231384277344,0.4723996520042419,107.42672729492188,24.93,0
-0.3428711295127868,-0.8431974053382874,0.0123115181922912,-1.0425366163253784,0.4730059504508972,107.48880004882812,24.93,0
-0.3487837612628937,-0.8433953523635864,0.0079008238390088,-0.2068877071142196,0.4733950495719909,107.52864074707033,24.93,0
-0.3637737035751343,-0.8715112805366516,0.0106680681928992,0.4726866781711578,0.4736447334289551,107.55420684814452,24.93,0
-0.3733933866024017,-0.9119455814361572,0.0180417001247406,0.7368347644805908,0.4738049805164337,107.57061004638672,24.93,0
-0.3683711886405945,-0.9658828377723694,0.0059803500771522,0.8490285873413086,0.4739077985286712,107.58113861083984,24.93,0
-0.3763437867164612,-1.039681077003479,-0.0073577044531702,1.1001569032669067,0.4739737808704376,107.58789825439452,24.93,0
-0.4094490110874176,-1.0534539222717283,-0.0271128490567207,1.4296976327896118,0.4740161299705505,107.59223175048828,24.93,0
-0.4418895840644836,-1.135063648223877,-0.0621816627681255,1.7414900064468384,0.47358438372612,107.5950164794922,24.89,0
-0.4683058559894562,-1.1426538228988647,-0.0790890306234359,2.0096492767333984,0.4733073115348816,107.5968017578125,24.89,0
-0.4852583110332489,-1.0579603910446167,-0.1123303025960922,2.120834827423096,0.4731295108795166,107.5979461669922,24.89,0
-0.4849418699741363,-1.0371956825256348,-0.1448581963777542,2.0309712886810303,0.4730153977870941,107.5986785888672,24.89,0
-0.4679454565048218,-1.063054442405701,-0.1657327264547348,1.776260495185852,0.4729421734809875,107.59915161132812,24.89,0
-0.4290492832660675,-1.1804090738296509,-0.1959221214056015,1.3333609104156494,0.4728951752185821,107.59945678710938,24.89,0
-0.3760990798473358,-1.2445249557495115,-0.2208937108516693,0.7840227484703064,0.4728650152683258,107.59964752197266,24.89,0
-0.2973364889621734,-1.2352908849716189,-0.2313212603330612,0.3705853819847107,0.4728456735610962,107.59976959228516,24.89,0
-0.2244000881910324,-1.2237671613693235,-0.2268175184726715,0.1124302297830581,0.4732921719551086,107.599853515625,24.89,0
-0.1719959378242492,-1.1827852725982666,-0.2127317190170288,-0.1929593384265899,0.4735787212848663,107.59990692138672,24.89,0
-0.1663548350334167,-1.1396921873092651,-0.2036922723054886,-0.5931475758552551,0.4737626016139984,107.59993743896484,24.89,0
-0.1739302575588226,-1.1064397096633911,-0.1978912651538849,-0.9431123733520508,0.4738806188106537,107.59996032714844,24.89,0
-0.1843895018100738,-1.057111382484436,-0.1885707378387451,-1.1748647689819336,0.4739563465118408,107.5999755859375,24.89,0
-0.1855038553476333,-1.0254552364349363,-0.176991581916809,-1.3450855016708374,0.4740049540996551,107.59998321533205,24.89,0
-0.1862189918756485,-1.00514018535614,-0.1527674347162246,-1.5044795274734497,0.4740361273288727,107.59999084472656,24.89,0
-0.2034712433815002,-0.992103099822998,-0.1260262131690979,-1.6820034980773926,0.4740561544895172,107.59999084472656,24.89,0
-0.2257383018732071,-0.9669433236122132,-0.1032674685120582,-1.881909966468811,0.4745282828807831,107.59999084472656,24.89,0
-0.2624191045761108,-0.9843838810920716,-0.088662214577198,-2.0101983547210693,0.4748312830924988,107.59999084472656,24.89,0
-0.2803609669208526,-1.0347607135772705,-0.0792894065380096,-1.7629295587539673,0.4750257134437561,107.59999084472656,24.89,0
-0.3030705749988556,-0.9999163150787354,-0.0340900532901287,-0.880566418170929,0.4751504957675934,107.59999084472656,24.89,0
-0.334437608718872,-0.9607619047164916,0.0452962592244148,0.4236940145492553,0.4752305746078491,107.59999084472656,24.89,0
-0.3713604807853699,-0.8572660088539124,0.129828467965126,1.6153682470321655,0.4752819538116455,107.59999084472656,24.89,0
-0.4230443239212036,-0.751663863658905,0.2008696943521499,2.365785837173462,0.4753149449825287,107.59999084472656,24.89,0
-0.428223192691803,-0.7510677576065063,0.2240687757730484,2.7076401710510254,0.4753361046314239,107.59999084472656,24.89,0
-0.42035111784935,-0.8794340491294861,0.2165655046701431,2.8302931785583496,0.4753496944904327,107.09127044677734,24.89,0
-0.4152992963790893,-0.9786054491996764,0.2285436689853668,2.830188035964966,0.4753583967685699,106.76480102539062,24.89,0
-0.4064595401287079,-1.0366501808166504,0.2530238926410675,2.5399320125579834,0.4753639996051788,106.55529022216795,24.89,0
-0.4175800085067749,-1.0179221630096436,0.2855271995067596,1.7338768243789673,0.4753675758838653,106.42083740234376,24.89,0
-0.4359120428562164,-0.9835125207901,0.2951904237270355,0.6039766073226929,0.4753698706626892,106.33455657958984,24.89,0
-0.4588720500469208,-0.9670282006263732,0.2566095292568207,-0.3253350853919983,0.4753713607788086,106.27918243408205,24.89,0
-0.4680086672306061,-0.9396561980247498,0.1926660984754562,-0.8393146395683289,0.475372314453125,106.24365234375,24.89,0
-0.4794698059558868,-0.9164926409721376,0.1404353380203247,-1.144079089164734,0.4753729104995727,106.2208480834961,24.89,0
-0.4868248999118805,-0.8792365193367004,0.1125144138932228,-1.3647373914718628,0.4758322238922119,106.20621490478516,24.91,0
-0.4859471917152405,-0.8497298955917358,0.0945963710546493,-1.395283341407776,0.4761269986629486,106.1968231201172,24.91,0
-0.4909817278385162,-0.8251964449882507,0.0719020515680313,-1.199931502342224,0.4763161540031433,106.1907958984375,24.91,0
-0.4942125976085663,-0.8206478357315063,0.0461425967514514,-0.8416984677314758,0.4764375388622284,106.18692779541016,24.91,0
-0.5018837451934814,-0.8289243578910828,0.0184161141514778,-0.414763480424881,0.4765154421329498,106.1844482421875,24.91,0
-0.5124044418334961,-0.8678224086761475,-0.0217682439833879,-0.0655470788478851,0.4765654504299164,106.18285369873048,24.91,0
-0.5247538089752197,-0.943164885044098,-0.0643495768308639,0.176472783088684,0.4765975475311279,106.18183135986328,24.91,0
-0.5270811319351196,-1.0530909299850464,-0.1196646988391876,0.4356818795204162,0.4766181409358978,106.1811752319336,24.91,0
-0.5341724157333374,-1.1012439727783203,-0.1719560772180557,0.6844266057014465,0.4757131338119507,106.18075561523438,24.91,0
-0.5275276899337769,-1.025788187980652,-0.1999159008264541,0.6828407645225525,0.4751323461532593,106.18048858642578,24.91,0
-0.4952746033668518,-0.8542138934135437,-0.2570433318614959,0.3522260785102844,0.4747596383094787,106.18031311035156,24.91,0
-0.4689786434173584,-0.7944873571395874,-0.3104977607727051,-0.1644623577594757,0.4745204448699951,106.1801986694336,24.91,0
-0.4800922870635986,-0.879309356212616,-0.3503994941711426,-0.771901547908783,0.4743669629096985,106.1801300048828,24.91,0
-0.5432021021842957,-0.9841232299804688,-0.364810585975647,-1.3766756057739258,0.4742684662342071,106.18008422851562,24.91,0
-0.5781046152114868,-1.0401911735534668,-0.368461012840271,-1.7361241579055786,0.4742052555084228,106.1800537109375,24.91,0
-0.5277319550514221,-1.0369879007339478,-0.3372170031070709,-1.7052695751190186,0.4741646945476532,106.1800308227539,24.91,0
-0.450623482465744,-1.0069433450698853,-0.2891775369644165,-1.574409008026123,0.4759750962257385,106.18002319335938,24.91,0
-0.3675530552864074,-0.9316847920417786,-0.2135663628578186,-1.7985317707061768,0.477136880159378,106.18001556396484,24.91,0
-0.3254387974739074,-0.8609970808029175,-0.1538479179143905,-2.368687391281128,0.477882444858551,106.18000793457033,24.91,0
-0.3152056038379669,-0.8156337738037109,-0.115524061024189,-2.863553047180176,0.4783609211444855,106.18000793457033,24.91,0
-0.3646162748336792,-0.8145110607147217,-0.0853322446346283,-3.080817222595215,0.4786679744720459,106.18000793457033,24.91,0
-0.4075207412242889,-0.830583930015564,-0.0603590980172157,-3.259653091430664,0.4788650274276733,106.18000793457033,24.91,0
-0.4070654809474945,-0.8632896542549133,-0.0443327687680721,-3.675356149673462,0.4789914786815643,106.18000793457033,24.91,0
-0.3843822181224823,-0.8618872165679932,-0.034047994762659,-4.235901355743408,0.479072630405426,106.18000793457033,24.91,0
-0.3698254227638244,-0.855389416217804,-0.0330455936491489,-4.563384056091309,0.4786654114723205,105.69635772705078,24.91,0
-0.3996681272983551,-0.9295883774757384,-0.0268045347183942,-4.479772567749023,0.4784041047096252,105.38597869873048,24.91,0
-0.4636016488075256,-1.005193829536438,-0.011603832244873,-4.164587497711182,0.4782364070415497,105.18679809570312,24.91,0
-0.527021586894989,-1.0089309215545654,0.0093466518446803,-3.872755289077759,0.4781287908554077,105.05897521972656,24.91,0
-0.5565253496170044,-0.8657869696617126,0.0507803410291671,-3.7248826026916495,0.478059709072113,104.97694396972656,24.91,0
-0.5530680418014526,-0.7683276534080505,0.0661745443940162,-3.579830408096313,0.4780153930187225,104.92430114746094,24.91,0
-0.5116649270057678,-0.8569238185882568,0.0536625608801841,-2.798889636993408,0.4779869616031647,104.89051818847656,24.91,0
-0.473899245262146,-0.9473663568496704,0.0624264143407344,-0.7572193145751953,0.477968692779541,104.86883544921876,24.91,0
-0.4440656304359436,-0.949429452419281,0.0848438739776611,2.2332351207733154,0.4770391285419464,104.85491943359376,24.93,0
-0.4025290310382843,-0.9451556205749512,0.0880345627665519,5.198448657989502,0.4764425754547119,104.8459930419922,24.93,0
-0.3814710080623626,-0.9256196022033693,0.0844843834638595,7.574252128601074,0.4760597646236419,104.84026336669922,24.93,0
-0.3791527152061462,-0.9186803102493286,0.0598149895668029,9.292365074157717,0.4758140742778778,104.83658599853516,24.93,0
-0.3888605237007141,-0.9254226088523864,0.0327880419790744,10.212239265441896,0.4756564199924469,104.834228515625,24.93,0
-0.4118837714195251,-0.9353471994400024,0.021041477099061,10.20785427093506,0.4755552411079407,104.8327178955078,24.93,0
-0.4210609793663025,-0.9193251132965088,0.0246987584978342,9.484942436218262,0.4754903018474579,104.8317413330078,24.93,0
-0.3989615142345428,-0.8922497630119324,0.0382413379848003,8.469303131103516,0.4754486382007599,104.83111572265624,24.93,0
-0.4071704447269439,-0.8300921320915222,-0.003447783878073,7.4700140953063965,0.4763397574424743,104.83071899414062,24.93,0
-0.3844496011734009,-0.7958007454872131,-0.0078103635460138,6.620938777923584,0.4769116342067718,104.83045959472656,24.93,0
-0.3866619765758514,-0.7793923020362854,-0.0050122416578233,5.968573570251465,0.4772786200046539,104.8302993774414,24.93,0
-0.354495108127594,-0.8024489283561707,0.0023812064900994,5.420950412750244,0.4775141179561615,104.83019256591795,24.93,0
-0.3394500315189361,-0.845234215259552,0.0071258954703807,4.807989597320557,0.4776652455329895,104.8301239013672,24.93,0
-0.3465883135795593,-0.917473554611206,0.01576853916049,4.124437808990479,0.4777622520923614,104.830078125,24.93,0
-0.3567670285701751,-0.975028157234192,0.0269126631319522,3.556801080703736,0.4778245091438293,104.83004760742188,24.93,0
-0.3465057909488678,-1.0679410696029663,0.0340643227100372,3.0563864707946777,0.4778644442558288,104.8300323486328,24.93,0
-0.3175296485424042,-1.1555562019348145,0.0274582952260971,2.1477067470550537,0.4774311482906341,104.83002471923828,24.93,0
-0.3045322000980377,-1.1670002937316897,0.0288167018443346,0.3644056022167206,0.4771530926227569,104.83001708984376,24.93,0
-0.3185822665691376,-1.0623890161514282,0.0184928998351097,-2.170053720474243,0.4769746363162994,104.83000946044922,24.93,0
-0.3499898910522461,-0.9504733085632324,0.0062699043191969,-4.68142032623291,0.4768601357936859,104.83000946044922,24.93,0
-0.4373188018798828,-0.9122388958930968,-0.0575518533587455,-6.310983180999756,0.4767866432666778,104.83000946044922,24.93,0
-0.4933614730834961,-0.9268866777420044,-0.1264978498220443,-6.769200801849365,0.4767394959926605,104.83000946044922,24.93,0
-0.5349242091178894,-0.964275598526001,-0.1707434356212616,-6.285839557647705,0.4767092168331146,104.83000946044922,24.93,0
-0.5112168192863464,-0.9602808356285096,-0.1879421472549438,-5.244800567626953,0.4766897857189178,104.83000946044922,24.93,0
-0.4512205719947815,-0.9521194100379944,-0.1821859776973724,-4.096656322479248,0.4766773283481598,104.47891235351562,24.93,0
-0.3567406833171844,-0.9412841200828552,-0.1449053436517715,-3.3240180015563965,0.4766693413257599,104.25360107421876,24.93,0
-0.3073044717311859,-0.9175373315811156,-0.1041874587535858,-3.0574679374694824,0.4766642153263092,104.1090087890625,24.93,0
-0.2923724949359894,-0.8911024332046509,-0.0724592879414558,-2.965228080749512,0.4766609072685241,104.01622009277344,24.93,0
-0.305181086063385,-0.8685402870178223,-0.0409024246037006,-2.7089922428131104,0.4766587913036346,103.95667266845705,24.93,0
-0.3245964646339416,-0.85965895652771,-0.0094555001705884,-2.3618433475494385,0.4766574501991272,103.91845703125,24.93,0
-0.3202628195285797,-0.8763505220413208,0.0107253277674317,-2.239375352859497,0.4766565859317779,103.89392852783205,24.93,0
-0.3118839561939239,-0.9206488728523254,0.0236762221902608,-2.314833164215088,0.4766560196876526,103.87818908691406,24.93,0
-0.306506872177124,-0.9714680910110474,0.0319873616099357,-2.1662161350250244,0.4775738716125488,103.86808776855467,24.89,0
-0.2974584102630615,-1.020874261856079,0.0485165193676948,-1.5477861166000366,0.4781628847122192,103.86161041259766,24.89,0
-0.2916516363620758,-1.0581780672073364,0.0591239817440509,-0.7174216508865356,0.4785408973693847,103.85745239257812,24.89,0
-0.2879251837730407,-1.1213020086288452,0.0771267861127853,0.0053349365480244,0.4787834882736206,103.8547821044922,24.89,0
-0.2967292964458465,-1.1730067729949951,0.0998755022883415,0.5838009119033813,0.4789391458034515,103.85306549072266,24.89,0
-0.2911837100982666,-1.262165665626526,0.1032787710428237,1.069669485092163,0.4790390431880951,103.85196685791016,24.89,0
-0.3268093168735504,-1.1626451015472412,0.1614405363798141,1.3922196626663208,0.479103147983551,103.85126495361328,24.89,0
-0.3664650917053222,-1.0260074138641355,0.2099609524011612,1.5383100509643557,0.4791443049907684,103.85081481933594,24.89,0
-0.3023495078086853,-0.9942989349365234,0.1795230507850647,1.5926541090011597,0.4777935743331909,103.85052490234376,24.89,0
-0.2276171594858169,-1.0075368881225586,0.120805338025093,1.50213885307312,0.4769267439842224,103.85033416748048,24.89,0
-0.2020493298768997,-1.0104345083236694,0.0887214615941047,1.1359498500823977,0.4763704538345337,103.85021209716795,24.89,0
-0.2136302441358566,-1.0010985136032104,0.0961207449436187,0.628675103187561,0.4760134816169739,103.85013580322266,24.89,0
-0.2490510791540146,-0.9615205526351928,0.106466956436634,0.3246308267116546,0.4757843911647796,103.85009002685548,24.89,0
-0.2941732406616211,-0.8577528595924377,0.0963132381439209,0.3516324162483215,0.4756373763084411,103.85005950927734,24.89,0
-0.3511189222335815,-0.7855629324913025,0.067406065762043,0.5194286704063416,0.4755430221557617,103.85003662109376,24.89,0
-0.4044567048549652,-0.7392355799674988,0.0488551072776317,0.548293948173523,0.4754824638366699,103.85002136230467,24.89,0
-0.4554791450500488,-0.7151031494140625,0.0481457188725471,0.2658816874027252,0.4759025275707245,103.85001373291016,24.89,0
-0.4826246201992035,-0.6828230023384094,0.0588860213756561,-0.2843595147132873,0.4761721193790436,103.85000610351562,24.89,0
-0.5112406015396118,-0.6509119272232056,0.0657785311341285,-0.8846704363822937,0.4763451218605041,103.85000610351562,24.89,0
-0.5519957542419434,-0.6640198826789856,0.0702017471194267,-1.2949934005737305,0.4764561355113983,103.85000610351562,24.89,0
-0.5949434041976929,-0.6668340563774109,0.0674425363540649,-1.3827688694000244,0.4765273928642273,103.85000610351562,24.89,0
-0.622504711151123,-0.7190200090408325,0.0544762872159481,-1.0665102005004885,0.47657310962677,103.85000610351562,24.89,0
-0.6178008913993835,-0.7804988026618958,0.05175307020545,-0.3297498524188995,0.4766024351119995,103.85000610351562,24.89,0
-0.5979889035224915,-0.8927234411239624,0.0444076918065547,0.5980476140975952,0.4766212701797485,103.85000610351562,24.89,0
-0.5908725261688232,-0.9759382605552672,0.0452916249632835,1.3009319305419922,0.4761744439601898,103.57056427001952,24.89,0
-0.5863056182861328,-0.9845585823059082,0.0570544302463531,1.5227177143096924,0.4758876860141754,103.3912353515625,24.89,0
-0.5441904067993164,-0.900526225566864,0.0757986679673194,1.2602161169052124,0.4757036566734314,103.27615356445312,24.89,0
-0.5059677362442017,-0.9305656552314758,0.0654365420341491,0.5436236262321472,0.4755855500698089,103.20230102539062,24.89,0
-0.4870364367961883,-1.0506031513214111,0.0587867274880409,-0.4643783271312713,0.475509762763977,103.15489959716795,24.89,0
-0.4916807413101196,-1.0940496921539309,0.0713125839829444,-1.344123363494873,0.4754611253738403,103.12448120117188,24.89,0
-0.4610745310783386,-1.0883445739746094,0.0849487334489822,-1.783302903175354,0.4754299223423004,103.10496520996094,24.89,0
-0.3798577189445495,-1.011912226676941,0.1440795958042144,-1.8251105546951292,0.4754098951816559,103.09243774414062,24.89,0
-0.3109441101551056,-0.9516668319702148,0.2044174820184707,-1.658481240272522,0.4758559763431549,103.08439636230467,24.89,0
-0.272317111492157,-0.9297981262207032,0.2431388646364212,-1.4798965454101562,0.4761422276496887,103.07923889160156,24.89,0
-0.269919604063034,-0.9157640337944032,0.2344013750553131,-1.4584381580352783,0.4763259291648865,103.075927734375,24.89,0
-0.2739787995815277,-0.8955622315406799,0.2175986021757125,-1.6488741636276243,0.4764438271522522,103.07380676269533,24.89,0
-0.2653882205486297,-0.8658045530319214,0.2124133259057998,-1.9215532541275024,0.4765194952487945,103.07244110107422,24.89,0
-0.2430819571018219,-0.8411099910736084,0.2090857177972793,-2.15744686126709,0.4765680432319641,103.07156372070312,24.89,0
-0.2175715267658233,-0.819664716720581,0.1957546919584274,-2.351820707321167,0.4765991866588592,103.07100677490234,24.89,0
-0.206798180937767,-0.8115001320838928,0.1760040670633316,-2.4837236404418945,0.4766191840171814,103.07064819335938,24.89,0
-0.2110800147056579,-0.8230538964271545,0.1353403776884079,-2.414320707321167,0.4775502383708954,103.07041931152344,24.89,0
-0.2474144846200943,-0.8808484077453613,0.0812558904290199,-2.065263032913208,0.4781477153301239,103.0702667236328,24.89,0
-0.2819274067878723,-0.929133117198944,0.0353520326316356,-1.4973305463790894,0.478531152009964,103.0701675415039,24.89,0
-0.3096736073493957,-0.9881083369255066,-0.0108997477218508,-0.6922073364257812,0.4787772297859192,103.07010650634766,24.89,0
-0.3274795114994049,-1.065139651298523,-0.0461792536079883,0.3475303947925567,0.4789351522922516,103.070068359375,24.89,0
-0.3668951690196991,-1.131367325782776,-0.0800151601433754,1.412440061569214,0.4790364801883697,103.0700454711914,24.89,0
-0.4257765412330627,-1.1346839666366575,-0.1017290949821472,2.321540117263794,0.4791015088558197,103.07003021240234,24.89,0
-0.4691609740257263,-1.0472480058670044,-0.0988705232739448,3.119902849197388,0.4791432321071625,103.0700225830078,24.89,0
-0.4690137505531311,-0.935158908367157,-0.0690471827983856,3.711062669754028,0.4787107408046722,103.07001495361328,24.89,0
-0.4353326261043548,-0.9303998351097108,-0.0499082803726196,3.793081283569336,0.4784331917762756,103.07000732421876,24.89,0
-0.3689358234405517,-0.988921284675598,-0.054419357329607,3.4229722023010254,0.4782550632953644,103.07000732421876,24.89,0
-0.2927395105361938,-1.0152814388275146,-0.0629120841622352,2.9633376598358154,0.4781407415866852,103.07000732421876,24.89,0
-0.2382433414459228,-1.0210022926330566,-0.0627644509077072,2.4104251861572266,0.478067398071289,103.07000732421876,24.89,0
-0.2424552589654922,-0.9630981087684632,-0.0514741614460945,1.5289592742919922,0.4780203104019165,103.07000732421876,24.89,0
-0.2619515359401703,-0.8979496359825134,-0.0442287027835845,0.5082979798316956,0.4779900908470154,103.07000732421876,24.89,0
-0.2632675766944885,-0.8225544691085815,-0.061970081180334,-0.2505983114242553,0.4779707193374634,103.07000732421876,24.89,0
-0.2697099149227142,-0.7853657603263855,-0.0789532512426376,-0.6982058882713318,0.4779582917690277,102.82997131347656,24.89,0
-0.2738442420959472,-0.7782934904098511,-0.0898520722985267,-1.0105327367782593,0.4779503047466278,102.67593383789062,24.89,0
-0.2932907342910766,-0.796146035194397,-0.0856507569551467,-1.221713900566101,0.4779451787471771,102.57707977294922,24.89,0
-0.3057703673839569,-0.8020049929618835,-0.0829546004533767,-1.2497605085372925,0.4779419004917145,102.51364135742188,24.89,0
-0.3081813156604767,-0.8225582242012024,-0.0756265819072723,-1.1137083768844604,0.4779397845268249,102.47293090820312,24.89,0
-0.3265218436717987,-0.8973236083984375,-0.0597283355891704,-0.9619116187095642,0.4779384434223175,102.4468002319336,24.89,0
-0.3550850450992584,-0.9564992785453796,-0.0439279824495315,-0.8716623783111572,0.4779375791549682,102.4300308227539,24.89,0
-0.3902086019515991,-1.06164813041687,-0.033788226544857,-0.742094099521637,0.4779370129108429,102.41927337646484,24.89,0
-0.4071511030197143,-1.145919919013977,-0.0328788869082927,-0.5371370911598206,0.4788548648357391,102.41236877441406,24.91,0
-0.3956327140331268,-1.2055984735488892,-0.026697551831603,-0.3124604821205139,0.4794438779354095,102.4079360961914,24.91,0
-0.4050342142581939,-1.2103101015090942,0.0220514666289091,0.0144353937357664,0.4798218905925751,102.40509033203124,24.91,0
-0.4166653156280517,-1.1461604833602903,0.0757268816232681,0.4785811901092529,0.4800644814968109,102.40326690673828,24.91,0
-0.4297272861003876,-0.9650485515594482,0.1325637698173523,0.7907735705375671,0.4802201390266418,102.402099609375,24.91,0
-0.4493052363395691,-0.9271901845932008,0.1746361851692199,0.7045146226882935,0.4803200364112854,102.4013442993164,24.91,0
-0.4618692398071289,-1.0596325397491455,0.184842512011528,0.491525262594223,0.4803841412067413,102.40086364746094,24.91,0
-0.4195521175861358,-1.178213119506836,0.1913923472166061,0.6378644108772278,0.4804252982139587,102.40055847167967,24.91,0
-0.3532110154628753,-1.2375179529190063,0.2179867625236511,1.2333370447158811,0.4795334935188293,102.40036010742188,24.91,0
-0.265854924917221,-1.225196361541748,0.2574446201324463,1.934326410293579,0.478961169719696,102.40023040771484,24.91,0
-0.1930014789104461,-1.2004958391189575,0.2827664017677307,2.416424036026001,0.4785938858985901,102.400146484375,24.91,0
-0.1462483406066894,-1.1566555500030518,0.2990164756774902,2.603999137878418,0.4783581793308258,102.40009307861328,24.91,0
-0.1218426376581192,-1.0725436210632324,0.292651504278183,2.491506576538086,0.4782069325447082,102.40006256103516,24.91,0
-0.1061804667115211,-0.9849787950515748,0.2717735171318054,2.136291742324829,0.4781098663806915,102.40003967285156,24.91,0
-0.1073249354958534,-0.8951981067657471,0.2247885763645172,1.7542847394943235,0.4780475795269012,102.4000244140625,24.91,0
-0.119254931807518,-0.8263864517211914,0.1778430193662643,1.458978533744812,0.4780076146125793,102.40001678466795,24.91,0
-0.1325086951255798,-0.7598360180854797,0.136520504951477,1.0831739902496338,0.4789001643657684,102.40000915527344,24.91,0
-0.1410142034292221,-0.7171277403831482,0.1100021004676818,0.5948066115379333,0.4794729650020599,102.40000915527344,24.91,0
-0.1408747732639312,-0.7121111750602722,0.0873863399028778,0.2921482622623443,0.4798405468463897,102.40000915527344,24.91,0
-0.146383062005043,-0.7648695707321167,0.0560795217752456,0.298543781042099,0.4800764322280884,102.40000915527344,24.91,0
-0.1555157452821731,-0.8099223971366882,0.0303908344358205,0.299065500497818,0.4802278280258178,102.40000915527344,24.91,0
-0.1725721210241317,-0.9283990859985352,0.0139053128659725,0.0020465366542339,0.4803249835968017,102.40000915527344,24.91,0
-0.2003112435340881,-1.144374966621399,-0.0302607920020818,-0.5253252983093262,0.4803873300552368,102.40000915527344,24.91,0
-0.2237103879451751,-1.3613446950912476,-0.0865929275751113,-1.0249780416488647,0.4804273247718811,102.40000915527344,24.91,0
-0.2947043478488922,-1.4166167974472046,-0.1003525480628013,-1.2775574922561646,0.4799940884113312,102.18863677978516,24.91,0
-0.357057511806488,-1.328936219215393,-0.0755960345268249,-1.2712674140930176,0.4797160625457763,102.05298614501952,24.91,0
-0.3634855449199676,-1.1887012720108032,-0.009328763000667,-1.2349876165390017,0.4795376360416412,101.96593475341795,24.91,0
-0.3172307014465332,-1.160282015800476,0.0164044331759214,-1.3836688995361328,0.4794231355190277,101.91007232666016,24.91,0
-0.2987425625324249,-1.175630807876587,0.0049296459183096,-1.6474649906158447,0.4793496429920196,101.8742218017578,24.91,0
-0.2812801599502563,-1.1406986713409424,-0.0360208563506603,-1.8310846090316768,0.4793024957180023,101.85121154785156,24.91,0
-0.2644760310649872,-1.0734989643096924,-0.0623005330562591,-1.920260429382324,0.4792722165584564,101.8364486694336,24.91,0
-0.264887660741806,-0.9799941182136536,-0.0567742176353931,-2.0348095893859863,0.4792527854442596,101.82697296142578,24.91,0
-0.2651518285274505,-0.880803644657135,-0.0308366511017084,-2.208632707595825,0.4801581799983978,101.82089233398438,24.91,0
-0.2709191143512726,-0.828344464302063,-0.0141914142295718,-2.4455726146698,0.4807392060756683,101.81698608398438,24.91,0
-0.2802180051803589,-0.8226680755615234,-0.0259005557745695,-2.8018338680267334,0.4811120629310608,101.81448364257812,24.91,0
-0.2917832732200622,-0.8134275078773499,-0.0390125811100006,-3.0985307693481445,0.4813513457775116,101.81287384033205,24.91,0
-0.3159985244274139,-0.7907041311264038,-0.0418293513357639,-2.9485890865325928,0.4815049171447754,101.81184387207033,24.91,0
-0.3483318090438843,-0.7593282461166382,-0.0212458949536085,-2.3257265090942383,0.4816034734249115,101.8111801147461,24.91,0
-0.3746792078018188,-0.7559863328933716,0.0143544804304838,-1.6967241764068604,0.4816667139530182,101.81075286865234,24.91,0
-0.4195763170719147,-0.8042216300964355,0.0819829478859901,-1.4220393896102903,0.4817073047161102,101.81048583984376,24.91,0
-0.4371931552886963,-0.8575673699378967,0.1309807747602462,-1.4105610847473145,0.4821926355361938,101.81031036376952,24.91,0
-0.3757275640964508,-0.9701704382896424,0.1400336623191833,-1.4390206336975098,0.4825040996074676,101.81019592285156,24.91,0
-0.2970980703830719,-1.131996989250183,0.1402455121278762,-1.521770715713501,0.4827039837837219,101.81012725830078,24.91,0
-0.25783371925354,-1.2638368606567385,0.1459792405366897,-1.725343108177185,0.4828322529792785,101.8100814819336,24.91,0
-0.2998094260692596,-1.2756730318069458,0.1664521396160125,-1.8094106912612915,0.4829145669937134,101.81005096435548,24.91,0
-0.3435403406620025,-1.1769111156463623,0.2019815593957901,-1.376130223274231,0.4829673767089844,101.81002807617188,24.91,0
-0.410788744688034,-1.0239670276641846,0.2527711689472198,-0.2525878250598907,0.4830012619495392,101.81002044677734,24.91,0
-0.409162700176239,-1.0825539827346802,0.2629739344120025,1.582617998123169,0.4830230176448822,101.8100128173828,24.91,0
-0.3577392399311065,-1.1313471794128418,0.2471303790807724,3.8601980209350586,0.4821187555789947,101.81000518798828,24.91,0
-0.2575653195381164,-1.1290732622146606,0.2145717889070511,5.76963996887207,0.4815384745597839,101.81000518798828,24.91,0
-0.1932794749736786,-1.0940272808074951,0.2104708850383758,6.651082515716553,0.4811660647392273,101.81000518798828,24.91,0
-0.1744156181812286,-1.0155590772628784,0.2246324867010116,6.804745197296143,0.4809270799160003,101.81000518798828,24.91,0
-0.1958965212106704,-0.9204205274581908,0.2281228154897689,6.795880317687988,0.4807737171649933,101.81000518798828,24.91,0
-0.2152795046567917,-0.8593660593032837,0.2303627133369445,6.542993545532227,0.4806753098964691,101.81000518798828,24.91,0
-0.2333161532878875,-0.7977937459945679,0.2150068283081054,5.66060733795166,0.4806121587753296,101.81000518798828,24.91,0
-0.2392932623624801,-0.7750735282897949,0.1939567476511001,4.127047538757324,0.4805716276168823,101.81000518798828,24.91,0
-0.248726800084114,-0.7716885209083557,0.1692524701356887,2.369060754776001,0.482381671667099,101.64520263671876,24.91,0
-0.2659762501716614,-0.8031028509140015,0.1478009074926376,0.821724534034729,0.4835432469844818,101.53944396972656,24.91,0
-0.2770459651947021,-0.8288605213165283,0.1340345293283462,-0.4256296753883362,0.4842886924743652,101.47157287597656,24.91,0
-0.2785520851612091,-0.8677814602851868,0.1307978481054306,-1.3550825119018557,0.4847670793533325,101.42801666259766,24.91,0
-0.273920863866806,-0.9319430589675904,0.1287207305431366,-1.8261616230010984,0.4850740730762481,101.40006256103516,24.91,0
-0.2933399081230163,-1.0346938371658323,0.1049966514110565,-1.9099359512329104,0.4852710962295532,101.3821258544922,24.91,0
-0.3449863493442535,-1.1174266338348389,0.0673808082938194,-1.9386194944381716,0.4853975176811218,101.37061309814452,24.91,0
-0.3893256187438965,-1.136933207511902,0.043241124600172,-1.924783706665039,0.4854786396026611,101.36322784423828,24.91,0
-0.4457688629627228,-1.0710824728012085,0.0725318565964698,-1.564812421798706,0.4841535687446594,101.35848999023438,24.87,0
-0.4875886738300323,-0.9784433245658876,0.1249156147241592,-0.7928345799446106,0.4833032190799713,101.3554458618164,24.87,0
-0.5312195420265198,-0.941383957862854,0.1977169066667556,0.0930771082639694,0.4827575087547302,101.3534927368164,24.87,0
-0.4864482581615448,-0.9679813981056212,0.1828610748052597,0.7296732068061829,0.4824073016643524,101.35224151611328,24.87,0
-0.3961411118507385,-0.9906478524208068,0.122947484254837,0.8301023840904236,0.4821825623512268,101.3514404296875,24.87,0
-0.2374272346496582,-0.9828028082847596,0.0844983905553817,0.2962619364261627,0.4820383489131927,101.35092163085938,24.87,0
-0.1467693597078323,-0.955377161502838,0.0878128483891487,-0.6052079796791077,0.4819457828998565,101.35059356689452,24.87,0
-0.161361426115036,-0.8817992210388184,0.1235265210270881,-1.4273346662521362,0.4818863868713379,101.35037994384766,24.87,0
-0.2267035096883773,-0.8345811367034912,0.1296521872282028,-2.0229971408843994,0.4827664792537689,101.3502426147461,24.87,0
-0.2798318564891815,-0.8210726380348206,0.1223877295851707,-2.616631031036377,0.4833312630653381,101.35015869140624,24.87,0
-0.3027310073375702,-0.812403678894043,0.0953347235918045,-3.33793568611145,0.4836937189102173,101.35009765625,24.87,0
-0.3118285834789276,-0.8068404197692871,0.0779736638069152,-3.99070405960083,0.4839263260364532,101.35005950927734,24.87,0
-0.3344602286815643,-0.8032702207565308,0.0780278816819191,-4.427525997161865,0.4840756058692932,101.35003662109376,24.87,0
-0.3713749945163727,-0.8065768480300903,0.1004537716507911,-4.7759222984313965,0.4841713905334472,101.35002136230467,24.87,0
-0.3950647711753845,-0.808698832988739,0.120443195104599,-5.089067459106445,0.4842328727245331,101.35001373291016,24.87,0
-0.3990719616413116,-0.8268539309501648,0.1332712471485138,-5.100149154663086,0.4842723309993744,101.35000610351562,24.87,0
-0.4016435444355011,-0.8664937019348145,0.1471013277769088,-4.408658504486084,0.4847565591335296,101.35000610351562,24.87,0
-0.3865005075931549,-0.9311166405677797,0.1559766829013824,-2.779067277908325,0.4850673079490661,101.35000610351562,24.87,0
-0.3711848258972168,-1.0397611856460571,0.1504768282175064,-0.4292318224906921,0.4852667450904846,101.35000610351562,24.87,0
-0.3725516498088836,-1.0814942121505735,0.1413495689630508,1.831098198890686,0.4853947162628174,101.35000610351562,24.87,0
-0.3902221024036407,-1.164253830909729,0.1019055694341659,3.2279093265533447,0.4854768514633178,101.35000610351562,24.87,0
-0.4183553159236908,-1.2341574430465698,0.0765926763415336,3.8233659267425537,0.4855295717716217,101.35000610351562,24.87,0
-0.4588007032871246,-1.0942909717559814,0.0603483207523822,4.180417537689209,0.4855633974075317,101.35000610351562,24.87,0
-0.4735606610774994,-1.004532814025879,0.0331303067505359,4.416718006134033,0.48558509349823,101.35000610351562,24.87,0
-0.483032763004303,-0.9749200344085692,0.0100655760616064,4.278173446655273,0.484221875667572,101.1852035522461,24.87,0
-0.49470916390419,-1.0790672302246094,-0.0159315913915634,3.770102024078369,0.4833470582962036,101.0794448852539,24.87,0
-0.4182358086109161,-1.1570985317230225,-0.038212850689888,3.024889707565308,0.4827856421470642,101.0115737915039,24.87,0
-0.3299751877784729,-1.162392258644104,-0.0525116808712482,2.041512250900269,0.4824253618717193,100.968017578125,24.87,0
-0.2229546308517456,-1.137800693511963,-0.0504922978579998,0.959032654762268,0.4821941554546356,100.9400634765625,24.87,0
-0.165470540523529,-1.116421461105347,-0.0435985997319221,0.124639093875885,0.4820457696914673,100.92212677001952,24.87,0
-0.1565694361925125,-1.0411258935928345,-0.0559679418802261,-0.4000789821147918,0.4819505512714386,100.91061401367188,24.87,0
-0.1788460910320282,-1.0040011405944824,-0.0695036500692367,-0.8227946162223816,0.4818894565105438,100.90322875976562,24.87,0
-0.1987397372722625,-0.9801766276359558,-0.0725923106074333,-1.158555507659912,0.4827684462070465,100.89849090576172,24.89,0
-0.1947130113840103,-0.9704851508140564,-0.0801722109317779,-1.2665503025054932,0.4833325445652008,100.89544677734376,24.89,0
-0.1921288967132568,-0.9866568446159364,-0.0906343311071395,-1.09582257270813,0.4836945533752441,100.89349365234376,24.89,0
-0.2016661018133163,-1.008230447769165,-0.0973483175039291,-0.6530798077583313,0.4839268624782562,100.89224243164062,24.89,0
-0.2133843153715133,-1.016477346420288,-0.1016569659113884,-0.0465211980044841,0.4840759336948395,100.89144134521484,24.89,0
-0.2153066098690033,-1.0329653024673462,-0.1044220104813575,0.3821415603160858,0.484171599149704,100.89092254638672,24.89,0
-0.2221380025148391,-1.0379486083984375,-0.1005986854434013,0.4243652522563934,0.4842329919338226,100.89059448242188,24.89,0
-0.2489130944013595,-0.9907665848731996,-0.0813517719507217,0.3260718286037445,0.4842723906040191,100.890380859375,24.89,0
-0.3164757788181305,-0.9101079106330872,-0.0130224637687206,0.4671995937824249,0.4852159023284912,100.89024353027344,24.89,0
-0.3822247087955475,-0.785574734210968,0.0700117722153663,1.019919514656067,0.485821396112442,100.8901596069336,24.89,0
-0.4412119090557098,-0.7448409199714661,0.1288961470127105,1.86185359954834,0.4862099587917328,100.89009857177734,24.89,0
-0.4734687507152557,-0.9034268856048584,0.1442936509847641,2.62786078453064,0.4864593148231506,100.89006042480467,24.89,0
-0.4717782139778137,-0.9884049296379088,0.1765659749507904,2.9618067741394043,0.4866193532943725,100.8900375366211,24.89,0
-0.3923244774341583,-1.0373411178588867,0.2252653688192367,2.8608474731445312,0.4867220520973205,100.89002227783205,24.89,0
-0.3133467733860016,-1.063147783279419,0.2845067083835602,2.4557127952575684,0.4867879450321197,100.8900146484375,24.89,0
-0.2682612240314483,-1.0293290615081787,0.3561110496520996,1.6977427005767822,0.4868302345275879,100.89000701904295,24.89,0
-0.2841100990772247,-1.0300172567367554,0.374073714017868,0.6273612976074219,0.4863981008529663,100.89000701904295,24.89,0
-0.3166720867156982,-1.0248610973358154,0.3576122522354126,-0.4787092506885528,0.4861207604408264,100.89000701904295,24.89,0
-0.3767529129981994,-1.0103566646575928,0.2910704910755157,-1.4142239093780518,0.4859427809715271,100.89000701904295,24.89,0
-0.4321026504039764,-0.9898529648780824,0.2315744757652282,-2.1435561180114746,0.4858285784721374,100.89000701904295,24.89,0
-0.4732207059860229,-0.9654993414878844,0.1821978092193603,-2.5506956577301025,0.4857552945613861,100.89000701904295,24.89,0
-0.471619039773941,-0.9442728161811828,0.1337173879146576,-2.5002903938293457,0.4857082664966583,100.89000701904295,24.89,0
-0.4482000768184662,-0.9138575196266174,0.0858121216297149,-2.0917727947235107,0.4856780767440796,100.89000701904295,24.89,0
-0.4107800424098968,-0.8943387269973755,0.0606670528650283,-1.5465861558914185,0.4856587052345276,100.89000701904295,24.89,0
-0.3811682462692261,-0.8818126916885376,0.0501281730830669,-0.8814501166343689,0.4861055612564087,100.73954010009766,24.89,0
-0.37336066365242,-0.8849697709083557,0.026571599766612,-0.0246950108557939,0.4863923192024231,100.64297485351562,24.89,0
-0.3739479780197143,-0.9093868732452391,-0.0221322979778051,0.8475528955459595,0.4865763485431671,100.5810089111328,24.89,0
-0.3855204284191131,-0.969838559627533,-0.0645832046866417,1.461050033569336,0.4866944551467895,100.5412368774414,24.89,0
-0.4209358394145965,-0.9918396472930908,-0.1030213013291359,1.7544450759887695,0.4867702424526214,100.51571655273438,24.89,0
-0.4492611587047577,-1.0395452976226809,-0.1500797569751739,1.6955313682556152,0.4868188798427582,100.49933624267578,24.89,0
-0.4842320680618286,-1.0981489419937134,-0.1858769357204437,1.1131725311279297,0.4868500828742981,100.48882293701172,24.89,0
-0.4898810386657715,-1.0293997526168823,-0.2368383854627609,0.1769837141036987,0.4868701100349426,100.4820785522461,24.89,0
-0.4711151421070099,-0.9964759945869446,-0.2807380557060241,-0.5205379128456116,0.4864236712455749,100.47775268554688,24.91,0
-0.4422789514064789,-1.0201295614242554,-0.3145081102848053,-0.7030565738677979,0.486137181520462,100.4749755859375,24.91,0
-0.4349690675735473,-1.0577001571655271,-0.3305820226669311,-0.6410577297210693,0.4859533309936523,100.4731903076172,24.91,0
-0.4414735734462738,-1.120995283126831,-0.3408973217010498,-0.5152886509895325,0.4858353435993194,100.4720458984375,24.91,0
-0.4400500059127807,-1.1336255073547363,-0.3419193029403686,-0.2912742495536804,0.4857596158981323,100.4713134765625,24.91,0
-0.4279409050941467,-1.1137419939041138,-0.3369773924350738,-0.2693222761154175,0.4857110381126404,100.47084045410156,24.91,0
-0.3753877878189087,-1.0617974996566772,-0.3002192974090576,-0.8965157866477966,0.4856798648834228,100.47054290771484,24.91,0
-0.3248688876628876,-1.0116691589355469,-0.2598367631435394,-2.0226926803588867,0.4856598377227783,100.47035217285156,24.91,0
-0.2700576782226562,-0.9739019274711608,-0.2115304768085479,-2.9997711181640625,0.484729140996933,100.47023010253906,24.91,0
-0.2572740912437439,-0.944067358970642,-0.1581391841173172,-3.4763357639312744,0.4841318726539612,100.47014617919922,24.91,0
-0.2714614272117615,-0.9305189847946168,-0.1238757222890853,-3.624534130096436,0.483748584985733,100.4700927734375,24.91,0
-0.2861638069152832,-0.9722043871879578,-0.1130829527974128,-3.741134643554688,0.483502596616745,100.47006225585938,24.91,0
-0.295598953962326,-1.0101512670516968,-0.1061567738652229,-4.016586780548096,0.4833447635173797,100.47003936767578,24.91,0
-0.2848605513572693,-1.0009167194366455,-0.0905164033174514,-4.544447898864746,0.483243465423584,100.47002410888672,24.91,0
-0.2723715007305145,-0.9614039063453674,-0.0636859908699989,-5.205630779266357,0.4831784665584564,100.4700164794922,24.91,0
-0.281150072813034,-0.9584379196166992,-0.0520655512809753,-5.715921878814697,0.4831367433071136,100.47000885009766,24.91,0
-0.3259680569171905,-1.0293055772781372,-0.0390104465186595,-5.882181167602539,0.4835688769817352,100.47000885009766,24.91,0
-0.3939141035079956,-0.9964155554771424,-0.0026435600593686,-5.644949913024902,0.4838462173938751,100.47000885009766,24.91,0
-0.4767023622989654,-0.8073753714561462,0.0710745826363563,-4.991147994995117,0.4840241968631744,100.47000885009766,24.91,0
-0.4794511497020721,-0.8092113137245178,0.0847959965467453,-3.7225048542022714,0.4841383993625641,100.47000885009766,24.91,0
-0.4644218385219574,-0.8999539017677307,0.0824060589075088,-1.353524923324585,0.4842116832733154,100.47000885009766,24.91,0
-0.4547768831253052,-0.9413939714431764,0.1312523037195205,2.2482264041900635,0.4842587113380432,100.47000885009766,24.91,0
-0.4261962175369262,-0.9623900055885316,0.184990108013153,6.207608222961426,0.4842889010906219,100.47000885009766,24.91,0
-0.3798659145832062,-0.9646685123443604,0.2194759398698806,9.307393074035645,0.4843082726001739,100.47000885009766,24.91,0
-0.3725248873233795,-0.9381418824195862,0.2080203145742416,11.017215728759766,0.4834024906158447,100.37327575683594,24.91,0
-0.373411625623703,-0.9211186170578004,0.1894732117652893,11.415879249572754,0.4828212261199951,100.31119537353516,24.91,0
-0.4131650924682617,-0.92698734998703,0.1495818793773651,10.779657363891602,0.4824481904506683,100.27135467529295,24.91,0
-0.4554699063301086,-0.9251558184623718,0.1183841377496719,9.590365409851074,0.4822088181972503,100.24578857421876,24.91,0
-0.4938142597675323,-0.9127848744392396,0.0927654504776001,8.307672500610352,0.4820551872253418,100.22938537597656,24.91,0
-0.5128237009048462,-0.8936504125595093,0.0875203981995582,7.07968282699585,0.4819566011428833,100.21885681152344,24.91,0
-0.5250228643417358,-0.8645776510238647,0.1009477525949478,5.951285362243652,0.4818933308124542,100.21209716796876,24.91,0
-0.5160582065582275,-0.8515182137489319,0.1151624247431755,5.0050249099731445,0.4818527400493622,100.207763671875,24.91,0
-0.49910968542099,-0.8711262941360474,0.1186868101358413,4.064589977264404,0.4827449023723602,100.2049789428711,24.91,0
-0.4602442383766174,-0.9061007499694824,0.1097530126571655,2.7696359157562256,0.4833174347877502,100.20319366455078,24.91,0
-0.4129115343093872,-0.9173497557640076,0.1040198132395744,1.1181989908218384,0.4836848378181457,100.2020492553711,24.91,0
-0.3825361132621765,-0.9133731722831726,0.1003405749797821,-0.4073330760002136,0.4839206337928772,100.2013168334961,24.91,0
-0.3686406910419464,-1.017179012298584,0.0699905827641487,-1.321845293045044,0.4840719401836395,100.20084381103516,24.91,0
-0.376516729593277,-1.1173821687698364,0.0393181517720222,-1.6185380220413208,0.4841690361499786,100.2005386352539,24.91,0
-0.4151577651500702,-1.1648935079574585,0.0028410288505256,-1.862676858901977,0.4842313528060913,100.20034790039062,24.91,0
-0.4175642728805542,-1.03864586353302,-0.014970114454627,-2.5639026165008545,0.4842713475227356,100.20022583007812,24.91,0
-0.4191086292266845,-0.8848563432693481,-0.0264002811163663,-3.515469551086426,0.4852152168750763,100.20014190673828,24.91,0
-0.4424907863140106,-0.8701297044754028,-0.078517697751522,-4.215694904327393,0.4858209490776062,100.20008850097656,24.91,0
-0.4518983364105224,-0.9110589623451232,-0.1287569850683212,-4.629233360290527,0.4862096607685089,100.20005798339844,24.91,0
-0.4691311120986938,-0.9765093922615052,-0.1777909845113754,-4.891036033630371,0.4864591360092163,100.20003509521484,24.91,0
-0.4633967876434326,-1.0241094827651978,-0.1980626285076141,-4.797517776489258,0.486619234085083,100.20001983642578,24.91,0
-0.4093368649482727,-1.0098743438720703,-0.1830829381942749,-4.264603137969971,0.4867219626903534,100.20001220703124,24.91,0
-0.3354599177837372,-0.950359046459198,-0.1398831903934478,-3.689741849899292,0.486787885427475,100.20000457763672,24.91,0
-0.2824521660804748,-0.9009699821472168,-0.0953667536377906,-3.342324495315552,0.4868302047252655,100.20000457763672,24.91,0
-0.276423692703247,-0.8468838334083557,-0.0556031167507171,-3.072798490524292,0.4854802191257477,100.20000457763672,24.91,0
-0.289348304271698,-0.8177722692489624,-0.0300851054489612,-2.810267925262451,0.4846138656139374,100.20000457763672,24.91,0
-0.3200336694717407,-0.8214812278747559,-0.0137091148644685,-2.684781789779663,0.4840579032897949,100.20000457763672,24.91,0
-0.3341279923915863,-0.8182636499404907,0.0023978273384273,-2.597086906433105,0.4837011098861694,100.20000457763672,24.91,0
-0.3375751376152038,-0.8273943066596985,0.0183321107178926,-2.325854778289795,0.4834721386432647,100.20000457763672,24.91,0
-0.3229939937591553,-0.9172204732894896,0.0341555923223495,-1.965499758720398,0.4833252131938934,100.20000457763672,24.91,0
-0.3024411201477051,-1.0196479558944702,0.0555057376623153,-1.702001452445984,0.4832309186458587,100.20000457763672,24.91,0
-0.2780559062957763,-1.079782247543335,0.0971959084272384,-1.4254261255264282,0.4831703901290893,100.20000457763672,24.91,0
-0.2512113451957702,-1.1407639980316162,0.1463413536548614,-1.0365639925003052,0.4835904836654663,100.07819366455078,24.91,0
-0.239581823348999,-1.1463119983673096,0.1946733891963958,-0.7332760691642761,0.4838600754737854,100.0000228881836,24.91,0
-0.2657053172588348,-1.2170456647872925,0.2032990157604217,-0.5887993574142456,0.4840330779552459,99.94985961914062,24.91,0
-0.3104587495326996,-1.2400473356246948,0.2256277650594711,-0.2632151246070862,0.4841441214084625,99.91766357421876,24.91,0
-0.389558881521225,-1.086875319480896,0.2903370559215545,0.5941722989082336,0.4842153787612915,99.89700317382812,24.91,0
-0.3731475174427032,-1.0053715705871582,0.2982771098613739,1.9039002656936648,0.4842610955238342,99.8837432861328,24.91,0
-0.3010401129722595,-1.0202405452728271,0.264188140630722,3.25671648979187,0.4842904210090637,99.87523651123048,24.91,0
-0.2211790829896927,-1.046575903892517,0.203127384185791,4.307587623596191,0.4843092560768127,99.86978149414062,24.91,0
-0.1867222040891647,-1.0690741539001465,0.1695398837327957,4.824342727661133,0.4843213558197021,99.86627960205078,24.91,0
-0.2037941813468933,-1.0443278551101685,0.1815720051527023,4.63649320602417,0.4843291044235229,99.86402893066406,24.91,0
-0.2707277238368988,-0.9500782489776612,0.1892935335636139,3.817339658737183,0.4843340814113617,99.86258697509766,24.91,0
-0.3304751515388489,-0.8560075759887695,0.1830532103776931,2.757850408554077,0.4843372702598572,99.86166381835938,24.91,0
-0.3800131678581238,-0.7788451313972473,0.1622552126646042,1.891637206077576,0.4843393266201019,99.86106872558594,24.91,0
-0.4174015820026397,-0.7349244952201843,0.1265171468257904,1.3894901275634766,0.484340637922287,99.86068725585938,24.91,0
-0.4413953125476837,-0.7011409997940063,0.1035825163125991,1.171135663986206,0.4843414723873138,99.86044311523438,24.91,0
-0.4623908996582031,-0.6458740234375,0.1000599414110183,1.1384856700897217,0.4843420088291168,99.86028289794922,24.91,0
-0.4870601892471313,-0.5880157947540283,0.1089949086308479,1.3109917640686035,0.4848012924194336,99.86018371582033,24.91,0
-0.525282621383667,-0.5676790475845337,0.1147288531064987,1.6044076681137085,0.4850960373878479,99.86011505126952,24.91,0
-0.5722026824951172,-0.6273991465568542,0.1016152426600456,1.774792194366455,0.4852851927280426,99.86007690429688,24.91,0
-0.59671550989151,-0.71050626039505,0.0820041373372078,1.8375617265701292,0.4854065775871277,99.86004638671876,24.91,0
-0.584457516670227,-0.7862306833267212,0.0694188550114631,2.042642116546631,0.4854844510555267,99.86003112792967,24.91,0
-0.5709933042526245,-0.8852062821388245,0.0613423474133014,2.235154628753662,0.4855344295501709,99.86002349853516,24.91,0
-0.5567549467086792,-0.971114218235016,0.0617570839822292,1.860720157623291,0.4855665266513824,99.86001586914062,24.91,0
-0.5532153844833374,-0.987060546875,0.0676210150122642,0.7426985502243042,0.4855871200561523,99.8600082397461,24.91,0
-0.5397483706474304,-0.8853384852409363,0.0881774723529815,-0.7020462155342102,0.486518532037735,99.8600082397461,24.91,0
-0.5143126845359802,-0.9208190441131592,0.0733805522322654,-2.1092653274536133,0.487116277217865,99.8600082397461,24.91,0
-0.4979895055294037,-1.0331528186798096,0.058286964893341,-3.388508081436157,0.487499862909317,99.8600082397461,24.91,0
-0.4987097680568695,-1.099644422531128,0.0541985407471656,-4.445902347564697,0.4877460300922394,99.8600082397461,24.91,0
-0.4935742318630218,-1.142314910888672,0.0515748262405395,-5.188963413238525,0.4879040122032165,99.8600082397461,24.91,0
-0.423105239868164,-1.1305139064788818,0.0834777280688285,-5.608496189117432,0.4880053997039795,99.8600082397461,24.91,0
-0.3331001102924347,-1.100549578666687,0.1599289178848266,-5.648443222045898,0.4880704581737518,99.8600082397461,24.91,0
-0.2753399908542633,-1.0701247453689575,0.2257842123508453,-5.3301520347595215,0.488112211227417,99.8600082397461,24.91,0
-0.2606639862060547,-1.0226109027862549,0.2624485790729522,-4.986170291900635,0.4876800775527954,99.74894714355467,24.91,0
-0.2680390775203705,-0.964130401611328,0.2747820913791656,-4.948133945465088,0.4874027669429779,99.67767333984376,24.91,0
-0.283967524766922,-0.8930143117904663,0.2715014815330505,-5.206748008728027,0.4872247874736786,99.6319351196289,24.91,0
-0.2662006318569183,-0.8417783379554749,0.2693961858749389,-5.487353801727295,0.4871105849742889,99.6025848388672,24.91,0
-0.2380055338144302,-0.8144958019256592,0.2680451273918152,-5.499049663543701,0.4870373010635376,99.58374786376952,24.91,0
-0.2087159901857376,-0.7913897037506104,0.2503847777843475,-5.098141670227051,0.4869902729988098,99.5716552734375,24.91,0
-0.1955174207687378,-0.7821593284606934,0.2278558313846588,-4.26406717300415,0.4869600832462311,99.56389617919922,24.91,0
-0.2150362133979797,-0.8210179805755615,0.1910069584846496,-2.861823081970215,0.4869407117366791,99.55892181396484,24.91,0
-0.255551129579544,-0.9187262654304504,0.1505661457777023,-0.797606348991394,0.4878461360931396,99.55572509765624,24.89,0
-0.287149041891098,-0.987027645111084,0.1190157830715179,1.5588710308074951,0.4884271919727325,99.55367279052734,24.89,0
-0.3018289804458618,-1.092435002326965,0.0707797035574913,3.5332748889923096,0.4888000786304474,99.55236053466795,24.89,0
-0.3168475031852722,-1.1376882791519165,0.0342267900705337,4.832576751708984,0.4890393614768982,99.551513671875,24.89,0
-0.3376810848712921,-1.2395002841949463,-0.0116218626499176,5.669976234436035,0.489192932844162,99.55097198486328,24.89,0
-0.3958330750465393,-1.1648930311203003,0.0093350810930132,6.3184309005737305,0.4892914891242981,99.55062866210938,24.89,0
-0.4499449729919433,-1.0050588846206665,0.0563706867396831,6.824136257171631,0.4893547296524048,99.55040740966795,24.89,0
-0.4174976050853729,-0.9024865627288818,0.0977509766817092,7.059104442596436,0.4893953204154968,99.55026245117188,24.89,0
-0.3630881011486053,-0.9542148113250732,0.1019153743982315,6.912539482116699,0.4894213676452636,99.5501708984375,24.89,0
-0.3057801127433777,-1.0321931838989258,0.0654034242033958,6.402904033660889,0.4894380867481231,99.55010986328124,24.89,0
-0.2913942337036133,-1.0654419660568235,0.0363743789494037,5.559958457946777,0.4894488155841827,99.5500717163086,24.89,0
-0.2989555299282074,-1.047594666481018,0.0345385298132896,4.313237190246582,0.4894556999206543,99.550048828125,24.89,0
-0.3373945951461792,-0.9241858124732972,0.0613492615520954,2.7679872512817383,0.4894601106643677,99.55003356933594,24.89,0
-0.373258113861084,-0.8058046698570251,0.0897503942251205,1.30701744556427,0.4894629418849945,99.5500259399414,24.89,0
-0.3906754851341247,-0.7130411863327026,0.0911832824349403,0.183157205581665,0.4894647598266601,99.55001831054688,24.89,0
-0.4242440462112427,-0.6926953196525574,0.075309507548809,-0.735113263130188,0.4894659221172333,99.55001068115234,24.89,0
-0.4569819569587707,-0.6796385049819946,0.0651226267218589,-1.6325078010559082,0.4890077412128448,99.55001068115234,24.89,0
-0.4835890531539917,-0.6600638628005981,0.058585274964571,-2.4341063499450684,0.4887137115001678,99.55001068115234,24.89,0
-0.5062617063522339,-0.6363064050674438,0.0599877536296844,-2.95210862159729,0.4885250031948089,99.55001068115234,24.89,0
-0.5376050472259521,-0.6322557926177979,0.0608877837657928,-3.0803258419036865,0.4884039163589477,99.55001068115234,24.89,0
-0.5745127201080322,-0.6352541446685791,0.0502698235213756,-2.775690078735352,0.4883261919021606,99.55001068115234,24.89,0
-0.6093934774398804,-0.6483738422393799,0.0490536019206047,-2.100127458572388,0.488276332616806,99.55001068115234,24.89,0
-0.6205824017524719,-0.7407599091529846,0.0426753275096416,-1.3978970050811768,0.4882443249225616,99.55001068115234,24.89,0
-0.6165672540664673,-0.856025755405426,0.0329843424260616,-1.058305740356445,0.4882237911224365,99.55001068115234,24.89,0
-0.6195883750915527,-0.9299967288970948,0.02676522731781,-0.998008906841278,0.4886695444583893,99.4317855834961,24.89,0
-0.6103315949440002,-0.8990981578826904,0.0675563514232635,-0.8088456988334656,0.4889555871486664,99.3559112548828,24.89,0
-0.5931955575942993,-0.8288893103599548,0.1161248460412025,-0.4939925968647003,0.4891391694545746,99.30722045898438,24.89,0
-0.531818687915802,-0.8006266355514526,0.1472933143377304,-0.3707546591758728,0.4892569780349731,99.27597045898438,24.89,0
-0.4812349677085876,-0.8552603125572205,0.1616976708173751,-0.3239108026027679,0.4893325865268707,99.25592041015624,24.89,0
-0.4935554563999176,-1.0022765398025513,0.1821371018886566,0.0644084438681602,0.4893811047077179,99.24304962158205,24.89,0
-0.4846687018871307,-1.0966230630874634,0.1840583980083465,0.8044222593307495,0.489412248134613,99.23479461669922,24.89,0
-0.4453790485858917,-1.1235826015472412,0.1908891499042511,1.5408484935760498,0.4894322156906128,99.2294921875,24.89,0
-0.3306008279323578,-1.118492603302002,0.2344571501016616,2.0922610759735107,0.4889861047267914,99.22608947753906,24.93,0
-0.1897694766521453,-1.1096283197402954,0.2960032522678375,2.4676215648651123,0.4886998236179352,99.22390747070312,24.93,0
-0.0825987085700035,-1.042364239692688,0.352293312549591,2.5687856674194336,0.488516092300415,99.2225112915039,24.93,0
-0.0865937396883964,-0.9936003088951112,0.3156459629535675,2.271867036819458,0.4883981943130493,99.22161102294922,24.93,0
-0.1171463951468467,-0.9679041504859924,0.2585411667823791,1.701568603515625,0.4883225262165069,99.22103118896484,24.93,0
-0.2039266228675842,-0.9402183294296264,0.1771123856306076,1.084803581237793,0.4882739782333374,99.22066497802734,24.93,0
-0.2596171796321869,-0.9224511384963988,0.1248560845851898,0.4740447998046875,0.4882428050041199,99.22042846679688,24.93,0
-0.278562843799591,-0.8830603361129761,0.0969187691807746,-0.0970338061451911,0.4882228076457977,99.22027587890624,24.93,0
-0.2683299779891968,-0.8465859889984131,0.0845879837870597,-0.3847025036811828,0.4886689186096191,99.22017669677734,24.93,0
-0.2505675852298736,-0.839972198009491,0.0766747966408729,-0.2719579637050628,0.4889551997184753,99.2201156616211,24.93,0
-0.2223753780126571,-0.8749122619628906,0.0436076968908309,-0.0849625691771507,0.4891389310359955,99.22007751464844,24.93,0
-0.1986854672431945,-0.936519205570221,0.0055938120931386,-0.2300702929496765,0.4892568290233612,99.22004699707033,24.93,0
-0.1778848618268966,-1.127194881439209,-0.0747790560126304,-0.6993624567985535,0.4893324971199035,99.22003173828124,24.93,0
-0.2261117547750473,-1.2551573514938354,-0.1599443852901458,-1.100839376449585,0.4893810451030731,99.22002410888672,24.93,0
-0.2850498557090759,-1.2141252756118774,-0.1922074854373932,-1.0109742879867554,0.4894121885299682,99.2200164794922,24.93,0
-0.3396662771701813,-1.0422511100769043,-0.1345432549715042,-0.3693442046642303,0.4894321858882904,99.22000885009766,24.93,0
-0.3411293029785156,-0.959941029548645,-0.0695487931370735,0.4221700429916382,0.4912814497947693,99.22000885009766,24.93,0
-0.2972860038280487,-0.97989022731781,-0.0390346385538578,0.8871274590492249,0.4924682080745697,99.22000885009766,24.93,0
-0.269149899482727,-1.026279091835022,-0.0642346069216728,0.8917391300201416,0.4932298064231872,99.22000885009766,24.93,0
-0.234300434589386,-1.0504510402679443,-0.0860042721033096,0.615257740020752,0.493718534708023,99.22000885009766,24.93,0
-0.1895449459552765,-1.0099854469299316,-0.0999747887253761,0.2121256440877914,0.4940321743488312,99.22000885009766,24.93,0
-0.1720190048217773,-0.9728214144706726,-0.0977447107434272,-0.2257101088762283,0.4942334592342376,99.22000885009766,24.93,0
-0.1831629574298858,-0.9321783781051636,-0.0739224776625633,-0.5747568607330322,0.4943626224994659,99.22000885009766,24.93,0
-0.2071078270673751,-0.911693811416626,-0.0698302909731864,-0.8238329887390137,0.4944455325603485,99.22000885009766,24.93,0
-0.2224742770195007,-0.8985479474067688,-0.0783997103571891,-1.1198135614395142,0.4931215941905975,99.1125259399414,24.93,0
-0.243531122803688,-0.8901117444038391,-0.111887939274311,-1.460224986076355,0.4922719597816467,99.04354858398438,24.93,0
-0.2794353067874908,-0.8623067736625671,-0.1389765292406082,-1.664351224899292,0.4917267262935638,98.99928283691406,24.93,0
-0.3136720955371856,-0.8332675695419312,-0.1507626622915268,-1.7165310382843018,0.4913768172264099,98.97087860107422,24.93,0
-0.3468388319015503,-0.8314251899719238,-0.1359352171421051,-1.7786775827407837,0.4911522567272186,98.95265197753906,24.93,0
-0.368123322725296,-0.8526339530944824,-0.1208220422267913,-1.8328899145126345,0.4910081624984741,98.94095611572266,24.93,0
-0.3929780423641205,-0.8662445545196533,-0.1055255010724067,-1.7136296033859253,0.4909156858921051,98.9334487915039,24.93,0
-0.4033305943012237,-0.9197612404823304,-0.0957090631127357,-1.5117050409317017,0.4908563196659088,98.92862701416016,24.93,0
-0.3707898557186126,-1.077256202697754,-0.0894094407558441,-1.4895987510681152,0.4912771582603454,98.925537109375,24.91,0
-0.3219181895256042,-1.1503385305404663,-0.0629756078124046,-1.6867841482162476,0.4915472269058227,98.92355346679688,24.91,0
-0.2793596386909485,-1.1748474836349487,-0.0348163470625877,-1.8061612844467163,0.4917205572128296,98.92227935791016,24.91,0
-0.2688413262367248,-1.078620433807373,0.022439070045948,-1.413453221321106,0.4918317794799804,98.92146301269533,24.91,0
-0.2732868194580078,-0.9552919268608092,0.0647800713777542,-0.3517736792564392,0.491903156042099,98.92093658447266,24.91,0
-0.2817374765872955,-0.9657111763954164,0.1031476408243179,0.7487124800682068,0.4919489622116089,98.92060089111328,24.91,0
-0.2535739541053772,-1.039570927619934,0.1053786426782608,0.8638162016868591,0.4919783473014831,98.9203872680664,24.91,0
-0.2075113654136657,-1.103763222694397,0.101212590932846,0.0850301086902618,0.4919972121715545,98.92024993896484,24.91,0
-0.1275710761547088,-1.122567057609558,0.1209301576018333,0.1548795402050018,0.4924682378768921,98.92015838623048,24.91,0
-0.0986610949039459,-1.089851975440979,0.1503770798444748,2.524796485900879,0.4927705228328705,98.92009735107422,24.91,0
-0.0857061073184013,-1.0408685207366943,0.1748721897602081,6.37434720993042,0.492964506149292,98.92005920410156,24.91,0
-0.0773923471570015,-0.9926404356956482,0.1737984269857406,9.471717834472656,0.4930889904499054,98.92003631591795,24.91,0
-0.0832526013255119,-0.9504948854446412,0.1675115674734115,10.445562362670898,0.4931688904762268,98.9200210571289,24.91,0
-0.0702200531959533,-0.9122527241706848,0.1634770184755325,9.354466438293455,0.4932201504707336,98.92001342773438,24.91,0
-0.056258738040924,-0.870917797088623,0.1552901118993759,6.880888938903809,0.4932530522346496,98.92000579833984,24.91,0
-0.0472991690039634,-0.8611847162246704,0.1220473498106002,3.9643537998199454,0.4932741820812225,98.92000579833984,24.91,0
-0.0807338505983352,-0.8717319369316101,0.0783229619264602,1.648450255393982,0.4932877421379089,98.92000579833984,24.91,0
-0.1021903082728385,-0.8729027509689331,0.03906761854887,0.4094342887401581,0.4932964444160461,98.92000579833984,24.91,0
-0.1159598305821418,-0.9016429781913756,-0.0029175232630223,-0.1205842643976211,0.4933020174503326,98.92000579833984,24.91,0
-0.1247963160276413,-0.9424778819084167,-0.0298611707985401,-0.5467014312744141,0.4933055937290191,98.92000579833984,24.91,0
-0.1416626125574112,-1.0134656429290771,-0.052749827504158,-1.1819990873336792,0.493307888507843,98.92000579833984,24.91,0
-0.1860730797052383,-1.0814125537872314,-0.07863400131464,-2.01960563659668,0.49330934882164,98.92000579833984,24.91,0
-0.2313664853572845,-1.203385829925537,-0.1008427441120147,-2.8186612129211426,0.4933103024959564,98.92000579833984,24.91,0
-0.2772265076637268,-1.326443433761597,-0.0759106203913688,-3.263380289077759,0.4933108985424042,98.92000579833984,24.91,0
-0.3122546076774597,-1.3214480876922607,-0.0319217443466186,-3.237091302871704,0.493770569562912,98.81969451904295,24.91,0
-0.323538064956665,-1.071940302848816,0.0578833036124706,-2.95869255065918,0.4940655827522278,98.75531768798828,24.91,0
-0.2803991734981537,-0.9286139011383056,0.1211127862334251,-2.76928448677063,0.4942548871040344,98.71400451660156,24.91,0
-0.1967373788356781,-0.9206018447875975,0.1337009519338607,-2.740880250930786,0.494376391172409,98.68749237060548,24.91,0
-0.0310925599187612,-0.9938290119171144,0.0913993492722511,-2.6151747703552246,0.4944543540477752,98.67047882080078,24.91,0
0.0808065235614776,-1.0184309482574463,0.0642526149749755,-2.2120723724365234,0.4945043921470642,98.65956115722656,24.91,0
0.0630525276064872,-0.9614479541778564,0.0524291768670082,-1.6166223287582395,0.4945364892482757,98.65254974365234,24.91,0
-0.0491009093821048,-0.9472706317901612,0.0504393503069877,-1.0517854690551758,0.4945570826530456,98.64805603027344,24.91,0
-0.1378678530454635,-0.938172459602356,0.0323690734803676,-0.8039481043815613,0.4959474503993988,98.64517211914062,24.89,0
-0.1724422723054886,-0.932333767414093,-0.0016184907872229,-1.1249655485153198,0.496839702129364,98.64331817626952,24.89,0
-0.1778368204832077,-0.9285868406295776,-0.0234297513961792,-1.8719449043273928,0.4974122941493988,98.64212799072266,24.89,0
-0.1757009476423263,-0.9261822700500488,-0.00384031701833,-2.59134578704834,0.4977797567844391,98.64136505126952,24.89,0
-0.1855258196592331,-0.8966503143310547,0.0143288280814886,-3.092424154281616,0.4980155825614929,98.64087677001952,24.89,0
-0.2030264139175415,-0.8776983618736267,0.0259887389838695,-3.44264817237854,0.4981669187545776,98.64056396484376,24.89,0
-0.2254528254270553,-0.8711338639259338,0.0334714017808437,-3.4667775630950928,0.4982640445232391,98.6403579711914,24.89,0
-0.24544258415699,-0.8781167268753052,0.0438711158931255,-2.9018850326538086,0.4983263611793518,98.64022827148438,24.89,0
-0.2694664001464844,-0.9105867743492126,0.0617406032979488,-1.8980884552001955,0.4969892203807831,98.64014434814452,24.89,0
-0.2736879587173462,-0.9538152813911438,0.073208212852478,-0.8168354630470276,0.4961311221122741,98.6400909423828,24.89,0
-0.281994879245758,-1.0151435136795044,0.0749696865677833,0.1672391146421432,0.4955804347991943,98.64006042480467,24.89,0
-0.3209124505519867,-1.0600981712341309,0.0761001035571098,0.9026561975479126,0.495227038860321,98.6400375366211,24.89,0
-0.3570830523967743,-1.1113386154174805,0.0600322149693965,1.1632325649261477,0.4950002431869507,98.64002227783205,24.89,0
-0.4026863574981689,-1.1890039443969729,0.0329274460673332,1.022354006767273,0.4948547184467315,98.6400146484375,24.89,0
-0.4319519400596618,-1.1436829566955566,-0.0012601581402122,0.8997030854225159,0.4947613179683685,98.64000701904295,24.89,0
-0.4451351165771484,-1.0978052616119385,-0.0343953408300876,1.0753556489944458,0.4947013854980469,98.64000701904295,24.89,0
-0.431204229593277,-1.1075479984283447,-0.0612573735415935,1.4137816429138184,0.4960400462150574,98.64000701904295,24.89,0
-0.4166664183139801,-1.1529847383499146,-0.084093652665615,1.5163215398788452,0.4968991279602051,98.64000701904295,24.89,0
-0.3569568991661072,-1.2101322412490845,-0.0987486615777015,1.0948954820632937,0.497450441122055,98.64000701904295,24.89,0
-0.2738565802574157,-1.190828561782837,-0.1025556251406669,0.2906447052955627,0.4978042542934418,98.64000701904295,24.89,0
-0.2149298042058944,-1.1672450304031372,-0.099400945007801,-0.4046059548854828,0.4980312883853912,98.64000701904295,24.89,0
-0.1827117651700973,-1.135317087173462,-0.0917786732316017,-0.7289701700210571,0.4981769919395447,98.64000701904295,24.89,0
-0.1788294166326522,-1.1092298030853271,-0.0924849137663841,-0.8583118319511414,0.4982705116271972,98.64000701904295,24.89,0
-0.1931312680244445,-1.086890697479248,-0.1041336879134178,-0.8983249664306641,0.4983305037021637,98.64000701904295,24.89,0
-0.2023093700408935,-1.061359167098999,-0.1060114279389381,-0.6481447815895081,0.4974507987499237,98.54685974121094,24.89,0
-0.2026015818119049,-1.0337790250778198,-0.1016186773777008,-0.0397716090083122,0.4968862533569336,98.4870834350586,24.89,0
-0.1971913278102874,-1.0216773748397827,-0.0820063427090644,0.6838268041610718,0.4965239763259887,98.44871520996094,24.89,0
-0.1993171125650406,-1.008313536643982,-0.0582247264683246,1.298658847808838,0.4962914884090423,98.4240951538086,24.89,0
-0.2118768692016601,-0.9717485308647156,-0.0317675061523914,1.7147181034088137,0.4961422681808471,98.40829467773438,24.89,0
-0.2199369966983795,-1.0042608976364136,-0.0203865561634302,1.8921566009521484,0.4960465133190155,98.39815521240234,24.89,0
-0.2307072877883911,-0.997136652469635,-0.0074851443059742,1.912879467010498,0.4959850609302521,98.3916473388672,24.89,0
-0.2768034636974334,-0.9253913760185242,0.0623697601258754,1.9154304265975952,0.4959456324577331,98.3874740600586,24.89,0
-0.3343742191791534,-0.8121761083602905,0.1631763577461242,1.942145586013794,0.4963792562484741,98.38479614257812,24.91,0
-0.4049064517021179,-0.7003366351127625,0.2614548802375793,1.9198814630508425,0.496657520532608,98.3830795288086,24.91,0
-0.3885944783687591,-0.8524755239486694,0.2965354919433594,1.672726273536682,0.4968360960483551,98.38197326660156,24.91,0
-0.3277464210987091,-0.9836961030960084,0.3078526854515075,1.0734593868255615,0.4969507157802582,98.38126373291016,24.91,0
-0.2495132088661193,-1.0231237411499023,0.3319087326526642,0.3342094421386719,0.497024267911911,98.3808135986328,24.91,0
-0.1937098652124405,-1.070817232131958,0.3697375953197479,-0.1115380302071571,0.4970714449882507,98.38052368164062,24.91,0
-0.2138762325048446,-1.056641936302185,0.438796192407608,-0.2112991362810135,0.4971017241477966,98.38033294677734,24.91,0
-0.2548067271709442,-1.036349534988403,0.4607229232788086,-0.4114579558372497,0.4971211552619934,98.38021087646484,24.91,0
-0.2866713404655456,-1.028924822807312,0.4524031281471252,-1.052216649055481,0.4980518519878387,98.38013458251952,24.91,0
-0.329511284828186,-1.0185623168945312,0.3798906803131103,-1.9112406969070437,0.4986491203308105,98.38008880615234,24.91,0
-0.3626012802124023,-1.006314396858215,0.3109652698040008,-2.5055036544799805,0.4990324079990387,98.38005828857422,24.91,0
-0.4062276482582092,-0.9816611409187316,0.2499395757913589,-2.6253395080566406,0.4992783963680267,98.38003540039062,24.91,0
-0.4398223161697387,-0.9378511905670166,0.2107768058776855,-2.3439857959747314,0.4994362294673919,98.38002014160156,24.91,0
-0.4501858651638031,-0.8985409736633301,0.1856443881988525,-1.798006296157837,0.4995375275611877,98.38001251220705,24.91,0
-0.4344455003738403,-0.8789116740226746,0.1471247524023056,-1.2075955867767334,0.4996025264263153,98.3800048828125,24.91,0
-0.4187464714050293,-0.8775103092193604,0.1168072968721389,-0.7928782105445862,0.4996442496776581,98.3800048828125,24.91,0
-0.3974761962890625,-0.8934043049812317,0.0805579721927642,-0.5339016318321228,0.5001299381256104,98.3800048828125,24.91,0
-0.3782283663749695,-0.9315930008888244,0.0405019223690032,-0.2423152029514312,0.5004416108131409,98.3800048828125,24.91,0
-0.3714739978313446,-0.9896869659423828,0.0036007047165185,0.1705104559659958,0.5006416440010071,98.3800048828125,24.91,0
-0.3783349990844726,-1.0605549812316897,-0.0368736945092678,0.6718882322311401,0.5007700324058533,98.3800048828125,24.91,0
-0.3883357644081116,-1.0948385000228882,-0.0740433856844902,1.0545473098754885,0.5008524060249329,98.3800048828125,24.91,0
-0.3835581243038177,-1.1504262685775757,-0.1146900728344917,1.031422734260559,0.5009052753448486,98.3800048828125,24.91,0
-0.391687661409378,-1.062948226928711,-0.1407747864723205,0.6583251953125,0.5009391903877258,98.3800048828125,24.91,0
-0.3857091665267944,-0.9676254987716676,-0.1799055486917495,0.3006676435470581,0.5009609460830688,98.3800048828125,24.91,0
-0.3706769645214081,-0.9904194474220276,-0.2497996091842651,0.0281526949256658,0.5005159974098206,98.297607421875,24.91,0
-0.3610301613807678,-1.027438402175903,-0.3058491349220276,-0.4118423163890838,0.5002304911613464,98.2447280883789,24.91,0
-0.3436438739299774,-1.1015750169754028,-0.3586118221282959,-1.009472370147705,0.5000472664833069,98.2107925415039,24.91,0
-0.2988997101783752,-1.1155649423599243,-0.3812763392925262,-1.4897265434265137,0.499929666519165,98.1890106201172,24.91,0
-0.2477943748235702,-1.107749581336975,-0.379027783870697,-1.876742601394653,0.499854177236557,98.17503356933594,24.91,0
-0.1758134961128235,-1.0747452974319458,-0.3272048234939575,-2.5299384593963623,0.499805748462677,98.16606903076172,24.91,0
-0.1184247583150863,-1.0367716550827026,-0.2715567350387573,-3.5689072608947754,0.4997746646404266,98.16031646728516,24.91,0
-0.0927915200591087,-0.9956090450286864,-0.2078561335802078,-4.640488624572754,0.4997547268867492,98.15662384033205,24.91,0
-0.1099282279610633,-0.9635955095291138,-0.1613789796829223,-5.471471309661865,0.5002008676528931,98.1542510986328,24.91,0
-0.132121130824089,-0.9486488103866576,-0.1259548366069793,-6.173129081726074,0.5004871487617493,98.15272521972656,24.91,0
-0.1799498945474624,-0.967045783996582,-0.1032216623425483,-6.791793823242188,0.500670850276947,98.15174865722656,24.91,0
-0.2162414193153381,-0.9900474548339844,-0.0830350443720817,-7.0813398361206055,0.5007887482643127,98.151123046875,24.91,0
-0.2339334636926651,-0.999210774898529,-0.0588848851621151,-7.037868976593018,0.5008644461631775,98.15071868896484,24.91,0
-0.2284938693046569,-1.0050913095474243,-0.0321911536157131,-7.18551778793335,0.5009130239486694,98.15045928955078,24.91,0
-0.2250030487775802,-1.025658369064331,-0.0150606548413634,-7.928716659545898,0.500944197177887,98.15029907226562,24.91,0
-0.2731428146362304,-1.0948349237442017,0.0127260368317365,-8.882142066955566,0.5009641647338867,98.1501922607422,24.91,0
-0.3432205617427826,-1.1168373823165894,0.0473512597382068,-8.84196662902832,0.5000591278076172,98.1501235961914,24.91,0
-0.4105835258960724,-1.0078061819076538,0.1087561547756195,-6.426606178283691,0.4994783401489258,98.15007781982422,24.91,0
-0.442617654800415,-0.8538696765899658,0.1481622755527496,-1.365642786026001,0.4991056323051452,98.1500473022461,24.91,0
-0.4127953350543976,-0.811059832572937,0.1398642212152481,4.823486804962158,0.4988664388656616,98.15003204345705,24.91,0
-0.36566823720932,-0.9291290640830994,0.1233434528112411,10.088624000549316,0.498712956905365,98.1500244140625,24.91,0
-0.3410225510597229,-0.9881057739257812,0.1239369213581085,13.549884796142578,0.4986144602298736,98.15001678466795,24.91,0
-0.3308041393756866,-1.0147581100463867,0.1299155503511428,15.452274322509766,0.4985512495040893,98.15000915527344,24.91,0
-0.3354420959949493,-1.0150686502456665,0.1337522864341735,16.18230438232422,0.4985106885433197,98.15000915527344,24.91,0
-0.3720051050186157,-0.9704857468605042,0.1306167095899582,15.977272033691406,0.498943567276001,98.15000915527344,24.91,0
-0.440251350402832,-0.9474728107452391,0.1174089312553405,15.03603172302246,0.4992213845252991,98.15000915527344,24.91,0
-0.4896456301212311,-0.9327044486999512,0.1089329421520233,13.407381057739258,0.4993996620178222,98.15000915527344,24.91,0
-0.5157462358474731,-0.9008358716964722,0.1034935414791107,11.101140975952148,0.4995140731334686,98.15000915527344,24.91,0
-0.5380939245223999,-0.8747866749763489,0.1167961657047271,8.420965194702148,0.4995874762535095,98.15000915527344,24.91,0
-0.5580331087112427,-0.8356786966323853,0.1365285813808441,6.023876190185547,0.4996345937252044,98.15000915527344,24.91,0
-0.565231204032898,-0.8049836754798889,0.1323983818292617,4.3279290199279785,0.499664843082428,98.15000915527344,24.91,0
-0.5642527341842651,-0.8076764345169067,0.1185523048043251,3.0174484252929688,0.4996842443943023,98.15000915527344,24.91,0
-0.5580270290374756,-0.8373934030532837,0.0872755944728851,1.510098218917847,0.5001556277275085,98.08193969726562,24.91,0
-0.5428361892700195,-0.8732573390007019,0.0504106767475605,-0.2131558209657669,0.5004581212997437,98.03825378417967,24.91,0
-0.5162942409515381,-0.9018705487251282,0.021155122667551,-1.6414728164672852,0.5006522536277771,98.01021575927734,24.91,0
-0.4824678301811218,-0.9818083643913268,-0.008814956061542,-2.436276912689209,0.5007768273353577,97.99222564697266,24.91,0
-0.4663577675819397,-1.033107876777649,-0.0280480291694402,-2.8066160678863525,0.5008567571640015,97.98068237304688,24.91,0
-0.456019252538681,-1.138800024986267,-0.0627818033099174,-3.2341549396514893,0.5009080767631531,97.97327423095705,24.91,0
-0.4325912594795227,-1.0666828155517578,-0.0738763958215713,-3.942016363143921,0.5009409785270691,97.96852111816406,24.91,0
-0.4231542944908142,-0.9308376908302308,-0.0698007196187973,-4.7115478515625,0.5009621381759644,97.96546936035156,24.91,0
-0.4394893050193786,-0.8156712651252747,-0.0727829560637474,-5.216136455535889,0.5000578761100769,97.96350860595705,24.91,0
-0.4555699527263641,-0.8257306814193726,-0.1026856526732444,-5.350075721740723,0.4994775354862213,97.96224975585938,24.91,0
-0.4602918028831482,-0.9553372859954834,-0.1554621309041977,-5.1530070304870605,0.4991051256656647,97.96144104003906,24.91,0
-0.4577242434024811,-0.9713380336761476,-0.1669399440288543,-4.557222366333008,0.4988661110401153,97.96092224121094,24.91,0
-0.4336854219436645,-0.953617513179779,-0.1575124114751815,-3.4153757095336914,0.4987127482891083,97.9605941772461,24.91,0
-0.3846720457077026,-0.9086588621139526,-0.1066801697015762,-1.894437789916992,0.4986143112182617,97.96038055419922,24.91,0
-0.3476203083992004,-0.8686114549636841,-0.057265643030405,-0.6891024708747864,0.4985511600971222,97.96024322509766,24.91,0
-0.3350381851196289,-0.8317157626152039,-0.0143586974591016,-0.3419141769409179,0.4985106289386749,97.9601593017578,24.91,0
-0.3325614929199219,-0.8528204560279846,-0.0036168110091239,-0.5740958452224731,0.4994024634361267,97.96009826660156,24.91,0
-0.3365698456764221,-0.8663642406463623,0.0144722620025277,-0.7696701288223267,0.49997478723526,97.9600601196289,24.91,0
-0.3335444033145904,-0.8638603091239929,0.0484718866646289,-0.8056140542030334,0.500342071056366,97.96003723144533,24.91,0
-0.3260051012039184,-0.867851197719574,0.0814864411950111,-0.993479311466217,0.5005777478218079,97.96002197265624,24.91,0
-0.2931779325008392,-0.9151945114135742,0.1082710549235344,-1.4400547742843628,0.5007290244102478,97.96001434326172,24.91,0
-0.2665135562419891,-0.9623700380325316,0.1310576498508453,-1.7875449657440186,0.5008261203765869,97.9600067138672,24.91,0
-0.271793007850647,-1.031828999519348,0.145680770277977,-1.627208590507507,0.5008884072303772,97.9600067138672,24.91,0
-0.2975721359252929,-1.1099903583526611,0.1718583703041076,-0.9869276285171508,0.5009284019470215,97.9600067138672,24.91,0
-0.3197134733200073,-1.1545521020889282,0.1886576563119888,-0.2679306864738464,0.5000361800193787,97.9600067138672,24.91,0
-0.3507158458232879,-1.2279314994812012,0.2050362378358841,0.225723385810852,0.4994636178016662,97.9600067138672,24.91,0
-0.3818069398403168,-1.17985999584198,0.2603292763233185,0.4959487020969391,0.4990961849689483,97.9600067138672,24.91,0
-0.3905638456344604,-1.0314571857452393,0.3349975645542145,0.6944417357444763,0.4988603889942169,97.9600067138672,24.91,0
-0.3066191375255584,-1.0537739992141724,0.321339875459671,0.9149700999259948,0.4987090528011322,97.9600067138672,24.91,0
-0.2303571552038192,-1.0848890542984009,0.2957818210124969,1.117396354675293,0.4986119568347931,97.9600067138672,24.91,0
-0.1926121562719345,-1.1160523891448977,0.284977912902832,1.1899806261062622,0.4985496401786804,97.9600067138672,24.91,0
-0.1739873588085174,-1.1304534673690796,0.2724468111991882,1.0610148906707764,0.4985096454620361,97.9600067138672,24.91,0
-0.2236105650663375,-1.066924214363098,0.2476117461919784,0.8134535551071167,0.4989429116249084,97.88835144042967,24.91,0
-0.249858096241951,-0.95338374376297,0.2204784899950027,0.5865140557289124,0.4992209374904632,97.84236907958984,24.91,0
-0.2611044943332672,-0.8525311350822449,0.1862726062536239,0.4767030775547027,0.4993993639945984,97.81285858154295,24.91,0
-0.2795173227787018,-0.7710163593292236,0.1587234586477279,0.5352054238319397,0.4995138645172119,97.7939224243164,24.91,0
-0.2913336157798767,-0.7243026494979858,0.1410440057516098,0.7877033948898315,0.4995873570442199,97.78176879882812,24.91,0
-0.3157099485397339,-0.6887267231941223,0.1241005733609199,1.1145405769348145,0.4996345043182373,97.7739715576172,24.91,0
-0.3481466174125671,-0.6379072666168213,0.1076294779777526,1.2956252098083496,0.4996647834777832,97.76896667480467,24.91,0
-0.3913536965847015,-0.6108920574188232,0.1026570498943328,1.2649493217468262,0.49968421459198,97.76575469970705,24.91,0
-0.4414726197719574,-0.6551307439804077,0.0938682556152343,1.0589693784713743,0.5006148815155029,97.7636947631836,24.89,0
-0.4848316013813019,-0.7059116959571838,0.082630343735218,0.6795855760574341,0.5012121200561523,97.76237487792967,24.89,0
-0.4958635568618774,-0.8056733012199402,0.0586251728236675,0.231912076473236,0.5015954375267029,97.76152801513672,24.89,0
-0.4917477071285248,-0.9648566842079164,0.0208289362490177,-0.0804570168256759,0.5018414258956909,97.76097869873048,24.89,0
-0.5003019571304321,-1.067011475563049,-0.0034265094436705,-0.2988303899765014,0.5019992589950562,97.76062774658205,24.89,0
-0.522584855556488,-1.0765907764434814,0.0145943872630596,-0.650341808795929,0.5021005868911743,97.76040649414062,24.89,0
-0.5424825549125671,-1.0043693780899048,0.0541480332612991,-1.1911883354187012,0.5021656155586243,97.76026153564452,24.89,0
-0.5328606367111206,-0.9300329685211182,0.0795312896370887,-1.8069655895233157,0.502207338809967,97.76016998291016,24.89,0
-0.5154902935028076,-1.0446635484695437,0.0846252515912056,-2.349021673202514,0.5008569359779358,97.7601089477539,24.89,0
-0.5211363434791565,-1.1350202560424805,0.076698713004589,-2.7506206035614014,0.4999903440475464,97.76007080078124,24.89,0
-0.5079663395881653,-1.1202348470687866,0.0716119185090065,-3.1086559295654297,0.4994342029094696,97.76004791259766,24.89,0
-0.4491345882415771,-1.077159762382507,0.0907386019825935,-3.5211336612701416,0.4990773200988769,97.7600326538086,24.89,0
-0.3386086821556091,-1.0047345161437988,0.1701862961053848,-3.7894206047058105,0.4988482892513275,97.76002502441406,24.89,0
-0.2844728529453277,-0.9806472659111024,0.2267690300941467,-3.603334188461304,0.4987013041973114,97.76001739501952,24.89,0
-0.2777204811573028,-0.9819827675819396,0.2518850266933441,-3.071918487548828,0.4986069798469543,97.760009765625,24.89,0
-0.3013760447502136,-0.9492531418800354,0.2456119209527969,-2.67356538772583,0.4985464513301849,97.760009765625,24.89,0
-0.3109590709209442,-0.9226514101028442,0.235988438129425,-2.783347845077514,0.4989665150642395,97.760009765625,24.89,0
-0.2891200184822082,-0.8943843841552734,0.2242148667573928,-3.323117256164551,0.4992361068725586,97.760009765625,24.89,0
-0.2639094293117523,-0.8762442469596863,0.2166592627763748,-3.92387318611145,0.4994091093540191,97.760009765625,24.89,0
-0.2477307170629501,-0.8478096127510071,0.2118105143308639,-4.287908554077148,0.4995201230049133,97.760009765625,24.89,0
-0.2429459244012832,-0.8239641189575195,0.1919055432081222,-4.263579845428467,0.4995913803577423,97.760009765625,24.89,0
-0.251070886850357,-0.8198570013046265,0.1679361313581466,-3.717745780944824,0.499637097120285,97.760009765625,24.89,0
-0.2786760926246643,-0.8564057350158691,0.1301628351211547,-2.679606437683105,0.4996664226055145,97.760009765625,24.89,0
-0.3131848573684692,-0.8966538906097412,0.0891287922859191,-1.4007680416107178,0.4996852576732635,97.760009765625,24.89,0
-0.3465261459350586,-0.9728628396987916,0.0460021793842315,0.0540328472852706,0.5006155967712402,97.6919403076172,24.89,0
-0.4015093147754669,-1.0049760341644287,0.0071304533630609,1.858206272125244,0.5012125968933105,97.64825439453124,24.89,0
-0.4479899108409881,-1.0815621614456177,-0.0290107317268848,3.868673801422119,0.5015957355499268,97.6202163696289,24.89,0
-0.4946117997169494,-1.1307107210159302,-0.0410085171461105,5.714175701141357,0.5018416047096252,97.60222625732422,24.89,0
-0.5357266068458557,-0.9943182468414308,0.0072697405703365,7.3105082511901855,0.5019993782043457,97.59068298339844,24.89,0
-0.5397205948829651,-0.8732027411460876,0.0550452694296836,8.542732238769531,0.5021006464958191,97.5832748413086,24.89,0
-0.4695126414299011,-0.8906399607658386,0.0745093077421188,8.925088882446289,0.5021656155586243,97.57852172851562,24.89,0
-0.4076639115810394,-0.9354168176651,0.0646091103553772,8.339305877685547,0.502207338809967,97.57546997070312,24.89,0
-0.3623751699924469,-0.9641519784927368,0.0470601841807365,7.300607681274414,0.5022341012954712,97.5735092163086,24.89,0
-0.3501047790050506,-0.9546037316322328,0.0693849399685859,6.093061923980713,0.5022512674331665,97.57225036621094,24.89,0
-0.3590236902236938,-0.920487344264984,0.1005050018429756,4.5371270179748535,0.50226229429245,97.57144165039062,24.89,0
-0.3647473156452179,-0.859408974647522,0.1260738372802734,2.707460165023804,0.5022693872451782,97.5709228515625,24.89,0
-0.3628226518630981,-0.8090168237686157,0.1368846744298935,1.038889765739441,0.5022739171981812,97.57059478759766,24.89,0
-0.3559897243976593,-0.7822758555412292,0.1382246762514114,-0.1752056330442428,0.5022768378257751,97.57038116455078,24.89,0
-0.3628003001213074,-0.7763105630874634,0.1390846073627472,-0.8970209360122681,0.5022786855697632,97.57024383544922,24.89,0
-0.3727687001228332,-0.7612868547439575,0.1396364718675613,-1.22052001953125,0.5022798776626587,97.57015991210938,24.89,0
-0.3847636282444,-0.734852135181427,0.1455883979797363,-1.291985273361206,0.5013624429702759,97.57009887695312,24.89,0
-0.3924612700939178,-0.7234856486320496,0.1438102275133133,-1.233952879905701,0.5007736682891846,97.57006072998048,24.89,0
-0.4029989540576935,-0.7721690535545349,0.1314735412597656,-1.1250594854354858,0.5003958344459534,97.57003784179688,24.89,0
-0.4209569990634918,-0.8202045559883118,0.1123610213398933,-1.0515953302383425,0.5001533627510071,97.5700225830078,24.89,0
-0.4268836677074432,-0.8846176266670227,0.0944979339838028,-1.0975972414016724,0.4999977350234985,97.57001495361328,24.89,0
-0.4026981890201568,-0.987529754638672,0.0662411078810691,-1.2740042209625244,0.4998978674411773,97.57000732421876,24.89,0
-0.3871773183345794,-1.087159514427185,0.0425097309052944,-1.4015424251556396,0.4998337924480438,97.57000732421876,24.89,0
-0.4164013564586639,-1.0895205736160278,0.0440736226737499,-1.2505216598510742,0.4997926652431488,97.57000732421876,24.89,0
-0.4519489705562591,-0.9734825491905212,0.0618705600500106,-0.9171552658081056,0.4997662603855133,97.57000732421876,24.89,0
-0.4579680562019348,-0.8878204822540283,0.0676938369870185,-0.7318804860115051,0.4997493326663971,97.57000732421876,24.89,0
-0.4506352245807647,-1.028769612312317,0.0714308768510818,-0.6595552563667297,0.4997384548187256,97.57000732421876,24.89,0
-0.4459294378757477,-1.124820351600647,0.0794268697500228,-0.2118926495313644,0.4997314810752868,97.57000732421876,24.89,0
-0.4149206578731537,-1.1304824352264404,0.1013515591621398,0.7775762677192688,0.4997270107269287,97.57000732421876,24.89,0
-0.3390432596206665,-1.094931721687317,0.160203754901886,1.7564877271652222,0.4997241497039795,97.57000732421876,24.89,0
-0.2679584324359894,-1.0833128690719604,0.2315583527088165,2.1124210357666016,0.4997223019599914,97.57000732421876,24.89,0
-0.2223402708768844,-1.064660906791687,0.2885451912879944,1.87152111530304,0.4997211098670959,97.57000732421876,24.89,0
-0.1986629366874694,-1.047093391418457,0.3083227276802063,1.4518147706985474,0.5001792907714844,97.52701568603516,24.89,0
-0.2058592736721038,-1.0078307390213013,0.2874281704425812,1.0821592807769775,0.5004733204841614,97.49942016601562,24.89,0
-0.2160752415657043,-0.9658408761024476,0.2572259306907654,0.7374584674835205,0.5006620287895203,97.4817123413086,24.89,0
-0.2058379501104354,-0.9276986718177797,0.237843856215477,0.365781158208847,0.5007830858230591,97.47035217285156,24.89,0
-0.1936704665422439,-0.8752323389053345,0.2254055589437484,-0.0876945182681083,0.5008608102798462,97.46305847167967,24.89,0
-0.202655404806137,-0.8303669095039368,0.2174233794212341,-0.6617326140403748,0.5009106993675232,97.45838165283205,24.89,0
-0.230812519788742,-0.7735859751701355,0.1955075562000274,-1.151924729347229,0.5009427070617676,97.45537567138672,24.89,0
-0.276870995759964,-0.7483428120613098,0.1646499186754226,-1.2407995462417605,0.5009632110595703,97.45344543457033,24.89,0
-0.3288197815418243,-0.7489365339279175,0.1392494887113571,-1.0004805326461792,0.5028128027915955,97.45220947265624,24.89,0
-0.3901463747024536,-0.7829041481018066,0.1117534041404724,-0.8498402237892151,0.5039997696876526,97.451416015625,24.89,0
-0.4351000487804413,-0.8214959502220154,0.0885102227330207,-0.939461886882782,0.5047615170478821,97.4509048461914,24.89,0
-0.4527531862258911,-0.930228590965271,0.0568007677793502,-0.9862281680107116,0.5052503347396851,97.45057678222656,24.89,0
-0.4920708239078522,-1.055984616279602,0.0196581408381462,-0.7762075066566467,0.5055640339851379,97.45037078857422,24.89,0
-0.5452914834022522,-1.1366876363754272,0.0014199144206941,-0.3978131711483001,0.5057653784751892,97.45023345947266,24.89,0
-0.5906409621238708,-1.0205450057983398,0.0456934124231338,-0.0188436042517423,0.5058945417404175,97.4501495361328,24.89,0
-0.6029503345489502,-0.9012291431427002,0.0908989235758781,0.1706186085939407,0.5059774518013,97.4500961303711,24.89,0
-0.5492742657661438,-0.903027892112732,0.0863225683569908,0.0557545609772205,0.5055713653564453,97.45005798339844,24.89,0
-0.514828085899353,-0.932171106338501,0.0497990809381008,-0.1899221837520599,0.5053107738494873,97.45003509521484,24.89,0
-0.4927224814891815,-0.9396780133247375,0.0319581851363182,-0.2723492980003357,0.5051435232162476,97.45001983642578,24.89,0
-0.472938597202301,-0.933299958705902,0.0484977960586547,-0.1962735503911972,0.5050362348556519,97.45001220703124,24.89,0
-0.4546446800231933,-0.906815767288208,0.0703075155615806,-0.1796957105398178,0.5049673914909363,97.45000457763672,24.89,0
-0.4429046809673309,-0.8506353497505188,0.0954992845654487,-0.2836994230747223,0.5049231648445129,97.45000457763672,24.89,0
-0.4409684240818023,-0.8033864498138428,0.1060681417584419,-0.4686680138111114,0.5048947930335999,97.45000457763672,24.89,0
-0.4453236162662506,-0.7674670219421387,0.1072528511285781,-0.7235080599784851,0.5048766136169434,97.45000457763672,24.89,0
-0.4593140780925751,-0.7556115388870239,0.1024153530597686,-0.9157103300094604,0.5053241848945618,97.45000457763672,24.89,0
-0.4682923555374145,-0.7536011338233948,0.099310927093029,-0.9064993858337402,0.5056114196777344,97.45000457763672,24.89,0
-0.4964451789855957,-0.7243221402168274,0.1029164567589759,-0.7823633551597595,0.5057957768440247,97.45000457763672,24.89,0
-0.5145120620727539,-0.6999347805976868,0.1164258271455764,-0.6238833665847778,0.5059140920639038,97.45000457763672,24.89,0
-0.5261063575744629,-0.7178710103034973,0.1194975897669792,-0.3824595510959625,0.5059900283813477,97.45000457763672,24.89,0
-0.5447424054145813,-0.8525325059890747,0.1102733239531517,-0.2275276482105255,0.5060387253761292,97.45000457763672,24.89,0
-0.5567019581794739,-0.882972776889801,0.1211470440030098,-0.4791936576366424,0.5060699582099915,97.45000457763672,24.89,0
-0.5531813502311707,-0.9416919946670532,0.1225273981690406,-1.0562771558761597,0.5060900449752808,97.45000457763672,24.89,0
-0.5285309553146362,-0.984972357749939,0.1234132274985313,-1.5054328441619873,0.5074800848960876,97.41059112548828,24.89,0
-0.5183095335960388,-1.0071494579315186,0.1183839291334152,-1.5357296466827393,0.5083721280097961,97.3852996826172,24.89,0
-0.5061522126197815,-0.9989903569221495,0.1095586344599723,-1.2363231182098389,0.508944571018219,97.36907196044922,24.89,0
-0.4871548116207123,-0.9825587272644044,0.1094928458333015,-0.9080434441566468,0.5093119144439697,97.35865783691406,24.89,0
-0.4525722861289978,-0.9552205204963684,0.0870595276355743,-0.7296156287193298,0.5095477104187012,97.35197448730467,24.89,0
-0.4079881012439728,-0.9208831191062928,0.067065343260765,-0.4037389457225799,0.5096989870071411,97.34768676757812,24.89,0
-0.3793765306472778,-0.910042941570282,0.0542342253029346,0.554148256778717,0.5097960829734802,97.34493255615234,24.89,0
-0.372210830450058,-0.9422707557678224,0.0292066317051649,2.0251007080078125,0.5098583698272705,97.3431625366211,24.89,0
-0.373210072517395,-0.9629526734352112,0.0187431350350379,3.1947755813598637,0.5089801549911499,97.34202575683594,24.91,0
-0.3962424397468567,-0.9090518951416016,0.0176260396838188,3.4617578983306885,0.5084165930747986,97.34130096435548,24.91,0
-0.4110232591629028,-0.8800592422485352,0.0113113773986697,3.020471334457397,0.5080549120903015,97.34083557128906,24.91,0
-0.4373020827770233,-0.8726489543914795,0.001661216141656,2.2643790245056152,0.5078228116035461,97.34053802490234,24.91,0
-0.4709596335887909,-0.9014800786972046,-0.0269227996468544,1.2955148220062256,0.5076738595962524,97.34034729003906,24.91,0
-0.5037546753883362,-0.9199822545051576,-0.0396686010062694,0.2295141071081161,0.5075782537460327,97.34022521972656,24.91,0
