acc_x,acc_y,acc_z,bvp,eda,hr,temp,label
0.0,0.0,0.0,0.0,0.0,0.0,24.21,0
-0.0260416641831398,-0.1276041567325592,0.0989583283662796,10.326665878295898,0.1271213144063949,13.048333168029783,24.21,0
-0.0777439028024673,-0.2820121943950653,0.2358994036912918,22.18609619140625,0.2976499199867248,30.552196502685547,24.21,0
-0.1127491667866706,-0.4213039875030517,0.3599979281425476,31.15903663635254,0.4459804594516754,45.77754211425781,24.21,0
-0.1115963980555534,-0.5602922439575195,0.4505344927310943,35.21810531616211,0.5541955828666687,56.88525390625,24.21,0
-0.0998364835977554,-0.6434137225151062,0.5063418745994568,34.39311599731445,0.6274617910385132,64.40564727783203,24.21,0
-0.1198856681585311,-0.6646349430084229,0.5429595112800598,30.9233341217041,0.6755349636077881,69.34010314941406,24.21,0
-0.1161325499415397,-0.7397515177726746,0.5499369502067566,27.169261932373047,0.7066696286201477,72.5359115600586,24.21,0
-0.1193050667643547,-0.7657788395881653,0.5432512760162354,23.899497985839844,0.7189323306083679,74.59455871582031,24.21,0
-0.1157495379447937,-0.7601290941238403,0.5501434206962585,20.723711013793945,0.7268140912055969,75.91773986816406,24.21,0
-0.1078698560595512,-0.7565010786056519,0.5489727258682251,17.3806095123291,0.7318754196166992,76.76742553710938,24.21,0
-0.1252007633447647,-0.7429777383804321,0.5426240563392639,14.174290657043455,0.7351243495941162,77.31285095214844,24.21,0
-0.1195312887430191,-0.7510910034179688,0.5385493636131287,11.57548713684082,0.7372095584869385,77.66291046142578,24.21,0
-0.1102950945496559,-0.7618955373764038,0.535934329032898,9.753602027893066,0.7385478019714355,77.88756561279297,24.21,0
-0.1099654659628868,-0.7744271159172058,0.52306067943573,8.584399223327637,0.7394065856933594,78.03173828125,24.21,0
-0.1209494471549987,-0.7824692130088806,0.5036035180091858,7.841232299804687,0.7399577498435974,78.12425994873047,24.21,0
-0.1168028190732002,-0.7764346599578857,0.5023125410079956,7.156519412994385,0.7550010681152344,78.18363952636719,24.21,0
-0.1365328431129455,-0.7669642567634583,0.4958862960338592,6.068663597106934,0.7646549940109253,78.22174072265625,24.21,0
-0.1603899896144867,-0.7720822095870972,0.4805667400360107,4.45698356628418,0.7708503603935242,78.2461929321289,24.21,0
-0.1757001280784607,-0.7641710638999939,0.493126630783081,2.8781485557556152,0.774826169013977,78.26188659667969,24.21,0
-0.1855252981185913,-0.7423008680343628,0.4955890774726867,2.2661914825439453,0.7773776054382324,78.27195739746094,24.21,0
-0.1862327456474304,-0.7506569027900696,0.5139626264572144,3.062887668609619,0.7790149450302124,78.2784194946289,24.21,0
-0.1922845244407653,-0.7672148942947388,0.5145581960678101,4.731333255767822,0.7800657153129578,78.2825698852539,24.21,0
-0.2017659842967987,-0.7834386229515076,0.509342610836029,6.325101852416992,0.7807400226593018,78.28523254394531,24.21,0
-0.2134484052658081,-0.7994478344917297,0.5059955716133118,7.43028974533081,0.8045842051506042,78.28694152832031,24.19,0
-0.2265432924032211,-0.8097216486930847,0.4926520586013794,8.268508911132812,0.8198860287666321,78.28804016113281,24.19,0
-0.2237512916326522,-0.8163148164749146,0.4784911870956421,9.01063632965088,0.8297058343887329,78.28874206542969,24.19,0
-0.2163617610931396,-0.8205459117889404,0.4750013351440429,9.547794342041016,0.8360076546669006,78.28919219970703,24.19,0
-0.2060218155384063,-0.8288589715957642,0.4671639800071716,10.017901420593262,0.8400517702102661,78.28948211669922,24.19,0
-0.188190683722496,-0.834193766117096,0.4621344208717346,10.910715103149414,0.8426470756530762,78.28966522216797,24.19,0
-0.1767476946115493,-0.8432151079177856,0.4645045101642608,12.268255233764648,0.8443126082420349,78.28978729248047,24.19,0
-0.1750020086765289,-0.8881889581680298,0.4436343908309936,13.580102920532228,0.8453814387321472,78.28986358642578,24.19,0
-0.1906750500202179,-0.9674305319786072,0.407850056886673,14.966523170471191,0.8538709282875061,78.28990936279297,24.19,0
-0.2119286656379699,-1.0070877075195312,0.3904834985733032,17.471988677978516,0.8593189716339111,78.81299591064453,24.19,0
-0.1975791305303573,-1.0101462602615356,0.379338651895523,21.888591766357425,0.8628152012825012,79.148681640625,24.19,0
-0.1883704364299774,-1.0009135007858276,0.3665887415409088,28.534772872924805,0.8650588989257812,79.36410522460938,24.19,0
-0.2048519253730774,-0.9781951308250428,0.352808803319931,38.35648727416992,0.8664987683296204,79.50235748291016,24.19,0
-0.2098310142755508,-0.9412246942520142,0.3439656496047973,52.77402877807617,0.8674228191375732,79.59107971191406,24.19,0
-0.218624085187912,-0.8951081037521362,0.3326928317546844,71.66350555419922,0.8680157661437988,79.64801788330078,24.19,0
-0.2522558271884918,-0.8487197756767273,0.3086652755737304,92.54508209228516,0.8683963418006897,79.68455505371094,24.19,0
-0.2962298691272735,-0.8469393253326416,0.282050222158432,112.58060455322266,0.8750673532485962,79.70800018310547,24.19,0
-0.3244498670101166,-0.879383385181427,0.2593724429607391,130.60791015625,0.8793483972549438,79.7230453491211,24.19,0
-0.3145709633827209,-0.928192973136902,0.2504169344902038,146.90220642089844,0.8820957541465759,79.73270416259766,24.19,0
-0.3138290345668793,-0.9483206272125244,0.2334742397069931,162.42112731933594,0.883858859539032,79.73889923095703,24.19,0
-0.3413417637348175,-0.9332485198974608,0.2226013988256454,177.89744567871094,0.8849902749061584,79.74287414550781,24.19,0
-0.3645956218242645,-0.9067827463150024,0.2156238257884979,189.9895477294922,0.8857163786888123,79.74542999267578,24.19,0
-0.3683230578899383,-0.8786030411720276,0.2167437970638275,189.23736572265625,0.8861823678016663,79.7470703125,24.19,0
-0.3427262604236603,-0.8605188727378845,0.239853635430336,166.73257446289062,0.8864814043045044,79.74812316894531,24.19,0
-0.3262996971607208,-0.8545113205909729,0.2602819800376892,121.20069885253906,0.8848372101783752,79.74879455566406,24.19,0
-0.3213558495044708,-0.8506559729576111,0.2733916938304901,56.81798553466797,0.8837820887565613,79.74922943115234,24.19,0
-0.3293787240982055,-0.8537796139717102,0.2818047702312469,-18.469118118286133,0.8831049799919128,79.74950408935547,24.19,0
-0.3345273435115814,-0.8557841777801514,0.292801558971405,-89.44384002685547,0.8826704025268555,79.74967956542969,24.19,0
-0.3490269780158996,-0.8850594758987427,0.2942608892917633,-139.45880126953125,0.8823915719985962,79.74979400634766,24.19,0
-0.3639297783374786,-0.9150422215461732,0.2951974272727966,-163.89239501953125,0.8822125792503357,79.74987030029297,24.19,0
-0.3567002117633819,-0.9566745162010192,0.2902006506919861,-170.3186798095703,0.8820977210998535,79.74991607666016,24.19,0
-0.3352673649787903,-1.0001850128173828,0.2813962399959564,-166.54669189453125,0.8820240497589111,79.74994659423828,24.19,0
-0.2879263758659363,-1.072889804840088,0.2589527368545532,-156.08676147460938,0.8810585141181946,79.74996948242188,24.21,0
-0.2575456500053406,-1.0747653245925903,0.2109631597995758,-142.2054443359375,0.8804389238357544,79.7499771118164,24.21,0
-0.2604401409626007,-1.0423823595046997,0.1745684295892715,-128.40341186523438,0.8800413012504578,79.74998474121094,24.21,0
-0.301482081413269,-0.920840859413147,0.1456146091222763,-115.47984313964844,0.8797861337661743,79.74999237060547,24.21,0
-0.3334182202816009,-0.8148536086082458,0.1270337253808975,-102.26377868652344,0.8796223998069763,79.74999237060547,24.21,0
-0.3595107495784759,-0.7692282199859619,0.1151095777750015,-88.84209442138672,0.8795173168182373,79.74999237060547,24.21,0
-0.337071031332016,-0.8015239834785461,0.1242506727576255,-76.66775512695312,0.8794498443603516,79.74999237060547,24.21,0
-0.317072719335556,-0.8670317530632019,0.1245191246271133,-66.05339050292969,0.8794065713882446,79.74999237060547,24.21,0
-0.3322278261184692,-0.9258641600608826,0.1190936267375946,-55.85258483886719,0.8757062554359436,79.74999237060547,24.21,0
-0.3643445968627929,-0.958021640777588,0.1212096288800239,-45.66997909545898,0.873331606388092,79.74999237060547,24.21,0
-0.3961508572101593,-0.9618651270866394,0.1281653344631195,-36.53800201416016,0.8718076944351196,79.91837310791016,24.21,0
-0.3829756379127502,-0.9363428354263306,0.1438246518373489,-29.18727302551269,0.8708297610282898,80.02643585205078,24.21,0
-0.3633249700069427,-0.9087685346603394,0.1650694459676742,-23.06562805175781,0.8702021837234497,80.09577941894531,24.21,0
-0.3339209854602813,-0.8854751586914062,0.1787031292915344,-17.46046257019043,0.8697994351387024,80.1402816772461,24.21,0
-0.3150511980056762,-0.8593312501907349,0.1874524503946304,-12.620237350463867,0.8695409893989563,80.16883850097656,24.21,0
-0.3085394501686096,-0.8593469262123108,0.1986650377511978,-9.005332946777344,0.8693751096725464,80.18716430664062,24.21,0
-0.304360568523407,-0.8873458504676819,0.1946650743484497,-6.230508804321289,0.8683508038520813,80.19892883300781,24.21,0
-0.2960810363292694,-0.9165095090866088,0.1865003556013107,-3.6007158756256104,0.8676934838294983,80.20648193359375,24.21,0
-0.2795721590518951,-0.9688116908073424,0.17006516456604,-1.1965512037277222,0.8672716617584229,80.2113265991211,24.21,0
-0.2689777016639709,-1.019169569015503,0.1539202332496643,0.4931889772415161,0.867000937461853,80.21443176269531,24.21,0
-0.2565810084342956,-1.0402908325195312,0.104374922811985,1.5309934616088867,0.8668271899223328,80.2164306640625,24.21,0
-0.2598210871219635,-1.1210185289382937,0.0389929488301277,2.1468405723571777,0.8667157292366028,80.21771240234375,24.21,0
-0.2786937057971954,-1.1840204000473022,-0.008563213981688,2.001086950302124,0.8666441440582275,80.2185287475586,24.21,0
-0.2796095311641693,-1.1460825204849243,-0.0390820242464542,0.8184475898742676,0.8665982484817505,80.21905517578125,24.21,0
-0.2634039223194122,-1.0433673858642578,-0.1034494340419769,-0.8540590405464172,0.8661094903945923,80.21939086914062,24.21,0
-0.2194174379110336,-0.971852958202362,-0.094376765191555,-2.2999653816223145,0.8657958507537842,80.21961212158203,24.21,0
-0.3031449317932129,-0.9427524209022522,-0.1333366483449936,-3.3675854206085205,0.8655945658683777,80.2197494506836,24.21,0
-0.3624742031097412,-0.9576640129089355,-0.1695344001054763,-4.059887409210205,0.8654654026031494,80.21984100341797,24.21,0
-0.338972806930542,-1.0008200407028198,-0.203959584236145,-4.235474109649658,0.8653824925422668,80.21990203857422,24.21,0
-0.3014998435974121,-1.02291738986969,-0.2148561328649521,-3.986315250396729,0.8653293251991272,80.21994018554688,24.21,0
-0.2662563025951385,-1.0426958799362185,-0.1994578242301941,-3.604299783706665,0.8652951717376709,80.21996307373047,24.21,0
-0.2604323625564575,-1.0273997783660889,-0.1839782893657684,-3.194345712661743,0.8652732372283936,80.21997833251953,24.21,0
-0.267890453338623,-1.0063880681991575,-0.1740444153547287,-2.7664623260498047,0.8629642128944397,80.21998596191406,24.21,0
-0.2670788466930389,-0.9929039478302002,-0.1508761048316955,-2.3772289752960205,0.8614823818206787,80.2199935913086,24.21,0
-0.2609602212905884,-0.9842506051063538,-0.1248124688863754,-1.9877209663391116,0.8605314493179321,80.2199935913086,24.21,0
-0.2346425354480743,-1.0010885000228882,-0.0968907848000526,-1.5335503816604614,0.8599211573600769,80.2199935913086,24.21,0
-0.1953622698783874,-1.0230896472930908,-0.0733744800090789,-1.0163875818252563,0.8595295548439026,80.2199935913086,24.21,0
-0.1589589118957519,-1.0372086763381958,-0.0526852905750274,-0.4373044967651367,0.8592782020568848,80.2199935913086,24.21,0
-0.1411951035261154,-1.0350738763809204,-0.0282126124948263,0.0597078464925289,0.8591169118881226,80.2199935913086,24.21,0
-0.1353930830955505,-1.0281062126159668,0.0042858677916228,0.1672897785902023,0.8590134382247925,80.2199935913086,24.21,0
-0.137267455458641,-1.0068414211273191,0.0251415204256773,-0.1111801713705062,0.8589469790458679,80.2199935913086,24.21,0
-0.138470321893692,-0.9819993376731871,0.0553188025951385,-0.293468713760376,0.8589043617248535,80.2199935913086,24.21,0
-0.1336444765329361,-0.9716548919677734,0.0802826210856437,-0.0486108846962451,0.8588770031929016,80.2199935913086,24.21,0
-0.1361453086137771,-0.9370275735855104,0.1186940595507621,0.3306444883346557,0.8588594794273376,80.28448486328125,24.21,0
-0.1321524232625961,-0.8924146294593811,0.1377465277910232,0.3984825313091278,0.8588482141494751,80.32586669921875,24.21,0
-0.1575788855552673,-0.8525890707969666,0.1331799924373626,0.0622640699148178,0.8588410019874573,80.35242462158203,24.21,0
-0.2074827700853347,-0.8718134760856628,0.1414449959993362,-0.4401076436042785,0.8588363528251648,80.36946868896484,24.21,0
-0.2339104413986206,-0.9065417051315308,0.1523467749357223,-0.6801016330718994,0.858833372592926,80.38040924072266,24.21,0
-0.217283546924591,-0.9288282990455629,0.1593429148197174,-0.2752341628074646,0.8569950461387634,80.3874282836914,24.21,0
-0.2178089171648025,-0.9263372421264648,0.1638326346874237,0.6115372180938721,0.8558152914047241,80.39192962646484,24.21,0
-0.2349393963813781,-0.9359341859817504,0.1779094189405441,1.2737630605697632,0.8550581932067871,80.39482116699219,24.21,0
-0.2459327429533004,-0.9364951252937316,0.1701497733592987,1.265249729156494,0.8545723557472229,80.39667510986328,24.21,0
-0.2417920976877212,-0.9256595969200134,0.1651700735092163,0.7976341843605042,0.8542605638504028,80.39786529541016,24.21,0
-0.2391348630189895,-0.9131081700325012,0.1619743853807449,0.2969211339950561,0.8540604710578918,80.39862823486328,24.21,0
-0.237429603934288,-0.8938578367233276,0.1599235832691192,0.1009825021028518,0.8539320230484009,80.39911651611328,24.21,0
-0.2419330477714538,-0.8759063482284546,0.1474119424819946,0.3048373460769653,0.8538495898246765,80.3994369506836,24.21,0
-0.2392253130674362,-0.8699838519096375,0.1337849199771881,0.5717974901199341,0.8537967205047607,80.39964294433594,24.21,0
-0.2318898737430572,-0.8661831617355347,0.1250398755073547,0.4600936770439148,0.8537628054618835,80.39977264404297,24.21,0
-0.2215846329927444,-0.891732931137085,0.1082322672009468,0.0265684444457292,0.8537410497665405,80.39985656738281,24.21,0
-0.2093735486268997,-0.9305204153060912,0.0974461138248443,-0.2623907923698425,0.8537270426750183,80.39990997314453,24.21,0
-0.1903416365385055,-1.0001941919326782,0.0849264040589332,-0.1576395779848098,0.853718101978302,80.39994049072266,24.21,0
-0.1781280487775802,-1.1064823865890503,0.0712942034006118,0.1711117327213287,0.8537123203277588,80.39996337890625,24.21,0
-0.1702900677919387,-1.1802897453308103,0.073741391301155,0.3964157104492187,0.8537086248397827,80.39997863769531,24.21,0
-0.1652601063251495,-1.1548839807510376,0.0697140768170356,0.3582914769649505,0.8537062406539917,80.39998626708984,24.21,0
-0.1732277125120163,-1.0882000923156738,0.0615318045020103,0.2227656841278076,0.8532457947731018,80.39999389648438,24.19,0
-0.1951341927051544,-1.01181960105896,0.056280892342329,0.2253574281930923,0.8529502749443054,80.39999389648438,24.19,0
-0.1979969590902328,-1.0131828784942627,0.0585089363157749,0.205525204539299,0.8527606725692749,80.39999389648438,24.19,0
-0.1942363381385803,-1.0364488363265991,0.0767320916056633,-0.1833723932504654,0.8526389598846436,80.39999389648438,24.19,0
-0.1582363545894622,-1.0065973997116089,0.0828288868069648,-0.8879316449165344,0.8525608777999878,80.39999389648438,24.19,0
-0.1127425357699394,-0.9818427562713624,0.0755459070205688,-1.5192060470581057,0.8525107502937317,80.39999389648438,24.19,0
-0.0779494419693946,-0.9939454793930054,0.0596765652298927,-1.884913206100464,0.852478563785553,80.39999389648438,24.19,0
-0.0780123397707939,-0.984919011592865,0.0494925342500209,-1.987047791481018,0.8524579405784607,80.39999389648438,24.19,0
-0.0892482474446296,-0.9735285639762878,0.0485547818243503,-1.755238056182861,0.8533629179000854,80.39999389648438,24.19,0
-0.1076543554663658,-0.943827748298645,0.0479529872536659,-1.2518008947372437,0.8539437055587769,80.39999389648438,24.19,0
-0.1306618899106979,-0.9135718941688538,0.0531645640730857,-0.9108110070228576,0.8543164134025574,80.39999389648438,24.19,0
-0.151024580001831,-0.8885576725006104,0.06210682913661,-1.1039795875549316,0.8545555472373962,80.39999389648438,24.19,0
-0.1528966277837753,-0.8725050091743469,0.0846387818455696,-1.618444800376892,0.8547090291976929,80.4537353515625,24.19,0
-0.1485002189874649,-0.8622032999992371,0.0990984961390495,-1.8984428644180296,0.8548075556755066,80.48822021484375,24.19,0
-0.1680699586868286,-0.8779833912849426,0.102780133485794,-1.7055416107177734,0.8548707365989685,80.5103530883789,24.19,0
-0.1918242424726486,-0.9216967821121216,0.1107405722141265,-1.2843949794769287,0.8549113273620605,80.5245590209961,24.19,0
-0.2182639241218567,-1.000129461288452,0.1046535745263099,-0.8923197388648987,0.8544780611991882,80.53367614746094,24.19,0
-0.22403584420681,-1.106440782546997,0.0671606436371803,-0.504570484161377,0.854200005531311,80.5395278930664,24.19,0
-0.222142145037651,-1.1802630424499512,0.0375020615756511,-0.0658588409423828,0.8540216088294983,80.54328155517578,24.19,0
-0.2489157617092132,-1.2276378870010376,0.0296644382178783,0.30524542927742,0.8539071083068848,80.54569244384766,24.19,0
-0.2828908562660217,-1.2020626068115234,0.0246347039937973,0.5362336039543152,0.8538336157798767,80.54723358154297,24.19,0
-0.2767052352428436,-1.0624988079071045,0.0102113606408238,0.7131291627883911,0.8537864685058594,80.54822540283203,24.19,0
-0.2391490042209625,-1.0233148336410522,0.0233463868498802,0.9018846154212952,0.8537561893463135,80.54885864257812,24.19,0
-0.198254257440567,-1.0037665367126465,0.0373734645545482,1.0624253749847412,0.8537367582321167,80.54927062988281,24.19,0
-0.1720103621482849,-0.9744282960891724,0.0295819118618965,1.2120246887207031,0.8537243008613586,80.54953002929688,24.19,0
-0.1551685482263565,-0.9444051384925842,0.0189839676022529,1.5014879703521729,0.8537163138389587,80.54969787597656,24.19,0
-0.1723493039608001,-0.8859536051750183,0.0233783666044473,1.9451942443847656,0.8537111878395081,80.5498046875,24.19,0
-0.2001682519912719,-0.8372471928596497,0.0541873127222061,2.2800955772399902,0.8537079095840454,80.54987335205078,24.19,0
-0.2180208563804626,-0.8115879893302917,0.0795564949512481,2.283643960952759,0.8537058234214783,80.54991912841797,24.19,0
-0.2238798588514328,-0.8119147419929504,0.1070325225591659,2.0315582752227783,0.8537044525146484,80.5499496459961,24.19,0
-0.2332375943660736,-0.8233199715614319,0.1302628368139267,1.7300636768341064,0.8537035584449768,80.54997253417969,24.19,0
-0.2392428517341613,-0.8362369537353516,0.1507684886455536,1.4219393730163574,0.8537030220031738,80.54998016357422,24.19,0
-0.2598899900913238,-0.8557218909263611,0.1583300530910492,1.0092483758926392,0.8573751449584961,80.54998779296875,24.19,0
-0.2787379324436188,-0.868226170539856,0.1631826311349868,0.4685487449169159,0.8597317337989807,80.54999542236328,24.19,0
-0.2796379029750824,-0.9042395949363708,0.1718945056200027,-0.0898131504654884,0.8612440228462219,80.54999542236328,24.19,0
-0.2690199017524719,-0.9497420191764832,0.1718875169754028,-0.569945216178894,0.8622145056724548,80.54999542236328,24.19,0
-0.2510103285312652,-1.0181273221969604,0.1606874912977218,-0.8780663013458252,0.8628373146057129,80.54999542236328,24.19,0
-0.2506483793258667,-1.090001940727234,0.1534999459981918,-0.885924220085144,0.8632370233535767,80.54999542236328,24.19,0
-0.2560138702392578,-1.1809091567993164,0.1488873958587646,-0.6724298596382141,0.8634935021400452,80.54999542236328,24.19,0
-0.2538593411445617,-1.1272926330566406,0.1291340142488479,-0.5461692214012146,0.8636581301689148,80.54999542236328,24.19,0
-0.2580744922161102,-1.0425046682357788,0.116457425057888,-0.5618719458580017,0.8646819591522217,80.54999542236328,24.19,0
-0.2663773000240326,-0.9824948310852052,0.1251156479120254,-0.4286459982395172,0.8653390407562256,80.54999542236328,24.19,0
-0.2493144571781158,-0.949581742286682,0.1306719928979873,-0.1425250321626663,0.8657606840133667,80.54999542236328,24.19,0
-0.2103756368160247,-0.9732422232627868,0.1118466332554817,-0.15953329205513,0.866031289100647,80.54999542236328,24.19,0
-0.1573980748653412,-0.9996217489242554,0.0829722806811332,-0.7400777339935303,0.8662049174308777,80.54999542236328,24.19,0
-0.1345956772565841,-1.0053550004959106,0.0588446073234081,-1.5497119426727295,0.8663163781166077,80.59298706054688,24.19,0
-0.1367557346820831,-0.9922409653663636,0.0377630814909935,-2.026297807693481,0.8663879036903381,80.62057495117188,24.19,0
-0.1437397003173828,-0.9726296067237854,0.0186363980174064,-1.9595552682876587,0.8664337992668152,80.6382827758789,24.19,0
-0.1538193821907043,-0.943250834941864,0.0007642186828888,-1.6014569997787476,0.8705946803092957,80.64964294433594,24.19,0
-0.1490923911333084,-0.9187994599342346,-0.0051073431968688,-1.2928335666656494,0.8732649087905884,80.65693664550781,24.19,0
-0.1460588872432708,-0.8975101709365845,-0.0088753728196024,-1.1520979404449463,0.8749784827232361,80.66161346435547,24.19,0
-0.1497099250555038,-0.8838479518890381,-0.0056957034394145,-1.1119379997253418,0.876078188419342,80.66461944580078,24.19,0
-0.152052953839302,-0.8638848066329956,-0.0036551745142787,-1.0610876083374023,0.8767839074134827,80.66654968261719,24.19,0
-0.1647521257400512,-0.8734647035598755,-0.0023456804919987,-0.8636562824249268,0.8772367835044861,80.66778564453125,24.19,0
-0.1729017198085785,-0.918796956539154,-0.0071030971594154,-0.4575153589248657,0.8775274157524109,80.6685791015625,24.19,0
-0.1725338846445083,-0.9590840935707092,-0.0157539080828428,0.0718156844377517,0.8777139186859131,80.6690902709961,24.19,0
-0.1834933757781982,-1.0129269361495972,-0.0269032754004001,0.5978037714958191,0.8801286220550537,80.66941833496094,24.19,0
-0.2017221003770828,-1.0810668468475342,-0.0340582951903343,1.132394313812256,0.8816782236099243,80.66962432861328,24.19,0
-0.2358113527297973,-1.1471861600875854,-0.0386499762535095,1.8337212800979612,0.8826726675033569,80.66976165771484,24.19,0
-0.2632856369018554,-1.1560311317443848,-0.0136077813804149,2.6527979373931885,0.883310854434967,80.66984558105469,24.19,0
-0.269721508026123,-1.1113272905349731,0.0192561820149421,3.1318607330322266,0.8837203979492188,80.6698989868164,24.19,0
-0.2402650266885757,-1.049052357673645,0.0347486063838005,2.901909351348877,0.8839831948280334,80.66993713378906,24.19,0
-0.1933726817369461,-1.0034900903701782,0.0334952026605606,2.0270769596099854,0.8841518759727478,80.66996002197266,24.19,0
-0.1520843356847763,-0.9574575424194336,0.0270930677652359,0.8172135353088379,0.8842601180076599,80.66997528076172,24.19,0
-0.1535767167806625,-0.9223187565803528,0.0341800935566425,-0.3102994859218597,0.8866249322891235,80.66998291015625,24.21,0
-0.1545344442129135,-0.8829753398895264,0.0331303663551807,-0.9514731764793396,0.8881425261497498,80.66999053955078,24.21,0
-0.1663445979356765,-0.8409336805343628,0.0268589369952678,-1.0835007429122925,0.8891164064407349,80.66999053955078,24.21,0
-0.1907169967889785,-0.8139537572860718,0.0284320693463087,-1.0786640644073486,0.8897414207458496,80.66999053955078,24.21,0
-0.2231511324644088,-0.8078351616859436,0.0518327094614505,-1.154376745223999,0.8901425004005432,80.66999053955078,24.21,0
-0.2103788405656814,-0.7983108162879944,0.0836432203650474,-1.1169829368591309,0.8903998732566833,80.66999053955078,24.21,0
-0.2021823227405548,-0.792198657989502,0.1040573716163635,-0.7741365432739258,0.890565037727356,80.66999053955078,24.21,0
-0.2361066937446594,-0.8050695657730103,0.1339513212442398,-0.3033372163772583,0.8906710743904114,80.66999053955078,24.21,0
-0.269072949886322,-0.8301226496696472,0.1531355381011963,0.0274553261697292,0.8911980390548706,80.66999053955078,24.21,0
-0.2958265542984009,-0.8685913681983948,0.1542513221502304,0.3257207572460174,0.8915362358093262,80.66999053955078,24.21,0
-0.3017999529838562,-0.977245032787323,0.1437718123197555,0.8109015226364136,0.8917532563209534,80.66999053955078,24.21,0
-0.2888399958610534,-1.0861570835113523,0.1202533468604087,1.3587125539779663,0.8918925523757935,80.66999053955078,24.21,0
-0.2805230617523193,-1.1616483926773071,0.1219538748264312,1.7711700201034546,0.8919818997383118,80.66999053955078,24.21,0
-0.2751857042312622,-1.215692162513733,0.1230451688170433,2.07526969909668,0.8920392394065857,80.66999053955078,24.21,0
-0.2437716424465179,-1.1720054149627686,0.1125499531626701,2.2596757411956787,0.8920760750770569,80.70581817626953,24.21,0
-0.2348074465990066,-1.0488076210021973,0.1058147251605987,2.2454617023468018,0.8920996785163879,80.72881317138672,24.21,0
-0.2234569638967514,-0.9585508704185486,0.1014924496412277,2.136027812957764,0.8939512968063354,80.74356842041016,24.21,0
-0.2049773335456848,-0.9286181330680848,0.0931208804249763,1.9368267059326167,0.8951395153999329,80.75303649902344,24.21,0
-0.1763248443603515,-0.9541912078857422,0.0821507200598716,1.325343132019043,0.8959020376205444,80.75910949707031,24.21,0
-0.1131551340222358,-1.0377758741378784,0.0359262786805629,0.1985001116991043,0.8963913917541504,80.76300811767578,24.21,0
-0.0726164504885673,-1.0914156436920166,-0.0105312298983335,-0.9975428581237792,0.8967054486274719,80.76551055908203,24.21,0
-0.0689921528100967,-1.092251896858215,-0.0515405312180519,-1.8009201288223269,0.8969069719314575,80.76712036132812,24.21,0
-0.1226440370082855,-1.0312130451202393,-0.0666623935103416,-2.173178434371948,0.8970363140106201,80.76815032958984,24.21,0
-0.1794658154249191,-0.9696507453918456,-0.0651711821556091,-2.254439115524292,0.8971193432807922,80.76881408691406,24.21,0
-0.1823441237211227,-0.9357414245605468,-0.0306275635957717,-2.1310412883758545,0.8948772549629211,80.76924133300781,24.21,0
-0.1506046056747436,-0.902784824371338,0.008333864621818,-1.9264614582061768,0.8934383988380432,80.7695083618164,24.21,0
-0.1470293402671814,-0.8704395890235901,0.0333370678126812,-1.827417016029358,0.8925150036811829,80.76968383789062,24.21,0
-0.2231037765741348,-0.8496822714805603,0.0661760047078132,-1.8784984350204468,0.8919224143028259,80.7697982788086,24.21,0
-0.2887172996997833,-0.847557008266449,0.0760545954108238,-1.87545382976532,0.8915421366691589,80.76986694335938,24.21,0
-0.3252265155315399,-0.8461931347846985,0.0656007826328277,-1.647797703742981,0.8912981152534485,80.76991271972656,24.21,0
-0.3654493391513824,-0.8621112108230591,0.0644899010658264,-1.2831640243530271,0.8911415338516235,80.76994323730469,24.21,0
-0.3968597948551178,-0.8835220336914062,0.0581792294979095,-0.938103199005127,0.8910410404205322,80.76996612548828,24.21,0
-0.405821681022644,-0.9252511262893676,0.0429338552057743,-0.6127683520317078,0.891435444355011,80.76997375488281,24.21,0
-0.3891817927360534,-0.9632260203361512,0.0331502519547939,-0.1567894518375396,0.8916885852813721,80.76998138427734,24.21,0
-0.3393188714981079,-1.0379761457443235,0.0324694737792015,0.6338095664978027,0.891851007938385,80.76998901367188,24.21,0
-0.279330849647522,-1.14752197265625,0.0096414908766746,1.739460587501526,0.8919552564620972,80.76998901367188,24.21,0
-0.2240406572818756,-1.1954309940338137,-0.010605969466269,2.552898645401001,0.8920221328735352,80.76998901367188,24.21,0
-0.2277430146932602,-1.1030253171920776,-0.0180018506944179,2.283166885375977,0.8920650482177734,80.76998901367188,24.21,0
-0.258107841014862,-1.004540205001831,-0.0171503257006406,0.977974772453308,0.8920926451683044,80.76998901367188,24.21,0
-0.2663986980915069,-0.9357403516769408,-0.0054083168506622,-0.3361049890518188,0.8921103477478027,80.76998901367188,24.21,0
-0.182154893875122,-0.9363707304000854,0.0189203508198261,-0.896382212638855,0.8921216726303101,80.76998901367188,24.21,0
-0.1224943026900291,-0.9479708671569824,0.0289353150874376,-0.9048434495925904,0.8921289443969727,80.76998901367188,24.21,0
-0.0898053422570228,-0.9666106700897216,0.0241667944937944,-0.7383097410202026,0.8921335935592651,80.76998901367188,24.21,0
-0.0856207683682441,-0.97857266664505,-0.0012844649609178,-0.4129008948802948,0.8921366333961487,80.76998901367188,24.21,0
-0.144510880112648,-0.9582602977752686,-0.0288131684064865,-0.0965949743986129,0.8921385407447815,80.76998901367188,24.21,0
-0.2214875817298889,-0.9172360897064208,0.0150960134342312,-0.0691542476415634,0.8921397924423218,80.76998901367188,24.21,0
-0.2764845788478851,-0.8797135949134827,0.0320788510143756,-0.0730398222804069,0.8921405673027039,80.76998901367188,24.21,0
-0.3117784857749939,-0.8332427144050598,0.0261841341853141,0.2719764709472656,0.8921411037445068,80.82731628417969,24.21,0
-0.3400258421897888,-0.8090181350708008,0.0279990192502737,0.6975948810577393,0.888928234577179,80.86410522460938,24.21,0
-0.358153373003006,-0.7990700006484985,0.0515548028051853,0.8954982161521912,0.8868663907051086,80.88771057128906,24.21,0
-0.3585910201072693,-0.792685866355896,0.0666715502738952,1.151473879814148,0.8855432271957397,80.90286254882812,24.21,0
-0.3812629878520965,-0.7885888814926147,0.0763726085424423,1.6095155477523804,0.8846940994262695,80.91258239746094,24.21,0
-0.289454847574234,-0.7971552014350891,0.1273803859949112,1.896295189857483,0.8841491341590881,80.9188232421875,24.21,0
-0.2753198444843292,-0.8194459080696106,0.1433209180831909,1.8116406202316284,0.8837994337081909,80.9228286743164,24.21,0
-0.3166287839412689,-0.8897285461425781,0.1255617588758468,1.542359709739685,0.8835750222206116,80.92539978027344,24.21,0
-0.298356294631958,-0.9572229981422424,0.1029694080352783,1.154596209526062,0.8834310173988342,80.92704772949219,24.21,0
-0.2754345238208771,-1.006134867668152,0.0884709358215332,0.5869026780128479,0.8810432553291321,80.92810821533203,24.21,0
-0.2943112850189209,-1.0935014486312866,0.0903621986508369,-0.0174429919570684,0.8795108795166016,80.92878723144531,24.21,0
-0.3232186138629913,-1.104786038398743,0.0971736758947372,-0.5199196338653564,0.8785275220870972,80.9292221069336,24.21,0
-0.3249763548374176,-1.0280612707138062,0.1015448942780494,-0.9534400701522828,0.8778964281082153,80.92950439453125,24.21,0
-0.2925177216529846,-1.0180081129074097,0.1155456379055976,-1.2423962354660034,0.8774914741516113,80.92967987060547,24.21,0
-0.2213076800107956,-0.9947632551193236,0.1469216048717498,-1.1555559635162354,0.8772315979003906,80.92979431152344,24.21,0
-0.1756091713905334,-1.0078349113464355,0.1614591181278228,-0.7415692806243896,0.8770648241043091,80.92987060546875,24.21,0
-0.1686736047267913,-1.027419090270996,0.1539951413869857,-0.4114101231098175,0.8769577741622925,80.92991638183594,24.21,0
-0.2034071683883667,-1.0343893766403198,0.1268140822649002,-0.4037397801876068,0.8750529885292053,80.92994689941406,24.21,0
-0.225697174668312,-1.0220690965652466,0.0925775244832038,-0.5600333213806152,0.8738306164741516,80.92996978759766,24.21,0
-0.2455993890762329,-1.0085649490356443,0.0650086998939514,-0.6567509174346924,0.8730461597442627,80.92997741699219,24.21,0
-0.2415781617164611,-0.9775075912475586,0.0641099363565445,-0.6149240136146545,0.8725427389144897,80.92998504638672,24.21,0
-0.2278020232915878,-0.9519790410995485,0.074728712439537,-0.4125357270240783,0.8722196817398071,80.92999267578125,24.21,0
-0.2133635133504867,-0.90760737657547,0.0983365550637245,-0.1465166956186294,0.8720123767852783,80.92999267578125,24.21,0
-0.2152932584285736,-0.8567411303520203,0.1078889369964599,-0.1011911332607269,0.8718793392181396,80.92999267578125,24.21,0
-0.2221294343471527,-0.8129025101661682,0.1140191033482551,-0.4375264942646026,0.8717939257621765,80.92999267578125,24.21,0
-0.2377120554447174,-0.7959649562835693,0.1123553216457367,-0.864739179611206,0.8689848780632019,80.92999267578125,24.21,0
-0.2533098459243774,-0.7962909936904907,0.1168853715062141,-1.0242571830749512,0.867182195186615,80.92999267578125,24.21,0
-0.2689173817634582,-0.8468801975250244,0.1085969507694244,-1.1302093267440796,0.8660253286361694,80.92999267578125,24.21,0
-0.2845311760902405,-0.9409209489822388,0.1088756918907165,-1.5206351280212402,0.8652828931808472,80.92999267578125,24.21,0
-0.300148993730545,-1.0348575115203855,0.1090545728802681,-1.817761301994324,0.8648064732551575,80.92999267578125,24.21,0
-0.3213671445846557,-1.1063361167907717,0.1203649193048477,-1.506879210472107,0.8645007014274597,80.92999267578125,24.21,0
-0.3405815064907074,-1.1466091871261597,0.1332210153341293,-0.9921063780784608,0.8643044829368591,80.92999267578125,24.21,0
-0.3473144173622131,-1.0940853357315063,0.1414713263511657,-1.091663837432861,0.8641785383224487,80.92999267578125,24.21,0
-0.3628307580947876,-0.987607479095459,0.1467659026384353,-2.004624605178833,0.8618023991584778,80.98014831542969,24.21,0
-0.3615927100181579,-0.9080805778503418,0.1501636505126953,-3.385842084884644,0.8602774739265442,81.01233673095703,24.21,0
-0.3272115588188171,-0.8794358968734741,0.146746352314949,-4.519425868988037,0.8592988848686218,81.03299713134766,24.21,0
-0.29954993724823,-0.8946400284767151,0.1333577781915664,-4.233025550842285,0.8586708903312683,81.04625701904297,24.21,0
-0.2706027626991272,-0.9435815811157228,0.1079724431037902,-1.9390932321548464,0.8582679033279419,81.05476379394531,24.21,0
-0.2576238811016083,-0.9470005631446838,0.0916815996170044,1.2132484912872314,0.8580092787742615,81.06021881103516,24.21,0
-0.2716858983039856,-0.9212058186531068,0.0868248417973518,3.3795430660247803,0.857843279838562,81.063720703125,24.21,0
-0.2919056415557861,-0.8934566974639893,0.0557191856205463,3.888432502746582,0.8577367663383484,81.06597137451172,24.21,0
-0.2992837131023407,-0.8812466859817505,0.0637462362647056,3.229800224304199,0.8544552326202393,81.06741333007812,24.21,0
-0.2760296761989593,-0.8734109997749329,0.1080819591879844,2.015378713607788,0.8523493409156799,81.0683364868164,24.21,0
-0.2611065804958343,-0.862784743309021,0.1477296203374862,0.766715407371521,0.8509978652000427,81.06893157958984,24.21,0
-0.2515297830104828,-0.8559653759002686,0.1787709891796112,-0.0310222823172807,0.850130558013916,81.0693130493164,24.21,0
-0.2341884076595306,-0.8739802241325378,0.2154848724603653,-0.3315923810005188,0.8495739698410034,81.0695571899414,24.21,0
-0.2566463649272918,-0.879943311214447,0.2278501838445663,-0.585384726524353,0.8492168188095093,81.06971740722656,24.21,0
-0.3550252020359039,-0.8837701082229614,0.1742100119590759,-1.070685863494873,0.8489875793457031,81.06981658935547,24.21,0
-0.3341924548149109,-0.9030192494392396,0.1397868245840072,-1.489601492881775,0.8488404750823975,81.06988525390625,24.21,0
-0.3096276521682739,-0.9601544141769408,0.1120982319116592,-1.486161708831787,0.8505821824073792,81.0699234008789,24.19,0
-0.3386455774307251,-1.0975804328918457,0.0831337422132492,-1.2367565631866455,0.8516998887062073,81.06995391845703,24.19,0
-0.3684631586074829,-1.1689791679382324,0.0477526746690273,-1.1089458465576172,0.8524171710014343,81.0699691772461,24.19,0
-0.3820005655288696,-1.0972455739974976,0.0138515932485461,-1.0233416557312012,0.8528774976730347,81.06997680664062,24.19,0
-0.3459059000015259,-0.9672444462776184,-0.0246974900364875,-0.5994005799293518,0.8531728982925415,81.06998443603516,24.19,0
-0.3115468919277191,-0.8950127363204956,-0.0494360737502574,0.3031937479972839,0.8533624410629272,81.06999206542969,24.19,0
-0.3174861371517181,-0.8822452425956726,-0.0653118714690208,1.5057950019836426,0.8534840941429138,81.06999206542969,24.19,0
-0.3436886966228485,-0.8852473497390747,-0.086695596575737,2.6823861598968506,0.8535621762275696,81.06999206542969,24.19,0
-0.3325151205062866,-0.8983694911003113,-0.1116139888763427,3.380133628845215,0.8531533479690552,81.06999206542969,24.19,0
-0.3253445625305176,-0.9403771758079528,-0.1332029551267624,3.2618608474731445,0.8528909683227539,81.06999206542969,24.19,0
-0.3263406753540039,-0.9785308241844176,-0.1470575034618377,2.580504894256592,0.8527225852012634,81.06999206542969,24.19,0
-0.3157843649387359,-0.9862223267555236,-0.1559485644102096,1.960538387298584,0.8526145219802856,81.06999206542969,24.19,0
-0.3034121692180633,-0.9855605363845824,-0.1560565531253814,1.6558265686035156,0.8525452017784119,81.06999206542969,24.19,0
-0.3010701835155487,-0.9795380234718324,-0.1337347626686096,1.4065414667129517,0.8525006771087646,81.06999206542969,24.19,0
-0.2883716821670532,-0.9532820582389832,-0.108214370906353,1.0423578023910522,0.8524721264839172,81.06999206542969,24.19,0
-0.2746247351169586,-0.9364324808120728,-0.0918368548154831,0.701168417930603,0.8524538278579712,81.06999206542969,24.19,0
-0.2490094155073166,-0.9368149042129515,-0.0701311528682708,0.4929604530334472,0.8561145663261414,81.06999206542969,24.19,0
-0.2269732058048248,-0.9426581263542176,-0.050603911280632,0.3271013796329498,0.8584638237953186,80.97684478759766,24.19,0
-0.2072338610887527,-0.974396824836731,-0.0436702258884906,0.1418458968400955,0.8599714040756226,80.91706848144531,24.19,0
-0.2001640498638153,-1.0227538347244265,-0.0336228124797344,0.0372898913919925,0.8609389066696167,80.87870788574219,24.19,0
-0.1956270635128021,-1.0593843460083008,-0.0327727347612381,0.1564858108758926,0.8615598082542419,80.85409545898438,24.19,0
-0.2095088064670562,-1.1164783239364624,-0.0266294293105602,0.4980894923210144,0.8619582653045654,80.83829498291016,24.19,0
-0.2352106273174286,-1.1419223546981812,-0.0170892346650362,0.9645087122917176,0.8622139692306519,80.82815551757812,24.19,0
-0.2629001438617706,-1.0630887746810913,0.0058264355175197,1.4931145906448364,0.8623780608177185,80.82164764404297,24.19,0
-0.2582785785198211,-0.9341290593147278,0.0261301677674055,1.975646495819092,0.8565155267715454,80.81747436523438,24.19,0
-0.2441171705722808,-0.851370096206665,0.0391599349677562,2.113343954086304,0.8527532815933228,80.8147964477539,24.19,0
-0.1790514439344406,-0.859835684299469,0.0475216880440712,1.6284981966018677,0.850338876247406,80.81307983398438,24.19,0
-0.1037093624472618,-0.9436372518539428,0.1200610771775245,0.6115847826004028,0.8487894535064697,80.81197357177734,24.19,0
-0.1449235379695892,-0.9694274067878724,0.1162327080965042,-0.3956867754459381,0.8477951288223267,80.81126403808594,24.19,0
-0.1993612945079803,-0.9467936158180236,0.0857870131731033,-0.7447418570518494,0.8471570611000061,80.8108139038086,24.19,0
-0.2454918622970581,-0.9098774790763856,0.0662487149238586,-0.3382120430469513,0.8467475771903992,80.8105239868164,24.19,0
-0.3198780119419098,-0.8861868381500244,0.0537101589143276,0.2451072037220001,0.8464847803115845,80.81033325195312,24.19,0
-0.3564192056655884,-0.8765813112258911,0.0568591877818107,0.5621267557144165,0.8481525778770447,80.81021118164062,24.21,0
-0.3182937204837799,-0.876014769077301,0.075673371553421,0.9196223616600036,0.8492228388786316,80.81013488769531,24.21,0
-0.277033656835556,-0.8756512403488159,0.0989427864551544,1.8082363605499268,0.8499096632003784,80.81008911132812,24.21,0
-0.2729464173316955,-0.8810157179832458,0.1194735318422317,3.0305263996124268,0.8503504395484924,80.81005859375,24.21,0
-0.2871167957782745,-0.8956538438796997,0.1270512044429779,3.7253572940826416,0.8506333231925964,80.8100357055664,24.21,0
-0.2962105274200439,-0.8994500041007996,0.1263163387775421,3.2541205883026123,0.8508148789405823,80.81002044677734,24.21,0
-0.290850818157196,-0.90748393535614,0.1202469766139984,1.84469211101532,0.8509313464164734,80.81001281738281,24.21,0
-0.2874112427234649,-0.9294329881668092,0.1107542365789413,0.2451823949813842,0.8510060906410217,80.81000518798828,24.21,0
-0.2740083932876587,-0.9771052598953248,0.0878690183162689,-0.9353415369987488,0.8524311780929565,80.81000518798828,24.21,0
-0.2654072046279907,-1.102860689163208,0.0451937280595302,-1.3705021142959597,0.8533457517623901,80.81000518798828,24.21,0
-0.2766807675361633,-1.2115522623062134,0.0122094089165329,-0.9726563096046448,0.8539326786994934,80.81000518798828,24.21,0
-0.2839154899120331,-1.186142086982727,-0.008958026766777,-0.1047213673591613,0.8543093204498291,80.81000518798828,24.21,0
-0.2829605638980865,-1.108259677886963,-0.0281398426741361,0.5167557001113892,0.8545510172843933,80.81000518798828,24.21,0
-0.2711521983146667,-0.9855082035064696,-0.0404496267437934,0.4211884438991546,0.8547061085700989,80.81000518798828,24.21,0
-0.2635742723941803,-0.91792893409729,-0.0651426613330841,-0.252761572599411,0.8548056483268738,80.81000518798828,24.21,0
-0.2531134188175201,-0.8969515562057495,-0.0921847820281982,-1.0900949239730835,0.854869544506073,80.81000518798828,24.21,0
-0.2575957775115967,-0.9226738810539246,-0.0983433052897453,-1.84956693649292,0.8530741333961487,80.81000518798828,24.21,0
-0.2492767572402954,-0.9447788000106812,-0.0966977179050445,-2.419351577758789,0.8519219160079956,80.81000518798828,24.21,0
-0.2327425479888916,-0.9645622372627258,-0.1068372279405593,-2.6488687992095947,0.8511825203895569,80.8780746459961,24.21,0
-0.2333273887634277,-0.971660315990448,-0.1077464073896408,-2.423571825027466,0.8507080078125,80.9217529296875,24.21,0
-0.2393004745244979,-0.9762154221534728,-0.1083298623561859,-1.9171490669250488,0.8504034876823425,80.94978332519531,24.21,0
-0.2487314343452453,-0.9735409021377563,-0.1087042912840843,-1.563495397567749,0.850208044052124,80.9677734375,24.21,0
-0.2547836899757385,-0.9718245267868042,-0.0977490320801734,-1.623146891593933,0.8500826358795166,80.97931671142578,24.21,0
-0.2474721223115921,-0.9651252627372742,-0.0627297013998031,-1.811896085739136,0.8500021696090698,80.98672485351562,24.21,0
-0.2315844297409057,-0.9496305584907532,-0.0290607623755931,-1.7610607147216797,0.8522458672523499,80.9914779663086,24.21,0
-0.2157908529043197,-0.9396868944168092,0.0093393484130501,-1.6424556970596311,0.853685736656189,80.9945297241211,24.21,0
-0.1832643449306488,-0.9389034509658812,0.0451778769493103,-1.7633835077285769,0.8546097874641418,80.99649047851562,24.21,0
-0.1791840195655822,-0.9551939964294434,0.0569814331829547,-1.8230750560760496,0.8552027940750122,80.99774932861328,24.21,0
-0.187761053442955,-0.9824416637420654,0.0645562782883644,-1.2989174127578735,0.8555833697319031,80.9985580444336,24.21,0
-0.198863074183464,-1.0279165506362915,0.0750151500105857,-0.3248447179794311,0.8558275699615479,80.99907684326172,24.21,0
-0.2115854918956756,-1.0794907808303833,0.0873248279094696,0.5259612798690796,0.8559842705726624,80.99940490722656,24.21,0
-0.2197500020265579,-1.1125881671905518,0.0952244699001312,0.8820831775665283,0.8560848236083984,80.99961853027344,24.21,0
-0.2417828440666198,-1.128230333328247,0.1002940014004707,0.6090611219406128,0.854313313961029,80.999755859375,24.21,0
-0.255922257900238,-1.0431064367294312,0.1203406602144241,-0.1501085013151168,0.853176474571228,80.99983978271484,24.21,0
-0.259398341178894,-0.9101099967956544,0.1220099031925201,-0.7519423365592957,0.8524469137191772,80.9999008178711,24.21,0
-0.2616290748119354,-0.8247604966163635,0.1174833551049232,-0.6115260124206543,0.8519787192344666,80.99993896484375,24.21,0
-0.2462673187255859,-0.8147702813148499,0.114578478038311,0.0589623302221298,0.8516782522201538,80.99996185302734,24.21,0
-0.2252134829759597,-0.8419458270072937,0.1127142906188964,0.7041977047920227,0.8514854311943054,80.9999771118164,24.21,0
-0.2340934425592422,-0.8929721713066101,0.1003224179148674,1.078864336013794,0.8513616919517517,80.99998474121094,24.21,0
-0.3013676106929779,-0.9033268094062804,0.0867722481489181,1.014784812927246,0.8512822985649109,80.99999237060547,24.21,0
-0.3557358384132385,-0.8931785225868225,0.0836743041872978,0.3968676030635834,0.8535262942314148,80.99999237060547,24.21,0
-0.3738329112529754,-0.8810681700706482,0.0872839987277984,-0.3041950166225433,0.854966402053833,80.99999237060547,24.21,0
-0.3630554676055908,-0.8788942098617554,0.0951982662081718,-0.3241875767707824,0.8558905720710754,80.99999237060547,24.21,0
-0.3337480425834656,-0.8886946439743042,0.1114727407693862,0.3651672005653381,0.8564836382865906,80.99999237060547,24.21,0
-0.3261357843875885,-0.8781906366348267,0.1275145262479782,1.0296751260757446,0.8568642139434814,80.99999237060547,24.21,0
-0.3268484473228454,-0.8714497685432434,0.1378092318773269,1.2053377628326416,0.857108473777771,80.99999237060547,24.21,0
-0.327305793762207,-0.8895149827003479,0.1500135511159896,1.0457921028137207,0.8572652339935303,80.99999237060547,24.21,0
-0.3164037466049194,-0.9011082053184508,0.1522478014230728,0.8036844730377197,0.8573657870292664,80.99999237060547,24.21,0
-0.303809642791748,-0.9197435975074768,0.1368882954120636,0.676974356174469,0.855594277381897,80.99999237060547,24.21,0
-0.301325261592865,-0.9876804947853088,0.1158358976244926,0.878682553768158,0.854457437992096,80.99999237060547,24.21,0
-0.2941331565380096,-1.0480717420578003,0.085532359778881,1.2947332859039309,0.8537278771400452,80.99999237060547,24.21,0
-0.3175065517425537,-1.1651962995529177,0.0492919720709323,1.536652684211731,0.8532596826553345,81.06089782714844,24.21,0
-0.3381040096282959,-1.2235667705535889,0.0092416536062955,1.44112229347229,0.8529592156410217,81.09998321533203,24.21,0
-0.3401267230510711,-1.154667854309082,-0.0332536585628986,1.0323065519332886,0.8527663946151733,81.12506866455078,24.21,0
-0.330229252576828,-1.020888090133667,-0.0549269318580627,0.2397310137748718,0.8526426553726196,81.14116668701172,24.21,0
-0.2734976410865783,-0.9294381737709044,-0.057640042155981,-0.8385279178619385,0.8525632619857788,81.15149688720703,24.21,0
-0.2706772089004516,-0.9043375253677368,-0.0817722529172897,-1.817098379135132,0.8538894653320312,81.15812683105469,24.21,0
-0.2744649946689605,-0.9162182211875916,-0.0972589179873466,-2.3734371662139893,0.8547405004501343,81.1623764038086,24.21,0
-0.2657002210617065,-0.9406359195709229,-0.1183929219841957,-2.4474399089813232,0.8552866578102112,81.16510772705078,24.21,0
-0.2376843988895416,-0.9507079720497132,-0.1319555044174194,-2.1366729736328125,0.8556371331214905,81.16686248779297,24.21,0
-0.2253032326698303,-0.95157390832901,-0.129463642835617,-1.6577997207641602,0.8558620810508728,81.16798400878906,24.21,0
-0.2397488057613372,-0.9465318322181702,-0.1222667321562767,-1.2537568807601929,0.8560064435005188,81.16870880126953,24.21,0
-0.254616916179657,-0.9376983642578124,-0.1120503991842269,-1.0016306638717651,0.8560990691184998,81.16917419433594,24.21,0
-0.2585606575012207,-0.9376273155212402,-0.0887008160352706,-0.7789267897605896,0.8561584949493408,81.16947174072266,24.21,0
-0.2498959600925445,-0.9375817179679872,-0.0569230765104293,-0.4783749282360077,0.8543605804443359,81.16966247558594,24.19,0
-0.2387376874685287,-0.9375524520874025,-0.0309321787208318,-0.2640025913715362,0.8532068133354187,81.16978454589844,24.19,0
-0.209185853600502,-0.9543269872665404,-0.0142527166754007,-0.3700459003448486,0.852466344833374,81.16986083984375,24.19,0
-0.1790256351232528,-0.9650919437408448,-0.0091465730220079,-0.7103741765022278,0.8519911766052246,81.16990661621094,24.19,0
-0.1652683168649673,-0.9943913221359252,-0.0058697438798844,-0.9860984683036804,0.8516862392425537,81.16993713378906,24.19,0
-0.1900263130664825,-0.9852051138877868,0.0018309107981622,-1.0089915990829468,0.8514905571937561,81.16996002197266,24.19,0
-0.211512342095375,-0.996103286743164,0.012370522134006,-0.7621551752090454,0.8513649702072144,81.16997528076172,24.19,0
-0.2141052931547165,-1.047879338264465,0.0303297862410545,-0.2562399208545685,0.851284384727478,81.16998291015625,24.19,0
-0.2213670760393142,-1.0923017263412476,0.0530505590140819,0.4732584059238434,0.8530687093734741,81.16999053955078,24.19,0
-0.231625035405159,-1.048038363456726,0.0844247639179229,1.2029364109039309,0.8542138338088989,81.16999053955078,24.19,0
-0.2270124554634094,-0.9524593949317932,0.0989611521363258,1.38459575176239,0.8549486994743347,81.16999053955078,24.19,0
-0.2296501398086547,-0.9135134220123292,0.1138875409960746,0.6700167059898376,0.8554202914237976,81.16999053955078,24.19,0
-0.1809628903865814,-0.9724867939949036,0.1514553129673004,-0.3761013746261596,0.8557229042053223,81.16999053955078,24.19,0
-0.1833048611879348,-0.9767458438873292,0.1923574656248092,-0.7357556223869324,0.8559170961380005,81.16999053955078,24.19,0
-0.2183944433927536,-0.9458923935890198,0.1850194633007049,-0.0852474495768547,0.8560417294502258,81.16999053955078,24.19,0
-0.2577062547206878,-0.9148969054222108,0.1635170429944992,1.073804497718811,0.8561217188835144,81.16999053955078,24.19,0
-0.282934308052063,-0.8950057625770569,0.1553158015012741,2.093475580215454,0.8552548289299011,81.16999053955078,24.19,0
-0.2823309004306793,-0.8710452318191528,0.1276616156101226,2.4719834327697754,0.8546985387802124,81.16999053955078,24.19,0
-0.2763458788394928,-0.8500709533691406,0.1099147498607635,1.9876251220703125,0.8543415069580078,81.16999053955078,24.19,0
-0.2501139342784881,-0.847806453704834,0.1209169328212738,1.1035797595977783,0.8541123867034912,81.16999053955078,24.19,0
-0.2556709051132202,-0.8575487732887268,0.1279774904251098,0.661640465259552,0.8539653420448303,81.2237319946289,24.19,0
-0.2648348212242126,-0.8749963641166687,0.126910775899887,0.9261633157730104,0.8538709878921509,81.25821685791016,24.19,0
-0.276313453912735,-0.8805954456329346,0.1206284537911415,1.3359514474868774,0.8538104295730591,81.28034973144531,24.19,0
-0.2892775535583496,-0.8785908222198486,0.110999047756195,1.3768101930618286,0.8537715673446655,81.2945556640625,24.19,0
-0.3031949400901794,-0.9052932262420654,0.1048194468021392,1.0949294567108154,0.8514516353607178,81.30367279052734,24.19,0
-0.2953329980373382,-0.9672115445137024,0.0840604081749916,0.7205755710601807,0.8499628305435181,81.30952453613281,24.19,0
-0.2958854436874389,-1.0461314916610718,0.0651406794786453,0.3621118068695068,0.8490074276924133,81.31327819824219,24.19,0
-0.3018377423286438,-1.1247667074203491,0.0418035387992858,0.1822264641523361,0.8483942747116089,81.31568908691406,24.19,0
-0.3000597953796386,-1.1472413539886477,0.0268271043896675,0.3211492598056793,0.8480008244514465,81.31723022460938,24.19,0
-0.2989188134670257,-1.083295464515686,0.011618317104876,0.632421612739563,0.847748339176178,81.31822204589844,24.19,0
-0.3037843704223633,-1.0310630798339844,-0.0037395814433693,0.7784396409988403,0.8475862741470337,81.31885528564453,24.19,0
-0.2789179384708404,-0.9975433945655824,-0.0415842682123184,0.4959751665592193,0.8474822640419006,81.31926727294922,24.19,0
-0.2237756699323654,-1.032010197639465,-0.0266863889992237,-0.2800017893314361,0.8483333587646484,81.31952667236328,24.21,0
-0.2163774073123932,-1.0429333448410034,-0.028321336954832,-1.311782956123352,0.8488795757293701,81.31969451904297,24.21,0
-0.2228251844644546,-1.0331499576568604,-0.034968327730894,-2.1458842754364014,0.8492301106452942,81.3198013305664,24.21,0
-0.1989741176366806,-1.010078191757202,-0.0392339825630188,-2.5306944847106934,0.8494550585746765,81.31986999511719,24.21,0
-0.1836678832769394,-0.9896742701530457,-0.0419714339077472,-2.551941156387329,0.8495994210243225,81.31991577148438,24.21,0
-0.1682474464178085,-0.954189121723175,-0.0437281727790832,-2.311213254928589,0.8496920466423035,81.3199462890625,24.21,0
-0.1583514958620071,-0.9202212691307068,-0.0392577722668647,-1.827130913734436,0.8497514724731445,81.3199691772461,24.21,0
-0.157598614692688,-0.8872270584106445,-0.025193378329277,-1.294355034828186,0.8497896194458008,81.31997680664062,24.21,0
-0.1515176892280578,-0.8716510534286499,-0.0161676593124866,-1.0670925378799438,0.8475190997123718,81.31998443603516,24.21,0
-0.1420175284147262,-0.8672530651092529,-0.0103754727169871,-1.2866712808609009,0.8460620045661926,81.31999206542969,24.21,0
-0.1247253194451332,-0.8868218064308167,-0.0122561557218432,-1.721355438232422,0.8451269268989563,81.31999206542969,24.21,0
-0.1192259490489959,-0.9049776792526244,-0.0134630696848034,-2.014641046524048,0.8445268869400024,81.31999206542969,24.21,0
-0.1436856389045715,-0.9166290760040284,-0.0086398227140307,-2.027308702468872,0.8441417813301086,81.31999206542969,24.21,0
-0.1761757880449295,-0.9353017807006836,-0.0055445409379899,-1.8204835653305051,0.8438946604728699,81.31999206542969,24.21,0
-0.1970260888338089,-0.9976648092269896,-0.0035581672564148,-1.415479302406311,0.8437360525131226,81.31999206542969,24.21,0
-0.1824177503585815,-1.0936635732650757,0.0145098958164453,-0.739992082118988,0.843634307384491,81.31999206542969,24.21,0
-0.1674451828002929,-1.1776611804962158,0.0373004898428916,0.0875800475478172,0.8449461460113525,81.31999206542969,24.21,0
-0.1914232969284057,-1.1699904203414917,0.0575239546597003,0.7046499848365784,0.8457880020141602,81.31999206542969,24.21,0
-0.2180066108703613,-1.0587100982666016,0.0760999843478202,0.9286863803863524,0.8463282585144043,81.31999206542969,24.21,0
-0.2182729393243789,-0.981698989868164,0.0936187878251075,1.0832077264785769,0.8466749787330627,81.31999206542969,24.21,0
-0.1624661087989807,-0.9546688199043274,0.1160568967461586,1.587201714515686,0.8468974828720093,81.31999206542969,24.21,0
-0.1098591685295105,-0.9485179781913756,0.1304563730955124,2.473100423812866,0.8470402359962463,81.2770004272461,24.21,0
-0.0760990679264068,-0.9613640308380128,0.1285015791654586,3.346138000488281,0.8471318483352661,81.2494125366211,24.21,0
-0.0992159694433212,-0.9584123492240906,0.1272471100091934,3.6699533462524414,0.8471906781196594,81.2317123413086,24.21,0
-0.130844384431839,-0.950920343399048,0.1320398449897766,3.1397488117218018,0.8463101983070374,81.22035217285156,24.21,0
-0.1343483626842498,-0.9125257730484008,0.1407133191823959,2.050735712051392,0.8457451462745667,81.21305847167969,24.21,0
-0.1365970224142074,-0.8766908049583435,0.1462794542312622,1.12616765499115,0.8453825116157532,81.20838165283203,24.21,0
-0.138040080666542,-0.853693962097168,0.1498514711856842,0.7012141346931458,0.84514981508255,81.20537567138672,24.21,0
-0.1557594686746597,-0.8557292222976685,0.1465460211038589,0.4571640193462372,0.8450005054473877,81.20344543457031,24.21,0
-0.1727285236120224,-0.8626331090927124,0.1444247663021087,0.1751565486192703,0.8449046611785889,81.20220947265625,24.21,0
-0.1836182922124862,-0.8670636415481567,0.1430634707212448,0.0550841763615608,0.8448431491851807,81.201416015625,24.21,0
-0.1962044984102249,-0.8699069023132324,0.1477876454591751,0.1499922722578048,0.8448036909103394,81.2009048461914,24.21,0
-0.2098793685436248,-0.8717315196990967,0.1452215760946273,0.2574723064899444,0.8447783589363098,81.20057678222656,24.21,0
-0.2186551094055175,-0.8952935934066772,0.1267814934253692,0.3479422628879547,0.8447620868682861,81.20037078857422,24.21,0
-0.2186890989542007,-0.9328054785728456,0.1093499362468719,0.5385559797286987,0.8447516560554504,81.20023345947266,24.21,0
-0.2131131440401077,-1.0296494960784912,0.0925655886530876,0.7576104402542114,0.8447449803352356,81.20014953613281,24.21,0
-0.2207303643226623,-1.119787335395813,0.0705988183617591,0.898186981678009,0.8447406888008118,81.2000961303711,24.21,0
-0.2368142008781433,-1.1440459489822388,0.0397084839642047,0.9597403407096864,0.8447379469871521,81.20005798339844,24.21,0
-0.2695269882678985,-1.0588537454605105,0.0422759428620338,0.8845992684364319,0.8447361588478088,81.20003509521484,24.21,0
-0.2961179316043854,-0.9817911982536316,0.0495213642716407,0.5927629470825195,0.8447350263595581,81.20001983642578,24.21,0
-0.3075847029685974,-0.9435324668884276,0.0653666108846664,0.212020069360733,0.8424389362335205,81.20001220703125,24.21,0
-0.2925523221492767,-0.935773491859436,0.0699374005198478,-0.0681445449590683,0.8409654498100281,81.20000457763672,24.21,0
-0.2493187636137008,-0.9811742305755616,0.0672728940844535,-0.2945115268230438,0.8400198221206665,81.20000457763672,24.21,0
-0.2159761786460876,-1.010309815406799,0.0543674193322658,-0.6189095973968506,0.8394129872322083,81.20000457763672,24.21,0
-0.2281654626131057,-1.0178117752075195,0.0292921047657728,-1.0133836269378662,0.8390235304832458,81.20000457763672,24.21,0
-0.2695744931697845,-0.9946372509002686,0.0076024373993277,-1.3202729225158691,0.8387736082077026,81.20000457763672,24.21,0
-0.296148419380188,-0.9797651767730712,-0.0063167423941195,-1.488556146621704,0.8386132121086121,81.20000457763672,24.21,0
-0.3076042830944061,-0.9590255618095398,-0.0096514960750937,-1.6753673553466797,0.8385103344917297,81.20000457763672,24.21,0
-0.2925648987293243,-0.9233250021934508,0.0050017745234072,-2.046032428741455,0.8384442925453186,81.20000457763672,24.21,0
-0.2773157060146332,-0.8948166370391846,0.0144053995609283,-2.4916932582855225,0.8384019136428833,81.20000457763672,24.21,0
-0.2619318664073944,-0.8709238767623901,0.0260378792881965,-2.749032020568848,0.8383747339248657,81.20000457763672,24.21,0
-0.2408638596534729,-0.8611886501312256,0.0335029363632202,-2.670562028884888,0.8383572697639465,81.20000457763672,24.21,0
-0.1993547528982162,-0.8717344403266907,0.0326958037912845,-2.3049378395080566,0.8383460640907288,81.20000457763672,24.21,0
-0.1895099282264709,-0.900893211364746,0.0153845101594924,-1.84818172454834,0.8383388519287109,81.20000457763672,24.21,0
-0.1999853998422622,-0.9308012127876282,-0.0069204303435981,-1.4547498226165771,0.8383342623710632,81.2143325805664,24.21,0
-0.2067079544067382,-0.9947766065597534,-0.0436255559325218,-0.944322407245636,0.8383312821388245,81.22352600097656,24.21,0
-0.2222176641225814,-1.0974078178405762,-0.0727785676717758,0.0675124749541282,0.839706540107727,81.22942352294922,24.21,0
-0.2433664500713348,-1.1632707118988037,-0.0802917405962944,1.45844304561615,0.8405891060829163,81.23321533203125,24.21,0
-0.2905251681804657,-1.1439621448516846,-0.0515266172587871,2.358227252960205,0.841155469417572,81.23564147949219,24.21,0
-0.3095933794975281,-1.081191062927246,-0.0106757180765271,2.0292654037475586,0.8415189385414124,81.2372055053711,24.21,0
-0.2546569406986236,-1.0017237663269043,0.0323333591222763,0.7720445394515991,0.8417521715164185,81.23820495605469,24.21,0
-0.1858152598142624,-0.9507262706756592,0.0599341094493866,-0.4037726819515228,0.8419018387794495,81.23884582519531,24.21,0
-0.1248433142900466,-0.9179989695549012,0.0720489099621772,-0.8036695122718811,0.8419979214668274,81.2392578125,24.21,0
-0.1193016767501831,-0.902594268321991,0.0798234865069389,-0.4978359639644623,0.8420595526695251,81.2395248413086,24.21,0
-0.132538691163063,-0.8983061909675598,0.0848127678036689,0.0674357265233993,0.842099130153656,81.23969268798828,24.23,0
-0.1410334408283233,-0.9067499041557312,0.0936123728752136,0.469602882862091,0.8421245217323303,81.23979949951172,24.23,0
-0.1464848816394806,-0.9065707921981812,0.0992594510316848,0.4410845339298248,0.842140793800354,81.2398681640625,24.23,0
-0.161178857088089,-0.8784670233726501,0.1140789687633514,0.0573604144155979,0.8421512842178345,81.23991394042969,24.23,0
-0.1706086099147796,-0.8436383008956909,0.1347848325967788,-0.1960567981004715,0.8421579599380493,81.23994445800781,24.23,0
-0.1822578459978103,-0.8156894445419312,0.142474889755249,0.096301719546318,0.8421622514724731,81.2399673461914,24.23,0
-0.2009292095899582,-0.8201445937156677,0.1474099308252334,0.7317425608634949,0.8421650528907776,81.23997497558594,24.23,0
-0.2185091972351074,-0.8341991901397705,0.1505769491195678,1.1646099090576172,0.8421668410301208,81.23998260498047,24.23,0
-0.2353887856006622,-0.8712074756622314,0.1526093631982803,1.2166969776153564,0.8417090177536011,81.239990234375,24.23,0
-0.2462211400270462,-0.9117506146430968,0.1539136469364166,1.1462287902832031,0.8414152264595032,81.239990234375,24.23,0
-0.2531727254390716,-0.9433666467666626,0.1491528898477554,1.1404147148132324,0.8412266969680786,81.239990234375,24.23,0
-0.2352427542209625,-1.0084381103515625,0.1181088387966156,1.16892671585083,0.8411056995391846,81.239990234375,24.23,0
-0.2125407755374908,-1.0725884437561035,0.0925887748599052,1.2266324758529663,0.8410280346870422,81.239990234375,24.23,0
-0.1923741847276687,-1.164136290550232,0.0706136971712112,1.4642889499664309,0.84097820520401,81.239990234375,24.23,0
-0.1850301921367645,-1.1837021112442017,0.0509135797619819,1.878331184387207,0.8409462571144104,81.239990234375,24.23,0
-0.1691216975450515,-1.117889404296875,0.038271177560091,2.079553365707397,0.8409257531166077,81.239990234375,24.23,0
-0.1645103096961975,-1.025274634361267,0.0637446641921997,1.667717218399048,0.8418307900428772,81.239990234375,24.23,0
-0.1447576731443405,-0.9994264841079712,0.0912876278162002,0.7478131651878357,0.8424115777015686,81.239990234375,24.23,0
-0.059310495853424,-1.0388163328170776,0.0865720137953758,-0.2186988443136215,0.8427842855453491,81.239990234375,24.23,0
-0.0268665142357349,-1.0584967136383057,0.0555569343268871,-0.8891065716743469,0.8430234789848328,81.239990234375,24.23,0
-0.0396324805915355,-1.0655287504196167,0.0356532409787178,-1.1366243362426758,0.8431770205497742,81.239990234375,24.23,0
-0.0814115852117538,-1.0308570861816406,0.0172824226319789,-0.9873655438423156,0.8432755470275879,81.239990234375,24.23,0
-0.1082230135798454,-0.9862156510353088,0.005493089556694,-0.6336343884468079,0.8433387279510498,81.239990234375,24.23,0
-0.142222374677658,-0.923980712890625,0.0091229230165481,-0.2955702245235443,0.8433793187141418,81.2829818725586,24.23,0
-0.1696389764547348,-0.8784441351890564,0.017050115391612,-0.1502716243267059,0.8438642621040344,81.31057739257812,24.23,0
-0.1816356033086776,-0.8884057998657227,0.0165395569056272,-0.3615462779998779,0.8441755175590515,81.32828521728516,24.23,0
-0.1613454669713974,-0.905994176864624,0.0106141353026032,-0.8446400165557861,0.8443752527236938,81.33964538574219,24.23,0
-0.148324429988861,-0.9060858488082886,-0.0043840073049068,-1.1940701007843018,0.8445034027099609,81.34693908691406,24.23,0
-0.1791526973247528,-0.8837535381317139,-0.0308022741228342,-1.199777126312256,0.844585657119751,81.35161590576172,24.23,0
-0.2157298326492309,-0.863824188709259,-0.058951549232006,-1.1568660736083984,0.844638466835022,81.35462188720703,24.23,0
-0.2448007017374038,-0.8734257817268372,-0.088211677968502,-1.286961555480957,0.8446723222732544,81.35655212402344,24.23,0
-0.2466633915901184,-0.9187719821929932,-0.0845980495214462,-1.2486417293548584,0.8446940779685974,81.3577880859375,24.23,0
-0.236663207411766,-0.947872519493103,-0.0878768041729927,-0.593517005443573,0.8456262350082397,81.35858154296875,24.21,0
-0.2526367604732513,-1.0561119318008425,-0.106774240732193,0.6580619215965271,0.8462244272232056,81.35909271240234,24.21,0
-0.2684854567050934,-1.1423671245574951,-0.0965104326605796,1.9663963317871092,0.8466083407402039,81.35942077636719,24.21,0
-0.2562651336193084,-1.1361452341079712,-0.0507392883300781,2.526569128036499,0.8468546867370605,81.35962677001953,24.21,0
-0.2540206015110016,-1.0425879955291748,-0.0045726825483143,1.8184483051300049,0.8470128178596497,81.3597640991211,24.21,0
-0.2525801956653595,-0.9881461262702942,0.0250543877482414,0.2534186840057373,0.8471142649650574,81.35984802246094,24.21,0
-0.2068736255168914,-0.9867950677871704,0.0328717865049839,-1.1056022644042969,0.8471793532371521,81.35990142822266,24.21,0
-0.1607484519481659,-0.9859280586242676,0.0322907678782939,-1.6338163614273071,0.8472211360931396,81.35993957519531,24.21,0
-0.1703324019908905,-0.99096941947937,0.037515677511692,-1.489146113395691,0.8477069139480591,81.3599624633789,24.21,0
-0.1988739222288131,-0.9550202488899232,0.0464664995670318,-0.9986391663551332,0.8480186462402344,81.35997772216797,24.21,0
-0.222788006067276,-0.9151568412780762,0.0578083954751491,-0.3363501727581024,0.8482186794281006,81.3599853515625,24.21,0
-0.2269391268491745,-0.8615859150886536,0.0930758416652679,0.2283892035484314,0.8483470678329468,81.35999298095703,24.21,0
-0.2296030819416046,-0.8328049778938293,0.126904010772705,0.4116776287555694,0.8484294414520264,81.35999298095703,24.21,0
-0.2257148772478103,-0.8311283588409424,0.1486129760742187,0.2749387323856354,0.8484823107719421,81.35999298095703,24.21,0
-0.2288174331188202,-0.8188568353652954,0.1737400889396667,0.1943527311086654,0.8485162258148193,81.35999298095703,24.21,0
-0.2476017922163009,-0.8165794610977173,0.189865231513977,0.4041652679443359,0.8485379815101624,81.35999298095703,24.21,0
-0.2708520591259002,-0.8319112658500671,0.1946156471967697,0.8146691918373108,0.8480930328369141,81.35999298095703,24.21,0
-0.2913705110549927,-0.8585436940193176,0.1808708608150482,1.199914574623108,0.8478074669837952,81.35999298095703,24.21,0
-0.2093759179115295,-0.948405921459198,0.1832457929849624,1.307422399520874,0.8476242423057556,81.35999298095703,24.21,0
-0.1903431564569473,-1.0676498413085938,0.1679765731096267,0.9894965887069702,0.8475066423416138,81.35999298095703,24.21,0
-0.2173134535551071,-1.177760362625122,0.1469821184873581,0.4773686528205871,0.8474311828613281,81.35999298095703,24.21,0
-0.223425880074501,-1.2484229803085327,0.1335090845823288,0.2561916708946228,0.8473827242851257,81.35999298095703,24.21,0
-0.2105551660060882,-1.215401291847229,0.1136673167347908,0.5262492299079895,0.8473516702651978,81.35999298095703,24.21,0
-0.2134910225868225,-1.082254409790039,0.0953362360596656,1.004075527191162,0.847331702709198,81.35999298095703,24.21,0
-0.2153750956058502,-1.0359928607940674,0.0835724025964737,1.1745790243148804,0.8486960530281067,81.41731262207031,24.21,0
-0.1885953098535537,-1.023098111152649,0.0704252794384956,0.6462998986244202,0.8495716452598572,81.4541015625,24.21,0
-0.1210296154022216,-1.0036275386810305,0.0563904382288455,-0.3662434220314026,0.8501335382461548,81.47770690917969,24.21,0
-0.1168542578816413,-0.991132378578186,0.0417859107255935,-1.0697740316390991,0.8504941463470459,81.49285888671875,24.21,0
-0.1365658491849899,-0.9887114763259888,0.0324135683476924,-1.084185242652893,0.850725531578064,81.50257873535156,24.21,0
-0.1436178386211395,-0.9815601110458374,0.0263989362865686,-0.8856441974639893,0.8508740067481995,81.50881958007812,24.21,0
-0.1313500851392746,-0.9713730216026306,0.0225390922278165,-0.948108434677124,0.8509693145751953,81.51282501220703,24.21,0
-0.1122817993164062,-0.9480422139167786,0.0256598405539989,-1.124332308769226,0.8510304689407349,81.51539611816406,24.21,0
-0.1056426391005516,-0.9274720549583436,0.0220647826790809,-1.215927243232727,0.8506104350090027,81.51704406738281,24.21,0
-0.1125775575637817,-0.8974779844284058,0.0141599075868725,-1.360689401626587,0.8503408432006836,81.51810455322266,24.21,0
-0.1282235383987426,-0.8614361882209778,0.0090870140120387,-1.5682318210601809,0.8501678705215454,81.51878356933594,24.21,0
-0.1382642239332199,-0.8383066654205322,0.000233747792663,-1.5831955671310425,0.8500568270683289,81.51921844482422,24.21,0
-0.1559033095836639,-0.8458545804023743,0.0001500058715464,-1.377843976020813,0.8499855995178223,81.51950073242188,24.21,0
-0.1672230660915374,-0.8730894923210144,0.0112918140366673,-1.1636618375778198,0.8499398827552795,81.5196762084961,24.21,0
-0.1576941013336181,-0.9129583835601808,0.0184419862926006,-1.0262120962142944,0.84991055727005,81.51979064941406,24.21,0
-0.1683722883462906,-0.9777283668518066,0.0230305548757314,-0.97383052110672,0.849891722202301,81.51986694335938,24.21,0
-0.1864204853773117,-1.0920650959014893,0.0259752329438924,-0.976040780544281,0.8494207262992859,81.51991271972656,24.21,0
-0.1924050003290176,-1.2214175462722778,0.0222671832889318,-0.755339503288269,0.8491184711456299,81.51994323730469,24.21,0
-0.1906477510929107,-1.2428529262542725,0.0198875702917575,-0.0584068968892097,0.8489245176315308,81.51996612548828,24.21,0
-0.2231066972017288,-1.1390557289123535,0.0407515689730644,0.8259185552597046,0.848800003528595,81.51997375488281,24.21,0
-0.2719258368015289,-1.050053596496582,0.0597386583685874,1.25012469291687,0.848720133304596,81.51998138427734,24.21,0
-0.2640707492828369,-0.9817415475845336,0.071923479437828,0.873909592628479,0.8486688733100891,81.51998901367188,24.21,0
-0.2030520588159561,-0.937902808189392,0.0853407680988311,-0.0338826663792133,0.8486359715461731,81.51998901367188,24.21,0
-0.163893774151802,-0.9041718244552612,0.0883534401655197,-0.8457363247871399,0.8486148715019226,81.51998901367188,24.21,0
-0.1947419792413711,-0.8825252652168274,0.0622979253530502,-1.0872963666915894,0.8504374027252197,81.51998901367188,24.21,0
-0.2481252253055572,-0.8630359768867493,0.051174771040678,-0.7622506022453308,0.8516069650650024,81.51998901367188,24.21,0
-0.282383531332016,-0.8449310660362244,0.0496343448758125,-0.2992920279502868,0.8523575067520142,81.51998901367188,24.21,0
-0.2987707555294037,-0.8221168518066406,0.0654391124844551,-0.1562426388263702,0.8528391718864441,81.51998901367188,24.21,0
-0.3092871308326721,-0.8018782138824463,0.0867772474884986,-0.3725432753562927,0.8531482815742493,81.51998901367188,24.21,0
-0.3216337263584137,-0.8000857830047607,0.1284597069025039,-0.5758389234542847,0.8533466458320618,81.51998901367188,24.21,0
-0.3183614909648895,-0.8269243836402893,0.1776002049446106,-0.3802880048751831,0.853473961353302,81.51998901367188,24.21,0
-0.3162615597248077,-0.8609411716461182,0.2091357558965683,0.3470780253410339,0.8535556793212891,81.51998901367188,24.21,0
-0.3037184178829193,-0.905162274837494,0.2293734550476074,1.358411192893982,0.8517720103263855,81.51998901367188,24.21,0
-0.2956689298152923,-0.9447363615036012,0.242360845208168,2.064747810363769,0.8506273627281189,81.64896392822266,24.21,0
-0.3072965741157532,-0.9869260787963868,0.2339020818471908,2.0809597969055176,0.849892795085907,81.73173522949219,24.21,0
-0.3203562796115875,-1.0419899225234983,0.2172781825065612,1.7474364042282104,0.8494213819503784,81.78485107421875,24.21,0
-0.3343350291252136,-1.1053155660629272,0.1954143792390823,1.5620609521865845,0.8491188883781433,81.81893920898438,24.21,0
-0.3656968772411346,-1.179540991783142,0.1645901203155517,1.4645930528640747,0.8489247560501099,81.84081268310547,24.21,0
-0.3858231008052826,-1.1935878992080688,0.1224177852272987,1.402043700218201,0.8488001823425293,81.85485076904297,24.21,0
-0.3819456398487091,-1.1018425226211548,0.0897562354803085,1.6700047254562378,0.8487202525138855,81.86386108398438,24.21,0
-0.3738595247268677,-1.0037811994552612,0.029611513018608,2.099912166595459,0.8518821597099304,81.86964416503906,24.19,0
-0.3182903528213501,-0.946448802947998,-0.0145836817100644,2.0784480571746826,0.853911280632019,81.87335205078125,24.19,0
-0.2546404004096985,-0.9600361585617064,-0.0149567415937781,1.6526775360107422,0.855213463306427,81.875732421875,24.19,0
-0.2529779374599457,-0.9911468029022216,-0.0375872477889061,1.3436168432235718,0.856049120426178,81.87725830078125,24.19,0
-0.2631066143512726,-1.0279052257537842,-0.0577079802751541,1.0628801584243774,0.8565853834152222,81.87824249267578,24.19,0
-0.2304221987724304,-1.0123101472854614,-0.0706203058362007,0.5065491199493408,0.8569295406341553,81.87886810302734,24.19,0
-0.2262405455112457,-0.9855088591575624,-0.0733089223504066,-0.083339549601078,0.8571503758430481,81.8792724609375,24.19,0
-0.2403503209352493,-0.9403204321861268,-0.0750343203544616,-0.4583135545253753,0.857292115688324,81.87953186035156,24.19,0
-0.2438073903322219,-0.9001255631446838,-0.0761415809392929,-0.8601661920547485,0.8555470108985901,81.87969970703125,24.19,0
-0.2348303943872451,-0.8743308186531067,-0.0600588321685791,-1.4798922538757324,0.8544270992279053,81.87980651855469,24.19,0
-0.2122761458158493,-0.8577772378921509,-0.0217489786446094,-2.0961339473724365,0.8537083864212036,81.87987518310547,24.19,0
-0.1978021264076233,-0.8527518510818481,0.0084338532760739,-2.3948729038238525,0.8532471656799316,81.87992095947266,24.19,0
-0.1885135322809219,-0.8607224225997925,0.0334012322127819,-2.307145357131958,0.852951169013977,81.87995147705078,24.19,0
-0.1825526505708694,-0.8714352250099182,0.0494238585233688,-2.025144577026367,0.8527612090110779,81.87996673583984,24.19,0
-0.1843250691890716,-0.9118967652320862,0.0597062595188617,-1.783268928527832,0.8526393175125122,81.87997436523438,24.19,0
-0.202255830168724,-0.9602537155151368,0.0830982401967048,-1.5778909921646118,0.8525611162185669,81.8799819946289,24.19,0
-0.2193605452775955,-1.0024819374084473,0.1093054115772247,-1.227554202079773,0.8538880348205566,81.87998962402344,24.19,0
-0.2303373664617538,-1.0295816659927368,0.1373192071914672,-0.5549062490463257,0.8547396063804626,81.87998962402344,24.19,0
-0.2261861115694046,-1.0357770919799805,0.1552968621253967,0.4965461790561676,0.8552861213684082,81.87998962402344,24.19,0
-0.2403153926134109,-1.0509485006332395,0.1556383371353149,1.5582258701324463,0.8556368350982666,81.87998962402344,24.19,0
-0.2717738449573517,-1.0047069787979126,0.1446619182825088,1.845467448234558,0.8558619022369385,81.87998962402344,24.19,0
-0.3087553977966308,-0.930249571800232,0.1264223456382751,0.9908556938171388,0.8560063242912292,81.87998962402344,24.19,0
-0.3436835706233978,-0.8600760102272034,0.0979239046573638,-0.4209856688976288,0.856099009513855,81.87998962402344,24.19,0
-0.360500693321228,-0.8430315256118774,0.0796352475881576,-1.4989877939224243,0.8561584949493408,81.87998962402344,24.19,0
-0.3265107572078705,-0.9048644304275512,0.079094186425209,-1.850442886352539,0.8557377457618713,81.87998962402344,24.19,0
-0.2935024201869964,-0.9389474391937256,0.0675514191389083,-1.5672607421875,0.855467677116394,81.87998962402344,24.19,0
-0.2947106659412384,-0.9496244192123412,0.0545461624860763,-0.9484565258026124,0.855294406414032,81.99463653564453,24.19,0
-0.3178771436214447,-0.939682960510254,0.0462001375854015,-0.3507193624973297,0.8551831841468811,82.06820678710938,24.19,0
-0.3271462917327881,-0.9277053475379944,0.046441912651062,0.0257088001817464,0.855111837387085,82.11542510986328,24.19,0
-0.3051058351993561,-0.9088232517242432,0.0633903890848159,0.1705491840839386,0.8550660610198975,82.14572143554688,24.19,0
-0.2797659933567047,-0.8911080360412598,0.0854624956846237,0.0843706205487251,0.8550366759300232,82.16516876220703,24.19,0
-0.2635043263435364,-0.8797394633293152,0.0996271073818206,-0.1894709318876266,0.8550177812576294,82.17764282226562,24.19,0
-0.2698618471622467,-0.8836392760276794,0.1087171360850334,-0.3795369863510132,0.8554646372795105,82.18565368652344,24.19,0
-0.2739417254924774,-0.8973374962806702,0.1145505979657173,-0.2292346954345703,0.8557513952255249,82.1907958984375,24.19,0
-0.2597666382789612,-0.9117259979248048,0.1070986241102218,0.2863820195198059,0.8559353947639465,82.194091796875,24.19,0
-0.2506698966026306,-0.948948621749878,0.1023163795471191,1.0471842288970947,0.8560534715652466,82.19620513916016,24.19,0
-0.2448321282863617,-0.9728359580039978,0.0992474108934402,1.8327770233154297,0.8561292290687561,82.19756317138672,24.19,0
-0.2410857826471328,-0.9937632083892822,0.0748868212103843,2.254526138305664,0.8561778664588928,82.19843292236328,24.19,0
-0.2554749250411987,-1.035181999206543,0.0536558255553245,2.152592420578003,0.8562090992927551,82.19898986816406,24.19,0
-0.3038934469223022,-1.089751124382019,0.0232376717031002,1.9295439720153809,0.8562291264533997,82.19934844970703,24.19,0
-0.3461612164974212,-1.0743904113769531,-0.0130762737244367,1.979863405227661,0.857160210609436,82.19957733154297,24.19,0
-0.3732862472534179,-1.030946135520935,-0.0419782437384128,2.094554662704468,0.8577576875686646,82.1997299194336,24.19,0
-0.3627046644687652,-0.969479501247406,-0.0941125154495239,1.8493077754974363,0.8581411242485046,82.1998291015625,24.19,0
-0.2999362647533417,-0.941229283809662,-0.0995804145932197,1.247683048248291,0.8583872318267822,82.19989013671875,24.19,0
-0.2652528882026672,-1.0070664882659912,-0.0806983038783073,0.5929018259048462,0.8585451245307922,82.1999282836914,24.19,0
-0.3157661557197571,-1.0437192916870115,-0.1245585903525352,0.0150675568729639,0.8586464524269104,82.199951171875,24.19,0
-0.314596027135849,-1.056045413017273,-0.1415100544691085,-0.5205517411231995,0.8587114810943604,82.19996643066406,24.19,0
-0.291454017162323,-1.0359667539596558,-0.1411929726600647,-1.0219146013259888,0.8587532043457031,82.1999740600586,24.19,0
-0.2933961153030395,-1.0062880516052246,-0.1409894973039627,-1.469050645828247,0.8569435477256775,82.19998168945312,24.19,0
-0.2890446782112121,-0.9480575919151306,-0.1464566886425018,-1.78465735912323,0.8557822704315186,82.19998931884766,24.19,0
-0.2750566303730011,-0.8938952684402466,-0.1331718862056732,-1.854640364646912,0.8550369739532471,82.19998931884766,24.19,0
-0.2604821324348449,-0.8647347688674927,-0.1190486997365951,-1.749083161354065,0.8545587062835693,82.19998931884766,24.19,0
-0.2511290609836578,-0.8572168350219727,-0.1043874770402908,-1.6813427209854126,0.8542518019676208,82.19998931884766,24.19,0
-0.24512679874897,-0.8635877966880798,-0.0893809720873832,-1.5698018074035645,0.8540548086166382,82.19998931884766,24.19,0
-0.2300793379545211,-0.895665168762207,-0.0741528868675232,-1.0611470937728882,0.8539283871650696,82.19998931884766,24.19,0
-0.2092271894216537,-0.9442394375801086,-0.0587826035916805,-0.1794225424528122,0.8538472652435303,82.19998931884766,24.19,0
-0.2070410400629043,-0.9866071939468384,-0.0433210656046867,0.5440508723258972,0.855172336101532,82.19998931884766,24.19,0
-0.222431406378746,-1.0305896997451782,-0.0110076433047652,0.775467038154602,0.8560227155685425,82.19998931884766,24.19,0
-0.249101385474205,-1.081206202507019,0.0209248010069131,0.8021690249443054,0.856568455696106,82.19998931884766,24.19,0
-0.2606188654899597,-1.0857001543045044,0.0694060772657394,1.0235116481781006,0.8569186329841614,82.3898696899414,24.19,0
-0.2792056798934936,-1.054997444152832,0.1117141172289848,1.387676239013672,0.8571434020996094,82.51172637939453,24.19,0
-0.2911336123943329,-0.9961097836494446,0.144462764263153,1.5282292366027832,0.8572876453399658,82.58992767333984,24.19,0
-0.2931905090808868,-0.8967435359954834,0.1542834043502807,1.2530052661895752,0.857380211353302,82.6401138305664,24.19,0
-0.3001082837581634,-0.8385737538337708,0.1493901759386062,0.7073771357536316,0.8574395775794983,82.67231750488281,24.19,0
-0.2989499270915985,-0.8684170842170715,0.1350544393062591,0.235416829586029,0.8561005592346191,82.69298553466797,24.17,0
-0.2870110273361206,-0.9603398442268372,0.1034634858369827,0.1439118087291717,0.8552412390708923,82.70624542236328,24.17,0
-0.2849470973014831,-1.0025372505187988,0.0775924548506736,0.4040383994579315,0.8546897768974304,82.71475982666016,24.17,0
-0.3116114437580108,-0.979237139225006,0.0665876939892768,0.5745552182197571,0.8543359041213989,82.72022247314453,24.17,0
-0.3399186432361603,-0.9530889391899108,0.0595254711806774,0.3042300939559936,0.8541088104248047,82.72372436523438,24.17,0
-0.3244979381561279,-0.9139174222946168,0.0773844420909881,-0.1701853424310684,0.8539630770683289,82.7259750366211,24.17,0
-0.2866129279136657,-0.8719860911369324,0.0888452976942062,-0.4244818091392517,0.8538695573806763,82.7274169921875,24.17,0
-0.267898291349411,-0.8450769782066345,0.0962002202868461,-0.5052753686904907,0.8538095355033875,82.72834014892578,24.17,0
-0.2726816534996032,-0.8278082609176636,0.1009201854467392,-0.707592248916626,0.8528531789779663,82.72893524169922,24.17,0
-0.2813490927219391,-0.8279217481613159,0.0927536413073539,-1.0022259950637815,0.8522394299507141,82.72931671142578,24.17,0
-0.2813135981559753,-0.8559834361076355,0.0763172730803489,-1.0874103307724,0.8518455624580383,82.72956085205078,24.17,0
-0.2812907993793487,-0.8907851576805115,0.0545738078653812,-0.8912964463233948,0.8515927791595459,82.72972106933594,24.17,0
-0.2868739664554596,-0.935509979724884,0.0350223295390605,-0.6185562610626221,0.8514305949211121,82.72982025146484,24.17,0
-0.284859150648117,-0.9754073619842528,0.0168775413185358,-0.4327795803546905,0.8513264656066895,82.72988891601562,24.17,0
-0.2891639173030853,-1.0457934141159058,-0.0003645136312115,-0.2634027302265167,0.8512596487998962,82.72992706298828,24.17,0
-0.2975242435932159,-1.1189519166946411,-0.0114294728264212,0.0889087319374084,0.8512167930603027,82.7299575805664,24.17,0
-0.308487206697464,-1.121118664741516,-0.0185303259640932,0.7126678228378296,0.8498121500015259,82.72997283935547,24.17,0
-0.3099248111248016,-1.0889225006103516,-0.011891696602106,1.3458279371261597,0.8489107489585876,82.72998046875,24.17,0
-0.2604674100875854,-0.9786965250968932,-0.035620279610157,1.5981029272079468,0.8483322262763977,82.72998809814453,24.17,0
-0.2175329625606537,-0.9471442103385924,-0.0340545922517776,1.444731831550598,0.8479610085487366,82.72999572753906,24.17,0
-0.2683489322662353,-0.96048241853714,-0.0666364729404449,1.0847790241241455,0.8477227687835693,82.72999572753906,24.17,0
-0.2785686254501343,-0.974639892578125,-0.1043389737606048,0.545680582523346,0.8475698828697205,82.72999572753906,24.17,0
-0.2683337032794952,-0.983725368976593,-0.1341320425271988,-0.0725575387477874,0.8474717736244202,82.72999572753906,24.17,0
-0.2673632800579071,-1.0063492059707642,-0.1420559734106063,-0.5266283750534058,0.8474087715148926,82.72999572753906,24.17,0
-0.2723383009433746,-1.0096722841262815,-0.152738869190216,-0.8108597993850708,0.8482862114906311,82.72999572753906,24.17,0
-0.2699332237243652,-0.9894137978553772,-0.1483989804983139,-1.0864101648330688,0.8488492965698242,82.72999572753906,24.17,0
-0.2571942210197449,-0.9652175307273864,-0.1232227981090545,-1.3707196712493896,0.8492106795310974,82.72999572753906,24.17,0
-0.2434212863445282,-0.9384942054748536,-0.1014683991670608,-1.7358845472335815,0.8494426012039185,82.72999572753906,24.17,0
-0.2289848327636718,-0.9213446974754332,-0.0819099023938179,-2.29982328414917,0.8495914340019226,82.86613464355469,24.17,0
-0.2141225785017013,-0.9159368872642516,-0.0637606084346771,-2.887428998947144,0.8496869206428528,82.95349884033203,24.17,0
-0.1933892965316772,-0.923662006855011,-0.0521134361624717,-3.1391303539276123,0.8497481942176819,83.00956726074219,24.17,0
-0.1856816411018371,-0.9510106444358826,-0.044638954102993,-2.931652545928955,0.8497875332832336,83.04554748535156,24.17,0
-0.1919308602809906,-0.9965503215789796,-0.0286467112600803,-2.343518018722534,0.8488948941230774,83.06864166259766,24.21,0
-0.1959412395954132,-1.008981704711914,-0.0183838102966547,-1.4287009239196775,0.8483220934867859,83.08345794677734,24.21,0
-0.215308204293251,-1.0337527990341189,-0.0006021230947226,-0.2899072766304016,0.847954511642456,83.09296417236328,24.21,0
-0.2389323562383651,-1.066442847251892,0.0332002379000186,0.8099101781845093,0.8477185964584351,83.09906768798828,24.21,0
-0.2540929615497589,-1.070628046989441,0.0604904219508171,1.6518477201461792,0.8475672006607056,83.10298156738281,24.21,0
-0.2470288574695587,-0.9725539684295654,0.0780036896467208,2.2494759559631348,0.8474700450897217,83.10549926757812,24.21,0
-0.2704843878746032,-0.8816267848014832,0.0780471488833427,2.561347723007202,0.8474076986312866,83.10710906982422,24.21,0
-0.2799390256404876,-0.8344705104827881,0.0836728140711784,2.3530755043029785,0.8473677039146423,83.10814666748047,24.21,0
-0.2468220442533493,-0.8713815808296204,0.0928808152675628,1.74651837348938,0.8464238047599792,83.10881042480469,24.21,0
-0.2199717015028,-0.9230578541755676,0.0931922048330307,1.3680126667022705,0.845818042755127,83.10923767089844,24.21,0
-0.2363273352384567,-0.9450252056121826,0.0765987187623977,1.5263580083847046,0.8454293012619019,83.10951232910156,24.21,0
-0.2860078513622284,-0.9423292279243468,0.077145516872406,1.8035210371017456,0.8451798558235168,83.10968780517578,24.21,0
-0.3066944181919098,-0.9405991435050964,0.0830942019820213,1.7162777185440063,0.8450197577476501,83.10980224609375,24.21,0
-0.2919809818267822,-0.922695517539978,0.0925094932317733,1.1981377601623535,0.8449169993400574,83.10987091064453,24.21,0
-0.2769409716129303,-0.9056082367897034,0.1041494607925415,0.4787072539329529,0.8448510766029358,83.10991668701172,24.21,0
-0.2672891616821289,-0.8834470510482788,0.1228148713707923,-0.0832939743995666,0.8448087573051453,83.10994720458984,24.21,0
-0.266692966222763,-0.8860186338424683,0.1347932517528534,-0.2218343317508697,0.8461587429046631,83.10997009277344,24.21,0
-0.2663103640079498,-0.8932666778564453,0.1368825137615203,-0.1459430754184723,0.8470250964164734,83.10997772216797,24.21,0
-0.2716625928878784,-0.909113585948944,0.1270277351140976,-0.2477086186408996,0.8475810885429382,83.1099853515625,24.21,0
-0.2806951403617859,-0.9360765814781188,0.1151057332754135,-0.4706492125988006,0.8479378819465637,83.10999298095703,24.21,0
-0.2808939218521118,-0.9757709503173828,0.1074548810720443,-0.4632514715194702,0.8481668829917908,83.10999298095703,24.21,0
-0.2810214757919311,-1.0292333364486694,0.0857516825199127,-0.1647328287363052,0.8483138084411621,83.10999298095703,24.21,0
-0.2922988831996918,-1.0971291065216064,0.0662260428071022,0.2453763633966446,0.8484081029891968,83.10999298095703,24.21,0
-0.3051338493824005,-1.1351029872894287,0.0369022861123085,0.730680525302887,0.8484686017036438,83.10999298095703,24.21,0
-0.3133706152439117,-1.1426790952682495,0.0124862138181924,1.242745041847229,0.8466713428497314,83.10999298095703,24.21,0
-0.3130587041378021,-1.0691721439361572,-0.0087803890928626,1.5176199674606323,0.8455179929733276,83.10999298095703,24.21,0
-0.2960652112960815,-0.977217435836792,-0.0168302971869707,1.4360734224319458,0.8447778224945068,83.10999298095703,24.21,0
-0.2851597666740417,-0.9238039255142212,-0.0331918150186538,1.1007180213928225,0.8443028330802917,83.10999298095703,24.21,0
-0.2893568277359009,-0.928710639476776,-0.060485016554594,0.4735100567340851,0.8439980149269104,83.10999298095703,24.21,0
-0.280854731798172,-0.9430550336837769,-0.0780002251267433,-0.3983133137226105,0.8438023924827576,83.23538208007812,24.21,0
-0.2530074715614319,-0.9634559750556946,-0.0836426988244056,-1.0760244131088257,0.8436768651008606,83.31584930419922,24.21,0
-0.2351367026567459,-0.9765481352806092,-0.0816659405827522,-1.2995684146881104,0.8435962796211243,83.36749267578125,24.21,0
-0.2292660474777221,-0.9905477166175842,-0.0803973749279975,-1.371374487876892,0.8426263928413391,83.400634765625,24.19,0
-0.2310963720083236,-0.9883362650871276,-0.0795832797884941,-1.553593397140503,0.8420039415359497,83.42190551757812,24.19,0
-0.2322709709405899,-0.9869171380996704,-0.0790608376264572,-1.7242696285247805,0.841604471206665,83.43555450439453,24.19,0
-0.221829205751419,-0.96921306848526,-0.067530021071434,-1.7693134546279907,0.8413481116294861,83.4443130493164,24.19,0
-0.2151282876729965,-0.9578516483306884,-0.0545324273407459,-1.8197154998779297,0.841183602809906,83.44993591308594,24.19,0
-0.2108280211687088,-0.944962739944458,-0.0405935458838939,-1.988198518753052,0.8410780429840088,83.45354461669922,24.19,0
-0.1968728005886078,-0.936691403388977,-0.037246149033308,-2.1070687770843506,0.841010332107544,83.45585632324219,24.19,0
-0.1767216026782989,-0.9369810819625854,-0.0295002087950706,-1.921824932098389,0.8409668803215027,83.45734405517578,24.19,0
-0.1525941789150238,-0.9259714484214784,-0.0133337611332535,-1.4446885585784912,0.8404800295829773,83.45829772949219,24.19,0
-0.1203172579407692,-0.9860793948173524,-0.014154614880681,-0.8554664254188538,0.8401676416397095,83.45890808105469,24.19,0
-0.1163971126079559,-1.0526421070098877,-0.0034858426079154,-0.2301398664712906,0.8399671316146851,83.45929718017578,24.19,0
-0.1250769346952438,-1.039380431175232,0.0201540850102901,0.34670490026474,0.839838445186615,83.45954895019531,24.19,0
-0.136244922876358,-0.9748921394348145,0.0409226045012474,0.6989778280258179,0.8397558927536011,83.45970916748047,24.19,0
-0.1434118896722793,-0.9111161828041076,0.0766417384147644,0.8032387495040894,0.8397029042243958,83.4598159790039,24.19,0
-0.0976312682032585,-0.9317639470100404,0.105162002146244,0.7662526965141296,0.8396689295768738,83.45988464355469,24.19,0
-0.0570563524961471,-0.9730033278465272,0.1178668886423111,0.6135444641113281,0.839647114276886,83.45992279052734,24.19,0
-0.0646043568849563,-0.982675075531006,0.1148246079683303,0.4438935816287994,0.8419281244277954,83.45995330810547,24.19,0
-0.097437098622322,-0.9832841157913208,0.1128722429275512,0.5571410655975342,0.8433919548988342,83.45996856689453,24.19,0
-0.1353005915880203,-0.9612838625907898,0.1116193309426307,1.0740561485290527,0.8443313241004944,83.45997619628906,24.19,0
-0.1595991998910904,-0.9527631402015686,0.1108152791857719,1.6028242111206057,0.8449341654777527,83.4599838256836,24.19,0
-0.175192654132843,-0.9360994696617126,0.1102992892265319,1.6555510759353638,0.8453210592269897,83.45999145507812,24.19,0
-0.1851996332406997,-0.9086123704910278,0.1155659332871437,1.2308183908462524,0.8455693125724792,83.45999145507812,24.19,0
-0.1972193121910095,-0.8853749632835388,0.118945762515068,0.7719555497169495,0.8457286357879639,83.45999145507812,24.19,0
-0.210530623793602,-0.8760603070259094,0.1267125159502029,0.5742132663726807,0.8458308577537537,83.45999145507812,24.19,0
-0.2190730571746826,-0.8756804466247559,0.1372945457696914,0.5010523200035095,0.844519317150116,83.45999145507812,24.19,0
-0.2301528751850128,-0.8810344338417053,0.144085481762886,0.3573722839355469,0.8436776399612427,83.45999145507812,24.19,0
-0.2428610324859619,-0.8900681138038635,0.1484435051679611,0.1863500475883484,0.8431375026702881,83.45999145507812,24.19,0
-0.2566141784191131,-0.9294520616531372,0.1568380147218704,0.0300243441015481,0.8427909016609192,83.45999145507812,24.19,0
-0.2486468255519867,-0.9715197086334229,0.156627357006073,-0.1383654326200485,0.8425684571266174,83.45999145507812,24.19,0
-0.2267405092716217,-1.048896312713623,0.1285032927989959,-0.0672995150089263,0.8424257040023804,83.45999145507812,24.19,0
-0.2182800769805908,-1.1041499376296997,0.0992593392729759,0.4691193401813507,0.8423340916633606,83.5925521850586,24.19,0
-0.2296439856290817,-1.1284129619598389,0.0804922506213188,1.135793924331665,0.8422753214836121,83.67761993408203,24.19,0
-0.2425344586372375,-1.1439836025238037,0.0684486180543899,1.499140977859497,0.8394833207130432,83.73220825195312,24.19,0
-0.2116224020719528,-1.1091936826705933,0.0495241582393646,1.5925956964492798,0.8376915454864502,83.76724243164062,24.19,0
-0.1693937182426452,-1.0420852899551392,0.031781755387783,1.4626930952072144,0.8365417122840881,83.78972625732422,24.19,0
-0.1478915512561798,-1.0158123970031738,0.0203957017511129,0.9422547817230223,0.8358038067817688,83.80415344238281,24.19,0
-0.1284949332475662,-1.0269408226013184,-0.0037045364733785,0.1711932122707367,0.8353302478790283,83.81341552734375,24.19,0
-0.1048517525196075,-1.0396801233291626,-0.0247684549540281,-0.4955933690071106,0.8350263833999634,83.8193588256836,24.19,0
-0.0896789133548736,-1.025464415550232,-0.043883841484785,-1.009480357170105,0.8348313570022583,83.82317352294922,24.19,0
-0.1135285049676895,-0.9883527159690856,-0.0561509951949119,-1.4037498235702517,0.83470618724823,83.82562255859375,24.19,0
-0.1456271260976791,-0.953341007232666,-0.0528278015553951,-1.5277966260910034,0.8350851535797119,83.82719421386719,24.19,0
-0.160628393292427,-0.9308724999427797,-0.0283040665090084,-1.4282739162445068,0.8353283405303955,83.82820129394531,24.19,0
-0.1702553480863571,-0.9164535403251648,-0.012566146440804,-1.3536581993103027,0.8354844450950623,83.82884979248047,24.19,0
-0.2044222503900528,-0.9183958172798156,0.0031313190702348,-1.355930209159851,0.8355845808982849,83.82926177978516,24.19,0
-0.2543374598026275,-0.9028489589691162,0.0076072746887803,-1.339475393295288,0.8356488347053528,83.82952880859375,24.19,0
-0.286370187997818,-0.8872740864753723,0.0048819109797477,-1.3110027313232422,0.8356900811195374,83.82969665527344,24.19,0
-0.3069269359111786,-0.8772790431976318,0.0087307039648294,-1.3607995510101318,0.8357165455818176,83.82980346679688,24.19,0
-0.3201190829277038,-0.8764625787734985,0.00560286315158,-1.4966509342193604,0.8357335329055786,83.82987213134766,24.19,0
-0.3285850286483764,-0.8983296751976013,0.0035955950152128,-1.505015850067139,0.8343673348426819,83.82991790771484,24.19,0
-0.3172246813774109,-0.945949375629425,0.0079052206128835,-1.0446492433547974,0.8334905505180359,83.82994842529297,24.19,0
-0.2987387180328369,-0.9765089750289916,0.0106708901003003,-0.0721056386828422,0.8329278826713562,83.82997131347656,24.19,0
-0.2812777161598205,-1.012913703918457,0.0068479632027447,1.0464123487472534,0.8325667977333069,83.8299789428711,24.19,0
-0.2700722515583038,-1.0754605531692505,-0.0012031455989927,1.8358641862869265,0.8323351144790649,83.82998657226562,24.19,0
-0.2460878938436508,-1.182772874832153,-0.0119676580652594,1.9161624908447263,0.8321864008903503,83.82999420166016,24.19,0
-0.2418916672468185,-1.1396842002868652,-0.0244734771549701,1.2440130710601809,0.8320909738540649,83.82999420166016,24.19,0
-0.2615898549556732,-1.0392613410949707,-0.0269012171775102,0.3290185928344726,0.8320297598838806,83.82999420166016,24.19,0
-0.3022198975086212,-0.9524245858192444,-0.0228614266961812,-0.233094185590744,0.8324493765830994,83.82999420166016,24.19,0
-0.311500608921051,-0.9134910702705384,-0.0146711478009819,-0.3537932336330414,0.8327186703681946,83.82999420166016,24.19,0
-0.2502831220626831,-0.8941035866737366,-0.0038173240609467,-0.2772001922130584,0.8328914642333984,83.82999420166016,24.19,0
-0.1830084025859832,-0.8816618323326111,0.0031480353791266,-0.1958039999008178,0.8330023288726807,83.82999420166016,24.19,0
-0.1622264534235,-0.8792752027511597,0.0076180025935173,-0.1793943792581558,0.8330734968185425,83.82999420166016,24.19,0
-0.1936719864606857,-0.8553524613380432,-0.0007089788559824,-0.1939416527748108,0.8331191539764404,83.82999420166016,24.19,0
-0.2306452393531799,-0.8288046717643738,-0.0116505306214094,-0.1316257417201995,0.8331484794616699,83.82999420166016,24.19,0
-0.2711658775806427,-0.8117678761482239,-0.0018788655288517,0.1018241122364997,0.833167314529419,83.93746948242188,24.19,0
-0.2971696853637695,-0.7952368259429932,0.037978671491146,0.5525751113891602,0.8308843970298767,84.0064468383789,24.19,0
-0.3082596659660339,-0.78462815284729,0.069154717028141,1.1535252332687378,0.8294193148612976,84.05071258544922,24.19,0
-0.3153765797615051,-0.8114067912101746,0.1003572642803192,1.6824835538864136,0.8284791111946106,84.07911682128906,24.19,0
-0.3143460154533386,-0.8453850746154785,0.131576806306839,1.9646172523498533,0.8278757333755493,84.09734344482422,24.19,0
-0.3024891316890716,-0.8727881908416748,0.151611715555191,2.0059540271759038,0.8274885416030884,84.10903930664062,24.19,0
-0.255695641040802,-0.9127650260925292,0.1532734185457229,1.882013320922852,0.8272400498390198,84.11654663085938,24.19,0
-0.220068484544754,-0.9664087295532228,0.1487420201301574,1.666337490081787,0.8270806074142456,84.12136840820312,24.19,0
-0.2195961326360702,-1.0344208478927612,0.1178451627492904,1.3917912244796753,0.8269782662391663,84.12445831298828,24.19,0
-0.2360863238573074,-1.0780670642852783,0.0868217945098877,0.9684056043624878,0.8292075991630554,84.1264419555664,24.19,0
-0.2466687709093094,-1.1172722578048706,0.0669127777218818,0.3742692768573761,0.8306382894515991,84.12771606445312,24.19,0
-0.2534599900245666,-1.1312363147735596,0.0541363172233104,-0.1933071762323379,0.8315563797950745,84.12853240966797,24.19,0
-0.257818192243576,-1.1122088432312012,0.0403393469750881,-0.5969534516334534,0.8321455717086792,84.12905883789062,24.19,0
-0.2718105912208557,-1.0328247547149658,0.0370830185711383,-0.9777978658676147,0.8325237035751343,84.12939453125,24.19,0
-0.2695945501327514,-0.9650872945785522,0.0405910685658454,-1.465817093849182,0.8327663540840149,84.12960815429688,24.19,0
-0.2345857769250869,-0.9328128695487976,0.0540378838777542,-1.8649815320968628,0.8329220414161682,84.12974548339844,24.19,0
-0.1673369705677032,-0.9960675835609436,0.0458739511668682,-1.8703620433807373,0.8330219984054565,84.12983703613281,24.19,0
-0.1073872372508049,-1.0590518712997437,0.0238414872437715,-1.4868967533111572,0.8326272368431091,84.12989807128906,24.19,0
-0.06331717222929,-1.077080488204956,-0.0070910030044615,-1.1010903120040894,0.832373857498169,84.12993621826172,24.19,0
-0.0574266389012336,-1.0662591457366943,-0.0269416943192482,-0.9932224154472352,0.8322112560272217,84.12995910644531,24.19,0
-0.1096241846680641,-1.0369235277175903,-0.0564740486443042,-0.9813202023506165,0.8321069478988647,84.12997436523438,24.19,0
-0.1431215554475784,-0.9901087284088136,-0.0698284432291984,-0.794553279876709,0.832040011882782,84.1299819946289,24.19,0
-0.1646182388067245,-0.9488701820373536,-0.0672029703855514,-0.5170636773109436,0.8319970369338989,84.12998962402344,24.19,0
-0.1784135699272155,-0.9168078303337096,-0.0487247742712497,-0.3533171713352203,0.8319694399833679,84.12998962402344,24.19,0
-0.1928644031286239,-0.8962320685386658,-0.0312687568366527,-0.2948075532913208,0.8319517374038696,84.12998962402344,24.19,0
-0.190942570567131,-0.8886255025863647,-0.0088709378615021,-0.2536768913269043,0.8291860818862915,84.12998962402344,24.19,0
-0.1897092461585998,-0.9061351418495178,-9.508321818429975e-05,-0.2308641672134399,0.8274112343788147,84.12998962402344,24.19,0
-0.1945155411958694,-0.9229696393013,0.0111345304176211,-0.2413022965192794,0.8262722492218018,84.12998962402344,24.19,0
-0.1920021772384643,-0.944968581199646,0.0127432746812701,-0.2372531592845916,0.8255413174629211,84.12998962402344,24.19,0
-0.1847914606332779,-0.964684009552002,0.0137756746262311,-0.1665857136249542,0.8250722289085388,84.12998962402344,24.19,0
-0.191359594464302,-0.9773362278938292,0.0088404351845383,0.0328153111040592,0.8247712254524231,84.12998962402344,24.19,0
-0.1955746412277221,-1.030237913131714,-0.0055222660303115,0.4724634885787964,0.824578046798706,84.12998962402344,24.19,0
-0.1926818341016769,-1.0697848796844482,-0.0147394211962819,1.148687720298767,0.8244540691375732,84.12998962402344,24.19,0
-0.1908254027366638,-1.0615772008895874,-0.0262522362172603,1.5575714111328125,0.8257516622543335,84.23388671875,24.19,0
-0.2064273804426193,-1.0619077682495115,-0.0336404964327812,1.0210551023483276,0.8265843987464905,84.3005599975586,24.19,0
-0.2332331538200378,-1.0341310501098633,-0.0383818559348583,-0.3657796680927276,0.8271187543869019,84.34335327148438,24.19,0
-0.2392400056123733,-0.9939144849777222,-0.0526201389729976,-1.700009822845459,0.8274617195129395,84.37081146240234,24.19,0
-0.2263015359640121,-0.9737035632133484,-0.0505619011819362,-2.2982964515686035,0.8276817798614502,84.38843536376953,24.19,0
-0.1844117194414138,-0.9551355838775636,-0.0380454920232296,-2.152021169662476,0.8278230428695679,84.39974212646484,24.19,0
-0.1519314795732498,-0.9432197213172911,-0.0300131812691688,-1.502850890159607,0.8279136419296265,84.40699768066406,24.19,0
-0.1534786224365234,-0.9243772625923156,-0.0248585063964128,-0.7064977884292603,0.8279718160629272,84.41165161132812,24.19,0
-0.1656670421361923,-0.9010897278785706,-0.0047572101466357,-0.2061919122934341,0.8261727094650269,84.41464233398438,24.19,0
-0.1734888702630996,-0.8805473446846008,0.0137404194101691,-0.0212622601538896,0.8250181674957275,84.41655731201172,24.19,0
-0.1953017860651016,-0.8673644065856934,0.0312089081853628,0.341030091047287,0.8242772221565247,84.41779327392578,24.19,0
-0.2204956114292144,-0.8645021319389343,0.0480169504880905,1.0858367681503296,0.8238017559051514,84.41858673095703,24.19,0
-0.2310657799243927,-0.8514697551727295,0.064401164650917,1.7465221881866455,0.8234965801239014,84.4190902709961,24.19,0
-0.2602401971817016,-0.8487040996551514,0.0805133804678917,1.848080277442932,0.8233007788658142,84.41941833496094,24.19,0
-0.290158212184906,-0.8525270223617554,0.0964510515332222,1.5120059251785278,0.8231751322746277,84.41962432861328,24.19,0
-0.3093578815460205,-0.8717736601829529,0.1066789254546165,1.2282638549804688,0.8230944871902466,84.41976165771484,24.19,0
-0.3160813450813293,-0.8841250538825989,0.1132425889372825,1.253963828086853,0.8248791694641113,84.41984558105469,24.19,0
-0.3147982954978943,-0.908844828605652,0.111856997013092,1.42808997631073,0.8260244727134705,84.4198989868164,24.19,0
-0.3083771467208862,-0.963892936706543,0.0997722521424293,1.604320406913757,0.8267594575881958,84.41993713378906,24.19,0
-0.304256409406662,-1.0663928985595703,0.0808214098215103,1.8786308765411377,0.8272311091423035,84.41996002197266,24.19,0
-0.2960141897201538,-1.1545625925064087,0.0686598494648933,2.190805435180664,0.8275337815284729,84.41997528076172,24.19,0
-0.2795292437076568,-1.1551671028137207,0.0552574880421161,2.1690213680267334,0.8277280330657959,84.41998291015625,24.19,0
-0.2745479345321655,-1.0547951459884644,0.0578521713614463,1.606907606124878,0.827852725982666,84.41999053955078,24.19,0
-0.2769489884376526,-0.9791866540908812,0.0819083899259567,0.6657981276512146,0.8279327154159546,84.41999053955078,24.19,0
-0.2560987472534179,-0.953056573867798,0.1029440611600875,-0.389556348323822,0.8270658254623413,84.41999053955078,24.19,0
-0.1923383027315139,-1.0034610033035278,0.0884546712040901,-1.217290282249451,0.8265095353126526,84.41999053955078,24.19,0
-0.1458227485418319,-1.0470032691955566,0.0735584422945976,-1.5442755222320557,0.826152503490448,84.41999053955078,24.19,0
-0.1495583951473236,-1.0581529140472412,0.0584011226892471,-1.524830937385559,0.8259233832359314,84.41999053955078,24.19,0
-0.1631512641906738,-1.0597102642059326,0.0486740283668041,-1.5947517156600952,0.8257763385772705,84.41999053955078,24.19,0
-0.166276603937149,-1.0327208042144775,0.0312361903488636,-1.84382963180542,0.8256819844245911,84.41999053955078,24.19,0
-0.1682822704315185,-0.9930094480514526,0.0200455896556377,-1.9356045722961424,0.8256214261054993,84.41999053955078,24.19,0
-0.1751671731472015,-0.9619272351264954,0.0128641054034233,-1.6792337894439695,0.8255825638771057,84.41999053955078,24.19,0
-0.1739877313375473,-0.919589340686798,0.0194509904831647,-1.3319984674453735,0.826016902923584,84.41999053955078,24.21,0
-0.167633056640625,-0.8812237977981567,0.0180802997201681,-1.1700665950775146,0.8262956738471985,84.52747344970703,24.21,0
-0.1635549962520599,-0.8454074263572693,0.0227984450757503,-1.0697306394577026,0.8264745473861694,84.59645080566406,24.21,0
-0.1665357053279876,-0.8224225640296936,0.0202285032719373,-0.8262119889259338,0.8265893459320068,84.64071655273438,24.21,0
-0.1852418780326843,-0.8188677430152893,0.0185792632400989,-0.5230501294136047,0.8266630172729492,84.66912078857422,24.21,0
-0.2028441876173019,-0.8893575072288513,0.0063253273256123,-0.2711771130561828,0.8267102837562561,84.68734741210938,24.21,0
-0.2085425704717636,-0.951387107372284,-0.007136317435652,-0.0522182993590831,0.8267406225204468,84.69904327392578,24.21,0
-0.2177972346544265,-1.0247807502746582,-0.0269707757979631,0.120540052652359,0.8267601132392883,84.70655059814453,24.21,0
-0.2293341159820556,-1.0998694896697998,-0.0452971644699573,0.3138056695461273,0.8286086916923523,84.71137237548828,24.21,0
-0.2423356026411056,-1.159252643585205,-0.0570579841732978,0.7136906981468201,0.8297950029373169,84.71446228027344,24.21,0
-0.2394836544990539,-1.1189924478530884,-0.0366165302693843,1.1566078662872314,0.830556333065033,84.71644592285156,24.21,0
-0.2208601236343383,-1.0427758693695068,-0.0234983805567026,1.157823085784912,0.8310449123382568,84.71772003173828,24.21,0
-0.2089086025953292,-0.9994622468948364,-0.0150799080729484,0.5674780011177063,0.8313584327697754,84.71853637695312,24.21,0
-0.2068365812301635,-0.9772638082504272,0.0015181318158283,-0.2699411511421203,0.8315596580505371,84.71906280517578,24.21,0
-0.2111046463251114,-0.9574203491210938,0.0121697979047894,-0.982894778251648,0.8316887617111206,84.71939849853516,24.21,0
-0.2306369692087173,-0.9334903955459596,0.0134076504036784,-1.4189319610595703,0.8317716121673584,84.71961212158203,24.21,0
-0.2487694770097732,-0.9125357866287231,0.0197998061776161,-1.5196267366409302,0.829070508480072,84.7197494506836,24.21,0
-0.2771991789340973,-0.8822950124740601,0.0350974723696708,-1.304805874824524,0.8273370862007141,84.71984100341797,24.21,0
-0.3010415136814117,-0.8572904467582703,0.0617079585790634,-0.909000813961029,0.826224684715271,84.71990203857422,24.21,0
-0.3051466047763824,-0.8300483822822571,0.0843828096985817,-0.4042156040668487,0.8255107998847961,84.71994018554688,24.21,0
-0.2629988193511963,-0.8293592929840088,0.1269230991601944,0.2672363221645355,0.8250526785850525,84.71996307373047,24.21,0
-0.2303530275821685,-0.8177215456962585,0.1766141057014465,1.027732491493225,0.8247586488723755,84.71997833251953,24.21,0
-0.2261961549520492,-0.8270464539527893,0.2085029333829879,1.619669795036316,0.8245699405670166,84.71998596191406,24.21,0
-0.2179307341575622,-0.861019492149353,0.2121740281581878,1.952967643737793,0.8244488835334778,84.7199935913086,24.21,0
-0.2294197976589203,-0.9052125215530396,0.2033343762159347,2.098789930343628,0.8266661763191223,84.7199935913086,24.21,0
-0.2591839134693146,-1.0007463693618774,0.1808682680130005,2.020406723022461,0.8280891180038452,84.7199935913086,24.21,0
-0.2894803583621979,-1.1012389659881592,0.1664508134126663,1.751567840576172,0.8290022611618042,84.7199935913086,24.21,0
-0.3369117379188537,-1.2049137353897097,0.1348074227571487,1.496643304824829,0.8295882940292358,84.7199935913086,24.21,0
-0.3281660377979278,-1.20987069606781,0.125696063041687,1.368873119354248,0.8299643397331238,84.7199935913086,24.21,0
-0.3393468856811523,-1.151476263999939,0.1142511442303657,1.3012079000473022,0.8302056789398193,84.7199935913086,24.21,0
-0.340924322605133,-1.0468287467956543,0.1125042289495468,1.1216464042663574,0.8303605318069458,84.7199935913086,24.21,0
-0.3251433074474334,-0.9684764742851256,0.1113831624388694,0.5836701989173889,0.8304599523544312,84.7199935913086,24.21,0
-0.2814293205738067,-0.9293900728225708,0.0994681715965271,-0.3097060024738312,0.8277694582939148,84.7199935913086,24.17,0
-0.2533762156963348,-0.937893271446228,0.0806262716650962,-1.0836477279663086,0.8260428309440613,84.7199935913086,24.17,0
-0.2353733330965042,-0.9601434469223022,0.0685346201062202,-1.293712854385376,0.8249347805976868,84.8310546875,24.17,0
-0.2294179052114486,-0.9744223356246948,0.0439815744757652,-1.0989235639572144,0.8242236971855164,84.90232849121094,24.17,0
-0.2311938256025314,-0.9723901748657228,0.022627068683505,-0.9810842275619508,0.823767364025116,84.94806671142578,24.17,0
-0.2323335111141204,-0.9598904848098756,0.0089229755103588,-1.109668493270874,0.8234745264053345,84.9774169921875,24.17,0
-0.2218693345785141,-0.9238800406455994,0.0113240266218781,-1.19218647480011,0.8232865929603577,84.99625396728516,24.17,0
-0.2095562666654586,-0.8839772939682007,0.0184626579284667,-1.0158569812774658,0.823166012763977,85.00834655761719,24.17,0
-0.2072522193193435,-0.8415766954421997,0.0510326921939849,-0.8167170286178589,0.8240068554878235,85.01610565185547,24.17,0
-0.2057736068964004,-0.808768630027771,0.0775320380926132,-0.8465538024902344,0.8245464563369751,85.02108001708984,24.17,0
-0.1992269456386566,-0.7989098429679871,0.0945377945899963,-0.9266051054000854,0.8248927593231201,85.02427673339844,24.17,0
-0.1950256824493408,-0.8093764185905457,0.1054511070251464,-0.8705001473426819,0.8251149654388428,85.02632904052734,24.17,0
-0.197927325963974,-0.8216910362243652,0.1124546453356742,-0.809417188167572,0.8252575397491455,85.02764129638672,24.17,0
-0.2277783006429672,-0.857582688331604,0.1057535633444786,-0.7451395988464355,0.8253490328788757,85.02848815917969,24.17,0
-0.2637282609939575,-0.9142025709152222,0.1070509701967239,-0.5104308724403381,0.8254078030586243,85.0290298461914,24.17,0
-0.2923966646194458,-1.0233089923858645,0.1078835725784301,-0.1878447085618972,0.8254454731941223,85.02937316894531,24.17,0
-0.305196613073349,-1.0821316242218018,0.1196134388446807,0.0693285688757896,0.8250107169151306,85.02959442138672,24.17,0
-0.3190086483955383,-1.103087306022644,0.1327387690544128,0.3346797227859497,0.824731707572937,85.02973937988281,24.17,0
-0.3390679657459259,-1.038166642189026,0.1355640739202499,0.512131929397583,0.8245526552200317,85.02983093261719,24.17,0
-0.3519409000873565,-0.968515396118164,0.1317794173955917,0.2390924096107483,0.8244377970695496,85.02989196777344,24.17,0
-0.3434086740016937,-0.9182194471359252,0.1237528622150421,-0.5308362245559692,0.8243640661239624,85.0299301147461,24.17,0
-0.3043465316295624,-0.9195290803909302,0.1241996586322784,-1.3366161584854126,0.8243167400360107,85.02995300292969,24.17,0
-0.2792786955833435,-0.925967276096344,0.1244863867759704,-1.6530951261520386,0.8242864012718201,85.02996826171875,24.17,0
-0.2855826914310455,-0.9189034104347228,0.1022792980074882,-1.411953687667847,0.8242669105529785,85.02997589111328,24.17,0
-0.3064215779304504,-0.9087724685668944,0.08243028819561,-1.067326545715332,0.8242543935775757,85.02998352050781,24.17,0
-0.3253925442695617,-0.9022709727287292,0.0752901136875152,-1.0718668699264526,0.824246346950531,85.02999114990234,24.17,0
-0.3151759207248688,-0.8925009369850159,0.0763057321310043,-1.3219783306121826,0.8242412209510803,85.02999114990234,24.17,0
-0.2974239289760589,-0.8862310647964478,0.0825552716851234,-1.2818613052368164,0.8242378830909729,85.02999114990234,24.17,0
-0.2804339528083801,-0.8990007638931274,0.0921636447310447,-0.5897573828697205,0.8242357969284058,85.02999114990234,24.17,0
-0.2639329731464386,-0.9127933979034424,0.0983297452330589,0.5135890245437622,0.8242344260215759,85.02999114990234,24.17,0
-0.2477458268404007,-0.9216447472572328,0.0966890156269073,1.3542084693908691,0.8242335319519043,85.02999114990234,24.17,0
-0.2429556250572204,-0.9273250102996826,0.0956360921263694,1.535412073135376,0.8242329955101013,85.02999114990234,24.17,0
-0.245479330420494,-0.9309702515602112,0.0893626138567924,1.3615095615386963,0.8237733840942383,85.02999114990234,24.17,0
-0.2526966631412506,-0.9165162444114684,0.0741411074995994,1.214083194732666,0.8234784007072449,85.02999114990234,24.17,0
-0.2517305612564087,-0.9072405099868774,0.0643728151917457,1.011996150016785,0.8232890963554382,85.02999114990234,24.17,0
-0.2511105835437774,-0.923678994178772,0.0525063164532184,0.6100325584411621,0.823167622089386,85.1338882446289,24.17,0
-0.2675060331821441,-1.0237926244735718,0.0280977580696344,0.2625110447406769,0.8230896592140198,85.2005615234375,24.17,0
-0.283625453710556,-1.0992352962493896,0.0068359756842255,0.3260978162288666,0.8230396509170532,85.24335479736328,24.17,0
-0.3051655292510986,-1.097270131111145,-0.0180041622370481,0.8326389789581299,0.8230075240135193,85.27081298828125,24.17,0
-0.3189887106418609,-1.0680201053619385,-0.0451406799256801,1.515965461730957,0.822986900806427,85.28843688964844,24.17,0
-0.3278596401214599,-1.0156625509262085,-0.0737508833408355,2.0727100372314453,0.8243511915206909,85.29974365234375,24.17,0
-0.3335524797439575,-1.0044535398483276,-0.1033068150281906,2.3296844959259038,0.8252267241477966,85.30699920654297,24.17,0
-0.3372058272361755,-1.0140535831451416,-0.127871885895729,2.229485511779785,0.8257885575294495,85.31165313720703,24.17,0
-0.3003658950328827,-1.0258121490478516,-0.1548318862915039,1.731691837310791,0.8261491060256958,85.31464385986328,24.17,0
-0.2767241597175598,-1.033358097076416,-0.1777310371398925,0.93217134475708,0.8263804912567139,85.31655883789062,24.17,0
-0.2727478146553039,-1.0326029062271118,-0.1812308430671692,0.225626066327095,0.8265289664268494,85.31779479980469,24.17,0
-0.2701960206031799,-1.009727120399475,-0.1890745908021927,-0.0200046654790639,0.8266242742538452,85.31858825683594,24.17,0
-0.2685584127902984,-0.983851194381714,-0.1885104775428772,0.0803091153502464,0.8266854286193848,85.319091796875,24.17,0
-0.273105263710022,-0.950452208518982,-0.176952913403511,0.148267313838005,0.8271836042404175,85.31941986083984,24.17,0
-0.2816209495067596,-0.9346164464950562,-0.1639381647109985,-0.0123278507962822,0.8275033235549927,85.31962585449219,24.17,0
-0.2870858311653137,-0.9356495141983032,-0.1443904936313629,-0.4055771827697754,0.8277084827423096,85.31976318359375,24.17,0
-0.2737995386123657,-0.9475080370903016,-0.1206503808498382,-0.930217742919922,0.8278401494026184,85.3198471069336,24.17,0
-0.2484798580408096,-0.9551181197166444,-0.094219796359539,-1.3385533094406128,0.8279246687889099,85.31990051269531,24.17,0
-0.2098400443792343,-0.9544040560722352,-0.0660626143217086,-1.3784799575805664,0.8279789090156555,85.31993865966797,24.17,0
-0.1906410008668899,-0.953945815563202,-0.0479929558932781,-0.9813586473464966,0.8280137181282043,85.31996154785156,24.17,0
-0.1783201694488525,-0.9648473262786864,-0.02520134113729,-0.2536090314388275,0.8280360102653503,85.31997680664062,24.17,0
-0.1704133599996566,-1.0054298639297483,-0.0217705443501472,0.603919506072998,0.8266732096672058,85.31998443603516,24.17,0
-0.1821325570344925,-1.059462308883667,-0.0027755333576351,1.3512736558914185,0.8257986307144165,85.31999206542969,24.17,0
-0.2064465880393982,-1.0325616598129272,0.0262076947838068,1.7592309713363647,0.8252373933792114,85.31999206542969,24.17,0
-0.2444410175085067,-0.9761139750480652,0.0560030117630958,1.6412814855575562,0.8248772025108337,85.31999206542969,24.17,0
-0.2744214236736297,-0.9230958223342896,0.086319476366043,0.9887936115264891,0.8246460556983948,85.31999206542969,24.17,0
-0.2600744962692261,-0.861082911491394,0.1113726124167442,0.0720864757895469,0.8244976997375488,85.31999206542969,24.17,0
-0.234074130654335,-0.826884388923645,0.1218525022268295,-0.6487587690353394,0.8244025111198425,85.31999206542969,24.17,0
-0.2061930447816848,-0.86091548204422,0.1229801177978515,-0.8498277068138123,0.8243414163589478,85.31999206542969,24.17,0
-0.2050938904285431,-0.9163413643836976,0.1125082075595855,-0.5704485177993774,0.8261383175849915,85.31999206542969,24.19,0
-0.2323773950338363,-0.9631060361862184,0.0889946147799491,-0.1582916229963302,0.8272914290428162,85.31999206542969,24.19,0
-0.2778752446174621,-0.9651280045509338,0.0683071687817573,0.0775463357567787,0.8280314207077026,85.31999206542969,24.19,0
-0.3126709163188934,-0.9552300572395324,0.0606289319694042,0.1035034134984016,0.828506350517273,85.31999206542969,24.19,0
-0.3182074725627899,-0.937682569026947,0.0612992569804191,-0.0267244279384613,0.8288111090660095,85.42030334472656,24.19,0
-0.3049671649932861,-0.9208238124847412,0.0673272088170051,-0.3252516984939575,0.8290066719055176,85.48468017578125,24.19,0
-0.2852747738361358,-0.9044070839881896,0.076793372631073,-0.6816278100013733,0.8291321992874146,85.52599334716797,24.19,0
-0.2782351076602936,-0.8994695544242859,0.0828682109713554,-0.802852213382721,0.8292127251625061,85.55250549316406,24.19,0
-0.2737174332141876,-0.8963009119033813,0.0867666974663734,-0.5832932591438293,0.8269690871238708,85.56951904296875,24.19,0
-0.2708182632923126,-0.8998652696609497,0.0836707428097724,-0.2740119099617004,0.8255292177200317,85.58043670654297,24.19,0
-0.274555504322052,-0.90215265750885,0.0760861635208129,-0.0397071987390518,0.8246051669120789,85.58744812011719,24.19,0
-0.2769538462162018,-0.9092183113098145,0.0712188184261322,0.2503765225410461,0.8240122199058533,85.5919418334961,24.19,0
-0.2784929871559143,-0.9473392963409424,0.0513019114732742,0.6514900922775269,0.8236316442489624,85.5948257446289,24.19,0
-0.2738829255104065,-0.994194269180298,0.0273248385637998,1.0951956510543823,0.8233874440193176,85.5966796875,24.19,0
-0.2989133298397064,-1.10263192653656,0.0063399588689208,1.5554865598678589,0.8232307434082031,85.59786987304688,24.19,0
-0.3261719644069671,-1.1330366134643557,-0.0183224771171808,1.8938655853271484,0.823130190372467,85.5986328125,24.19,0
-0.3436649739742279,-1.0685819387435913,-0.0453449599444866,1.7921686172485352,0.8262792229652405,85.59912109375,24.19,0
-0.3548909723758697,-0.9936319589614868,-0.0738819763064384,1.1787712574005127,0.8283000588417053,85.59943389892578,24.19,0
-0.3564974069595337,-0.9455333948135376,-0.0977931693196296,0.3946273922920227,0.8295969367027283,85.59963989257812,24.19,0
-0.351930558681488,-0.9482531547546388,-0.1187357679009437,-0.1945727914571762,0.830429196357727,85.59976959228516,24.19,0
-0.3378042578697204,-0.961194097995758,-0.1321755200624466,-0.5225315093994141,0.8309633135795593,85.599853515625,24.19,0
-0.3063477277755737,-0.9862921833992004,-0.1519959270954132,-0.7688223123550415,0.8313060402870178,85.59990692138672,24.19,0
-0.2861607372760772,-1.024789810180664,-0.1591177582740783,-1.1095889806747437,0.831525981426239,85.59993743896484,24.19,0
-0.2788036465644836,-1.04389750957489,-0.1636881381273269,-1.4679937362670898,0.8316671252250671,85.59996032714844,24.19,0
-0.2852778434753418,-1.0225731134414673,-0.1666211485862732,-1.6514238119125366,0.8290034532546997,85.5999755859375,24.19,0
-0.2950303852558136,-0.9976928234100342,-0.162905603647232,-1.686739444732666,0.8272940516471863,85.59998321533203,24.19,0
-0.3012889921665191,-0.9705305099487304,-0.1493256390094757,-1.7846370935440063,0.8261970281600952,85.59999084472656,24.19,0
-0.2941098809242248,-0.9419037699699402,-0.1294152438640594,-1.9406092166900637,0.8254930377006531,85.59999084472656,24.19,0
-0.2839049696922302,-0.9347283244132996,-0.1110401228070259,-1.9511387348175049,0.8250412344932556,85.59999084472656,24.19,0
-0.2549649477005005,-0.9637101888656616,-0.0880524814128875,-1.8038451671600344,0.8247513175010681,85.59999084472656,24.19,0
-0.219599574804306,-0.987906813621521,-0.0733003392815589,-1.6949903964996338,0.8245652914047241,85.59999084472656,24.19,0
-0.1857085675001144,-1.0258259773254397,-0.0526377111673355,-1.632298707962036,0.824445903301239,85.59999084472656,24.19,0
-0.1583614945411682,-1.0221713781356812,-0.0281820781528949,-1.3914426565170288,0.8248282074928284,85.59999084472656,24.19,0
-0.1632028073072433,-1.019826054573059,-0.0180856361985206,-0.8678697347640991,0.8250735402107239,85.59999084472656,24.19,0
-0.183103010058403,-1.0463098287582395,-0.0004107714630663,-0.1270397901535034,0.8252309560775757,85.59999084472656,24.19,0
-0.2070693671703338,-1.0521100759506226,0.0221274886280298,0.7460481524467468,0.82533198595047,85.59999084472656,24.19,0
-0.2224495857954025,-0.9550724029541016,0.0477867946028709,1.4783092737197876,0.8253968358039856,85.59999084472656,24.19,0
-0.2379174977540969,-0.8480170369148254,0.064253456890583,1.5828096866607666,0.8254384398460388,85.6823959350586,24.19,0
-0.2534416913986206,-0.7905105948448181,0.0748208165168762,0.9978432655334472,0.8254651427268982,85.73527526855469,24.19,0
-0.2242198139429092,-0.8151817917823792,0.0872001126408577,0.4039083421230316,0.8254823088645935,85.76921081542969,24.19,0
-0.1998691111803054,-0.8701987862586975,0.095144435763359,0.4132558703422546,0.8250343799591064,85.7909927368164,24.19,0
-0.2122310996055603,-0.9222988486289978,0.1002426445484161,0.8599113821983337,0.8247469067573547,85.80496978759766,24.19,0
-0.2537509799003601,-0.944538116455078,0.1091121509671211,1.2611916065216064,0.8245624303817749,85.81393432617188,24.19,0
-0.2859938144683838,-0.9532122015953064,0.114804096519947,1.421980619430542,0.824444055557251,85.81968688964844,24.19,0
-0.3066854178905487,-0.953180968761444,0.1240546330809593,1.3173763751983645,0.8243680596351624,85.82337951660156,24.19,0
-0.303170770406723,-0.9531609416007996,0.1411866396665573,0.9564761519432068,0.8243193030357361,85.82575225830078,24.19,0
-0.2785241603851318,-0.9307569861412048,0.1577787548303604,0.5170817971229553,0.824288010597229,85.82727813720703,24.19,0
-0.262707382440567,-0.9275749325752258,0.1628288477659225,0.2100257724523544,0.8242679238319397,85.82825469970703,24.19,0
-0.2581548690795898,-0.925532877445221,0.1660697013139724,0.0523832105100154,0.8260911107063293,85.8288803100586,24.19,0
-0.2552333176136017,-0.9130268692970276,0.1569539457559585,-0.0201221089810132,0.8272611498832703,85.82928466796875,24.19,0
-0.2589562237262726,-0.9105989933013916,0.1399084329605102,-0.0917298719286918,0.8280119895935059,85.82954406738281,24.19,0
-0.2781386971473694,-0.931432008743286,0.1233718246221542,-0.2451608777046203,0.8284938335418701,85.82970428466797,24.19,0
-0.2736555635929107,-0.9559969902038574,0.1071618050336837,-0.3364589214324951,0.8288030624389648,85.8298110961914,24.19,0
-0.276376336812973,-1.0053480863571167,0.0911613777279853,-0.1012775525450706,0.8290015459060669,85.82987976074219,24.19,0
-0.2781223654747009,-1.0146276950836182,0.0640999004244804,0.4652270972728729,0.8291289210319519,85.82992553710938,24.19,0
-0.2792428731918335,-1.0037894248962402,0.0355378501117229,1.118965744972229,0.829210638999939,85.8299560546875,24.19,0
-0.2575708329677582,-1.002431869506836,-0.0107805011793971,1.5420801639556885,0.8283452391624451,85.82997131347656,24.19,0
-0.2436629831790924,-1.0407450199127195,-0.0293094031512737,1.451770544052124,0.827789843082428,85.8299789428711,24.19,0
