acc_x,acc_y,acc_z,bvp,eda,hr,temp,label
0.0,0.0,0.0,0.0,0.0,0.0,23.97,0
-0.0546874962747097,-0.0729166641831398,0.1354166567325592,0.3816666305065155,0.0878156572580337,11.333333015441896,23.97,0
-0.123856708407402,-0.1875,0.3170731663703918,1.116341471672058,0.2056171596050262,26.53658676147461,23.97,0
-0.2089389562606811,-0.2522840499877929,0.47508305311203,1.863820552825928,0.3080841898918152,39.76079940795898,23.97,0
-0.2656728327274322,-0.3155621290206909,0.5903598070144653,2.01967191696167,0.3828394114971161,49.40857696533203,23.97,0
-0.2931046187877655,-0.3803629279136657,0.6574275493621826,1.5700691938400269,0.4334518611431122,55.940528869628906,23.97,0
-0.3111038208007812,-0.4117754101753235,0.6847744584083557,1.1968778371810913,0.4666608870029449,60.2264289855957,23.97,0
-0.3060230314731598,-0.4488577544689178,0.7248030304908752,1.2979743480682373,0.4881687462329864,63.00219345092773,23.97,0
-0.2859795987606048,-0.4839254915714264,0.7338177561759949,1.4632737636566162,0.493313580751419,64.79026794433594,23.97,0
-0.261907547712326,-0.5120596289634705,0.7340172529220581,1.0503357648849487,0.4966203868389129,65.93953704833984,23.97,0
-0.2632390558719635,-0.5021436810493469,0.7341454029083252,-0.1496708244085312,0.498743861913681,66.67754364013672,23.97,0
-0.2808854877948761,-0.5069730281829834,0.7286304235458374,-1.7295546531677246,0.500106930732727,67.15127563476562,23.97,0
-0.3537842929363251,-0.4764872193336487,0.6355299353599548,-2.9190828800201416,0.5009818077087402,67.455322265625,23.97,0
-0.3445917963981628,-0.4961060881614685,0.5813784003257751,-3.571429491043091,0.5015432834625244,67.65045166015625,23.97,0
-0.3274970054626465,-0.5254898071289062,0.5578219294548035,-4.728081703186035,0.5019035935401917,67.77568054199219,23.97,0
-0.3725040555000305,-0.5555422306060791,0.5315091013908386,-7.318964004516602,0.5021347999572754,67.85604095458984,23.97,0
-0.401387095451355,-0.5972192883491516,0.5146229863166809,-10.84816837310791,0.5220220685005188,67.9076156616211,23.97,0
-0.3919337093830108,-0.6407585740089417,0.5149819850921631,-14.445728302001951,0.5347846150398254,67.94071197509766,23.97,0
-0.369073748588562,-0.6854929327964783,0.5096145868301392,-18.416751861572266,0.5429748892784119,67.96195220947266,23.97,0
-0.354403555393219,-0.7309941649436951,0.5005723237991333,-23.569658279418945,0.5482309460639954,67.9755859375,23.97,0
-0.3505868315696716,-0.7825853228569031,0.4835739731788635,-29.728227615356445,0.5516039729118347,67.98432922363281,23.97,0
-0.3481374979019165,-0.826889157295227,0.4670676290988922,-36.02703094482422,0.5537685751914978,67.98994445800781,23.97,0
-0.3521634042263031,-0.8777118921279907,0.4564748108386993,-42.75259017944336,0.5551576614379883,67.99354553222656,23.97,0
-0.3547470271587372,-0.9103269577026368,0.4496769309043884,-51.73318099975586,0.556049108505249,67.99585723876953,23.97,0
-0.350807249546051,-0.931257426738739,0.4453144669532776,-64.02385711669922,0.5566211938858032,67.99734497070312,23.97,0
-0.3090945184230804,-0.9334938526153564,0.436917096376419,-78.13423919677734,0.5569883584976196,67.99829864501953,23.97,0
-0.2711301445960998,-0.9349290728569032,0.4371259212493896,-91.90772247314452,0.5572239756584167,67.99890899658203,23.97,0
-0.2523645758628845,-0.941447913646698,0.4428577125072479,-105.2787094116211,0.5573751330375671,67.99929809570312,23.97,0
-0.2683107852935791,-0.962424635887146,0.4353404939174652,-120.21851348876952,0.5574721693992615,67.99954986572266,23.97,0
-0.2729463577270508,-0.9870818257331848,0.4361141622066498,-138.96665954589844,0.5575344562530518,67.99971008300781,23.97,0
-0.2703234255313873,-1.0029053688049316,0.4310128688812256,-160.15521240234375,0.5575743913650513,67.99981689453125,23.97,0
-0.2686401903629303,-0.9962667226791382,0.4165436029434204,-174.12181091308594,0.5576000213623047,67.99988555908203,23.97,0
-0.2563644349575043,-0.9696153402328492,0.3960625231266022,-166.8915252685547,0.5576164722442627,67.99992370605469,23.95,0
-0.2540843188762665,-0.9469142556190492,0.366125613451004,-132.3477783203125,0.5576270222663879,66.09043884277344,23.95,0
-0.2526210844516754,-0.9379437565803528,0.3413160443305969,-74.80524444580078,0.5576338171958923,64.86504364013672,23.95,0
-0.2516820728778839,-0.9265892505645752,0.3197969198226928,0.2050200402736663,0.5576381683349609,64.07865142822266,23.95,0
-0.2510794699192047,-0.9137048125267028,0.3003894090652466,86.28893280029297,0.5576409697532654,63.57398986816406,23.95,0
-0.2562905251979828,-0.8998385071754456,0.276739239692688,168.49508666992188,0.5576427578926086,63.25012969970703,23.95,0
-0.2596346735954284,-0.8853421211242676,0.2559641599655151,230.038330078125,0.5576438903808594,63.042293548583984,23.95,0
-0.2617807388305664,-0.8760392069816589,0.2370341271162033,267.7240600585937,0.5576446652412415,62.90891647338867,23.95,0
-0.2575601935386657,-0.8756669163703918,0.2248859256505966,290.7084045410156,0.5585633516311646,62.82332229614258,23.95,0
-0.2660472393035888,-0.8754279613494873,0.2114921361207962,307.0132751464844,0.5591529011726379,62.76839447021485,23.95,0
-0.2770915031433105,-0.8864701986312866,0.2084945440292358,319.708740234375,0.5595312714576721,62.7331428527832,23.95,0
-0.250592440366745,-0.9327408671379088,0.2065708637237548,329.40362548828125,0.5597740411758423,62.71052169799805,23.95,0
-0.2167935520410537,-1.0016191005706787,0.2109341323375702,330.7816162109375,0.5599298477172852,62.69600296020508,23.95,0
-0.1727122664451599,-1.0346256494522097,0.2081364542245865,312.9613037109375,0.5600298643112183,62.68668746948242,23.95,0
-0.1724123060703277,-1.0166230201721191,0.2119388431310653,270.1024780273437,0.5600940585136414,62.68070983886719,23.95,0
-0.2058064639568328,-0.9658855199813844,0.2367700934410095,206.18844604492188,0.5601352453231812,62.67687225341797,23.95,0
-0.1824547052383422,-0.9781072735786438,0.2806942164897918,127.30068969726562,0.5583252310752869,62.674407958984375,23.95,0
-0.1450777947902679,-0.985950529575348,0.3144799768924713,39.67780685424805,0.557163655757904,62.672828674316406,23.95,0
-0.0987003520131111,-0.9462016820907592,0.3305639624595642,-42.982177734375,0.556418240070343,62.67181396484375,23.95,0
-0.0857313051819801,-0.9038997888565063,0.3520812690258026,-103.5125961303711,0.5559398531913757,62.67116165161133,23.95,0
-0.1053973883390426,-0.8655573725700378,0.3826831877231598,-136.26715087890625,0.5556328892707825,62.670745849609375,23.95,0
-0.1180179491639137,-0.8465491533279419,0.4023217260837555,-148.9290008544922,0.5554358959197998,62.67047882080078,23.95,0
-0.1317148655653,-0.8455463647842407,0.409326821565628,-150.24417114257812,0.5553094744682312,62.67030715942383,23.95,0
-0.1628958582878112,-0.8449028134346008,0.4138222932815552,-144.60728454589844,0.5552283525466919,62.670196533203125,23.95,0
-0.1885038018226623,-0.8332942724227905,0.4055116772651672,-135.6339111328125,0.5547173619270325,62.67012405395508,23.95,0
-0.2105352729558944,-0.8034534454345703,0.3889828622341156,-126.07061767578124,0.5543894171714783,62.67007827758789,23.95,0
-0.230271577835083,-0.7899011373519897,0.3839733898639679,-115.43730926513672,0.5541789531707764,62.670047760009766,23.95,0
-0.237339437007904,-0.8035951256752014,0.3751608431339264,-102.61981964111328,0.5540438890457153,62.67002868652344,23.95,0
-0.2306796312332153,-0.8683608770370483,0.3527121245861053,-89.0992431640625,0.5539572238922119,62.67001724243164,23.95,0
-0.2096124291419983,-0.8931304812431335,0.3327080607414245,-77.23402404785156,0.5539016127586365,62.67000961303711,23.95,0
-0.2184838056564331,-0.920221745967865,0.286283940076828,-67.06881713867188,0.553865909576416,62.67000579833984,23.95,0
-0.1849925220012664,-0.9655962586402892,0.2341005206108093,-56.96637725830078,0.5538430213928223,62.67000198364258,23.95,0
-0.1523042023181915,-0.9723238945007324,0.1838188916444778,-46.57104110717773,0.5542872548103333,62.67000198364258,23.97,0
-0.153717815876007,-1.0382168292999268,0.1571488082408905,-37.320457458496094,0.554572343826294,62.67000198364258,23.97,0
-0.1882116347551345,-1.1084920167922974,0.1456312537193298,-30.15872573852539,0.5547552704811096,61.6238899230957,23.97,0
-0.2439344376325607,-1.0864171981811523,0.1550332754850387,-24.398401260375977,0.5548726916313171,60.95255279541016,23.97,0
-0.2517052590847015,-1.0162731409072876,0.1554691791534423,-19.07526588439941,0.5549480319023132,60.521728515625,23.97,0
-0.2343010157346725,-0.9936498403549194,0.1501511335372924,-14.226154327392578,0.5549963712692261,60.2452507019043,23.97,0
-0.2119364291429519,-1.001522660255432,0.1579338759183883,-10.34760284423828,0.555027425289154,60.06782150268555,23.97,0
-0.1807907968759536,-0.9953793883323668,0.1685261577367782,-7.475235939025879,0.555047333240509,59.95396041870117,23.97,0
-0.1552055478096008,-0.9802414178848268,0.1585303544998169,-5.277241230010986,0.5559782981872559,59.880889892578125,23.97,0
-0.1723730564117431,-0.9705267548561096,0.1409200727939605,-3.58725380897522,0.5565757751464844,59.8339958190918,23.97,0
-0.1889879405498504,-0.9419013261795044,0.1464121341705322,-2.4740567207336426,0.5569592118263245,59.80390548706055,23.97,0
-0.2052481919527053,-0.923531174659729,0.144338846206665,-1.877895832061768,0.5572052597999573,59.78459167480469,23.97,0
-0.210085317492485,-0.9061444997787476,0.1486061066389084,-1.5347224473953247,0.5573631525039673,59.77219772338867,23.97,0
-0.1796028614044189,-0.8837912082672119,0.1737356930971145,-1.253589749336243,0.5574644804000854,59.76424407958984,23.97,0
-0.1544432044029235,-0.8750439286231995,0.2066557258367538,-1.0373491048812866,0.5575295090675354,59.75914001464844,23.97,0
-0.1326994001865387,-0.8862237334251404,0.2389774620532989,-0.9200738072395324,0.5575712323188782,59.75586700439453,23.97,0
-0.1915165483951568,-0.8878005146980286,0.2149374932050705,-0.8913867473602295,0.5594341158866882,59.75376510620117,23.97,0
-0.2684464454650879,-0.900007963180542,0.1883144825696945,-0.9338808655738832,0.5606296062469482,59.75241470336914,23.97,0
-0.3290111720561981,-0.9806130528450012,0.1824249178171157,-0.975481390953064,0.5613967776298523,59.75154876708984,23.97,0
-0.36787810921669,-1.0491341352462769,0.1954386532306671,-0.8588752150535583,0.561889111995697,59.75099563598633,23.97,0
-0.4096139967441559,-1.1043025255203247,0.2317789942026138,-0.5153509378433228,0.5622050762176514,59.75063705444336,23.97,0
-0.3860177099704742,-1.2012819051742554,0.2942845523357391,-0.1372634619474411,0.5624078512191772,59.75040817260742,23.97,0
-0.3428861200809479,-1.2523221969604492,0.3455925583839416,0.0444675162434577,0.5625379681587219,59.75026321411133,23.97,0
-0.2648267745971679,-1.1115459203720093,0.3505302369594574,0.0679450258612632,0.5626214742660522,59.75016784667969,23.97,0
-0.2035372257232666,-0.976421594619751,0.3201122879981994,0.118837296962738,0.5622161030769348,59.75010681152344,23.97,0
-0.1026296019554138,-0.9232932329177856,0.2558096051216125,0.1765750497579574,0.561955988407135,59.75006866455078,23.97,0
-0.049068447202444,-0.9115895628929138,0.197750523686409,0.0739073678851127,0.5617890357971191,59.75004577636719,23.97,0
-0.053880400955677,-0.8984810709953308,0.1604915559291839,-0.1567773222923278,0.5616819262504578,59.750030517578125,23.97,0
-0.0849573090672493,-0.8564821481704712,0.1309831142425537,-0.3119826018810272,0.561613142490387,59.75001907348633,23.97,0
-0.1328895539045334,-0.8183341026306152,0.1064485237002372,-0.3327677845954895,0.5615690350532532,59.7500114440918,23.97,0
-0.2028341293334961,-0.7826573252677917,0.1074969545006752,-0.2959504425525665,0.5615407228469849,59.75000762939453,23.97,0
-0.2253294289112091,-0.7485665082931519,0.1361586451530456,-0.2508277595043182,0.5615225434303284,59.75000381469727,23.97,0
-0.2341678440570831,-0.7322867512702942,0.1545520722866058,-0.2182880192995071,0.5624290704727173,59.75000381469727,23.95,0
-0.2510353922843933,-0.7330349087715149,0.1719536930322647,-0.2224839329719543,0.5630108714103699,59.75000381469727,23.95,0
-0.2562622427940368,-0.7391127943992615,0.1999143660068512,-0.2287591993808746,0.5633842349052429,59.75000381469727,23.95,0
-0.270812064409256,-0.7486109733581543,0.2346512526273727,-0.1468044817447662,0.56362384557724,59.1947021484375,23.95,0
-0.2913448512554168,-0.8162819147109985,0.3017255663871765,0.0885006785392761,0.5637775659561157,58.83834457397461,23.95,0
-0.3045216202735901,-0.8988936543464661,0.3727588951587677,0.4723734259605407,0.5638762712478638,58.60965347290039,23.95,0
-0.3073799312114715,-0.9854957461357116,0.4407350718975067,0.8978496193885803,0.5639395713806152,58.462890625,23.95,0
-0.3092142343521118,-1.0522675514221191,0.4731627404689789,1.221051812171936,0.563980221748352,58.36870956420898,23.95,0
-0.2824025154113769,-1.139899969100952,0.4995707273483276,1.432046890258789,0.563088059425354,58.30826950073242,23.95,0
-0.3099784851074219,-1.168148636817932,0.4885289669036865,1.5710340738296509,0.5625155568122864,58.26948165893555,23.95,0
-0.3276751637458801,-1.1358970403671265,0.4590519070625305,1.5384204387664795,0.5621481537818909,58.244590759277344,23.95,0
-0.3110429942607879,-1.0256353616714478,0.3897552490234375,1.2308847904205322,0.5619123578071594,58.228614807128906,23.95,0
-0.3059672117233276,-0.9604735374450684,0.3396868705749511,0.761250376701355,0.5617610216140747,58.21836471557617,23.95,0
-0.3195031881332397,-0.9746341705322266,0.3355447351932525,0.3093979060649872,0.5616639256477356,58.21178436279297,23.95,0
-0.3617764413356781,-0.978123903274536,0.3272887766361236,-0.0343136526644229,0.5616016387939453,58.20756149291992,23.95,0
-0.3777094185352325,-0.9691678285598756,0.3051972687244415,-0.1832364201545715,0.561561644077301,58.20485305786133,23.95,0
-0.3599454164505005,-0.9970070123672484,0.2798246443271637,-0.0172784700989723,0.5629131197929382,58.2031135559082,23.95,0
-0.3317521810531616,-1.026068091392517,0.2579441964626312,0.4295684695243835,0.5637804269790649,58.20199966430664,23.95,0
-0.2968660593032837,-1.039120078086853,0.2327070236206054,0.8811275959014893,0.5643370151519775,58.2012825012207,23.95,0
-0.2744781672954559,-1.0642894506454468,0.2109134942293167,1.0132789611816406,0.5646942257881165,58.20082473754883,23.95,0
-0.254513144493103,-1.0916372537612915,0.2025254368782043,0.8043148517608643,0.5649234652519226,58.200531005859375,23.95,0
-0.2417007237672805,-1.103589653968811,0.18594691157341,0.5448235869407654,0.5650705695152283,58.200340270996094,23.95,0
-0.2446739971637725,-1.1112600564956665,0.1585144400596618,0.2923151850700378,0.5651649236679077,58.2002182006836,23.95,0
-0.2521798610687256,-1.1497691869735718,0.1297143101692199,-0.2781437635421753,0.5652254819869995,58.20014190673828,23.95,0
-0.2513989210128784,-1.1520910263061523,0.1000365018844604,-1.231773853302002,0.566182553768158,58.20009231567383,23.95,0
-0.2676910758018493,-1.108798861503601,0.0697954446077346,-2.105286836624145,0.5667967796325684,58.20005798339844,23.95,0
-0.322928637266159,-1.0530275106430054,0.033595148473978,-2.4544851779937744,0.567190945148468,58.20003890991211,23.95,0
-0.3471813797950744,-1.0340299606323242,0.0103638852015137,-2.155524492263794,0.5674439072608948,58.20002365112305,23.95,0
-0.3235609531402588,-0.9098829627037048,0.0066509451717138,-1.2292407751083374,0.5676062107086182,58.20001602172852,23.95,0
-0.302804946899414,-0.8302125930786133,0.0714414864778518,-0.0186021365225315,0.5677103996276855,58.20001220703125,23.95,0
-0.2558982968330383,-0.8182691335678101,0.1354114264249801,0.6902470588684082,0.5677772760391235,58.200008392333984,23.95,0
-0.2705785036087036,-0.832995593547821,0.187659204006195,0.4214653670787811,0.5678201913833618,58.20000457763672,23.95,0
-0.2520105540752411,-0.8480439782142639,0.2379821389913559,-0.3994694054126739,0.5669295191764832,58.20000457763672,23.95,0
-0.200910285115242,-0.8632989525794983,0.2814720571041107,-1.0624359846115112,0.5663579106330872,58.20000457763672,23.95,0
-0.1625193059444427,-0.8898820281028748,0.3261747062206268,-1.3374216556549072,0.5659911036491394,58.20000457763672,23.95,0
-0.1434799581766128,-0.9181370735168456,0.3660578429698944,-1.3562582731246948,0.5657557249069214,58.20000457763672,23.95,0
-0.1424571424722671,-0.9698562026023864,0.4140436351299286,-1.2608692646026611,0.5656046271324158,57.88832092285156,23.95,0
-0.1362029910087585,-0.991850972175598,0.4616314768791199,-1.185323715209961,0.565507709980011,57.68829727172852,23.95,0
-0.1209938824176788,-0.961183786392212,0.4977684020996094,-1.2192422151565552,0.5654454827308655,57.5599365234375,23.95,0
-0.1392224282026291,-0.9135144948959352,0.5209589600563049,-1.3520690202713013,0.565405547618866,57.4775619506836,23.95,0
-0.1621160060167312,-0.8885208368301392,0.5302435755729675,-1.5089610815048218,0.569511353969574,57.42469787597656,23.95,0
-0.1768077909946441,-0.906067967414856,0.5362018942832947,-1.5988976955413818,0.5721461772918701,57.39077377319336,23.95,0
-0.1918338984251022,-0.93971985578537,0.5400255918502808,-1.5383888483047483,0.5738371014595032,57.36900329589844,23.95,0
-0.1958790272474289,-0.9501201510429382,0.51449054479599,-1.284603238105774,0.5749222040176392,57.35503005981445,23.95,0
-0.1760838478803634,-0.9623922109603882,0.4589192271232605,-0.8100541234016418,0.57561856508255,57.34606170654297,23.95,0
-0.174575999379158,-1.0038543939590454,0.4288545250892639,-0.1257627606391906,0.5760654807090759,57.340309143066406,23.95,0
-0.2351838648319244,-1.0976357460021973,0.4207562804222107,0.7074593305587769,0.5763522386550903,57.33661651611328,23.95,0
-0.313262939453125,-1.146623611450195,0.3987659811973572,1.647004246711731,0.5765362977981567,57.33424758911133,23.95,0
-0.3857606649398803,-1.0381168127059937,0.3118827939033508,2.4792349338531494,0.5739001035690308,57.33272552490234,23.95,0
-0.4378833174705505,-0.9572879076004028,0.2057462036609649,2.80194091796875,0.5722083449363708,57.33174896240234,23.95,0
-0.4825281798839569,-0.9446009397506714,0.1096449717879295,2.589873552322388,0.5711227059364319,57.33112335205078,23.95,0
-0.5447653532028198,-0.9868391752243042,-0.0136027876287698,2.296147584915161,0.5704259872436523,57.33072280883789,23.95,0
-0.567912220954895,-1.0475318431854248,-0.1094894260168075,2.118398904800415,0.5699788928031921,57.33046340942383,23.95,0
-0.5491799116134644,-1.0584920644760132,-0.1542306244373321,1.853861927986145,0.5696919560432434,57.330299377441406,23.95,0
-0.4923764169216156,-1.1159056425094604,-0.1661496311426162,1.4691427946090698,0.5695078372955322,57.33019256591797,23.95,0
-0.427934318780899,-1.1303592920303345,-0.1570052355527877,1.1111923456192017,0.5693896412849426,57.33012390136719,23.95,0
-0.3809813261032104,-1.1396348476409912,-0.1343435645103454,0.7740030884742737,0.5697727203369141,57.33008193969727,23.95,0
-0.3508495986461639,-1.1399896144866943,-0.1086050644516944,0.446554571390152,0.5700185894966125,57.33005142211914,23.95,0
-0.3483061194419861,-1.1234239339828491,-0.0696964785456657,0.2149215042591095,0.570176362991333,57.33003234863281,23.95,0
-0.3410760760307312,-1.11279296875,-0.0335316397249698,0.0841856151819229,0.5702776312828064,57.330020904541016,23.95,0
-0.3420340418815613,-1.0947750806808472,-0.004725354257971,0.0110345780849456,0.5703426003456116,57.33001327514648,23.95,0
-0.3426488041877746,-1.0832122564315796,0.0249564107507467,-0.017996672540903,0.5703843235969543,57.33000946044922,23.95,0
-0.3318477571010589,-1.0813896656036377,0.0552000068128109,-0.0509575605392456,0.5704110860824585,57.33000564575195,23.95,0
-0.2913296222686767,-1.0746222734451294,0.0858041569590568,-0.1186834424734115,0.5704282522201538,57.33000564575195,23.95,0
-0.2653274238109588,-1.0534861087799072,0.1222374588251113,-0.1979717761278152,0.5699803233146667,57.33000564575195,23.95,0
-0.2374451607465744,-1.034324288368225,0.1568138003349304,-0.4279832243919372,0.569692850112915,57.33000564575195,23.95,0
-0.2027586102485656,-0.9660496115684508,0.2013940066099167,-1.1022299528121948,0.5695083737373352,57.33000564575195,23.95,0
-0.1916943192481994,-0.894245982170105,0.2523941099643707,-2.100969791412353,0.5693899989128113,57.33000564575195,23.95,0
-0.1454094797372818,-0.7865910530090332,0.2851230502128601,-2.7633988857269287,0.5693140625953674,57.33000564575195,23.95,0
-0.1548909544944763,-0.7566887140274048,0.2893332839012146,-2.629626035690308,0.5692653059959412,57.315673828125,23.95,0
-0.1721711605787277,-0.7878790497779846,0.292035162448883,-1.8595062494277956,0.5692340135574341,57.30647659301758,23.95,0
-0.1888583749532699,-0.8638730049133301,0.310562402009964,-0.9389612078666688,0.5692139267921448,57.300575256347656,23.95,0
-0.2051650434732437,-0.907043755054474,0.328049898147583,-0.2264008074998855,0.5701192617416382,57.29678726196289,23.95,0
-0.2156297266483307,-0.9347482323646544,0.3616634607315063,0.2380446195602417,0.5707002282142639,57.29435729980469,23.95,0
-0.2223453670740127,-0.9693207144737244,0.3944302499294281,0.6686542630195618,0.5710731148719788,57.29279708862305,23.95,0
-0.2322528511285781,-0.9803118109703064,0.4042625427246094,1.16353178024292,0.5713123679161072,57.29179382324219,23.95,0
-0.2330131232738495,-0.9537786245346068,0.3937790095806122,1.5456020832061768,0.5714659094810486,57.29115295410156,23.95,0
-0.2279032468795776,-0.9311533570289612,0.4038446247577667,1.6618200540542605,0.5715644359588623,57.29074096679688,23.95,0
-0.2246240228414535,-0.8998404145240784,0.4159019291400909,1.6074293851852417,0.571627676486969,57.29047393798828,23.95,0
-0.2225196063518524,-0.8405611515045166,0.4012485146522522,1.576107144355774,0.571668267250061,57.290306091308594,23.95,0
-0.2267668843269348,-0.8081169128417969,0.391844779253006,1.656318426132202,0.5730714797973633,57.29019546508789,23.95,0
-0.2462858706712722,-0.8376760482788086,0.3914077877998352,1.7686972618103027,0.5739719867706299,57.29012680053711,23.95,0
-0.2700075805187225,-0.884634256362915,0.3799318075180053,1.7727465629577637,0.5745498538017273,57.29008102416992,23.95,0
-0.2908285856246948,-0.9427582025527954,0.3557738661766052,1.7574323415756226,0.5749207139015198,57.2900505065918,23.95,0
-0.3041903078556061,-1.030438780784607,0.3458684384822845,2.016297578811645,0.5751587152481079,57.29003143310547,23.95,0
-0.3127650916576385,-1.0923049449920654,0.3451094925403595,2.569340705871582,0.5753114223480225,57.29001998901367,23.95,0
-0.3350612223148346,-1.1208114624023438,0.3278291225433349,2.9887382984161377,0.5754094123840332,57.29001235961914,23.95,0
-0.3437718152999878,-1.1055186986923218,0.2999462485313415,2.863800287246704,0.5754722952842712,57.29000854492188,23.95,0
-0.349361777305603,-1.0509225130081177,0.2540637552738189,2.142341136932373,0.5727583765983582,57.29000473022461,23.95,0
-0.3417535424232483,-1.0326790809631348,0.2302167862653732,0.9628350138664246,0.571016788482666,57.29000473022461,23.95,0
-0.342468798160553,-1.026569366455078,0.2149131745100021,-0.4855411052703857,0.5698990821838379,57.29000473022461,23.95,0
-0.3429277837276459,-1.0226484537124634,0.1882988810539245,-1.852099895477295,0.5691817998886108,57.29000473022461,23.95,0
-0.3320268094539642,-1.020132303237915,0.1656215786933899,-2.7863998413085938,0.5687215328216553,57.29000473022461,23.95,0
-0.2802489995956421,-1.0409085750579834,0.1678619086742401,-3.274919986724853,0.5684261322021484,57.29000473022461,23.95,0
-0.2022387683391571,-1.0318505764007568,0.1804951727390289,-3.5597634315490723,0.5682365894317627,57.29000473022461,23.95,0
-0.1633718460798263,-0.9980487823486328,0.1830047070980072,-3.764055013656616,0.5681149363517761,57.29000473022461,23.95,0
-0.1664181649684906,-0.9427700638771056,0.167821854352951,-3.8306713104248047,0.5698729157447815,57.29000473022461,23.95,0
-0.1739708930253982,-0.90169757604599,0.1580783724784851,-3.7408664226531982,0.5710011124610901,57.29000473022461,23.95,0
-0.1900133490562439,-0.9089263081550598,0.1574233472347259,-3.500523328781128,0.5717251300811768,57.29000473022461,23.95,0
-0.200308471918106,-0.9359563589096068,0.1737963110208511,-3.0560965538024902,0.5721897482872009,57.29000473022461,23.95,0
-0.2013175189495086,-0.9700960516929626,0.1843035370111465,-2.423379182815552,0.5724878907203674,57.29000473022461,23.95,0
-0.1963672935962677,-0.9752116203308104,0.1966442465782165,-1.6984883546829224,0.5726792216300964,57.29000473022461,23.95,0
-0.1931905150413513,-0.9561033844947816,0.1989660263061523,-0.8678723573684692,0.5728020071983337,57.275672912597656,23.95,0
-0.1743585169315338,-0.9606341123580932,0.2284448891878128,0.0520873926579952,0.5728808045387268,57.26647567749024,23.95,0
-0.1678709983825683,-0.95234614610672,0.241764947772026,0.6997857689857483,0.57109534740448,57.26057434082031,23.95,0
-0.1805010139942169,-0.9022452235221864,0.2503129839897156,0.7786791920661926,0.5699495077133179,57.25678634643555,23.95,0
-0.1942040026187896,-0.8644955158233643,0.2781897187232971,0.5534501075744629,0.5692141652107239,57.254356384277344,23.95,0
-0.1918022483587265,-0.8794543743133545,0.3128727376461029,0.4447368085384369,0.5687422752380371,57.2527961730957,23.95,0
-0.2126520276069641,-0.9786185026168824,0.3407280743122101,0.4681178331375122,0.5684394836425781,57.25179290771485,23.95,0
-0.2204344421625137,-1.036658525466919,0.3642018139362335,0.4580444097518921,0.5682451128959656,57.25115203857422,23.95,0
-0.2142332047224044,-1.0403186082839966,0.3904614448547363,0.4300844073295593,0.5681204199790955,57.25074005126953,23.95,0
-0.1598736345767974,-0.9922875165939332,0.4241066873073578,0.4730450809001922,0.5680403709411621,57.25047302246094,23.95,0
-0.0969999209046363,-0.9502683877944946,0.4289049506187439,0.6045094728469849,0.568906843662262,57.25030517578125,23.95,0
-0.0566511899232864,-0.9121073484420776,0.370408684015274,0.7282840609550476,0.5694628953933716,57.25019454956055,23.95,0
-0.0587465688586235,-0.887617826461792,0.3216736018657684,0.7002381682395935,0.5698197484016418,57.250125885009766,23.95,0
-0.0768845900893211,-0.8663040995597839,0.2848004400730133,0.553267240524292,0.5700487494468689,57.25008010864258,23.95,0
-0.1668933629989624,-0.8302350640296936,0.2219529449939727,0.4696974754333496,0.570195734500885,57.25004959106445,23.95,0
-0.2638402283191681,-0.8238813281059265,0.1760232746601104,0.5199618935585022,0.5702900290489197,57.250030517578125,23.95,0
-0.3148595988750458,-0.8030105829238892,0.1521460264921188,0.5916270613670349,0.5703505873680115,57.25001907348633,23.95,0
-0.3755897879600525,-0.7840191125869751,0.0864430144429206,0.6304524540901184,0.570389449596405,57.2500114440918,23.95,0
-0.3921718299388885,-0.8390048146247864,0.0666697025299072,0.6661161184310913,0.5694965124130249,57.25000762939453,23.95,0
-0.4363998472690582,-0.952660322189331,0.1043602973222732,0.6890029907226562,0.5689234733581543,57.25000381469727,23.95,0
-0.4871739447116852,-1.0591845512390137,0.1565368175506591,0.6821950078010559,0.5685557126998901,57.25000381469727,23.95,0
-0.4973667562007904,-1.1611322164535522,0.2404006719589233,0.7602252960205078,0.5683197379112244,57.25000381469727,23.95,0
-0.4199413061141968,-1.142589807510376,0.3669907450675964,1.078993797302246,0.5681682825088501,57.25000381469727,23.95,0
-0.3478629887104034,-1.04672372341156,0.4258378744125366,1.4841853380203247,0.5680711269378662,57.25000381469727,23.95,0
-0.2400317639112472,-1.0075935125350952,0.4692003428936004,1.5794154405593872,0.5680087804794312,57.25000381469727,23.95,0
-0.1148541420698165,-1.02726411819458,0.5138211846351624,1.2500278949737549,0.5679687261581421,57.25000381469727,23.95,0
-0.0457179062068462,-1.0678764581680298,0.520065188407898,0.7126315832138062,0.5661066174507141,57.25000381469727,23.95,0
-0.090914636850357,-1.0547547340393066,0.4680944979190826,0.0990683659911155,0.5649116039276123,57.25000381469727,23.95,0
-0.1479081660509109,-1.0519317388534546,0.417949378490448,-0.4738099873065948,0.5641447305679321,57.25000381469727,23.95,0
-0.1676900088787078,-1.0837067365646362,0.3913668990135193,-0.6587389707565308,0.5636525750160217,57.25000381469727,23.95,0
-0.17478708922863,-1.1040980815887451,0.374307781457901,-0.3080983459949493,0.5633367300033569,57.25000381469727,23.95,0
-0.2017326802015304,-1.0891952514648438,0.3801535367965698,0.160537764430046,0.5631340742111206,57.25000381469727,23.95,0
-0.1574492901563644,-1.0628381967544556,0.3951005637645721,0.2248314619064331,0.5630040168762207,57.25000381469727,23.95,0
-0.1122374385595321,-1.017934799194336,0.3823015987873077,-0.160235047340393,0.5629205703735352,57.239253997802734,23.95,0
-0.0944186225533485,-0.9331406950950624,0.3293057680130005,-0.6223031282424927,0.5647034049034119,57.23235702514648,23.95,0
-0.0829835310578346,-0.8619313836097717,0.2896983325481415,-0.8507628440856934,0.5658475160598755,57.22793197631836,23.95,0
-0.0924384742975235,-0.7882444858551025,0.2698783278465271,-0.8504895567893982,0.5665817856788635,57.22509002685547,23.95,0
-0.1097016632556915,-0.7297608852386475,0.2571589946746826,-0.7607498168945312,0.567052960395813,57.2232666015625,23.95,0
-0.1319757252931594,-0.6866317391395569,0.2489964514970779,-0.6494213342666626,0.5673553347587585,57.22209548950195,23.95,0
-0.1910521388053894,-0.6981383562088013,0.2381604313850402,-0.5242385268211365,0.5675494074821472,57.22134399414063,23.95,0
-0.2401595264673233,-0.7447070479393005,0.2312064915895462,-0.4044950604438782,0.567673921585083,57.22086334228516,23.95,0
-0.3276515603065491,-0.9201343059539796,0.2603304982185364,-0.3778066337108612,0.5677538514137268,57.22055435180664,23.95,0
-0.3949944674968719,-1.0047245025634766,0.3238027989864349,-0.5111477375030518,0.5701001286506653,57.22035598754883,23.95,0
-0.4438090324401855,-1.047814130783081,0.3365468084812164,-0.636126697063446,0.5716058015823364,57.22023010253906,23.95,0
-0.4415487647056579,-1.0978575944900513,0.2719541192054748,-0.4655507206916809,0.5725721120834351,57.22014999389648,23.95,0
-0.423304945230484,-1.1635593175888062,0.2081111520528793,-0.0623136535286903,0.5731921792030334,57.220096588134766,23.95,0
-0.3948037922382355,-1.1945273876190186,0.172738179564476,0.3111031055450439,0.573590099811554,57.220062255859375,23.95,0
-0.3485245108604431,-1.1472275257110596,0.1612333953380584,0.6868783831596375,0.5738455057144165,57.22003936767578,23.95,0
-0.3076295852661133,-1.088884353637695,0.1482525020837783,1.0999929904937744,0.5740094184875488,57.22002410888672,23.95,0
-0.3037766814231872,-0.9954653382301332,0.1119332462549209,1.146569013595581,0.5741145610809326,57.22001647949219,23.95,0
-0.3069018721580505,-0.9243188500404358,0.0830278620123863,0.560255765914917,0.5700506567955017,57.22001266479492,23.95,0
-0.3145052194595337,-0.873063325881958,0.0588802769780159,-0.249497964978218,0.5674426555633545,57.220008850097656,23.95,0
-0.3249823749065399,-0.8121816515922546,0.0377859733998775,-0.8372201919555664,0.5657690167427063,57.22000503540039,23.95,0
-0.3373037874698639,-0.7675135135650635,0.0242488626390695,-1.2752902507781982,0.5646949410438538,57.22000503540039,23.95,0
-0.3564065098762512,-0.7332503199577332,0.0323548465967178,-1.620904803276062,0.5640056729316711,57.22000503540039,23.95,0
-0.3686655461788177,-0.7168599367141724,0.0487523488700389,-1.6922321319580078,0.563563346862793,57.22000503540039,23.95,0
-0.3877282440662384,-0.7567214965820312,0.0816664174199104,-1.591120362281799,0.5632795095443726,57.22000503540039,23.95,0
-0.4335482120513916,-0.849475622177124,0.1363754272460937,-1.6157970428466797,0.563097357749939,57.22000503540039,23.95,0
-0.4741483926773071,-0.9425865411758424,0.182680070400238,-1.5492337942123413,0.5611443519592285,57.22000503540039,23.93,0
-0.5169965624809265,-1.0527197122573853,0.2347868233919143,-0.9010621309280396,0.5598910450935364,57.22000503540039,23.93,0
-0.5668851733207703,-1.1793745756149292,0.318605899810791,0.2206645160913467,0.5590867400169373,57.22000503540039,23.93,0
-0.5149341821670532,-1.199078917503357,0.4395694434642792,1.184139370918274,0.5585705637931824,57.22000503540039,23.93,0
-0.4312150478363037,-1.0213996171951294,0.4780124723911285,1.6161481142044067,0.5582393407821655,57.22000503540039,23.93,0
-0.3215111792087555,-0.9353641867637634,0.5194762945175171,1.6246932744979858,0.5580267906188965,57.22000503540039,23.93,0
-0.1559474021196365,-0.9753137826919556,0.5404876470565796,1.4188050031661987,0.5578903555870056,57.22000503540039,23.93,0
-0.1112736165523529,-1.028939962387085,0.5259826183319092,1.1397922039031982,0.5578027963638306,57.22000503540039,23.93,0
-0.1777667105197906,-1.0745497941970823,0.4830875098705292,0.8711735010147095,0.5586647987365723,57.24866485595703,23.93,0
-0.226035937666893,-1.103819489479065,0.4555598795413971,0.6020599007606506,0.5592179894447327,57.26705551147461,23.93,0
-0.1898390501737594,-1.1002119779586792,0.4490897953510284,0.343376487493515,0.5595729947090149,57.27885818481445,23.93,0
-0.1106322258710861,-1.0811035633087158,0.4897198677062988,0.2920107841491699,0.5598008632659912,57.28643035888672,23.93,0
-0.0374107472598552,-1.052047610282898,0.4990005791187286,0.6388002634048462,0.5599470734596252,57.291290283203125,23.93,0
-0.0519969351589679,-0.9886189699172974,0.4321853220462799,1.2231899499893188,0.5600408911705017,57.294410705566406,23.93,0
-0.0781508386135101,-0.9311208128929138,0.3781116008758545,1.5767221450805664,0.5601010918617249,57.29641342163086,23.93,0
-0.1005326807498931,-0.8886240124702454,0.3490079641342163,1.423845648765564,0.5601397156715393,57.297698974609375,23.93,0
-0.0925049632787704,-0.8165698051452637,0.3415264785289764,0.9961414337158204,0.5610824227333069,57.29852294921875,23.93,0
-0.0761576816439628,-0.7479384541511536,0.3367252945899963,0.6285185217857361,0.5616873502731323,57.29905319213867,23.93,0
-0.1048513576388359,-0.7038947939872742,0.3224486112594604,0.2707917094230652,0.5620755553245544,57.29939270019531,23.93,0
-0.1344608515501022,-0.686825692653656,0.3076888918876648,-0.2418002039194107,0.5623247027397156,57.29961013793945,23.93,0
-0.1814513951539993,-0.6870672702789307,0.3094125092029571,-0.6531514525413513,0.562484622001648,57.29975128173828,23.93,0
-0.2563894093036651,-0.7767866849899292,0.3161163926124573,-0.4585633277893066,0.5625872015953064,57.29983901977539,23.93,0
-0.3212736546993255,-0.8903411626815796,0.3260163366794586,0.4867219626903534,0.5626530647277832,57.299896240234375,23.93,0
-0.3685103952884674,-1.0303871631622314,0.36595618724823,1.7382152080535889,0.562695324420929,57.29993438720703,23.93,0
-0.43241086602211,-1.1090651750564575,0.3971850872039795,2.570012092590332,0.5654767155647278,57.29995727539063,23.93,0
-0.4622229635715484,-1.1091761589050293,0.3332593739032745,2.494773626327514,0.5672616362571716,57.29997253417969,23.93,0
-0.4141813516616821,-1.131638526916504,0.2194644510746002,1.6511582136154177,0.5684071183204651,57.29998397827149,23.93,0
-0.3497643768787384,-1.134858012199402,0.1520352065563202,0.6082138419151306,0.56914222240448,57.29998779296875,23.93,0
-0.2748386263847351,-1.086544156074524,0.1591429561376571,-0.2043908834457397,0.5696139931678772,57.299991607666016,23.93,0
-0.2323533594608307,-1.027550220489502,0.1748998612165451,-0.8082730770111084,0.5699167251586914,57.29999542236328,23.93,0
-0.2274798601865768,-0.9337135553359984,0.1738161891698837,-1.3821039199829102,0.5701109766960144,57.29999542236328,23.93,0
-0.2467434257268905,-0.8399078845977783,0.1507296413183212,-1.990388035774231,0.5702356696128845,57.29999542236328,23.93,0
-0.2703012228012085,-0.7685132622718811,0.1303162574768066,-2.617199659347534,0.568479597568512,57.29999542236328,23.97,0
-0.307810366153717,-0.7115007638931274,0.1172161176800727,-3.1484241485595703,0.5673526525497437,57.29999542236328,23.97,0
-0.3374793231487274,-0.6861090064048767,0.1200047507882118,-3.392603874206543,0.5666294693946838,57.29999542236328,23.97,0
-0.3453236222267151,-0.7034006714820862,0.1665765345096588,-3.3343498706817627,0.5661653876304626,57.29999542236328,23.97,0
-0.3391620814800262,-0.7312907576560974,0.2468435913324356,-3.178740739822388,0.56586754322052,57.29999542236328,23.97,0
-0.3352079689502716,-0.7659823298454285,0.3151476979255676,-3.0502190589904785,0.5656763911247253,57.29999542236328,23.97,0
-0.3606593012809753,-0.8666142821311951,0.4037635326385498,-2.9354982376098637,0.5655537247657776,57.29999542236328,23.97,0
-0.3993836045265198,-0.9759762287139891,0.4830231666564941,-2.7329041957855225,0.5654749870300293,57.29999542236328,23.97,0
-0.4186368584632873,-1.0965384244918823,0.5506807565689087,-2.126408338546753,0.5658833980560303,57.29999542236328,23.97,0
-0.3918080627918243,-1.1627126932144165,0.5996972918510437,-0.898871660232544,0.5661454796791077,57.32149124145508,23.97,0
-0.3633953630924225,-1.193984031677246,0.6311532855033875,0.6089885234832764,0.5663136839866638,57.33528900146485,23.97,0
-0.3171728551387787,-1.135683298110962,0.589764416217804,1.870417594909668,0.566421627998352,57.34414291381836,23.97,0
-0.2763143479824066,-1.0590848922729492,0.5352145433425903,2.6297740936279297,0.566490888595581,57.34982299804688,23.97,0
-0.2612892687320709,-0.9875373244285583,0.4610231518745422,2.7086715698242188,0.5665353536605835,57.35346984863281,23.97,0
-0.290831446647644,-0.9696110486984252,0.4078136086463928,2.1395180225372314,0.5665639042854309,57.35580825805664,23.97,0
-0.3209854662418365,-0.9749003648757936,0.3792645633220672,1.4016801118850708,0.566582202911377,57.3573112487793,23.97,0
-0.3291410207748413,-0.9670991897583008,0.3609434366226196,0.9532562494277954,0.5652168393135071,57.3582763671875,23.97,0
-0.3231792449951172,-0.9620928168296814,0.3379904329776764,0.8481950163841248,0.5643405914306641,57.35889434814453,23.97,0
-0.2801688909530639,-0.9644777774810792,0.3008694350719452,1.0351356267929075,0.563778281211853,57.35929107666016,23.97,0
-0.2581651210784912,-0.9716061353683472,0.265851765871048,1.3987184762954712,0.5634174346923828,57.35954666137695,23.97,0
-0.2552399039268493,-0.9761806726455688,0.2377816587686538,1.635627508163452,0.5631858706474304,57.359710693359375,23.97,0
-0.2589604556560516,-0.9791163802146912,0.2029745578765869,1.5404644012451172,0.5630372762680054,57.35981369018555,23.97,0
-0.2669458389282226,-0.9698047637939452,0.1750395894050598,1.235779047012329,0.5629419088363647,57.35988235473633,23.97,0
-0.2664726376533508,-0.9582313299179076,0.1515147536993026,0.9256071448326112,0.5628806948661804,57.35992431640625,23.97,0
-0.2661689519882202,-0.9787930250167848,0.1420156359672546,0.6764006614685059,0.5605463981628418,57.35995101928711,23.97,0
-0.2659740746021271,-1.008781671524048,0.1471152007579803,0.5093091130256653,0.5590484142303467,57.35997009277344,23.97,0
-0.2602512538433075,-1.0280267000198364,0.1615833640098571,0.4414876997470855,0.5580870509147644,57.359981536865234,23.97,0
-0.256578654050827,-1.0179859399795532,0.1708681881427765,0.5842577219009399,0.5574701428413391,57.359989166259766,23.97,0
-0.2486240267753601,-0.9947490096092224,0.1824244409799575,1.1237012147903442,0.557074248790741,57.35999298095703,23.97,0
-0.2099325656890869,-0.9854346513748168,0.2346227616071701,1.9642804861068728,0.5568201541900635,57.3599967956543,23.97,0
-0.1795048266649246,-0.917881727218628,0.2737184166908264,2.539541721343994,0.556657075881958,57.3599967956543,23.97,0
-0.199162483215332,-0.7625746726989746,0.30440554022789,2.292508125305176,0.5565524697303772,57.3599967956543,23.97,0
-0.1893865317106247,-0.7356786131858826,0.3240987658500671,1.2132543325424194,0.5578624606132507,57.3599967956543,23.95,0
-0.1887106746435165,-0.7576026916503906,0.3311389684677124,-0.2424372732639312,0.5587031245231628,57.3599967956543,23.95,0
-0.2106680423021316,-0.8108566999435425,0.3300592005252838,-1.5169609785079956,0.5592426061630249,57.3599967956543,23.95,0
-0.2247590124607086,-0.8282387256622314,0.3349640369415283,-2.299051284790039,0.5595887899398804,57.3599967956543,23.95,0
-0.233801782131195,-0.8393935561180115,0.3549050092697143,-2.6146578788757324,0.559810996055603,57.3599967956543,23.95,0
-0.2452026903629303,-0.8633453845977783,0.3677019774913788,-2.630902051925659,0.5599535703659058,57.3599967956543,23.95,0
-0.2469213604927063,-0.8955096006393433,0.3703165352344513,-2.630578994750977,0.560045063495636,57.3599967956543,23.95,0
-0.2480242997407913,-0.9217485189437866,0.3943855166435241,-2.9313080310821533,0.5601037740707397,57.3599967956543,23.95,0
-0.2431343346834182,-0.9329893589019777,0.4322226941585541,-3.41806960105896,0.5601414442062378,57.3599967956543,23.95,0
-0.2232029139995575,-0.91221421957016,0.4788955152034759,-3.5692293643951416,0.5601656436920166,57.3599967956543,23.95,0
-0.2104120701551437,-0.8932841420173645,0.5088474750518799,-3.171839475631714,0.5601811408996582,57.381492614746094,23.95,0
-0.2022036463022232,-0.8867337107658386,0.5336666703224182,-2.537064552307129,0.5601910948753357,57.395286560058594,23.95,0
-0.2081315070390701,-0.9217144250869752,0.5328008532524109,-1.9398261308670044,0.5601974725723267,57.40414047241211,23.95,0
-0.2175334393978119,-0.9609563946723938,0.5154519081115723,-1.3380156755447388,0.5602015852928162,57.40982055664063,23.95,0
-0.2067737281322479,-0.969346284866333,0.4707317352294922,-0.53622967004776,0.5602042078971863,57.41346740722656,23.95,0
-0.199868768453598,-0.969132661819458,0.4252395629882812,0.7019907236099243,0.5602059364318848,57.41580581665039,23.95,0
-0.2178286612033844,-1.0305711030960083,0.4128386378288269,2.4244964122772217,0.5602070093154907,57.41730880737305,23.95,0
-0.2797342538833618,-1.1259764432907104,0.4048804342746734,4.138939380645752,0.560207724571228,57.41827392578125,23.95,0
-0.3250594735145569,-1.142419934272766,0.377382218837738,4.938233852386475,0.5602082014083862,57.41889190673828,23.95,0
-0.3653421401977539,-1.041016936302185,0.281366616487503,4.376402378082275,0.5602084994316101,57.41928863525391,23.95,0
-0.4023887813091278,-0.975942313671112,0.2085537761449813,3.044973134994507,0.5602086782455444,57.4195442199707,23.95,0
-0.4205654263496399,-1.001354455947876,0.1730222254991531,1.9361755847930908,0.560208797454834,57.419708251953125,23.95,0
-0.4490234553813934,-1.0624446868896484,0.15022012591362,1.489723801612854,0.5602088570594788,57.4198112487793,23.95,0
-0.4560906291007995,-1.084855556488037,0.1243915036320686,1.4325015544891355,0.5602089166641235,57.41987991333008,23.95,0
-0.4382348358631134,-1.076846480369568,0.0966206267476081,1.270389437675476,0.5602089166641235,57.419921875,23.95,0
-0.4099827110767364,-1.0885000228881836,0.0732011049985885,0.765106737613678,0.5602089166641235,57.41994857788086,23.95,0
-0.3750587999820709,-1.112771987915039,0.0637695789337158,0.057509820908308,0.5602089166641235,57.41996765136719,23.95,0
-0.3414510786533355,-1.1171528100967407,0.0577169694006443,-0.6079570651054382,0.5602089166641235,57.41997909545898,23.95,0
-0.3142858147621155,-1.1143662929534912,0.0594305247068405,-1.0959192514419556,0.5602089166641235,57.41998672485352,23.95,0
-0.2856571674346924,-1.1181758642196655,0.0829212814569473,-1.3947349786758425,0.5602089166641235,57.41999053955078,23.95,0
-0.261687159538269,-1.115022897720337,0.103594072163105,-1.5721673965454102,0.5602089166641235,57.41999435424805,23.95,0
-0.2463046014308929,-1.1185972690582275,0.1000673621892929,-1.682450771331787,0.5602089166641235,57.41999435424805,23.95,0
-0.2532262802124023,-1.143282175064087,0.0754130184650421,-1.617086410522461,0.5597496628761292,57.41999435424805,23.91,0
-0.2576682269573211,-1.1535258293151855,0.0539935082197189,-1.2885332107543943,0.5594549179077148,57.41999435424805,23.91,0
-0.2717143595218658,-1.1321107149124146,0.0458454750478267,-0.8985579609870911,0.5592657923698425,57.41999435424805,23.91,0
-0.2919239103794098,-1.0959765911102295,0.0518120862543582,-0.7091980576515198,0.5591444373130798,57.41999435424805,23.91,0
-0.3160887658596039,-1.0559945106506348,0.0892277583479881,-0.6700770258903503,0.5590665340423584,57.41999435424805,23.91,0
-0.2924119532108307,-0.9967496395111084,0.1076412051916122,-0.5518244504928589,0.5590165257453918,57.41999435424805,23.91,0
-0.2604242265224457,-0.8859586119651794,0.130653440952301,-0.3792071938514709,0.5589844584465027,57.41999435424805,23.91,0
-0.2007119208574295,-0.7980660200119019,0.1958013474941253,-0.3400828838348388,0.5589638948440552,57.41999435424805,23.91,0
-0.14559867978096,-0.76405268907547,0.2655983865261078,-0.3543834984302521,0.5580328106880188,57.41999435424805,23.91,0
-0.1550123691558838,-0.798202633857727,0.3271834254264831,-0.2274229228496551,0.5574353337287903,57.41999435424805,23.91,0
-0.1330646574497223,-0.8313136696815491,0.3667051792144775,-0.06354770809412,0.5570518970489502,57.41999435424805,23.91,0
-0.1021865606307983,-0.8581601977348328,0.3864701986312866,-0.0336161069571971,0.5568057894706726,57.68152618408203,23.91,0
-0.0879685506224632,-0.8977798223495483,0.4047520160675049,-0.0251554585993289,0.5566478967666626,57.84936141967773,23.91,0
-0.101235345005989,-0.9344009757041932,0.4164842367172241,0.0770036354660987,0.5565465688705444,57.957069396972656,23.91,0
-0.1433358639478683,-0.9802933931350708,0.4296110570430755,0.1891369521617889,0.5564815402030945,58.02618789672852,23.91,0
-0.1759513169527053,-1.0041468143463137,0.4324373304843902,0.3363317549228668,0.5564398169517517,58.0705451965332,23.91,0
-0.1912842690944671,-0.997063398361206,0.434251070022583,0.7353118658065796,0.5559537410736084,58.0990104675293,23.91,0
-0.2011240720748901,-0.958931028842926,0.4410127997398376,1.406933069229126,0.555641770362854,58.117279052734375,23.91,0
-0.2074386924505233,-0.9232643246650696,0.4509498476982116,2.0743908882141118,0.5554415583610535,58.12900161743164,23.91,0
-0.2058932781219482,-0.8779844045639038,0.4461313486099243,2.43107533454895,0.5553131103515625,58.13652420043945,23.91,0
-0.2049015164375305,-0.8601219058036804,0.4430390894412994,2.2658915519714355,0.5552306771278381,58.14135360717773,23.91,0
-0.2042650729417801,-0.8598543405532837,0.4466524422168731,1.6332474946975708,0.5551777482032776,58.14445114135742,23.91,0
-0.2094544023275375,-0.8932692408561707,0.4489712715148926,1.0337939262390137,0.5551437735557556,58.14643859863281,23.91,0
-0.2239801734685897,-0.9259085655212402,0.4448615908622741,1.014521837234497,0.5551220178604126,58.1477165222168,23.91,0
-0.2668886184692383,-1.0140279531478882,0.4254309237003326,1.3496639728546145,0.5564851760864258,58.148536682128906,23.91,0
-0.3504025340080261,-1.154544472694397,0.4017658829689026,1.2888805866241455,0.5573599934577942,58.14906311035156,23.91,0
-0.3983991742134094,-1.2055354118347168,0.3753834664821625,0.6372528672218323,0.5579214096069336,58.14939880371094,23.91,0
-0.4292006492614746,-1.1039118766784668,0.2968772351741791,-0.1714250594377517,0.558281660079956,58.14961624145508,23.91,0
-0.437771737575531,-1.0275002717971802,0.2408986836671829,-0.8050304055213928,0.5585128664970398,58.14975357055664,23.91,0
-0.4096855223178863,-0.9952570199966432,0.2105726599693298,-1.2044767141342163,0.5586612224578857,58.14984130859375,23.91,0
-0.4028569459915161,-1.0081517696380615,0.1855133771896362,-1.2924373149871826,0.558756411075592,58.149898529052734,23.91,0
-0.387279212474823,-1.0276224613189695,0.1750295460224151,-1.094522476196289,0.5588175058364868,58.14993667602539,23.91,0
-0.3660867810249328,-1.0569108724594116,0.1627038568258285,-0.9245212078094482,0.5583977699279785,58.14995956420898,23.93,0
-0.335693359375,-1.092499852180481,0.1603917181491851,-1.0590393543243408,0.5581284165382385,58.14997482299805,23.93,0
-0.2993952929973602,-1.1097410917282104,0.1533101350069046,-1.3495721817016602,0.5579555630683899,58.14998626708984,23.93,0
-0.2705035209655761,-1.0928165912628174,0.1263744980096817,-1.4142117500305176,0.5578446388244629,58.14999008178711,23.93,0
-0.2575601935386657,-1.0819554328918457,0.1090887486934661,-1.1332619190216064,0.5577734708786011,58.149993896484375,23.93,0
-0.2548516988754272,-1.074985384941101,0.0923979803919792,-0.7344273924827576,0.5577278137207031,58.14999771118164,23.93,0
-0.2531135380268097,-1.059316873550415,0.0816868022084236,-0.5071389675140381,0.5576984882354736,58.14999771118164,23.93,0
-0.2631936371326446,-1.0380661487579346,0.0692152082920074,-0.540407121181488,0.5576796531677246,58.14999771118164,23.93,0
-0.2752602398395538,-1.052417516708374,0.0780049860477447,-0.6728165745735168,0.5567494034767151,58.14999771118164,23.93,0
-0.2662105560302734,-1.0616273880004885,0.0948413088917732,-0.7649545073509216,0.5561524033546448,58.14999771118164,23.93,0
-0.243609681725502,-1.017157793045044,0.1112436652183532,-0.8849871158599854,0.5557692646980286,58.14999771118164,23.93,0
-0.2179101854562759,-0.9662286639213562,0.1217697486281395,-1.0945724248886108,0.5555233955383301,58.14999771118164,23.93,0
-0.1622333079576492,-0.8999586701393127,0.1341225653886795,-1.286393404006958,0.5553656220436096,58.45451736450195,23.93,0
-0.1656875163316726,-0.8574303984642029,0.1756365299224853,-1.3306764364242554,0.5552643537521362,58.649940490722656,23.93,0
-0.1958930939435959,-0.8301382064819336,0.235864445567131,-1.1584705114364624,0.555199384689331,58.775352478027344,23.93,0
-0.1481040120124817,-0.7846347689628601,0.2969063520431518,-0.7040313482284546,0.5551576614379883,58.8558349609375,23.93,0
-0.1062401756644249,-0.7778244018554688,0.3360795378684997,-0.0648886114358902,0.556049108505249,58.9074821472168,23.93,0
-0.0737766027450561,-0.8854093551635742,0.350023090839386,0.420510470867157,0.5566211938858032,58.94062805175781,23.93,0
-0.0585411265492439,-0.993635594844818,0.3813623487949371,0.5779609084129333,0.5569883584976196,58.96189880371094,23.93,0
-0.0767527446150779,-1.0351001024246216,0.4126696288585663,0.6575080752372742,0.5572239756584167,58.975547790527344,23.93,0
-0.1108310148119926,-1.0113296508789062,0.4607497155666351,0.9736674427986144,0.5573751330375671,58.98430633544922,23.93,0
-0.1271027028560638,-0.99607515335083,0.4972025156021118,1.4524186849594116,0.5574721693992615,58.98992919921875,23.93,0
-0.1151538416743278,-0.958296835422516,0.5205958485603333,1.791896939277649,0.5575344562530518,58.99353790283203,23.93,0
-0.1130835264921188,-0.9172595739364624,0.5132172107696533,1.827043056488037,0.5575743913650513,58.995853424072266,23.93,0
-0.1285482347011566,-0.8797286748886108,0.5028842687606812,1.609565258026123,0.5562229156494141,58.997337341308594,23.93,0
-0.1720592528581619,-0.8668390512466431,0.4906554222106933,1.2980369329452517,0.5553556084632874,58.998291015625,23.93,0
-0.216775432229042,-0.8529694676399231,0.4772098660469055,0.983473539352417,0.5547990202903748,58.9989013671875,23.93,0
-0.2958516776561737,-0.8328732252120972,0.4237990975379944,0.6812927722930908,0.5544418096542358,58.99929428100586,23.93,0
-0.3521960377693176,-0.8311721086502075,0.3783275783061981,0.4587099254131317,0.5542125701904297,58.99954605102539,23.93,0
-0.3995501399040222,-0.8692649006843567,0.3491465747356415,0.33736452460289,0.554065465927124,58.99971008300781,23.93,0
-0.4187437295913696,-0.9720794558525084,0.3472132086753845,0.2738223373889923,0.5539711117744446,58.999813079833984,23.93,0
-0.4310610890388489,-1.0324621200561523,0.3291791677474975,0.4157559871673584,0.5539105534553528,58.999881744384766,23.93,0
-0.422172337770462,-1.099201202392578,0.3288015127182007,0.9510802030563354,0.5547899007797241,58.99992370605469,23.91,0
-0.4108702540397644,-1.1756170988082886,0.3453524708747864,1.5167402029037476,0.5553541779518127,58.99995040893555,23.91,0
-0.3868239223957062,-1.185472011566162,0.3559739291667938,1.514325499534607,0.555716335773468,58.99996948242188,23.91,0
-0.3434034883975982,-1.169405221939087,0.3236057460308075,0.9718069434165956,0.5559487342834473,58.99998092651367,23.91,0
-0.2931476533412933,-1.1758878231048584,0.2916381657123565,0.4194429516792297,0.5560978651046753,58.9999885559082,23.91,0
-0.2161141633987426,-1.2976012229919434,0.2655254304409027,0.0721326768398284,0.5561935901641846,58.99999237060547,23.91,0
-0.0715163350105285,-1.3197321891784668,0.2767566442489624,-0.2618109285831451,0.5562549829483032,58.999996185302734,23.91,0
0.0268760006874799,-1.27795672416687,0.2895619571208954,-0.7125666737556458,0.5562943816184998,58.999996185302734,23.91,0
0.0396385677158832,-1.1335943937301636,0.3033774495124817,-1.15230393409729,0.5554014444351196,58.999996185302734,23.91,0
0.0198399759829044,-1.001766562461853,0.2954501211643219,-1.438084602355957,0.5548284649848938,58.999996185302734,23.91,0
-0.0376478135585784,-0.8835803866386414,0.2735694944858551,-1.5964040756225586,0.5544607043266296,58.999996185302734,23.91,0
-0.1193223670125007,-0.8133330941200256,0.2147455811500549,-1.6908392906188965,0.5542247295379639,58.999996185302734,23.91,0
-0.166138619184494,-0.7626546621322632,0.1713979989290237,-1.7263643741607666,0.5540732741355896,58.999996185302734,23.91,0
-0.1681937277317047,-0.7189366221427917,0.1827644407749176,-1.738414645195007,0.5539761185646057,59.28660202026367,23.91,0
-0.1639147996902465,-0.6796853542327881,0.2068520933389663,-1.7676432132720947,0.5539137721061707,59.47053146362305,23.91,0
-0.1499732732772827,-0.6712894439697266,0.2335057109594345,-1.6574276685714722,0.5538737177848816,59.588565826416016,23.91,0
-0.1634175032377243,-0.7050858736038208,0.2506104707717895,-1.2642658948898315,0.5566022992134094,59.66431427001953,23.91,0
-0.2056318819522857,-0.7547633647918701,0.2615873217582702,-0.8220807909965515,0.5583533644676208,59.71292495727539,23.91,0
-0.2495159655809402,-0.8482190370559692,0.2910227179527282,-0.6995277404785156,0.5594770908355713,59.74412155151367,23.91,0
-0.2720804810523987,-0.9641712307929992,0.3043148815631866,-0.835834801197052,0.5601982474327087,59.76414108276367,23.91,0
-0.3257454931735992,-1.172929286956787,0.2736606299877167,-0.8086664080619812,0.5606610178947449,59.7769889831543,23.91,0
-0.4553467929363251,-1.23972487449646,0.2148040533065796,-0.3935654163360595,0.5609580278396606,59.78523254394531,23.91,0
-0.5497129559516907,-1.2266126871109009,0.1770332902669906,0.1665937006473541,0.5611485838890076,59.790523529052734,23.91,0
-0.5319029092788696,-1.2126002311706543,0.1024142280220985,0.5439844727516174,0.5612708926200867,59.79391860961914,23.91,0
-0.4868867993354797,-1.2148034572601318,0.0433324612677097,0.7145206332206726,0.5613493919372559,59.79609680175781,23.91,0
-0.3908247649669647,-1.1994240283966064,0.027808278799057,0.8454564213752747,0.5613997578620911,59.79749298095703,23.91,0
-0.3291776776313782,-1.1167832612991333,0.0234435275197029,1.0405433177947998,0.5614320635795593,59.79838943481445,23.91,0
-0.3176049888134002,-1.0301625728607178,0.0150447068735957,1.3591978549957275,0.5614528059959412,59.79896545410156,23.91,0
-0.321373850107193,-0.9297922253608704,0.0096548264846205,1.821637511253357,0.5614661574363708,59.79933547973633,23.91,0
-0.3237924873828888,-0.8485869765281677,0.0061959116719663,2.3046987056732178,0.5614746809005737,59.7995719909668,23.91,0
-0.3197468817234039,-0.7684852480888367,0.0151717280969023,2.575291156768799,0.5614801645278931,59.79972457885742,23.91,0
-0.3115528523921966,-0.7170805931091309,0.0321274399757385,2.4659183025360107,0.5614836812019348,59.79982376098633,23.91,0
-0.3062944114208221,-0.6896898150444031,0.048606414347887,2.0088109970092773,0.5573545098304749,59.79988479614258,23.91,0
-0.3029198348522186,-0.6945030689239502,0.0759749934077262,1.357208251953125,0.5547046661376953,59.7999267578125,23.91,0
-0.32314532995224,-0.7087875008583069,0.1047341227531433,0.6058675050735474,0.5530041456222534,59.79995346069336,23.91,0
-0.3529182076454162,-0.7515410780906677,0.1455811709165573,-0.2130617946386337,0.5519128441810608,59.79996871948242,23.91,0
-0.4168069064617157,-0.862944483757019,0.1605989038944244,-0.9678882956504822,0.55121248960495,59.79998016357422,23.91,0
-0.4634047746658325,-0.9624256491661072,0.1702364236116409,-1.470205307006836,0.5507630705833435,59.79998779296875,23.91,0
-0.5492863655090332,-1.07664692401886,0.1876167804002761,-1.6385128498077393,0.5504746437072754,59.799991607666016,23.91,0
-0.5988024473190308,-1.1163609027862549,0.2267593592405319,-1.6139676570892334,0.5502895712852478,59.79999542236328,23.91,0
-0.6473723649978638,-1.1586403846740725,0.3414432108402252,-1.6089636087417605,0.5520068407058716,59.79999542236328,23.91,0
-0.5441951155662537,-1.0738173723220823,0.4094429314136505,-1.6917341947555542,0.5531088709831238,59.79999542236328,23.91,0
-0.4220041632652282,-1.0417739152908323,0.4530812203884125,-1.8021727800369265,0.5538160800933838,59.79999542236328,23.91,0
-0.220438003540039,-1.1163724660873413,0.4922813177108764,-1.8479678630828855,0.5542699694633484,59.79999542236328,23.91,0
-0.0630955770611763,-1.1810388565063477,0.4894488155841827,-1.6086633205413818,0.5545612573623657,59.79999542236328,23.91,0
-0.0516866594552993,-1.160962462425232,0.4428488910198211,-0.874714195728302,0.5547481775283813,59.79999542236328,23.91,0
-0.0667561665177345,-1.1760674715042114,0.4185415208339691,0.1838344633579254,0.5548681020736694,60.07227325439453,23.91,0
-0.0708291381597518,-1.2025543451309204,0.414137989282608,1.171251654624939,0.5549451112747192,60.24700546264648,23.91,0
-0.1126273572444915,-1.1691721677780151,0.3945187330245971,1.8837357759475708,0.5545355677604675,60.35913848876953,23.91,0
-0.1618421524763107,-1.1141626834869385,0.359537124633789,2.233489751815796,0.5542727708816528,60.43109893798828,23.91,0
-0.1374476253986358,-1.034078598022461,0.3370879590511322,2.07102370262146,0.5541040897369385,60.47727966308594,23.91,0
-0.0882059708237648,-0.9546964168548584,0.3170835971832275,1.4472887516021729,0.5539958477020264,60.50691604614258,23.91,0
-0.0510077401995658,-0.8421779274940491,0.2874526083469391,0.7854835987091064,0.553926408290863,60.52593612670898,23.91,0
-0.0607227049767971,-0.7419812083244324,0.2740349173545837,0.5255736112594604,0.553881824016571,60.53813934326172,23.91,0
-0.0781527608633041,-0.6776807308197021,0.2654242217540741,0.7779396772384644,0.5538532137870789,60.54597091674805,23.91,0
-0.1229250133037567,-0.6700029969215393,0.2598983645439148,1.3912982940673828,0.553834855556488,60.55099868774414,23.91,0
-0.1796461343765258,-0.6930647492408752,0.2731455266475677,2.153921842575073,0.5561184287071228,60.5542221069336,23.91,0
-0.2440353631973266,-0.7526466250419617,0.2984400987625122,2.7973804473876958,0.5575838685035706,60.55629348754883,23.91,0
-0.2853566706180572,-0.9252294301986694,0.3538571298122406,3.0204386711120605,0.5585243105888367,60.55762100219727,23.91,0
-0.2950809597969055,-1.091960906982422,0.3950183689594269,2.730093002319336,0.5591278672218323,60.558475494384766,23.91,0
-0.3461036682128906,-1.131786227226257,0.3878466486930847,2.1281869411468506,0.5595151782035828,60.55902099609375,23.91,0
-0.4068359732627868,-1.106963872909546,0.3048754036426544,1.355000138282776,0.5597637295722961,60.55937194824219,23.91,0
-0.3954305052757263,-1.079838752746582,0.2124448120594024,0.3680005073547363,0.5599232316017151,60.55959701538086,23.91,0
-0.3713178038597107,-1.0792248249053955,0.1307370811700821,-0.7562118768692017,0.5600255727767944,60.55974197387695,23.91,0
-0.3502458930015564,-1.0956240892410278,0.0838995352387428,-1.814428806304932,0.5587141513824463,60.55983352661133,23.91,0
-0.3199298083782196,-1.0893548727035522,0.0538418926298618,-2.654747486114502,0.5578725337982178,60.55989456176758,23.91,0
-0.306072473526001,-1.057342767715454,0.034552626311779,-3.025634527206421,0.557332456111908,60.55993270874024,23.91,0
-0.3083751797676086,-1.0200059413909912,0.0277716610580682,-2.790748357772827,0.5569858551025391,60.55995559692383,23.91,0
-0.3098529279232025,-0.9512631297111512,0.0234200283885002,-2.399979591369629,0.5567634105682373,60.55997085571289,23.91,0
-0.3108012676239013,-0.884756863117218,0.0262251757085323,-2.4465603828430176,0.5566206574440002,60.55998229980469,23.91,0
-0.3114098608493805,-0.8140881061553955,0.0448186807334423,-2.8024675846099854,0.5565290451049805,60.55998992919922,23.91,0
-0.3062026500701904,-0.7687369585037231,0.067946471273899,-2.9377214908599854,0.5564702749252319,60.55999374389648,23.91,0
-0.3084587156772613,-0.7396332025527954,0.0883863270282745,-2.7737393379211426,0.5550554394721985,60.55999755859375,23.91,0
-0.3322976231575012,-0.7321516275405884,0.1238945499062538,-2.510871648788452,0.554147481918335,60.55999755859375,23.91,0
-0.3587916195392608,-0.7385459542274475,0.1578772366046905,-2.227535963058472,0.5535647869110107,60.55999755859375,23.91,0
-0.381391704082489,-0.7706383466720581,0.2020764648914337,-2.0779504776000977,0.5531908273696899,60.55999755859375,23.91,0
-0.4574706554412842,-0.8751999735832214,0.2584298551082611,-2.2327353954315186,0.5529508590698242,60.55999755859375,23.91,0
-0.5398803949356079,-0.9870837926864624,0.3281808495521545,-2.3929712772369385,0.5527968406677246,60.55999755859375,23.91,0
-0.5927662253379822,-1.1036666631698608,0.4009318947792053,-2.02648401260376,0.552698016166687,60.55999755859375,23.91,0
-0.6211075186729431,-1.2176672220230105,0.4812059998512268,-1.0532830953598022,0.552634596824646,60.80361557006836,23.91,0
-0.5329376459121704,-1.2740328311920166,0.6166878938674927,0.2053771913051605,0.5525938868522644,60.95995330810547,23.91,0
-0.375595360994339,-1.1366740465164185,0.6252635717391968,1.4215264320373535,0.5525677800178528,61.06028366088867,23.91,0
-0.2410354763269424,-0.9925473928451538,0.5915824770927429,2.270050048828125,0.5525510311126709,61.12466812133789,23.91,0
-0.1770737916231155,-0.9224462509155272,0.5139901638031006,2.5172297954559326,0.5525402426719666,61.16598892211914,23.91,0
-0.1864068359136581,-0.911046028137207,0.4418047964572906,2.2459464073181152,0.5525333285331726,61.1925048828125,23.91,0
-0.2819606363773346,-0.987696647644043,0.3786870539188385,1.7816637754440308,0.5525289177894592,61.20952224731445,23.91,0
-0.3096949160099029,-1.0816688537597656,0.366170585155487,1.4371404647827148,0.55252605676651,61.22043991088867,23.91,0
-0.2939065396785736,-1.136376976966858,0.369333803653717,1.3414353132247925,0.5525242686271667,61.227447509765625,23.91,0
-0.2054056227207183,-1.1267032623291016,0.3657659888267517,1.4125726222991943,0.5529820322990417,61.2319450378418,23.91,0
-0.143013060092926,-1.0813108682632446,0.3522808253765106,1.479719877243042,0.5532758235931396,61.23483276367188,23.91,0
-0.1309619694948196,-1.0241917371749878,0.3044424057006836,1.4045861959457395,0.5534643530845642,61.2366828918457,23.91,0
-0.1512171477079391,-0.970742642879486,0.2513513565063476,1.1163370609283447,0.5535853505134583,61.23787307739258,23.91,0
-0.1866068542003631,-0.9308443665504456,0.2060850262641906,0.68415766954422,0.5536629557609558,61.2386360168457,23.91,0
-0.2205134779214859,-0.9052399396896362,0.1658401489257812,0.2957499623298645,0.553712785243988,61.2391242980957,23.91,0
-0.2310772538185119,-0.8832107186317444,0.162404403090477,0.1396392434835434,0.5537447333335876,61.23943710327149,23.91,0
-0.2042698264122009,-0.8690736293792725,0.1881884187459945,0.3332275748252868,0.5537652373313904,61.23963928222656,23.91,0
-0.175870805978775,-0.8432078957557678,0.2215284407138824,0.8622924089431763,0.5533194541931152,61.2397689819336,23.91,0
-0.1632437258958816,-0.8266087770462036,0.2485219091176986,1.631724834442139,0.5530334115028381,61.23985290527344,23.91,0
-0.1719337254762649,-0.843945324420929,0.2770403325557709,2.5374984741210938,0.5528498291969299,61.23990631103516,23.91,0
-0.2054993361234665,-0.8774619698524475,0.3065373599529266,3.244162082672119,0.552731990814209,61.23994064331055,23.91,0
-0.2270398139953613,-0.966144323348999,0.4094334542751312,3.1674368381500244,0.5526564121246338,61.23996353149414,23.91,0
-0.2240699231624603,-0.9670778512954712,0.4866617918014526,2.0899999141693115,0.5526078939437866,61.2399787902832,23.91,0
-0.1941751539707183,-0.8837103247642517,0.4914402961730957,0.5351620316505432,0.5525767803192139,61.23998641967773,23.91,0
-0.1414037644863128,-0.8861875534057617,0.4049424827098846,-0.7958228588104248,0.5525568127632141,61.239990234375,23.91,0
-0.1131358966231346,-0.9325594902038574,0.3270420730113983,-1.578320860862732,0.553921103477478,61.239994049072266,23.91,0
-0.1397773921489715,-1.0071005821228027,0.2994411587715149,-1.872693657875061,0.5547966361045837,61.23999786376953,23.91,0
-0.1848632544279098,-1.0437411069869995,0.2985218167304992,-2.004283905029297,0.5553585290908813,61.23999786376953,23.91,0
-0.2529811859130859,-1.0168750286102295,0.3035296201705932,-2.300102949142456,0.5557191371917725,61.23999786376953,23.91,0
-0.3022931218147278,-0.9716449975967408,0.2899500131607055,-2.7263925075531006,0.5559505224227905,61.23999786376953,23.91,0
-0.3507319986820221,-0.9370211958885192,0.28123539686203,-3.010708332061768,0.556098997592926,61.23999786376953,23.91,0
-0.3818172812461853,-0.8924105167388916,0.2644473016262054,-3.092853784561157,0.5561943054199219,61.23999786376953,23.91,0
-0.3905704915523529,-0.8469886183738708,0.264869213104248,-3.1097443103790283,0.5562554597854614,61.23999786376953,23.91,0
-0.3905900120735168,-0.8066439628601074,0.2763355374336242,-3.0525147914886475,0.5539993643760681,61.51227569580078,23.91,0
-0.379406988620758,-0.79754638671875,0.3228783905506134,-2.8151638507843018,0.5525515079498291,61.687007904052734,23.91,0
-0.3666326105594635,-0.8196969628334045,0.375137984752655,-2.3654918670654297,0.5516223311424255,61.79914093017578,23.91,0
-0.3304458558559418,-0.889889657497406,0.4254685342311859,-1.7831470966339111,0.5510260462760925,61.87110137939453,23.91,0
-0.301625519990921,-0.9573264122009276,0.4577677845954895,-1.2088075876235962,0.5506433844566345,61.91728210449219,23.91,0
-0.2831302881240845,-0.978212296962738,0.4561044573783874,-0.5285454392433167,0.5503978133201599,61.94691467285156,23.91,0
-0.2656633257865906,-1.036397933959961,0.4606348276138305,0.6710962653160095,0.5502402186393738,61.96593475341797,23.91,0
-0.260051816701889,-1.107324719429016,0.4691399335861206,2.3294360637664795,0.5501391291618347,61.9781379699707,23.91,0
-0.3180261850357055,-1.2032214403152466,0.4466091394424438,3.504722833633423,0.5509924292564392,61.98596954345703,23.91,0
-0.3496330380439758,-1.2143824100494385,0.4041613042354584,3.356145143508911,0.5515400767326355,61.990997314453125,23.91,0
-0.3643187284469604,-1.1263827085494995,0.3321385383605957,2.117954969406128,0.5518915057182312,61.99422073364258,23.91,0
-0.3569498360157013,-1.08110511302948,0.2803206741809845,0.7250657081604004,0.5521170496940613,61.99629211425781,23.91,0
-0.3578186631202698,-1.063244104385376,0.2470669597387313,-0.0290900412946939,0.5522617697715759,61.99761962890625,23.91,0
-0.3807673156261444,-1.0965641736984253,0.2089333236217498,0.1353824436664581,0.552354633808136,61.99847412109375,23.91,0
-0.3842988908290863,-1.1235448122024536,0.1844613552093505,0.8642995953559875,0.5524142384529114,61.999019622802734,23.91,0
-0.3641741573810577,-1.1632505655288696,0.1687566488981247,1.4467190504074097,0.5524525046348572,61.99937057495117,23.91,0
-0.3232704102993011,-1.1887314319610596,0.1586782783269882,1.437146782875061,0.5506405830383301,61.99959564208984,23.91,0
-0.2858251929283142,-1.1938880681991575,0.1466127783060073,1.0118424892425537,0.5494778156280518,61.99974060058594,23.91,0
-0.2617949843406677,-1.1915994882583618,0.1332720667123794,0.5633604526519775,0.5487316250801086,61.99983215332031,23.91,0
-0.2463737875223159,-1.1845329999923706,0.1247107610106468,0.1107520014047622,0.5482527613639832,61.99989318847656,23.91,0
-0.247672900557518,-1.1632049083709717,0.1080210581421852,-0.5917022228240967,0.5479454398155212,61.99993133544922,23.91,0
-0.2541043758392334,-1.1159310340881348,0.07491946965456,-1.336268186569214,0.5477482080459595,61.99995422363281,23.91,0
-0.2582317292690277,-1.0799956321716309,0.0424812287092208,-1.552559733390808,0.5476216673851013,61.99996948242188,23.91,0
-0.2720759809017181,-1.0625321865081787,0.027262007817626,-1.1969677209854126,0.5475404858589172,61.99998092651367,23.91,0
-0.2865581810474396,-1.0513250827789309,0.0118974121287465,-0.7573972940444946,0.5497837066650391,61.9999885559082,23.91,0
-0.3126453459262848,-1.0161441564559937,-0.0035604741424322,-0.2997600734233856,0.5512232780456543,61.99999237060547,23.91,0
-0.3461799323558807,-0.9655781984329224,-0.0022849072702229,0.5348941087722778,0.5521471500396729,61.999996185302734,23.91,0
-0.3565049469470978,-0.9275301098823548,0.0097292270511388,1.57567036151886,0.5527400374412537,61.999996185302734,23.91,0
-0.3519353866577148,-0.8639286160469055,0.0678191781044006,2.1611812114715576,0.553120493888855,61.999996185302734,23.91,0
-0.3378073573112488,-0.7895261645317078,0.1554779261350631,1.94222092628479,0.553364634513855,61.999996185302734,23.91,0
-0.2559697329998016,-0.724985659122467,0.2341233640909195,1.070859432220459,0.5535213351249695,61.999996185302734,23.91,0
-0.2370377033948898,-0.7731316685676575,0.3181801438331604,-0.025716608390212,0.5536218881607056,61.999996185302734,23.91,0
-0.1689104735851287,-0.8376156687736511,0.433698445558548,-0.7688443064689636,0.5523092746734619,61.999996185302734,23.91,0
-0.058017048984766,-0.8789977431297302,0.5582114458084106,-0.7513454556465149,0.5514668822288513,62.3403434753418,23.91,0
0.0019524170784279,-0.9167499542236328,0.6493122577667236,-0.1418255865573883,0.5509263277053833,62.55875778198242,23.91,0
0.0292418207973241,-0.968966007232666,0.7189710736274719,0.4857791662216186,0.5505794286727905,62.69892501831055,23.91,0
0.013167941942811,-0.9800841808319092,0.7188918590545654,0.6234291791915894,0.5503568053245544,62.788875579833984,23.91,0
-0.0139406695961952,-0.9872191548347472,0.7020477056503296,0.1134748831391334,0.5502139329910278,62.84659957885742,23.91,0
-0.0761196166276931,-0.986200213432312,0.6688470244407654,-0.7189275622367859,0.5501222610473633,62.88364410400391,23.91,0
-0.1384135782718658,-0.9799485206604004,0.6251496076583862,-1.321184515953064,0.55006343126297,62.90741729736328,23.91,0
-0.1559991538524627,-0.9479476809501648,0.5635204911231995,-1.421072244644165,0.5518617033958435,62.92267227172852,23.91,0
-0.150491252541542,-0.9162158370018004,0.5183727145195007,-1.1340820789337158,0.5530157685279846,62.932464599609375,23.91,0
-0.1413588225841522,-0.8902543783187866,0.4782038927078247,-0.638224184513092,0.5537563562393188,62.93874740600586,23.91,0
-0.1522914767265319,-0.8847894072532654,0.4300347566604614,-0.004744479432702,0.5542316436767578,62.942779541015625,23.91,0
-0.1705029755830764,-0.8868800401687622,0.3991225957870483,0.7278006672859192,0.5545366406440735,62.94536590576172,23.91,0
-0.204581156373024,-0.8826239109039307,0.3624916076660156,1.4845120906829834,0.5547323822975159,62.947025299072266,23.91,0
-0.2432439029216766,-0.8686970472335815,0.3221906423568725,2.109846353530884,0.5548579692840576,62.948089599609375,23.91,0
-0.2736532092094421,-0.8877484798431396,0.2851322591304779,2.3535165786743164,0.554938554763794,62.94877243041992,23.91,0
-0.3155592381954193,-0.9671478271484376,0.2557525336742401,2.112224102020264,0.5545313954353333,62.94921112060547,23.91,0
-0.3648432195186615,-1.046090602874756,0.2089094519615173,1.6027015447616575,0.5542700886726379,62.949493408203125,23.91,0
-0.5532085299491882,-1.1079471111297607,0.1004794165492057,1.0786776542663574,0.5541024208068848,62.94967651367188,23.91,0
-0.6013194918632507,-0.968514323234558,-0.0250824876129627,0.5560953617095947,0.5539947748184204,62.94979095458984,23.91,0
-0.5706188082695007,-0.9070232510566713,-0.0888675674796104,-0.0694565251469612,0.5539256930351257,62.94986724853516,23.91,0
-0.438961386680603,-0.9683217406272888,-0.0682256370782852,-0.7897489070892334,0.5538814067840576,62.94991683959961,23.91,0
-0.3488734364509582,-1.0412461757659912,-0.0269899629056453,-1.4024592638015747,0.5538529753684998,62.94994735717773,23.91,0
-0.3414401412010193,-1.1160337924957275,0.0106682684272527,-1.6631063222885132,0.5538347363471985,62.94996643066406,23.91,0
-0.3478654325008392,-1.1864192485809326,0.0348351523280143,-1.536603331565857,0.5547412037849426,62.94997787475586,23.91,0
-0.3351955115795135,-1.23158860206604,0.050344068557024,-1.197475552558899,0.5553229451179504,62.94998550415039,23.91,0
-0.2990758121013641,-1.2269890308380127,0.0770901218056678,-0.8723655343055725,0.5556962490081787,62.949989318847656,23.91,0
-0.264700710773468,-1.1960484981536863,0.1110475212335586,-0.7783710956573486,0.5559358596801758,62.94999313354492,23.91,0
-0.2706296145915985,-1.1538015604019165,0.1328394263982772,-1.0189872980117798,0.5560895800590515,62.94999694824219,23.91,0
-0.319216638803482,-1.1210920810699463,0.1132375672459602,-1.442094087600708,0.5561882853507996,62.94999694824219,23.91,0
-0.361592561006546,-1.0833077430725098,0.0838649049401283,-1.8461748361587524,0.556251585483551,62.94999694824219,23.91,0
-0.3607980906963348,-1.0310710668563845,0.0538196675479412,-2.220133066177368,0.5562922358512878,62.94999694824219,23.91,0
-0.3378971517086029,-0.991950750350952,0.0289405882358551,-2.635664224624634,0.5576954483985901,62.94999694824219,23.91,0
-0.3120051026344299,-0.9948344826698304,0.0241701789200305,-3.042048692703247,0.5585959553718567,62.94999694824219,23.91,0
-0.3065846264362335,-1.0022828578948977,0.0267065782099962,-3.245521545410156,0.5591738224029541,63.39781951904297,23.91,0
-0.3254971802234649,-1.0182583332061768,0.0339320674538612,-3.100240468978882,0.5595446825027466,63.68520736694336,23.91,0
-0.332036405801773,-1.0229127407073977,0.0609600692987442,-2.648749828338623,0.5597826838493347,63.86963272094727,23.91,0
-0.3138417899608612,-1.0035085678100586,0.0671095326542854,-1.9147696495056152,0.5599353909492493,63.98798751831055,23.91,0
-0.2965677678585052,-0.873502790927887,0.0934470072388649,-0.677072286605835,0.56003338098526,64.0639419555664,23.91,0
-0.2630911767482757,-0.7508881688117981,0.1439355313777923,1.1561574935913086,0.560096263885498,64.11268615722656,23.91,0
-0.2136189639568328,-0.7337766289710999,0.1875317096710205,3.188854455947876,0.5592184066772461,64.14396667480469,23.91,0
-0.1874683201313018,-0.8011642694473267,0.215509220957756,4.840832233428955,0.5586550831794739,64.1640396118164,23.91,0
-0.1818818897008896,-0.861203134059906,0.2390613555908203,5.80066442489624,0.5582935810089111,64.17691802978516,23.91,0
-0.1671012938022613,-0.8941348195075989,0.2821646332740783,6.097780227661133,0.5580615997314453,64.18518829345703,23.91,0
-0.1520181894302368,-0.9208662509918212,0.3490102589130401,5.865707874298096,0.5579127073287964,64.19049072265625,23.91,0
-0.1367409378290176,-0.9436187148094176,0.3975057005882263,5.154313087463379,0.5578171610832214,64.19389343261719,23.91,0
-0.1045457869768142,-0.9526221752166748,0.4230295121669769,4.05649995803833,0.5577558279037476,64.19608306884766,23.91,0
-0.0782870203256607,-0.9639978408813475,0.4450069963932037,2.9005818367004395,0.5577164888381958,64.1974868774414,23.91,0
-0.0726312026381492,-0.9657003283500672,0.4870997667312622,1.9868165254592896,0.5599865913391113,64.1983871459961,23.91,0
-0.102588266134262,-0.9332062602043152,0.5085147023200989,1.260694146156311,0.5614433884620667,64.19896697998047,23.91,0
-0.1274107694625854,-0.895560085773468,0.5166597962379456,0.5869212746620178,0.5623782873153687,64.19933319091797,23.91,0
-0.1489381939172744,-0.8658031821250916,0.5274845957756042,0.0578030422329902,0.5629782676696777,64.19956970214844,23.91,0
-0.1683510243892669,-0.8523046970367432,0.5288335680961609,-0.2817545533180237,0.5633633136749268,64.19972229003906,23.91,0
-0.1752112954854965,-0.8716310262680054,0.5017104148864746,-0.5569843053817749,0.5636103749275208,64.19982147216797,23.91,0
-0.1852115839719772,-0.9232179522514344,0.4619132280349731,-0.7049503326416016,0.5637689232826233,64.19988250732422,23.91,0
-0.1972269713878631,-0.9619212746620178,0.4251781404018402,-0.5204654932022095,0.5638706684112549,64.19992065429688,23.91,0
-0.2273288518190384,-1.0315409898757937,0.3792125582695007,-0.2121972143650055,0.5630177855491638,64.199951171875,23.91,0
-0.2522442936897278,-1.0818166732788086,0.3441167175769806,-0.3511305153369903,0.5624704360961914,64.19996643066406,23.91,0
-0.3074179887771606,-1.1308740377426147,0.3383875787258148,-1.0815709829330444,0.56211918592453,64.1999740600586,23.91,0
-0.3372275233268738,-1.0783896446228027,0.3011242747306824,-1.8942527770996092,0.5618937611579895,64.19998168945312,23.91,0
-0.3619553446769714,-1.0391104221343994,0.2436241954565048,-2.2868125438690186,0.5617491006851196,64.19998931884766,23.91,0
-0.3778242468833923,-1.041892170906067,0.2011261731386184,-2.212720394134521,0.5616562962532043,64.19998931884766,23.91,0
-0.3880079984664917,-1.0604705810546875,0.1794511675834655,-1.8606534004211424,0.561596691608429,64.19998931884766,23.91,0
-0.3609566986560821,-1.1171753406524658,0.1767369508743286,-1.4340928792953491,0.5615584850311279,64.19998931884766,23.91,0
-0.3100100755691528,-1.1199785470962524,0.1805928945541381,-1.167515993118286,0.561992883682251,64.19998931884766,23.91,0
-0.2605221271514892,-1.1105819940567017,0.1886651962995529,-1.1433278322219849,0.5622716546058655,64.19998931884766,23.91,0
-0.1839814335107803,-1.0933562517166138,0.2218344062566757,-1.138553023338318,0.5624505281448364,64.19998931884766,23.91,0
-0.1068731471896171,-1.065508484840393,0.2543160319328308,-0.9062039852142334,0.5625653266906738,64.59049224853516,23.91,0
-0.0797805860638618,-1.0140507221221924,0.2639653384685516,-0.5242283344268799,0.5626389980316162,64.84109497070312,23.91,0
-0.1127741038799285,-0.958636999130249,0.2645599246025085,-0.3077589571475982,0.5626863241195679,65.00192260742188,23.91,0
-0.1451430022716522,-0.91747784614563,0.2705392837524414,-0.4876905977725982,0.5627166628837585,65.1051254272461,23.91,0
-0.1491221636533737,-0.879868745803833,0.2799742519855499,-0.929174780845642,0.5627361536026001,65.17135620117188,23.91,0
-0.1404802203178405,-0.8501356244087219,0.2916268408298492,-1.2769802808761597,0.5632079243659973,65.21385955810547,23.91,0
-0.1293365359306335,-0.8254568576812744,0.310300350189209,-1.2995575666427612,0.5635106563568115,65.24113464355469,23.91,0
-0.127782940864563,-0.7872283458709717,0.3110883831977844,-1.0883440971374512,0.5637049674987793,65.2586441040039,23.91,0
-0.1379814743995666,-0.7850865721702576,0.3115940988063812,-0.8954782485961914,0.5638296604156494,65.2698745727539,23.91,0
-0.1557218581438064,-0.8284943103790283,0.3063208758831024,-0.8612724542617798,0.563909649848938,65.27708435058594,23.91,0
-0.1838999390602111,-0.8899375200271606,0.2973390519618988,-0.8536514043807983,0.5639610290527344,65.2817153930664,23.91,0
-0.2243741154670715,-0.9349660277366638,0.3083683550357818,-0.6875447630882263,0.5639939904212952,65.28468322753906,23.91,0
-0.2559458911418915,-0.9806560277938844,0.3490329682826996,-0.412566065788269,0.5640151500701904,65.28659057617188,23.91,0
-0.2594135105609894,-1.0211727619171145,0.3751291632652282,-0.2038573622703552,0.5690779685974121,65.28781127929688,23.91,0
-0.2112588584423065,-1.097554087638855,0.3694851100444793,-0.0269292313605546,0.5723270177841187,65.2885971069336,23.91,0
-0.1523671001195907,-1.146571159362793,0.36026531457901,0.254994124174118,0.5744120478630066,65.28910064697266,23.91,0
-0.1089759841561317,-1.1444408893585205,0.3431530296802521,0.6150450706481934,0.5757501125335693,65.28942108154297,23.91,0
-0.1315100342035293,-1.0982916355133057,0.3097802400588989,0.949999749660492,0.5766088366508484,65.28962707519531,23.91,0
-0.1683621853590011,-1.0574800968170166,0.2659724056720733,1.215110421180725,0.5771598815917969,65.28976440429688,23.91,0
-0.2200006544589996,-1.0200940370559692,0.2042724192142486,1.3530000448226929,0.5775135159492493,65.28984832763672,23.91,0
-0.2587370276451111,-0.979308545589447,0.1590791493654251,1.2981866598129272,0.577740490436554,65.28990173339844,23.91,0
-0.2779980301856994,-0.9195480942726136,0.1244789361953735,1.0337257385253906,0.5751318335533142,65.2899398803711,23.91,0
-0.2903586328029632,-0.8644039630889893,0.1078722849488258,0.6848811507225037,0.5734577775001526,65.28996276855469,23.91,0
-0.2982909381389618,-0.817820131778717,0.0972150936722755,0.5219165682792664,0.572383463382721,65.28997802734375,23.91,0
-0.3145769834518432,-0.7711319327354431,0.0847781524062156,0.6107943058013916,0.571694016456604,65.28998565673828,23.91,0
-0.3306262195110321,-0.7579634785652161,0.0767968371510505,0.6105097532272339,0.5712515711784363,65.28999328613281,23.91,0
-0.3633167743682861,-0.8222838044166565,0.0828704386949539,0.284312754869461,0.5709676146507263,65.28999328613281,23.91,0
-0.4290778934955597,-0.925136387348175,0.1091592237353324,-0.0862376019358635,0.570785403251648,65.28999328613281,23.91,0
-0.48807293176651,-1.0191301107406616,0.13162761926651,-0.1054983884096145,0.5706684589385986,65.28999328613281,23.91,0
-0.5427258610725403,-1.1130365133285522,0.1908287405967712,0.2475638538599014,0.5696755647659302,65.28999328613281,23.91,0
-0.6001900434494019,-1.2236802577972412,0.2624072730541229,0.6747631430625916,0.5690383911132812,65.28999328613281,23.91,0
-0.5027207136154175,-1.1659362316131592,0.3643199801445007,0.7769513726234436,0.5686295032501221,65.28999328613281,23.91,0
-0.3618016242980957,-0.9889350533485411,0.4521127939224243,0.3517170548439026,0.568367063999176,65.28999328613281,23.91,0
-0.2153901308774948,-0.8977369666099548,0.5364420413970947,-0.3725783824920654,0.5681986808776855,65.59451293945312,23.91,0
-0.11023610830307,-0.9623623490333556,0.6073530316352844,-0.9448667764663696,0.5680906176567078,65.7899398803711,23.91,0
-0.121123157441616,-1.0542151927947998,0.630468487739563,-1.1222519874572754,0.5680212378501892,65.91535186767578,23.91,0
-0.2176742255687713,-1.1467477083206177,0.5949227213859558,-1.042628526687622,0.567976713180542,65.99583435058594,23.91,0
-0.1956685334444046,-1.211727499961853,0.4881448745727539,-0.9306269884109496,0.5693252682685852,66.0474853515625,23.91,0
-0.1087754815816879,-1.2366344928741455,0.4700009524822235,-0.8408379554748535,0.5701907277107239,66.08062744140625,23.91,0
0.0141607783734798,-1.1686517000198364,0.5031394362449646,-0.7617210745811462,0.570746123790741,66.10189819335938,23.91,0
0.0426742173731327,-1.0690464973449707,0.5132102370262146,-0.6572098135948181,0.5711025595664978,66.11554718017578,23.91,0
0.0049947598017752,-0.9659412503242492,0.4636953771114349,-0.4575851857662201,0.571331262588501,66.12430572509766,23.91,0
-0.0807612687349319,-0.91656756401062,0.3927351534366607,-0.2291654795408249,0.5714780688285828,66.12992858886719,23.91,0
-0.1357945501804351,-0.8736867904663086,0.3304036557674408,-0.1219871789216995,0.5715722441673279,66.13353729248047,23.91,0
-0.1543184220790863,-0.8125817179679871,0.2792073488235473,-0.0926146507263183,0.5716326832771301,66.13584899902344,23.91,0
-0.1494126468896865,-0.7621724605560303,0.2519502639770508,-0.0164438430219888,0.570753276348114,66.13733673095703,23.91,0
-0.1182755306363105,-0.7354204654693604,0.2680448889732361,0.132750317454338,0.5701889395713806,66.13829040527344,23.91,0
-0.1206846237182617,-0.7238503694534302,0.2839712798595428,0.3037286102771759,0.5698267817497253,66.13890075683594,23.91,0
-0.1334261894226074,-0.7388164401054382,0.288594126701355,0.4242003858089447,0.5695943236351013,66.13929748535156,23.91,0
-0.1416029930114746,-0.8939629197120667,0.3027563691139221,0.4943470656871795,0.5694451928138733,66.1395492553711,23.91,0
-0.1692414879798889,-1.0718958377838137,0.3006493151187897,0.7292396426200867,0.569349467754364,66.13970947265625,23.91,0
-0.2765426635742187,-1.158094048500061,0.3440793454647064,1.2489855289459229,0.5692880153656006,66.13981628417969,23.91,0
-0.2390446811914444,-1.1910200119018557,0.3327658176422119,1.7867352962493896,0.569248616695404,66.13988494873047,23.91,0
-0.1869917660951614,-1.2233456373214722,0.252734363079071,2.1031715869903564,0.572436511516571,66.13992309570312,23.91,0
-0.1535871922969818,-1.2608836889266968,0.1397992670536041,2.3169898986816406,0.5744823217391968,66.13995361328125,23.91,0
-0.1377478390932083,-1.2681801319122314,0.0785195752978324,2.5186924934387207,0.5757952332496643,66.13996887207031,23.91,0
-0.1723652482032776,-1.211287021636963,0.0615848936140537,2.4654221534729004,0.5766377449035645,66.13997650146484,23.91,0
-0.2113740295171737,-1.1411895751953125,0.0507171899080276,1.9332584142684937,0.577178418636322,66.13998413085938,23.91,0
-0.24200539290905,-1.0794117450714111,0.0325473733246326,1.0937683582305908,0.5775254368782043,66.1399917602539,23.91,0
-0.2672606110572815,-0.9949841499328612,-0.0071018398739397,0.2648433446884155,0.5777481198310852,66.1399917602539,23.91,0
-0.2834679782390594,-0.9184122681617736,-0.0381441973149776,-0.4856501519680023,0.5778909921646118,66.1399917602539,23.91,0
-0.2938689291477203,-0.8468817472457886,-0.0468698479235172,-1.2216365337371826,0.57614666223526,66.1399917602539,23.91,0
-0.3061414361000061,-0.7841842770576477,-0.0468716919422149,-1.9232350587844849,0.5750272274017334,66.1399917602539,23.91,0
-0.319614976644516,-0.7439486384391785,-0.0468728765845298,-2.613513231277466,0.5743088126182556,66.1399917602539,23.91,0
-0.3450548648834228,-0.7349210381507874,-0.0244825389236211,-3.375343084335327,0.5738478302955627,66.1399917602539,23.91,0
-0.3837718069553375,-0.7683120369911194,-0.0045159347355365,-4.050535678863525,0.5735519528388977,66.1399917602539,23.91,0
-0.4534003138542175,-0.8960981965065002,0.0418841280043125,-4.336949825286865,0.5733621120452881,66.38719177246094,23.91,0
-0.5092794299125671,-1.0788639783859253,0.1052476689219474,-4.105175018310547,0.5732402801513672,66.54582977294922,23.91,0
-0.5675305128097534,-1.1905547380447388,0.1738996058702469,-3.4011361598968506,0.5731620788574219,66.64763641357422,23.91,0
-0.616108238697052,-1.234242558479309,0.3075208663940429,-2.372529983520508,0.5744889974594116,66.71296691894531,23.91,0
-0.5969026684761047,-1.1391278505325315,0.3932712972164154,-1.228782057762146,0.5753405690193176,66.75489807128906,23.91,0
-0.4670243859291076,-1.0277087688446045,0.4706920683383941,-0.1508631855249405,0.5758870840072632,66.78180694580078,23.91,0
-0.2269383072853088,-1.0457707643508911,0.565158486366272,0.7737506031990051,0.5762377977371216,66.799072265625,23.91,0
-0.1512337177991867,-1.085350751876831,0.6033904552459717,1.517582654953003,0.5764628648757935,66.81015014648438,23.91,0
-0.2146063596010208,-1.1219464540481567,0.5887411236763,2.030756950378418,0.5766072869300842,66.8172607421875,23.91,0
-0.272068589925766,-1.1454315185546875,0.5569489598274231,2.184536457061768,0.57669997215271,66.82182312011719,23.91,0
-0.241771250963211,-1.182893991470337,0.53094881772995,1.9643741846084597,0.5767594575881958,66.82475280761719,23.91,0
-0.0487971678376197,-1.1957396268844604,0.5478500127792358,1.6833661794662476,0.574043333530426,66.82662963867188,23.91,0
0.0526514016091823,-1.1592010259628296,0.5530984997749329,1.7251510620117188,0.5723003149032593,66.82783508300781,23.91,0
0.0225930884480476,-1.0741771459579468,0.5228800177574158,2.092310905456543,0.5711817145347595,66.82861328125,23.91,0
-0.0022943795192986,-1.0084182024002075,0.4866942167282104,2.4497406482696533,0.5704638361930847,66.82910919189453,23.91,0
-0.0686456933617591,-0.9438267946243286,0.4130922853946686,2.4605813026428223,0.5700031518936157,66.82942962646484,23.91,0
-0.1000306010246276,-0.8743869066238403,0.3770543336868286,2.019716262817383,0.5697075128555298,66.82963562011719,23.91,0
-0.0977805256843566,-0.8186287879943848,0.3595250248908996,1.28180730342865,0.5695177912712097,66.82976531982422,23.91,0
-0.0963365584611892,-0.7716509103775024,0.3426779508590698,0.5718098878860474,0.5693960785865784,66.82984924316406,23.91,0
-0.1010076776146888,-0.7526987791061401,0.3318664729595184,0.1949910372495651,0.5716133117675781,66.82990264892578,23.91,0
-0.126396432518959,-0.7461341619491577,0.3249282836914062,0.1896203905344009,0.5730361938476562,66.82994079589844,23.91,0
-0.165080577135086,-0.8146924376487732,0.3260735273361206,0.3402245640754699,0.5739493370056152,66.82996368408203,23.91,0
-0.2011013776063919,-0.9258624911308287,0.3324062526226043,0.5980895161628723,0.5745353102684021,66.8299789428711,23.91,0
-0.2634018659591675,-1.0139983892440796,0.3812524378299713,1.2221421003341677,0.57491135597229,66.82998657226562,23.91,0
-0.2865894138813019,-1.0481678247451782,0.4181968867778778,2.0955231189727783,0.5751526951789856,66.82999420166016,23.91,0
-0.251089870929718,-1.064497947692871,0.3691346347332001,2.444636821746826,0.5753075480461121,66.82999420166016,23.91,0
-0.1835261285305023,-1.0917710065841677,0.2872693240642547,1.8231900930404663,0.5754069685935974,66.82999420166016,23.91,0
-0.1457653790712356,-1.1092733144760132,0.2291351109743118,0.7616048455238342,0.5768475532531738,66.82999420166016,23.91,0
-0.1607171297073364,-1.0925164222717283,0.1974256932735443,-0.084457978606224,0.5777720212936401,66.82999420166016,23.91,0
-0.1871056258678436,-1.064969539642334,0.1826741844415664,-0.6668207049369812,0.5783652663230896,66.82999420166016,23.91,0
-0.2208335548639297,-0.9969115257263184,0.1620119661092758,-1.122946858406067,0.5787460207939148,66.82999420166016,23.91,0
-0.2424782067537307,-0.9420402646064758,0.1375565975904464,-1.4873138666152954,0.5789903402328491,66.82999420166016,23.91,0
-0.2619662582874298,-0.8788381814956665,0.1106670051813125,-1.943263292312622,0.5791471600532532,66.82999420166016,23.91,0
-0.285668134689331,-0.827083170413971,0.093410812318325,-2.6729395389556885,0.579247772693634,67.07003021240234,23.91,0
-0.3008786141872406,-0.7938697934150696,0.0879345536231994,-3.477966070175171,0.5793123245239258,67.22406768798828,23.91,0
-0.3050420582294464,-0.7837508916854858,0.1068113073706626,-3.937264442443848,0.5775176882743835,67.32292175292969,23.91,0
-0.3077139258384704,-0.7772571444511414,0.1301208734512329,-3.927496671676636,0.5763660073280334,67.38636016845703,23.91,0
-0.3206241130828857,-0.778687596321106,0.161872923374176,-3.781507968902588,0.5756269097328186,67.42707061767578,23.91,0
-0.3624957799911499,-0.8467788696289062,0.2214339822530746,-3.82754135131836,0.575152575969696,67.45320129394531,23.91,0
-0.4285510182380676,-0.9408559203147888,0.2932434976100921,-3.907238960266113,0.5748481750488281,67.469970703125,23.91,0
-0.49333256483078,-1.090793490409851,0.3953044414520263,-3.499814510345459,0.5746528506278992,67.48072814941406,23.91,0
-0.5069167613983154,-1.19821035861969,0.4775946140289306,-2.321213483810425,0.5745275020599365,67.48763275146484,23.91,0
-0.4820476770401001,-1.2447532415390017,0.5919792056083679,-0.7050371766090393,0.5744470357894897,67.4920654296875,23.91,0
-0.3765237331390381,-1.1514707803726196,0.6373957991600037,0.7333801984786987,0.5739365220069885,67.49491119384766,23.91,0
-0.3032067716121673,-1.0412274599075315,0.6273571252822876,1.6600563526153564,0.5736088752746582,67.49673461914062,23.91,0
-0.2841450572013855,-0.920099675655365,0.5593394041061401,2.0899453163146973,0.5733986496925354,67.4979019165039,23.91,0
-0.3166945278644562,-0.8591601848602295,0.4988961815834045,2.107877731323242,0.5732637047767639,67.4986572265625,23.91,0
-0.3767673373222351,-0.8816282153129578,0.4489116668701172,1.900848627090454,0.5731770992279053,67.49913787841797,23.91,0
-0.3817319571971893,-0.9296335577964784,0.4056389331817627,1.6784249544143677,0.5731215476989746,67.49944305419922,23.91,0
-0.3625268638134002,-0.9604406356811525,0.3666734397411346,1.4676172733306885,0.5730859041213989,67.49964141845703,23.91,0
-0.2998221516609192,-1.0137975215911863,0.3416676223278045,1.3538284301757812,0.5730630159378052,67.49977111816406,23.91,0
-0.2427885681390762,-1.05363667011261,0.3256203234195709,1.606819748878479,0.568916916847229,67.4998550415039,23.91,0
-0.2117854654788971,-1.0736052989959717,0.2985287606716156,2.1596758365631104,0.5662561655044556,67.49990844726562,23.91,0
-0.2198783308267593,-1.0864200592041016,0.2587518692016601,2.5073018074035645,0.564548671245575,67.49993896484375,23.91,0
-0.2306696474552154,-1.1002416610717771,0.2276275753974914,2.296896457672119,0.5634528994560242,67.49996185302734,23.91,0
-0.2543882131576538,-1.0979160070419312,0.1852626949548721,1.703300714492798,0.5627496838569641,67.4999771118164,23.91,0
-0.2808049619197845,-1.0964235067367554,0.1524775773286819,1.1396538019180298,0.5622984170913696,67.49998474121094,23.91,0
-0.2977577149868011,-1.112259030342102,0.1258402019739151,0.7886853814125061,0.562008798122406,67.49999237060547,23.91,0
-0.2974414825439453,-1.1056280136108398,0.1087458729743957,0.5097154378890991,0.5618229508399963,67.49999237060547,23.91,0
-0.2916407585144043,-1.0789815187454224,0.097775712609291,0.26261967420578,0.5635397434234619,67.49999237060547,23.91,0
-0.276722639799118,-1.0506857633590698,0.1131267920136451,0.3082546293735504,0.5646414756774902,67.49999237060547,23.91,0
-0.2503557205200195,-0.9877449870109558,0.1229782328009605,0.8140230774879456,0.5653485059738159,67.49999237060547,23.91,0
-0.272619366645813,-0.9361577033996582,0.1181047707796096,1.593583345413208,0.5658022165298462,67.49999237060547,23.91,0
-0.2701135873794555,-0.8190852999687195,0.1709550023078918,2.240745782852173,0.566093385219574,67.49999237060547,23.91,0
-0.2573099732398987,-0.7103683352470398,0.2216645628213882,2.2548089027404785,0.5662802457809448,67.49999237060547,23.91,0
-0.2211044728755951,-0.6573933959007263,0.2710003554821014,1.4685020446777344,0.5664001703262329,67.49999237060547,23.91,0
-0.1922720968723297,-0.6793748736381531,0.319454550743103,0.419344037771225,0.5664771199226379,67.75077056884766,23.91,0
-0.1401824802160263,-0.7494590282440186,0.3617452383041382,-0.2252845764160156,0.5679036378860474,67.91171264648438,23.91,0
-0.106754370033741,-0.8000327944755554,0.4056782722473144,-0.4705890715122223,0.5688191056251526,68.0149917602539,23.91,0
-0.0964976847171783,-0.843683660030365,0.4450675249099731,-0.7498189210891724,0.5694066286087036,68.08126831054688,23.91,0
-0.1123066321015358,-0.8996851444244385,0.4647474884986877,-1.3445913791656494,0.569783627986908,68.1238021850586,23.91,0
-0.1280496716499328,-0.9468192458152772,0.4605836570262909,-2.1955995559692383,0.5700255632400513,68.1511001586914,23.91,0
-0.1325548738241195,-0.9714694023132324,0.4579115509986877,-2.9638473987579346,0.5701808333396912,68.16861724853516,23.91,0
-0.1466416120529174,-0.9704951643943788,0.489783376455307,-3.360135078430176,0.5702804923057556,68.17986297607422,23.91,0
-0.1500838845968246,-0.9586743712425232,0.515834629535675,-3.4639813899993896,0.5703444480895996,68.18707275390625,23.91,0
-0.1578907221555709,-0.928697407245636,0.5269550681114197,-3.491215705871582,0.5708447694778442,68.19170379638672,23.91,0
-0.1684984713792801,-0.91505765914917,0.5340915322303772,-3.451371908187866,0.5711658596992493,68.19467163085938,23.91,0
-0.1920992285013198,-0.9230977892875672,0.5442690849304199,-3.239508390426636,0.5713719129562378,68.19657897949219,23.91,0
-0.2352337092161178,-0.9506486058235168,0.5508004426956177,-2.7166285514831543,0.5715041160583496,68.19779968261719,23.91,0
-0.2629149556159973,-0.9739269018173218,0.5437963604927063,-1.600072741508484,0.5715889930725098,68.1985855102539,23.91,0
-0.2694836258888244,-0.9720722436904908,0.4945193231105804,0.295135885477066,0.5716434717178345,68.19908905029297,23.91,0
-0.2681012451648712,-1.0044686794281006,0.4572983980178833,2.586144208908081,0.5716784000396729,68.19941711425781,23.91,0
-0.2896052002906799,-1.1148232221603394,0.4502054750919342,4.400309085845947,0.5717008113861084,68.19962310791016,23.91,0
-0.3257963061332702,-1.1072735786437988,0.4064692258834839,5.037896633148193,0.5698787569999695,68.19976043701172,23.91,0
-0.3602172136306762,-1.0632442235946655,0.3448151648044586,4.533506870269775,0.5687094926834106,68.19984436035156,23.91,0
-0.3879043459892273,-1.0797709226608276,0.2940535843372345,3.439564943313598,0.5679591298103333,68.19989776611328,23.91,0
-0.4000746011734009,-1.129561185836792,0.2614777386188507,2.268218517303467,0.5674775838851929,68.19993591308594,23.91,0
-0.3966892063617706,-1.178307056427002,0.2125835567712783,1.280065894126892,0.5671685338020325,68.19995880126953,23.91,0
-0.3721255660057068,-1.1760027408599854,0.1420216709375381,0.5706923604011536,0.5669702291488647,68.1999740600586,23.91,0
-0.3451664745807647,-1.1913173198699951,0.0911413356661796,0.1082920730113983,0.5668429732322693,68.19998168945312,23.91,0
-0.2662901580333709,-1.229134202003479,0.0752825886011123,-0.2135278582572937,0.566761314868927,68.19998931884766,23.91,0
-0.2100741118192672,-1.2366095781326294,0.0595075823366642,-0.4343836605548858,0.5699224472045898,68.19998931884766,23.91,0
-0.2075845450162887,-1.213417887687683,0.0493840910494327,-0.536707878112793,0.5719510912895203,68.19998931884766,23.91,0
-0.2227801978588104,-1.1985348463058472,0.0428874157369136,-0.5522176027297974,0.5732529759407043,68.19998931884766,23.91,0
-0.243727445602417,-1.2001793384552002,0.0387182235717773,-0.590831458568573,0.574088454246521,68.19998931884766,23.91,0
-0.2459746301174163,-1.2124302387237549,0.0416404493153095,-0.7410017251968384,0.5746245980262756,68.19998931884766,23.91,0
-0.2418189793825149,-1.1923032999038696,0.0323202162981033,-1.0021709203720093,0.574968695640564,68.19998931884766,23.91,0
-0.2503476738929748,-1.1569958925247192,0.0151434801518917,-1.2665038108825684,0.575189471244812,68.19998931884766,23.91,0
-0.2614186704158783,-1.167924165725708,0.0153159881010651,-1.3644858598709106,0.5753311514854431,68.19998931884766,23.91,0
-0.2685233950614929,-1.1413507461547852,0.0210244692862033,-1.2625666856765747,0.574044942855835,68.45793914794922,23.91,0
-0.2842783331871032,-1.0851130485534668,0.035883393138647,-1.1792478561401367,0.5732195377349854,68.62347412109375,23.91,0
-0.2831934094429016,-1.0658161640167236,0.0566145442426204,-1.294159770011902,0.5726898312568665,68.72970581054688,23.91,0
-0.2601060569286346,-1.019845962524414,0.0979074761271476,-1.4538854360580444,0.5723499059677124,68.79788208007812,23.91,0
-0.2452899366617202,-0.8615961074829102,0.1859824210405349,-1.4202502965927124,0.5721317529678345,68.84162902832031,23.91,0
-0.1965973824262619,-0.7208560109138489,0.2592971622943878,-1.1693803071975708,0.5719917416572571,68.86970520019531,23.91,0
-0.1429582089185714,-0.697710394859314,0.3119441270828247,-0.8328402042388916,0.5719019174575806,68.88772583007812,23.91,0
-0.1253290027379989,-0.7276390790939331,0.3569254577159881,-0.5201386213302612,0.5718442797660828,68.89928436279297,23.91,0
-0.0916244909167289,-0.8252144455909729,0.4025852084159851,-0.2478132098913192,0.5713480114936829,68.90670776367188,23.91,0
-0.0755926445126533,-0.9158215522766112,0.4374848008155823,0.0702525898814201,0.571029543876648,68.91146850585938,23.91,0
-0.0820976570248603,-0.9851635098457336,0.4710769057273865,0.4427499771118164,0.5708251595497131,68.9145278930664,23.91,0
-0.0974677428603172,-1.0352610349655151,0.4926343858242035,0.710457980632782,0.5706939697265625,68.91648864746094,23.91,0
-0.1073313802480697,-1.073008418083191,0.4784798622131347,0.7926931381225586,0.5706098079681396,68.9177474975586,23.91,0
-0.108063519001007,-1.091634750366211,0.4414074122905731,0.8311366438865662,0.5705558061599731,68.9185562133789,23.91,0
-0.1029355898499488,-1.0532081127166748,0.4064209163188934,0.923876404762268,0.5705211162567139,68.91907501220703,23.91,0
-0.1052425578236579,-1.0285481214523315,0.4007619023323059,1.012052059173584,0.5704988837242126,68.91940307617188,23.91,0
-0.140309676527977,-0.9623427987098694,0.4083258211612701,1.0328123569488523,0.5736978054046631,68.91961669921875,23.91,0
-0.1964003890752792,-0.8974649310112,0.3963865935802459,1.0533002614974976,0.5757507085800171,68.91975402832031,23.91,0
-0.2827761471271515,-0.8502323031425476,0.3719313740730285,1.0843610763549805,0.5770681500434875,68.91983795166016,23.91,0
-0.3550004661083221,-0.8479099869728088,0.3730307221412658,1.0505554676055908,0.5779135823249817,68.9198989868164,23.91,0
-0.4125454127788543,-0.8688107132911682,0.3681384623050689,1.0718519687652588,0.5784561634063721,68.91993713378906,23.91,0
-0.4662677645683288,-0.9549946784973145,0.3258144557476043,1.393620252609253,0.5788043141365051,68.91996002197266,23.91,0
-0.4615592658519745,-1.0103025436401367,0.3042511343955993,1.8831361532211304,0.5790277719497681,68.91997528076172,23.91,0
-0.3801687955856323,-1.0905781984329224,0.3128041326999664,1.9894899129867556,0.5791711807250977,68.91998291015625,23.91,0
-0.3223392963409424,-1.1253011226654053,0.3182929456233978,1.477364420890808,0.5792632102966309,68.91999053955078,23.91,0
-0.3020209670066833,-1.1307910680770874,0.3106198012828827,0.7725412249565125,0.5793222784996033,68.91999053955078,23.91,0
-0.3337640464305877,-1.0391520261764526,0.2665112018585205,0.3453043103218078,0.5793601870536804,68.91999053955078,23.91,0
-0.3709282279014587,-0.9467566609382628,0.2214115113019943,0.1141191571950912,0.5793845057487488,68.91999053955078,23.91,0
-0.4171691536903381,-0.8986582159996033,0.1812735795974731,-0.1990406364202499,0.5794001221656799,68.91999053955078,23.91,0
-0.4580394923686981,-0.9013780355453492,0.1555153727531433,-0.5361464619636536,0.5794101357460022,68.91999053955078,23.91,0
-0.4786699414253235,-0.9255145788192748,0.1333874613046646,-0.7453163862228394,0.5794165134429932,68.91999053955078,23.91,0
-0.4639205038547516,-0.9969817399978638,0.1303825825452804,-0.9512011408805848,0.5794206261634827,68.91999053955078,23.91,0
-0.443259596824646,-1.048443078994751,0.1284542381763458,-1.233794331550598,0.5808007717132568,68.91999053955078,23.91,0
-0.3964139819145202,-1.0646746158599854,0.1216189563274383,-1.4008160829544067,0.5816864371299744,69.16002655029297,23.91,0
-0.3383622765541076,-1.0415045022964478,0.1116346940398216,-1.3503676652908323,0.5822548270225525,69.3140640258789,23.91,0
-0.2899124920368194,-1.021037459373474,0.1108251437544822,-1.2785844802856443,0.5826196074485779,69.41291809082031,23.91,0
-0.2476246654987335,-1.0302939414978027,0.1326967179775238,-1.4367249011993408,0.5828536748886108,69.47635650634766,23.91,0
-0.2092912197113037,-1.058625340461731,0.1467326283454895,-1.756747484207153,0.5830038785934448,69.5170669555664,23.91,0
-0.1902887970209121,-1.093600153923035,0.1445445269346237,-1.9155460596084597,0.5831003189086914,69.54319763183594,23.91,0
-0.2060830146074295,-1.1552293300628662,0.1319447755813598,-1.838325023651123,0.5831621885299683,69.55996704101562,23.91,0
-0.2106210589408874,-1.2059749364852903,0.1126634329557418,-1.813847064971924,0.5822836756706238,69.57072448730469,23.91,0
-0.235924407839775,-1.1433783769607544,0.0778986811637878,-1.8232165575027464,0.5817198753356934,69.57762908935547,23.91,0
-0.2745537459850311,-1.075218677520752,0.0611864365637302,-1.427980899810791,0.5813580751419067,69.58206176757812,23.91,0
-0.2321705371141433,-0.9699021577835084,0.0672548040747642,-0.5545558333396912,0.5811259150505066,69.58490753173828,23.91,0
-0.1881781071424484,-0.8295450210571289,0.0879424586892128,0.3319724798202514,0.5809769034385681,69.58673095703125,23.91,0
-0.1879351735115051,-0.7338741421699524,0.1292074769735336,0.9868772029876708,0.5808812975883484,69.58789825439453,23.91,0
-0.1653881669044494,-0.6612825393676758,0.1948734074831009,1.5827035903930664,0.5808199048042297,69.58865356445312,23.91,0
-0.1677121222019195,-0.6370884776115417,0.2482095658779144,2.1943554878234863,0.5807805061340332,69.5891342163086,23.91,0
-0.1859968304634094,-0.7447131872177124,0.3160243034362793,2.683608055114746,0.5821323990821838,69.58943939208984,23.91,0
-0.1697420328855514,-0.8921493887901306,0.359543889760971,3.069233655929565,0.5829999446868896,69.58963775634766,23.91,0
-0.1257239878177642,-0.986765444278717,0.3762767016887665,3.503000020980835,0.5835567116737366,69.58976745605469,23.91,0
-0.0470957718789577,-1.041886806488037,0.3982104063034057,3.888843297958374,0.5839139819145203,69.58985137939453,23.91,0
-0.0078322561457753,-1.0436738729476929,0.417883962392807,3.9215009212493896,0.5841432809829712,69.58990478515625,23.91,0
0.0173648074269294,-1.0112340450286863,0.4529004395008087,3.4373154640197754,0.5842904448509216,69.58993530273438,23.91,0
0.0167415086179971,-0.9624271392822266,0.4865675270557403,2.513972759246826,0.5843848586082458,69.58995819091797,23.91,0
-0.006049585994333,-0.9087145924568176,0.5081731081008911,1.362542748451233,0.5844454765319824,69.58997344970703,23.91,0
-0.071055568754673,-0.8518539071083069,0.5052450299263,0.2080424278974533,0.5849432945251465,69.58998107910156,23.91,0
-0.1295659989118576,-0.8097661733627319,0.4921704232692718,-0.8445335030555725,0.5852627754211426,69.5899887084961,23.91,0
-0.1671146154403686,-0.7995500564575195,0.4557909965515136,-1.760048747062683,0.5854677557945251,69.5899887084961,23.91,0
-0.1968089342117309,-0.8377761244773865,0.4268470108509063,-2.472963809967041,0.5855993032455444,69.5899887084961,23.91,0
-0.2270605862140655,-0.8902962803840637,0.4026746451854706,-3.023618698120117,0.5856837630271912,69.5899887084961,23.91,0
-0.2744632363319397,-0.9631851315498352,0.3815644383430481,-3.448648691177368,0.585737943649292,69.5899887084961,23.91,0
-0.3160790801048279,-1.0267542600631714,0.3680171370506286,-3.4491329193115234,0.585772693157196,69.5899887084961,23.91,0
-0.3315901756286621,-1.129124879837036,0.387312114238739,-2.772336721420288,0.585794985294342,69.5899887084961,23.91,0
-0.3303487598896026,-1.1892225742340088,0.3996945321559906,-1.8077867031097408,0.5858092904090881,69.5899887084961,23.91,0
-0.3183565437793731,-1.1662143468856812,0.3852497637271881,-1.0992296934127808,0.5858184695243835,69.5899887084961,23.91,0
-0.2994650602340698,-1.1066668033599854,0.3367955088615417,-0.6839269399642944,0.5858243703842163,69.82644653320312,23.91,0
-0.2873415946960449,-1.090843677520752,0.3001025915145874,-0.442487508058548,0.5858281850814819,69.97818756103516,23.91,0
-0.2459748089313507,-1.1422648429870603,0.3269351422786712,-0.4702569246292114,0.5858306288719177,70.07556915283203,23.91,0
-0.1522547006607055,-1.1696661710739136,0.3273614048957824,-0.6672065258026123,0.5858321785926819,70.1380615234375,23.91,0
-0.1089038550853729,-1.15926194190979,0.3220371901988983,-0.6717898845672607,0.5858331918716431,70.17816162109375,23.91,0
-0.0474971272051334,-1.096607327461243,0.3522070646286011,-0.4848546981811523,0.5858338475227356,70.20389556884766,23.91,0
-0.0304809231311082,-1.0116170644760132,0.3603728115558624,-0.5046109557151794,0.5849164128303528,70.22041320800781,23.89,0
-0.0419519990682601,-0.9234885573387146,0.3544175624847412,-0.7895650863647461,0.5843276381492615,70.23101043701172,23.89,0
-0.0884978994727134,-0.8445416688919067,0.3338024914264679,-0.8971982002258301,0.5839498043060303,70.2378158569336,23.89,0
-0.1295639276504516,-0.7826825380325317,0.3149751722812652,-0.5901004672050476,0.583707332611084,70.24217987060547,23.89,0
-0.1447221934795379,-0.7317893505096436,0.3028928637504577,-0.0705910250544548,0.5835517048835754,70.24497985839844,23.89,0
-0.137656569480896,-0.699129045009613,0.3007369041442871,0.5207456946372986,0.5834518671035767,70.24678039550781,23.89,0
-0.1275244802236557,-0.6949628591537476,0.3105489015579223,1.1581770181655884,0.5833877921104431,70.24793243408203,23.89,0
-0.1434133946895599,-0.7202780842781067,0.3112478852272033,1.5529134273529053,0.5833466649055481,70.24867248535156,23.89,0
-0.16480553150177,-0.7365239858627319,0.3060986995697021,1.4515575170516968,0.5879106521606445,70.2491455078125,23.89,0
-0.2009248733520507,-0.7861340641975403,0.3027942478656769,1.0175079107284546,0.5908395648002625,70.24945068359375,23.89,0
-0.2297019511461258,-0.8515576124191284,0.300673633813858,0.4057803153991699,0.5927191376686096,70.24964904785156,23.89,0
-0.264962762594223,-1.0166937112808228,0.2937149703502655,-0.4381958246231079,0.5939253568649292,70.24977111816406,23.89,0
-0.3267755210399627,-1.1282663345336914,0.3004448413848877,-1.269999623298645,0.5946994423866272,70.2498550415039,23.89,0
-0.377638965845108,-1.1606827974319458,0.3103614747524261,-1.6246747970581057,0.5951961874961853,70.24990844726562,23.89,0
-0.3654979765415191,-1.147899150848389,0.2719432115554809,-1.3722196817398071,0.5955149531364441,70.24993896484375,23.89,0
-0.3409132659435272,-1.1676841974258425,0.2248974740505218,-0.7193956971168518,0.5957195162773132,70.24996185302734,23.89,0
-0.2691584825515747,-1.180381178855896,0.1779129058122635,0.0613892823457717,0.5958508253097534,70.2499771118164,23.89,0
-0.2455014884471893,-1.1213560104370115,0.1421631276607513,0.6520165205001831,0.5959351062774658,70.24998474121094,23.89,0
-0.2471131086349487,-1.0554882287979126,0.1192209869623184,0.912822127342224,0.5959891676902771,70.24999237060547,23.89,0
-0.2649406790733337,-0.9908269643783568,0.0989002659916877,1.058696746826172,0.5960238575935364,70.24999237060547,23.89,0
-0.2819791734218597,-0.9269399642944336,0.0746640488505363,1.2777007818222046,0.5960461497306824,70.24999237060547,23.89,0
-0.298511266708374,-0.8467565774917603,0.0479150898754596,1.446905493736267,0.5960604548454285,70.24999237060547,23.89,0
-0.309120625257492,-0.7897017002105713,0.0363469198346138,1.4086058139801023,0.5960696339607239,70.24999237060547,23.89,0
-0.3159290850162506,-0.7530871629714966,0.0345209091901779,1.204898476600647,0.5960755348205566,70.24999237060547,23.89,0
-0.3314939141273498,-0.7239922881126404,0.0389468558132648,0.8914595246315002,0.5924067497253418,70.24999237060547,23.89,0
-0.3470802903175354,-0.7053208947181702,0.0417871735990047,0.4717752933502197,0.5900523662567139,70.24999237060547,23.89,0
-0.3738760650157928,-0.749316394329071,0.0660010203719139,0.0519779175519943,0.5885414481163025,70.24999237060547,23.89,0
-0.497429758310318,-0.951081156730652,0.1431155949831009,-0.2138412892818451,0.5875718593597412,70.4685287475586,23.89,0
-0.6159038543701172,-1.1421377658843994,0.242983266711235,-0.2590385973453522,0.5869495868682861,70.60877990722656,23.89,0
-0.540793776512146,-1.2143669128417969,0.2958770394325256,-0.0838368237018585,0.5865502953529358,70.69878387451172,23.89,0
-0.5205813050270081,-1.2215349674224854,0.3522123098373413,0.2542998492717743,0.5862940549850464,70.75653839111328,23.89,0
-0.4740234613418579,-1.2093416452407837,0.4779294431209564,0.5536957383155823,0.5861296057701111,70.7936019897461,23.89,0
-0.382569819688797,-1.0727678537368774,0.5306186079978943,0.5487891435623169,0.5906144380569458,70.81739044189453,23.85,0
-0.323880136013031,-0.9739271402359008,0.5308448076248169,0.1085661575198173,0.5934925079345703,70.83265686035156,23.85,0
-0.2414342761039734,-0.9832679629325868,0.5365877747535706,-0.614600419998169,0.5953394770622253,70.84245300292969,23.85,0
-0.2053185850381851,-1.039642333984375,0.5234799385070801,-1.22557270526886,0.5965247750282288,70.84873962402344,23.85,0
-0.1989349424839019,-1.1206023693084717,0.4926769733428955,-1.4027050733566284,0.5972854495048523,70.85277557373047,23.85,0
-0.1332627683877945,-1.189351201057434,0.4841049611568451,-1.1437904834747314,0.5977736115455627,70.85536193847656,23.85,0
-0.0631292760372161,-1.227872371673584,0.4730061590671539,-0.658784806728363,0.5980868935585022,70.85702514648438,23.85,0
-0.0349149629473686,-1.2302019596099854,0.4434924721717834,-0.1146686822175979,0.5982879400253296,70.85809326171875,23.85,0
-0.0280041880905628,-1.22050142288208,0.413356751203537,0.3670690655708313,0.5979580283164978,70.85877990722656,23.85,0
-0.0683514475822448,-1.147102952003479,0.3716262876987457,0.6117342114448547,0.5977463126182556,70.85921478271484,23.85,0
-0.1110373139381408,-1.0496200323104858,0.3224549889564514,0.5179659724235535,0.5976104140281677,70.8594970703125,23.85,0
-0.1104417741298675,-0.9422788619995116,0.2797041237354278,0.2320886105298996,0.5975232124328613,70.85968017578125,23.85,0
-0.0988640487194061,-0.8174157738685608,0.2410735189914703,-0.0337702482938766,0.5974672436714172,70.85979461669922,23.85,0
-0.0858363509178161,-0.7260902523994446,0.2274781763553619,-0.121983915567398,0.5974313020706177,70.85987091064453,23.85,0
-0.08867147564888,-0.6562872529029846,0.2355467826128006,0.0757685080170631,0.5974082350730896,70.85991668701172,23.85,0
-0.1296753138303756,-0.6226872801780701,0.2351269870996475,0.4642026424407959,0.5973934531211853,70.85994720458984,23.85,0
-0.1671847701072693,-0.6123203039169312,0.2348575890064239,0.7994590997695923,0.6005972027778625,70.85997009277344,23.85,0
-0.224842831492424,-0.7624050378799438,0.2402824759483337,1.0755112171173096,0.6026531457901001,70.85997772216797,23.85,0
-0.2730399966239929,-0.9594807028770448,0.2381660789251327,1.474785327911377,0.6039725542068481,70.8599853515625,23.85,0
-0.3375568091869354,-1.0803548097610474,0.2815901041030884,1.877901911735535,0.6048192977905273,70.85999298095703,23.85,0
-0.3229822516441345,-1.124338150024414,0.3150548934936523,1.9503051042556765,0.6053626537322998,70.85999298095703,23.85,0
-0.2856402695178985,-1.1525641679763794,0.2917484939098358,1.6062685251235962,0.6057113409042358,70.85999298095703,23.85,0
-0.2448830008506775,-1.1930691003799438,0.2040207087993621,1.0057326555252075,0.6059351563453674,70.85999298095703,23.85,0
-0.2131295651197433,-1.2358561754226685,0.1365265250205993,0.3516501188278198,0.6060787439346313,70.85999298095703,23.85,0
-0.2263386845588684,-1.2185322046279907,0.0988104119896888,-0.1433364748954773,0.6034166216850281,70.85999298095703,23.85,0
-0.2628043889999389,-1.1626324653625488,0.0746063813567161,-0.4072517454624176,0.6017082333564758,70.85999298095703,23.85,0
-0.291803777217865,-1.1099659204483032,0.0534758567810058,-0.5945302248001099,0.6006118655204773,70.85999298095703,23.85,0
-0.3440005481243133,-1.020189881324768,0.0511110499501228,-0.9547473788261414,0.5999082922935486,70.85999298095703,23.85,0
-0.3607041239738464,-0.9401856660842896,0.0551912263035774,-1.6014927625656128,0.599456787109375,70.9925537109375,23.85,0
-0.3602279424667358,-0.8720502257347107,0.0466140992939472,-2.4142024517059326,0.5991670489311218,71.07762145996094,23.85,0
-0.382313460111618,-0.8115314841270447,0.0746964439749717,-3.079056024551392,0.5989810824394226,71.13220977783203,23.85,0
-0.3852911293506622,-0.7726940512657166,0.1095113977789878,-3.3230092525482178,0.5988617539405823,71.16724395751953,23.85,0
-0.4039953649044037,-0.7421726584434509,0.1598425060510635,-3.2287840843200684,0.596490204334259,71.18972778320312,23.87,0
-0.427194207906723,-0.7225857377052307,0.220130980014801,-3.057255983352661,0.5949682593345642,71.20415496826172,23.87,0
-0.4252885580062866,-0.754798173904419,0.298005074262619,-2.8397018909454346,0.5939915776252747,71.21341705322266,23.87,0
-0.4240656197071075,-0.8538391590118408,0.3479801714420318,-2.363326072692871,0.5933647751808167,71.2193603515625,23.87,0
-0.42328080534935,-0.9621801376342772,0.38005131483078,-1.4127519130706787,0.5929625630378723,71.22317504882812,23.87,0
-0.4563637971878052,-1.0876848697662354,0.4286216199398041,0.1394893378019333,0.5927044153213501,71.22562408447266,23.87,0
-0.4831923544406891,-1.1570310592651367,0.4877801239490509,1.98111629486084,0.5925387740135193,71.2271957397461,23.87,0
-0.4500294029712677,-1.1791423559188845,0.5705268383026123,3.195209503173828,0.59243243932724,71.22820281982422,23.87,0
-0.3951606750488281,-1.0925722122192385,0.5956400632858276,3.1431870460510254,0.5946592092514038,71.22885131835938,23.87,0
-0.3487535417079925,-0.9810386896133424,0.5949629545211792,2.242818832397461,0.5960882306098938,71.22926330566406,23.87,0
-0.3021788001060486,-0.9486473202705384,0.560941755771637,1.324669599533081,0.597005307674408,71.22953033447266,23.87,0
-0.2778875827789306,-0.9670448303222656,0.5279133915901184,0.721123993396759,0.5975938439369202,71.22969818115234,23.87,0
-0.2790921926498413,-0.9956445693969728,0.4675332307815552,0.4126198291778564,0.597971498966217,71.22980499267578,23.87,0
-0.2462785989046096,-1.0084004402160645,0.4119914174079895,0.4940804839134216,0.5982138514518738,71.22987365722656,23.87,0
-0.2028296291828155,-1.0221842527389526,0.3763478696346283,0.9511882662773132,0.5983694195747375,71.22991943359375,23.87,0
-0.1525554805994033,-1.0254321098327637,0.3702672123908996,1.4451580047607422,0.5984691977500916,71.22994995117188,23.87,0
-0.1202924251556396,-1.0275163650512695,0.366364985704422,1.5937782526016235,0.5980743169784546,71.22997283935547,23.87,0
-0.1163811758160591,-1.0288540124893188,0.3414696753025055,1.327314019203186,0.5978209376335144,71.22998046875,23.87,0
-0.1362622529268264,-1.0185168981552124,0.2807111144065857,0.7658119201660156,0.5976583361625671,71.22998809814453,23.87,0
-0.1658141165971756,-0.9950897693634032,0.2249264270067215,0.0866229683160781,0.5975539684295654,71.22999572753906,23.87,0
-0.1959743499755859,-0.9632622599601746,0.1723337024450302,-0.4029800295829773,0.5974869728088379,71.22999572753906,23.87,0
-0.2209272235631942,-0.937239408493042,0.1385827213525772,-0.5165548324584961,0.5974439978599548,71.22999572753906,23.87,0
-0.2537338733673095,-0.9317349791526794,0.1281188279390335,-0.4998762011528015,0.5974164009094238,71.22999572753906,23.87,0
-0.2579939663410187,-0.9114092588424684,0.1437948048114776,-0.6253107190132141,0.5973986983299255,71.22999572753906,23.87,0
-0.2495322972536087,-0.892767608165741,0.1594525277614593,-0.6771467328071594,0.5960102081298828,71.22999572753906,23.87,0
-0.2385043054819107,-0.8975977897644043,0.1695007532835006,-0.1551129221916198,0.5951191782951355,71.22999572753906,23.87,0
-0.2314271777868271,-0.9062952995300292,0.1815468966960907,1.0218037366867063,0.5945473313331604,71.22999572753906,23.87,0
-0.2324832528829574,-0.917474627494812,0.1836796402931213,2.1425037384033203,0.5941803455352783,71.22999572753906,23.87,0
-0.2443565279245376,-0.8686711192131042,0.2242327332496643,2.284909725189209,0.5939448475837708,71.22999572753906,23.87,0
-0.2407805770635604,-0.8373518586158752,0.2558551430702209,1.3803417682647705,0.5937937498092651,71.35538482666016,23.87,0
-0.2160946279764175,-0.8900240063667297,0.281746357679367,0.2302124947309494,0.5936967730522156,71.43585205078125,23.87,0
-0.1946548372507095,-0.9686081409454346,0.2983618676662445,-0.5293697118759155,0.5936345458030701,71.48749542236328,23.87,0
-0.1752982437610626,-0.9910500645637512,0.3258180618286133,-0.9415916800498962,0.5958899259567261,71.52063751220703,23.89,0
-0.1684740632772445,-0.983060896396637,0.3490356504917145,-1.252705454826355,0.5973373055458069,71.54190826416016,23.89,0
-0.1976813524961471,-0.9331517219543456,0.3751308917999267,-1.5705854892730713,0.5982661247253418,71.55555725097656,23.89,0
-0.2108271270990371,-0.8955250978469849,0.3750840127468109,-1.9178855419158936,0.5988622307777405,71.56431579589844,23.89,0
-0.2024700045585632,-0.8769762516021729,0.3694561421871185,-2.262570381164551,0.5992447733879089,71.56993865966797,23.89,0
-0.1803135573863983,-0.8482793569564819,0.3714422583580017,-2.498099565505981,0.5994902849197388,71.57354736328125,23.89,0
-0.1772903800010681,-0.8186678290367126,0.3727168440818786,-2.509528160095215,0.5996478199958801,71.57585906982422,23.89,0
-0.2033391445875167,-0.7940670847892761,0.3679370284080505,-2.2875773906707764,0.5997489094734192,71.57734680175781,23.89,0
-0.2536424100399017,-0.778279721736908,0.364869624376297,-1.955265760421753,0.5998137593269348,71.57830047607422,23.89,0
-0.2915219068527221,-0.7905393838882446,0.3629011213779449,-1.6488603353500366,0.5998554229736328,71.57891082763672,23.89,0
-0.2990374565124511,-0.859982430934906,0.3728334009647369,-1.4164012670516968,0.5998821258544922,71.57929992675781,23.89,0
-0.3094582855701446,-0.943731427192688,0.3904029130935669,-1.102423906326294,0.5998992919921875,71.57955169677734,23.89,0
-0.3273413181304931,-1.019867777824402,0.4128735661506653,-0.349214643239975,0.599910318851471,71.5797119140625,23.89,0
-0.3332198560237884,-1.1414988040924072,0.4720761477947235,1.0118826627731323,0.5999173521995544,71.57981872558594,23.89,0
-0.3593834638595581,-1.2307502031326294,0.5044711828231812,2.54455041885376,0.5999218821525574,71.57988739013672,23.89,0
-0.3369893431663513,-1.1928644180297852,0.4748804867267608,3.5352935791015625,0.5999248027801514,71.57992553710938,23.89,0
-0.3058247566223144,-1.118171453475952,0.4279020130634308,3.737603902816773,0.595795214176178,71.5799560546875,23.89,0
-0.2410429269075393,-1.0366512537002563,0.369765043258667,3.405282735824585,0.5931450724601746,71.57997131347656,23.89,0
-0.2218607664108276,-1.0067273378372192,0.321260541677475,2.758526563644409,0.5914443731307983,71.5799789428711,23.89,0
-0.2263440787792205,-0.9987194538116456,0.2957309186458587,1.8705756664276123,0.5903529524803162,71.57998657226562,23.89,0
