acc_x,acc_y,acc_z,bvp,eda,hr,temp,label
0.0,0.0,0.0,0.0,0.0,0.0,25.01,0
-0.0130208320915699,-0.1458333283662796,0.0598958283662796,0.3266666531562805,0.25740647315979,11.749999046325684,25.01,0
-0.0221036579459905,-0.3498475849628448,0.1402439028024673,0.8534146547317505,0.6027078628540039,27.512195587158203,25.01,0
-0.0300041530281305,-0.5223214626312256,0.210132896900177,1.2541860342025757,0.9030606150627136,41.22259140014648,25.01,0
-0.0464443899691104,-0.616121232509613,0.2504442930221557,1.611482858657837,1.122184157371521,51.22506713867188,25.01,0
-0.0411059595644474,-0.6851173639297485,0.2942059636116028,1.5898813009262085,1.2705401182174685,57.997161865234375,25.01,0
-0.0487093329429626,-0.7803664207458496,0.3062606751918793,0.2180915474891662,1.3678829669952393,62.44063186645508,25.01,0
-0.087109662592411,-0.9090065956115724,0.2861712574958801,-2.248631238937378,1.4309271574020386,65.31845092773438,25.01,0
-0.1174362525343895,-0.9695122838020324,0.2564597129821777,-4.463724136352539,1.437614917755127,67.17225646972656,25.01,0
-0.1089552193880081,-0.9524554014205932,0.2485521286725998,-6.209709644317627,1.4419134855270386,68.36377716064453,25.01,0
-0.1035090908408165,-0.9526952505111694,0.2434742301702499,-8.312300682067871,1.444673776626587,69.12892150878906,25.01,0
-0.1000131517648696,-0.9416546821594238,0.2458119094371795,-10.919343948364258,1.4464455842971802,69.62007141113281,25.01,0
-0.0921718627214431,-0.9345687627792358,0.2529098093509674,-13.695966720581056,1.4475828409194946,69.935302734375,25.01,0
-0.0927372351288795,-0.9356188774108888,0.2518673539161682,-16.61358070373535,1.4483126401901243,70.13760375976562,25.01,0
-0.0986978039145469,-0.947488248348236,0.245600625872612,-19.506999969482425,1.4487810134887695,70.2674331665039,25.01,0
-0.0969252213835716,-0.9495076537132264,0.2415789663791656,-22.166337966918945,1.449081540107727,70.35075378417969,25.01,0
-0.0957876741886138,-0.9396080374717712,0.2389981001615524,-25.37047004699707,1.509868621826172,70.40422058105469,25.01,0
-0.1062532067298889,-0.938852846622467,0.2317440658807754,-30.35724449157715,1.5488783121109009,70.43853759765625,25.01,0
-0.1017738357186317,-0.9215748310089112,0.2326866239309311,-37.06839370727539,1.573912501335144,70.46055603027344,25.01,0
-0.1156925559043884,-0.9272801280021667,0.2276937216520309,-43.92959976196289,1.5899780988693235,70.47468566894531,25.01,0
-0.1246247962117195,-0.9309414625167848,0.2244895696640014,-49.772926330566406,1.6002880334854126,70.48375701904297,25.01,0
-0.1359547674655914,-0.944486677646637,0.22243332862854,-55.61505889892578,1.60690438747406,70.48957824707031,25.01,0
-0.1544212400913238,-0.9419836401939392,0.2155159711837768,-63.86033630371094,1.6111503839492798,70.4933090209961,25.01,0
-0.188663050532341,-0.945975124835968,0.1942834854125976,-75.35311889648438,1.613875150680542,70.4957046508789,25.01,0
-0.1826485991477966,-0.8589722514152527,0.2142443507909774,-88.47856140136719,1.6275590658187866,70.49724578857422,25.03,0
-0.1452022343873977,-0.9878653287887572,0.1990652084350586,-101.77401733398438,1.636340618133545,70.49822998046875,25.03,0
-0.1211713105440139,-1.0090060234069824,0.2005196660757064,-115.26097106933594,1.6419761180877686,70.49886322021484,25.03,0
-0.1281407475471496,-0.9889862537384032,0.2014530450105667,-128.93890380859375,1.6455926895141602,70.499267578125,25.03,0
-0.127015545964241,-0.9929320216178894,0.202052041888237,-142.51010131835938,1.6479135751724243,70.49952697753906,25.03,0
-0.1262934654951095,-0.9730730652809144,0.2080342173576355,-154.74813842773438,1.6494029760360718,70.49969482421875,25.03,0
-0.1258300691843032,-0.954730987548828,0.2174710035324096,-159.424072265625,1.65035879611969,70.49980163574219,25.03,0
-0.1311304718255996,-0.9429600834846495,0.2235269844532013,-145.65835571289062,1.6509722471237185,70.49987030029297,25.03,0
-0.1345319598913192,-0.9298084378242492,0.2274133712053299,-106.65186309814452,1.651365876197815,70.49991607666016,25.03,0
-0.136714830994606,-0.921368420124054,0.2243096530437469,-44.54366683959961,1.651618480682373,68.05304718017578,25.03,0
-0.1325179040431976,-0.8823654651641846,0.2167200893163681,32.740966796875,1.651780605316162,66.4827880859375,25.03,0
-0.1410201042890548,-0.8349445462226868,0.1950562298297882,112.85775756835938,1.65188467502594,65.47508239746094,25.03,0
-0.1520740985870361,-0.8213058710098267,0.1699580550193786,180.8988342285156,1.6519514322280884,64.82839965820312,25.03,0
-0.1815590262413025,-0.9189110398292542,0.1314603984355926,228.4507751464844,1.651994228363037,64.41339111328125,25.03,0
-0.2060785293579101,-1.0151350498199463,0.1067548170685768,258.3757629394531,1.6520217657089231,64.14706420898438,25.03,0
-0.2218137234449386,-0.9985172748565674,0.1132912933826446,277.5404663085937,1.6520394086837769,63.97615051269531,25.03,0
-0.2151183485984802,-1.0158418416976929,0.1342793554067611,290.6095275878906,1.653886795043945,63.86647033691406,25.03,0
-0.2164194136857986,-1.032557487487793,0.1589438319206237,301.72283935546875,1.6550723314285278,63.79608154296875,25.03,0
-0.2004610449075698,-0.9985024333000184,0.1971631646156311,314.36474609375,1.655833125114441,63.75091171264648,25.03,0
-0.1790243238210678,-0.959854543209076,0.2272879034280777,325.9920959472656,1.656321406364441,63.721923828125,25.03,0
-0.1708652526140213,-0.9350525140762328,0.241022452712059,326.5968017578125,1.65663480758667,63.70331954956055,25.03,0
-0.1768247783184051,-0.9303315877914428,0.2386409491300583,306.42803955078125,1.656835913658142,63.691383361816406,25.03,0
-0.1806492507457733,-0.9217041730880736,0.2315148711204528,264.3012390136719,1.656964898109436,63.68372344970703,25.03,0
-0.1831035763025283,-0.9273631572723388,0.215746209025383,205.22412109375,1.6570477485656738,63.67880630493164,25.03,0
-0.1902763992547989,-0.9421902894973756,0.1944312453269958,132.12734985351562,1.6557236909866333,63.67565155029297,25.03,0
-0.1892817318439483,-0.9573032855987548,0.1751547455787658,47.10661315917969,1.654873967170715,63.67362594604492,25.03,0
-0.1774478703737259,-0.9614041447639464,0.1571864336729049,-39.0208740234375,1.65432870388031,63.672325134277344,25.03,0
-0.1810491234064102,-0.9640358686447144,0.140057623386383,-108.31114959716795,1.6539788246154783,63.67148971557617,25.03,0
-0.1777624189853668,-0.9881158471107484,0.1346631199121475,-150.6388702392578,1.6537542343139648,63.67095565795898,25.03,0
-0.1588598787784576,-1.0147645473480225,0.1256034523248672,-169.94935607910156,1.653610110282898,63.67061233520508,25.03,0
-0.1299359947443008,-1.0990394353866575,0.0973983854055404,-174.41348266601562,1.6535176038742063,63.67039108276367,25.03,0
-0.1169720888137817,-1.1643177270889282,0.0625046789646148,-168.8771514892578,1.6534582376480105,63.67024993896485,25.03,0
-0.1310437023639679,-1.2062095403671265,0.0401119068264961,-157.6754608154297,1.6557155847549438,63.67015838623047,25.01,0
-0.1400740444660186,-1.2051044702529907,0.0089481892064213,-145.47483825683594,1.657164216041565,63.67010116577149,25.01,0
-0.1178803294897079,-1.18200421333313,-0.0166486650705337,-133.28518676757812,1.658093810081482,63.67006301879883,25.01,0
-0.0252688359469175,-1.0776153802871704,-0.027477478608489,-119.20022583007812,1.658690333366394,63.670040130615234,25.01,0
0.0285661108791828,-0.9994291067123412,-0.0288290120661258,-103.38307189941406,1.6590732336044312,63.67002487182617,25.01,0
0.0575165078043937,-0.9772425293922424,-0.0408918969333171,-88.7077407836914,1.659318923950195,63.670013427734375,25.01,0
0.0816929787397384,-0.9797977805137634,-0.0542309358716011,-76.69975280761719,1.659476637840271,63.67000961303711,25.01,0
0.108403593301773,-0.9702420830726624,-0.0571933910250663,-65.8231430053711,1.6595778465270996,63.67000579833984,25.01,0
0.125544935464859,-0.908132016658783,-0.0367034263908863,-54.42584228515625,1.6582655906677246,63.67000198364258,25.01,0
0.0917630642652511,-0.8514800071716309,-0.0123585984110832,-43.29985046386719,1.657423496246338,63.67000198364258,25.01,0
0.0476927049458026,-0.8151240348815918,0.0088622858747839,-34.1822509765625,1.6568831205368042,62.26563262939453,25.01,0
0.0082153361290693,-0.7917928695678711,0.039273951202631,-27.173925399780277,1.656536340713501,61.36438751220703,25.01,0
-0.0115211941301822,-0.7712224721908569,0.0643881857395172,-21.110801696777344,1.6563137769699097,60.7860221862793,25.01,0
-0.0353825129568576,-0.7636193633079529,0.0861028283834457,-15.5503568649292,1.6561709642410278,60.41485977172852,25.01,0
-0.0618908815085887,-0.7923267483711243,0.1056358069181442,-10.968114852905272,1.6560792922973633,60.17667007446289,25.01,0
-0.0789024233818054,-0.8275428414344788,0.1237687245011329,-7.554595947265625,1.6560204029083252,60.02381134033203,25.01,0
-0.106612779200077,-0.8445447087287903,0.1577964872121811,-4.984242916107178,1.655523419380188,59.92571640014648,25.01,0
-0.1355912387371063,-0.8722488880157471,0.179633542895317,-3.0875403881073,1.65520441532135,59.86276626586914,25.01,0
-0.1765790432691574,-0.9348100423812866,0.1880495399236679,-1.959910273551941,1.6549997329711914,59.82236862182617,25.01,0
-0.174893781542778,-1.019740343093872,0.1878526657819748,-1.4476341009140017,1.6548683643341064,59.79644012451172,25.01,0
-0.1626167297363281,-1.1134281158447266,0.1765307784080505,-1.0078248977661133,1.654784083366394,59.77980422973633,25.01,0
-0.2107157707214355,-1.3078981637954712,0.1356783956289291,-0.2777587175369262,1.654729962348938,59.76912689208984,25.01,0
-0.269571840763092,-1.3935134410858154,0.1262550055980682,0.477361798286438,1.6546952724456787,59.76227569580078,25.01,0
-0.2625600695610046,-1.1853610277175903,0.131403163075447,0.825816810131073,1.6546729803085327,59.75787734985352,25.01,0
-0.1852892637252807,-1.152540683746338,0.0843269899487495,0.7986548542976379,1.6551179885864258,59.75505447387695,25.01,0
-0.1133102104067802,-1.15386962890625,0.037322886288166,0.6952420473098755,1.6554034948349,59.75324249267578,25.01,0
-0.0559226460754871,-1.137929081916809,0.0015605824301019,0.610964834690094,1.6555867195129397,59.752079010009766,25.01,0
-0.0358879342675209,-1.0829172134399414,-0.01019405759871,0.4852290153503418,1.655704379081726,59.75133514404297,25.01,0
-0.0734107792377471,-0.9860382080078124,-0.0065419594757258,0.293479174375534,1.6557798385620115,59.750858306884766,25.01,0
-0.1030885577201843,-0.9462579488754272,-0.0153938019648194,0.0629478991031646,1.6558282375335691,59.75054931640625,25.01,0
-0.1333296000957489,-0.8983381390571594,-0.0266721788793802,-0.0742460787296295,1.655859351158142,59.75035095214844,25.01,0
-0.1415410041809082,-0.8619881868362427,-0.0059211207553744,-0.0082385279238224,1.655879259109497,59.75022506713867,25.01,0
-0.1524083912372589,-0.8274653553962708,0.0185912624001503,0.1272682845592498,1.6549738645553589,59.750144958496094,25.03,0
-0.1761757731437683,-0.8277016878128052,0.0511152222752571,0.128246933221817,1.6543928384780884,59.750091552734375,25.03,0
-0.1970260888338089,-0.8390488624572754,0.0663894563913345,0.0142325637862086,1.6540199518203735,59.75005722045898,25.03,0
-0.2495910376310348,-0.8631241917610168,0.0705938041210174,-0.1055087819695472,1.6537806987762451,59.750038146972656,25.03,0
-0.3057152926921844,-0.900965452194214,0.0788896828889846,-0.1465261280536651,1.6536271572113037,59.7500228881836,25.03,0
-0.3417326211929321,-0.9252497553825378,0.0898112803697586,0.0671838745474815,1.6535285711288452,59.75001525878906,25.03,0
-0.3704442381858825,-0.9576273560523988,0.1080156788229942,0.605579137802124,1.6534652709960938,59.7500114440918,25.03,0
-0.3944674730300903,-1.0063942670822144,0.1141004413366317,1.2376961708068848,1.6534247398376465,59.75000762939453,25.03,0
-0.3930908739566803,-1.0768744945526123,0.1012119650840759,1.646935224533081,1.6533986330032349,59.75000381469727,25.03,0
-0.3698163628578186,-1.1836801767349243,0.0873431116342544,1.640868067741394,1.6533819437026978,59.75000381469727,25.03,0
-0.3604778945446014,-1.218635320663452,0.1008339747786521,1.207065463066101,1.6533712148666382,59.75000381469727,25.03,0
-0.371278315782547,-1.0787320137023926,0.1262849569320678,0.5847486257553101,1.6533643007278442,59.48130798339844,25.03,0
-0.3614161014556885,-1.0169390439987185,0.1146290600299835,0.0814867913722992,1.6533598899841309,59.308876037597656,25.03,0
-0.3159026801586151,-1.0052727460861206,0.101551204919815,-0.2737208604812622,1.6533570289611816,59.198219299316406,25.03,0
-0.2307170331478119,-0.9865904450416564,0.1043541356921196,-0.598402202129364,1.6533552408218384,59.12720489501953,25.03,0
-0.1536586880683899,-0.9298189878463744,0.1117506697773933,-0.8390071988105774,1.6533540487289429,59.081634521484375,25.03,0
-0.1433914899826049,-0.8542019128799438,0.0997040197253227,-0.9002666473388672,1.6547304391860962,59.05238723754883,25.03,0
-0.164791464805603,-0.8336641192436218,0.0751798525452613,-0.8930059671401978,1.6556137800216677,59.03361892700195,25.03,0
-0.1953180730342865,-0.8204841613769531,0.059441652148962,-0.9492502212524414,1.6561806201934814,59.021575927734375,25.03,0
-0.2149082869291305,-0.8008304238319397,0.0549395531415939,-1.0677437782287598,1.6565444469451904,59.01384735107422,25.03,0
-0.2218823879957199,-0.7770222425460815,0.0688436925411224,-1.2226028442382812,1.6567778587341309,59.008888244628906,25.03,0
-0.2263579666614532,-0.7729390859603882,0.1001576632261276,-1.3398953676223757,1.6569277048110962,59.00570297241211,25.03,0
-0.2460234463214874,-0.7871120572090149,0.1426442712545395,-1.2181252241134644,1.657023787498474,59.00365829467773,25.03,0
-0.258643627166748,-0.807403028011322,0.1755075007677078,-0.7996355295181274,1.6570855379104614,59.00234603881836,25.03,0
-0.2499492019414901,-0.8764023780822754,0.2021950036287307,-0.3447789847850799,1.6630926132202148,59.00150680541992,25.03,0
-0.2331740707159042,-0.9486710429191588,0.2193215042352676,-0.0457130856812,1.666947603225708,59.0009651184082,25.03,0
-0.2056154459714889,-1.0790154933929443,0.2247145324945449,0.2895132005214691,1.6694215536117554,59.00061798095703,25.03,0
-0.1767343580722808,-1.2130430936813354,0.2169799208641052,0.9918724298477172,1.671009182929993,59.000396728515625,25.03,0
-0.1805912256240844,-1.3606297969818115,0.1784296482801437,1.9513319730758667,1.6720280647277832,59.0002555847168,25.03,0
-0.2054574489593505,-1.2594202756881714,0.1648858487606048,2.481076002120972,1.6726819276809692,59.00016403198242,25.03,0
-0.2158173769712448,-1.1105031967163086,0.1394008994102478,2.083024740219116,1.673101544380188,59.00010681152344,25.03,0
-0.2168680131435394,-1.0149368047714231,0.0950572490692138,1.1361411809921265,1.6733707189559937,59.00006866455078,25.03,0
-0.2399333417415619,-0.9815967082977296,0.0666000470519065,0.3672699332237243,1.6762977838516235,59.00004577636719,25.01,0
-0.2939197719097137,-0.9098209738731384,0.0371423028409481,0.0064078890718519,1.6781761646270752,59.000030517578125,25.01,0
-0.3173696100711822,-0.8469661474227905,-0.0153486300259828,-0.0675392970442771,1.6793816089630127,59.00001907348633,25.01,0
-0.3212228119373321,-0.829020619392395,-0.0602298378944397,0.0999601930379867,1.6801551580429075,59.0000114440918,25.01,0
-0.3180978000164032,-0.8454930782318115,-0.0946297869086265,0.3256767094135284,1.6806516647338867,59.00000762939453,25.01,0
-0.3104945719242096,-0.8728574514389038,-0.1223034709692001,0.2555740475654602,1.680970311164856,59.00000381469727,25.01,0
-0.2888219356536865,-0.8904183506965637,-0.1456606239080429,-0.197827398777008,1.6811747550964355,59.00000381469727,25.01,0
-0.2637181282043457,-0.9016879200935364,-0.1494543552398681,-0.7109140157699585,1.681306004524231,59.00000381469727,25.01,0
-0.2420101761817932,-0.9089201092720032,-0.1406933963298797,-0.9147933721542358,1.6841444969177246,59.00000381469727,25.01,0
-0.2560681402683258,-0.9135612845420836,-0.1294733434915542,-0.7518602013587952,1.6859660148620603,59.00000381469727,25.01,0
-0.2706875205039978,-0.91653972864151,-0.1222729608416557,-0.4287619590759277,1.6871349811553955,59.00000381469727,25.01,0
-0.291264921426773,-0.9632333517074584,-0.1232499405741691,-0.1497645825147628,1.6878851652145386,59.00000381469727,25.01,0
-0.29887256026268,-0.9820030331611632,-0.095888040959835,0.0113669894635677,1.6883666515350342,58.7026481628418,25.01,0
-0.3037546873092651,-1.0220372676849363,-0.0839265212416648,0.1040242239832878,1.6886756420135498,58.51182174682617,25.01,0
-0.3012899756431579,-1.1764776706695557,-0.0818480849266052,0.2781287133693695,1.6888738870620728,58.38936233520508,25.01,0
-0.3109038174152374,-1.2308064699172974,-0.0413298420608043,0.6585521101951599,1.6890010833740234,58.31077194213867,25.01,0
-0.3338667452335357,-1.0697494745254517,0.023856857791543,1.1391359567642212,1.6936734914779663,58.26033782958984,25.01,0
-0.2926253080368042,-1.033565640449524,0.0097121847793459,1.4296340942382812,1.696671962738037,58.22797393798828,25.01,0
-0.2381700426340103,-1.0495293140411377,-0.0161583758890628,1.333035588264465,1.6985962390899658,58.20720291137695,25.01,0
-0.1472460478544235,-1.0877628326416016,-0.0215650647878646,0.9772731065750122,1.6998311281204224,58.19387435913086,25.01,0
-0.0832984894514083,-1.0507233142852783,-0.0082414429634809,0.6235750317573547,1.7006235122680664,58.18532180786133,25.01,0
-0.1094339191913604,-0.982171356678009,-0.0276799798011779,0.267619252204895,1.70113205909729,58.179832458496094,25.01,0
-0.1821838766336441,-0.9717652797698976,-0.0905344858765602,-0.2366709858179092,1.70145845413208,58.176307678222656,25.01,0
-0.2512617111206054,-0.9650872349739076,-0.1476642191410064,-0.7179287672042847,1.7016679048538208,58.17404556274414,25.01,0
-0.2955918908119201,-0.9440083503723145,-0.1899245679378509,-0.9049647450447084,1.702261209487915,58.1725959777832,25.01,0
-0.307247132062912,-0.941676676273346,-0.2114470452070236,-0.9533421397209167,1.7026419639587402,58.17166519165039,25.01,0
-0.3035312294960022,-0.956973671913147,-0.2084656059741974,-1.1276910305023191,1.7028863430023191,58.17106628417969,25.01,0
-0.3011465966701507,-0.955594837665558,-0.1953567415475845,-1.2825689315795898,1.7030431032180786,58.170684814453125,25.01,0
-0.288420706987381,-0.9379166960716248,-0.1813464611768722,-1.1598410606384275,1.7031437158584597,58.170440673828125,25.01,0
-0.2690584361553192,-0.9097785353660583,-0.1443665921688079,-0.83030104637146,1.703208327293396,58.17028045654297,25.01,0
-0.2566328346729278,-0.9253077507019044,-0.1094394922256469,-0.5722477436065674,1.7032498121261597,58.1701774597168,25.01,0
-0.2542565762996673,-0.9464690685272216,-0.08142751455307,-0.4997909665107727,1.7032763957977295,58.17011260986328,25.01,0
-0.2527316212654114,-0.9824402332305908,-0.0634510368108749,-0.3028241991996765,1.7032934427261353,58.17007064819336,25.01,0
-0.2461552172899246,-1.0335133075714111,-0.0575125478208065,0.4612762033939361,1.703304409980774,58.1700439453125,25.01,0
-0.2531304061412811,-1.1726468801498413,-0.0704948902130127,1.6824772357940674,1.7033114433288574,58.17002868652344,25.01,0
-0.2688022255897522,-1.2731302976608276,-0.0788262113928794,2.598729133605957,1.7033159732818604,58.17001724243164,25.01,0
-0.295652836561203,-1.1025081872940063,-0.095368318259716,2.6099321842193604,1.7033188343048096,58.17000961303711,25.01,0
-0.3240795433521271,-1.138554930686951,-0.1507662832736969,1.8683632612228396,1.7033206224441528,58.17000579833984,25.01,0
-0.3535177409648895,-1.172883152961731,-0.1975130587816238,0.908819317817688,1.7033218145370483,58.17000198364258,25.01,0
-0.3668116927146911,-1.0941531658172607,-0.2499035447835922,0.0959976390004158,1.7033225297927856,58.17000198364258,25.01,0
-0.3529518842697143,-0.9988465905189514,-0.283524751663208,-0.4865283071994781,1.7024048566818235,58.17000198364258,25.01,0
-0.3160685896873474,-0.9096954464912416,-0.2995031177997589,-0.8639425039291382,1.7018159627914429,58.17000198364258,25.01,0
-0.303594559431076,-0.8804722428321838,-0.3097571134567261,-1.041658878326416,1.7014379501342771,58.17000198364258,25.01,0
-0.3011872172355652,-0.861718475818634,-0.3163375556468963,-1.148541808128357,1.7011953592300415,58.17000198364258,25.01,0
-0.3052400946617126,-0.8552811145782471,-0.3093649446964264,-1.346105933189392,1.7010397911071775,58.17000198364258,25.01,0
-0.3078410029411316,-0.8567478060722351,-0.2936947643756866,-1.5337949991226196,1.7009398937225342,57.95504760742188,25.01,0
-0.3095101118087768,-0.8856778740882874,-0.2724429965019226,-1.4607839584350586,1.700875759124756,57.81710052490234,25.01,0
-0.3105812668800354,-0.926634669303894,-0.2252182066440582,-1.1452364921569824,1.7008346319198608,57.72857666015625,25.01,0
-0.3112686574459076,-0.9529183506965636,-0.1837165057659149,-0.8388415575027466,1.7017264366149902,57.6717643737793,25.01,0
-0.2949164807796478,-1.003372311592102,-0.1514853239059448,-0.6816232800483704,1.7022987604141235,57.63530731201172,25.01,0
-0.2788248062133789,-1.0581419467926023,-0.1308012008666992,-0.6129727959632874,1.7026660442352295,57.61191177368164,25.01,0
-0.2573025524616241,-1.0820943117141724,-0.0951362326741218,-0.4112835526466369,1.7029017210006714,57.59689712524414,25.01,0
-0.2322952598333358,-1.10866117477417,-0.0722485035657882,0.2161270529031753,1.703052997589111,57.58726119995117,25.01,0
-0.2274425625801086,-1.1369057893753052,-0.0575604811310768,1.1597318649291992,1.7031500339508057,57.5810775756836,25.01,0
-0.2635128200054168,-1.0766626596450806,-0.0201456807553768,1.74020516872406,1.7032123804092407,57.577110290527344,25.01,0
-0.2922583818435669,-0.976426601409912,0.0038649863563477,1.535924792289734,1.7032523155212402,57.57456207275391,25.01,0
-0.2771190106868744,-0.9009053111076356,-0.0031174488831311,0.964172661304474,1.706491231918335,57.57292938232422,25.01,0
-0.2450123280286789,-0.9420045018196106,-0.0299894716590642,0.5614293217658997,1.7085697650909424,57.57188034057617,25.01,0
-0.2188103199005127,-0.990770697593689,-0.0472343862056732,0.2922240793704986,1.709903597831726,57.57120513916016,25.01,0
-0.2187887132167816,-0.9772838354110718,-0.0527034066617488,-0.0345870852470397,1.7107596397399902,57.57077407836914,25.01,0
-0.2355681657791137,-0.9574332237243652,-0.0674086585640907,-0.2980543076992035,1.7113089561462402,57.57049560546875,25.01,0
-0.2519340217113495,-0.9334986805915833,-0.093638963997364,-0.313081681728363,1.711661458015442,57.57031631469727,25.01,0
-0.2680344581604004,-0.9293344020843506,-0.1104720681905746,-0.1650920510292053,1.7118877172470093,57.5702018737793,25.01,0
-0.2783668041229248,-0.9322597980499268,-0.1156768128275871,-0.0916162729263305,1.712032914161682,57.57012939453125,25.01,0
-0.2793997228145599,-0.9341371655464172,-0.1078213676810264,-0.1483584344387054,1.7153396606445312,57.57008361816406,25.03,0
-0.2744648158550262,-0.940939724445343,-0.0915846452116966,-0.148946538567543,1.7174617052078247,57.57005310058594,25.03,0
-0.265700101852417,-0.9453051686286926,-0.0699693039059639,-0.0310989562422037,1.7188235521316528,57.57003402709961,25.03,0
-0.2376843243837356,-0.9425089359283448,-0.0505000464618206,0.0051205088384449,1.7196974754333496,57.57002258300781,25.03,0
-0.2029120922088623,-0.940714418888092,-0.032408021390438,-0.1507647037506103,1.720258355140686,57.57001495361328,25.03,0
-0.1638039499521255,-0.956356167793274,-0.0263953767716884,-0.3905233144760132,1.7206182479858398,57.570011138916016,25.03,0
-0.1443043649196624,-0.9719918966293336,-0.0225368086248636,-0.6124555468559265,1.7208492755889893,57.57000732421875,25.03,0
-0.1485839784145355,-0.9876238107681274,-0.0256583746522665,-0.6760622262954712,1.7209975719451904,57.57000350952149,25.03,0
-0.1401348412036895,-1.025644302368164,-0.038857165724039,-0.2547290325164795,1.7197154760360718,57.57000350952149,25.03,0
-0.1291148960590362,-1.0892281532287598,-0.0641207173466682,0.6426090598106384,1.7188928127288818,57.57000350952149,25.03,0
-0.1444340199232101,-1.208401441574097,-0.0859311819076538,1.2650425434112549,1.7183648347854614,57.57000350952149,25.03,0
-0.1710582822561264,-1.1673266887664795,-0.0831345617771148,1.119933009147644,1.718026041984558,57.57000350952149,25.03,0
-0.1937419772148132,-0.9394474029541016,-0.0533509775996208,0.8226032257080078,1.7178086042404177,57.57000350952149,25.03,0
-0.2027012854814529,-0.9051631093025208,-0.0678242295980453,1.0366251468658447,1.7176690101623535,57.57000350952149,25.03,0
-0.2140486389398574,-0.9559324383735656,-0.0883078798651695,1.2957797050476074,1.7175794839859009,57.40878677368164,25.03,0
-0.1989396065473556,-0.9717199802398682,-0.0958553329110145,0.8852954506874084,1.7175220251083374,57.30532455444336,25.03,0
-0.1892435103654861,-0.9482648372650146,-0.1006988584995269,0.0522407740354537,1.7179440259933472,57.23892974853516,25.03,0
-0.1886188834905624,-0.9332126975059508,-0.0926116034388542,-0.5361043810844421,1.7182148694992063,57.19632339477539,25.03,0
-0.1882180422544479,-0.9291508793830872,-0.0874216705560684,-0.7560371160507202,1.7183886766433716,57.16897964477539,25.03,0
-0.1935585737228393,-0.920946478843689,-0.0784932971000671,-0.8935947418212891,1.7185002565383911,57.15143203735352,25.03,0
-0.1633991748094558,-0.9100835919380188,-0.0671657994389534,-0.9962015748023988,1.7185717821121216,57.14017105102539,25.03,0
-0.1384468376636505,-0.9031124114990234,-0.0542986914515495,-0.9044154286384584,1.7186176776885986,57.1329460144043,25.03,0
-0.1280316263437271,-0.8930409550666809,-0.0404435507953166,-0.6914616227149963,1.7186472415924072,57.1283073425293,25.03,0
-0.1325432956218719,-0.9033709764480592,-0.0315521173179149,-0.6336167454719543,1.7186661958694458,57.12533187866211,25.03,0
-0.1354386210441589,-0.9211957454681396,-0.0258461069315671,-0.6824770569801331,1.7205144166946411,57.12342071533203,25.03,0
-0.1316989064216613,-0.9718190431594848,-0.0165865439921617,-0.4845479726791382,1.7217004299163818,57.122196197509766,25.03,0
-0.123701199889183,-0.998708426952362,0.0005512589705176,0.0831283256411552,1.7224615812301636,57.12141036987305,25.03,0
-0.1129709556698799,-1.0327577590942385,-0.0052440082654356,0.830765962600708,1.7229499816894531,57.12090301513672,25.03,0
-0.1172804534435272,-1.155368685722351,-0.0369519479572773,1.5720847845077517,1.7232635021209717,57.12057876586914,25.03,0
-0.1424371302127838,-1.2676398754119873,-0.0573002807796001,1.940343141555786,1.7234646081924438,57.1203727722168,25.03,0
-0.2145589888095855,-1.1829514503479004,-0.0143809225410223,1.4637376070022583,1.7235937118530271,57.1202392578125,25.03,0
-0.2552448809146881,-1.0782233476638794,0.0299555733799934,0.2837311923503876,1.7236765623092651,57.12015151977539,25.03,0
-0.1582036912441253,-1.0725903511047363,0.0248215366154909,-0.7529698610305786,1.7232707738876345,57.12009811401367,25.03,0
0.0104294652119278,-1.08017098903656,-0.0120598375797271,-1.0277642011642456,1.7230104207992554,57.12006378173828,25.03,0
0.1074529662728309,-1.068242430686951,-0.0301304068416357,-0.7097159624099731,1.7228432893753052,57.12004089355469,25.03,0
0.1081415489315986,-0.987816333770752,-0.0081404112279415,-0.3658904731273651,1.7227360010147097,57.120025634765625,25.03,0
0.0638012439012527,-0.9138123989105223,0.0115692755207419,-0.3315369784832001,1.722667217254639,57.12001419067383,25.03,0
-0.0150337778031826,-0.8607231378555298,0.0186200439929962,-0.4814545214176178,1.7226231098175049,57.12001037597656,25.03,0
-0.0712233334779739,-0.8042623996734619,0.0231448207050561,-0.5239243507385254,1.7225947380065918,57.1200065612793,25.03,0
-0.0960870087146759,-0.7736269235610962,0.0316463373601436,-0.3863805532455444,1.7225764989852903,57.12000274658203,25.03,0
-0.0952497571706771,-0.7651624083518982,0.0482976697385311,-0.215713620185852,1.7221059799194336,57.12000274658203,25.03,0
-0.1115057840943336,-0.7765237092971802,0.0589835345745086,-0.1921712160110473,1.7218040227890017,57.12000274658203,25.03,0
-0.110742412507534,-0.8118035793304443,0.0882322043180465,-0.3490266799926758,1.721610188484192,57.12000274658203,25.03,0
-0.1382413953542709,-0.8792263865470886,0.1014045476913452,-0.5356693267822266,1.7214858531951904,57.12000274658203,25.03,0
-0.1614864319562912,-0.944885551929474,0.1098577976226806,-0.5837942957878113,1.7214059829711914,57.12000274658203,25.03,0
-0.187599316239357,-0.9982173442840576,0.1040870547294616,-0.5645220875740051,1.7213547229766846,57.12000274658203,25.03,0
-0.1931615024805069,-1.0716270208358765,0.0891881808638572,-0.6345535516738892,1.7213218212127686,57.12000274658203,25.03,0
-0.2079265564680099,-1.2083015441894531,0.0572358407080173,-0.543357789516449,1.721300721168518,57.03760147094727,25.03,0
-0.2733796536922455,-1.2736202478408811,0.0479262173175811,0.1636125147342682,1.7199100255966189,56.98472213745117,25.03,0
-0.3153836727142334,-1.2035826444625854,0.041951835155487,1.2764992713928225,1.7190176248550415,56.95078659057617,25.03,0
-0.2639706134796142,-1.0578765869140625,0.0325200483202934,1.8903738260269165,1.7184449434280396,56.92900848388672,25.03,0
-0.202987790107727,-0.9923596382141112,0.0040761716663837,1.607216477394104,1.7180774211883545,56.91503143310547,25.03,0
-0.1526569724082946,-0.9950968623161316,-0.0421663410961627,0.981262981891632,1.7178415060043335,56.906063079833984,25.03,0
-0.1483464241027832,-1.0136467218399048,-0.0886354520916938,0.4828324913978576,1.717690110206604,56.90030670166016,25.03,0
-0.1623734831809997,-0.98636656999588,-0.1016633287072181,0.0626563802361488,1.71759295463562,56.89661407470703,25.03,0
-0.1713752448558807,-0.95766419172287,-0.1044260933995246,-0.221318781375885,1.717530608177185,56.89424514770508,25.03,0
-0.1771520674228668,-0.9560379981994628,-0.111796848475933,-0.0632129907608032,1.7161134481430054,56.892723083496094,25.03,0
-0.1808592975139618,-0.938201069831848,-0.1053314283490181,0.3750123083591461,1.7152040004730225,56.891746520996094,25.03,0
-0.1720428317785263,-0.898765504360199,-0.0787911936640739,0.4054597914218902,1.7146203517913818,56.89112091064453,25.03,0
-0.1663849353790283,-0.8678602576255798,-0.0505636520683765,-0.2592727243900299,1.7142457962036133,56.89072036743164,25.03,0
-0.168351799249649,-0.8480270504951477,-0.0268510691821575,-1.112186312675476,1.714005470275879,56.89046096801758,25.03,0
-0.1752117872238159,-0.8408969640731812,-0.0116336960345506,-1.5448946952819824,1.7138512134552002,56.89029693603516,25.03,0
-0.1908096820116043,-0.8363212943077087,-0.0074658365920186,-1.439246416091919,1.713752269744873,56.89019012451172,25.03,0
-0.2232106029987335,-0.861373782157898,-0.0047911442816257,-0.9952770471572876,1.7136887311935425,56.89012145996094,25.03,0
-0.2496014237403869,-0.894244372844696,-0.0086724553257226,-0.5348168611526489,1.7122708559036257,56.890079498291016,25.05,0
-0.2609397768974304,-0.932132124900818,-0.0223588068038225,-0.382623016834259,1.7113609313964844,56.89004898071289,25.05,0
-0.268216073513031,-0.9788374304771424,-0.0423374660313129,-0.4246742129325866,1.7107770442962646,56.89002990722656,25.05,0
-0.2728855907917022,-1.1767433881759644,-0.0831474959850311,-0.0719072297215461,1.710402250289917,56.890018463134766,25.05,0
-0.3206644058227539,-1.191792607307434,-0.0477615036070346,0.870993435382843,1.710161805152893,56.89001083374024,25.05,0
-0.3457283079624176,-1.1062880754470823,0.0085338354110717,1.7555336952209473,1.7100074291229248,56.89000701904297,25.05,0
-0.2778462767601013,-1.057013988494873,0.0334653966128826,1.925514817237854,1.709908366203308,56.8900032043457,25.05,0
-0.1839035153388977,-1.0589793920516968,0.0214761644601821,1.4828822612762451,1.7098448276519775,56.8900032043457,25.05,0
-0.0788342729210853,-1.004262924194336,0.0025866173673421,0.8763943910598755,1.7075086832046509,56.8900032043457,25.05,0
-0.067384622991085,-0.9355624318122864,0.0184532646089792,0.2865611612796783,1.7060095071792605,56.8900032043457,25.05,0
-0.0880257710814476,-0.8802788257598877,0.0342333428561687,-0.2280977219343185,1.705047369003296,56.8900032043457,25.05,0
-0.1236631646752357,-0.8336054682731628,0.0387623123824596,-0.5547935962677002,1.7044299840927124,56.8900032043457,25.05,0
-0.1409354209899902,-0.8036531805992126,0.0304731950163841,-0.7644482254981995,1.7040337324142456,56.8900032043457,25.05,0
-0.1352264285087585,-0.784431517124176,0.0363492667675018,-1.0351303815841677,1.7037794589996338,56.8900032043457,25.05,0
-0.1427582800388336,-0.7720961570739746,0.0513157397508621,-1.2769075632095337,1.7036162614822388,56.8900032043457,25.05,0
-0.1643851101398468,-0.7753756046295166,0.066518135368824,-1.2314419746398926,1.7035115957260132,56.8900032043457,25.05,0
-0.2062528431415558,-0.7886757254600525,0.0874697044491767,-0.91207617521286,1.7061986923217771,56.857757568359375,25.05,0
-0.2331211417913437,-0.8251998424530029,0.1065129935741424,-0.5423271059989929,1.7079230546951294,56.83706665039063,25.05,0
-0.2279725670814514,-0.8878233432769775,0.1187338754534721,-0.2226441800594329,1.7090296745300293,56.82378768920898,25.05,0
-0.1966796368360519,-1.0175758600234983,0.104185439646244,0.061326578259468,1.7097398042678833,56.81526565551758,25.05,0
-0.1821954101324081,-1.2239946126937866,0.0668602213263511,0.2829710245132446,1.710195541381836,56.80979537963867,25.05,0
-0.2288780212402343,-1.306082248687744,0.0597003661096096,0.6079210638999939,1.7104880809783936,56.8062858581543,25.05,0
-0.2588362395763397,-1.2300126552581787,0.0551055818796157,1.382502198219299,1.710675835609436,56.80403518676758,25.05,0
-0.2052906155586242,-1.0916311740875244,0.0577546879649162,2.402639865875244,1.7107962369918823,56.80258941650391,25.05,0
-0.1261459290981292,-1.0420103073120115,0.0090747596696019,2.799360036849976,1.7085782289505005,56.80166244506836,25.05,0
-0.0809531956911087,-1.015764236450195,-0.050154086202383,2.1833863258361816,1.7071547508239746,56.80106735229492,25.05,0
-0.1023310720920562,-1.0437031984329224,-0.0937615260481834,1.153973937034607,1.706241250038147,56.80068588256836,25.05,0
-0.132843479514122,-1.0336439609527588,-0.1049529463052749,0.3285578489303589,1.7056550979614258,56.80044174194336,25.05,0
-0.1524245887994766,-1.0047974586486816,-0.089743860065937,-0.240555003285408,1.7052788734436035,56.8002815246582,25.05,0
-0.159392848610878,-0.9806876182556152,-0.0911790877580642,-0.5090493559837341,1.7050374746322632,56.80017852783203,25.05,0
-0.1638646721839904,-0.959617555141449,-0.0865023657679557,-0.3266785740852356,1.7048825025558472,56.80011367797852,25.05,0
-0.1667344272136688,-0.9349004626274108,-0.0667077898979187,-0.0161844138056039,1.7047830820083618,56.800071716308594,25.05,0
-0.1741738468408584,-0.9078428745269777,-0.0428092181682586,-0.0748725906014442,1.703342080116272,56.80004501342773,25.03,0
-0.1957413703203201,-0.8736855983734131,-0.010679168626666,-0.3991413414478302,1.7024173736572266,56.80002975463867,25.03,0
-0.2207777053117752,-0.8461676239967346,0.0099400477483868,-0.6000731587409973,1.7018239498138428,56.80001831054688,25.03,0
-0.2536379098892212,-0.828508198261261,0.0175745002925395,-0.73618483543396,1.701443076133728,56.80001068115234,25.03,0
-0.2971167862415313,-0.8395664691925049,0.0224738512188196,-0.9668365120887756,1.701198697090149,56.80000686645508,25.03,0
-0.3250190317630768,-0.8578585982322693,0.036813523620367,-1.1184380054473877,1.7010418176651,56.80000305175781,25.03,0
-0.331729531288147,-0.8751952052116394,0.0348203480243682,-1.0616763830184937,1.7009412050247192,56.80000305175781,25.03,0
-0.3192426264286041,-0.9087119102478028,0.0167479198426008,-0.9894242882728576,1.7008765935897827,56.80000305175781,25.03,0
-0.2944359183311462,-0.9694054126739502,-0.0116432476788759,-0.9645525217056274,1.700835108757019,56.80000305175781,25.03,0
-0.278516411781311,-1.187483787536621,-0.0746452584862709,-0.636907160282135,1.7008085250854492,56.80000305175781,25.03,0
-0.3074846267700195,-1.2826517820358276,-0.0926852226257324,0.2218029350042343,1.7007914781570437,56.80000305175781,25.03,0
-0.3540636301040649,-1.1478029489517212,-0.042686715722084,1.1884524822235107,1.7007805109024048,56.80000305175781,25.03,0
-0.299988716840744,-1.078058123588562,-0.0217961017042398,1.57592511177063,1.7007734775543213,56.80000305175781,25.03,0
-0.2261021435260772,-1.0780820846557615,-0.025183031335473,1.226292610168457,1.7007689476013184,56.80000305175781,25.03,0
-0.1227082461118698,-1.0333153009414673,-0.027356568723917,0.4358716011047363,1.7007660865783691,56.80000305175781,25.03,0
-0.0563559904694557,-0.9709998965263368,-0.0119580971077084,-0.5048667788505554,1.700764298439026,56.80000305175781,25.03,0
-0.0809482261538505,-0.9030205607414246,0.014717080630362,-1.190977692604065,1.70030415058136,56.80000305175781,25.03,0
-0.113523431122303,-0.8537975549697876,0.0318356715142726,-1.215705394744873,1.7000088691711426,56.83940887451172,25.03,0
-0.1512216478586197,-0.7998179793357849,0.0260280761867761,-0.8088303804397583,1.6998194456100464,56.86470031738281,25.03,0
-0.1642186492681503,-0.7595792412757874,0.0334966443479061,-0.6480334997177124,1.6996978521347046,56.88092803955078,25.03,0
-0.1837549209594726,-0.7393540740013123,0.0438873171806335,-0.888770580291748,1.6996197700500488,56.89134216308594,25.03,0
-0.2130855023860931,-0.7487658262252808,0.0617510005831718,-1.11133074760437,1.6995697021484375,56.89802551269531,25.03,0
-0.2431037276983261,-0.766001284122467,0.0788126587867736,-1.0642805099487305,1.6995376348495483,56.90231704711914,25.03,0
-0.2735632359981537,-0.7994531393051147,0.112152948975563,-0.8728704452514648,1.699517011642456,56.90507125854492,25.03,0
-0.2875126302242279,-0.8936916589736938,0.1447443813085556,-0.6568875312805176,1.6990448236465454,56.906837463378906,25.03,0
-0.2852689921855926,-1.0045485496520996,0.1768552213907241,-0.278249591588974,1.698741793632507,56.9079704284668,25.03,0
-0.2670358419418335,-1.1148744821548462,0.2198532074689865,0.5451156497001648,1.69854736328125,56.90869903564453,25.03,0
-0.2497370690107345,-1.1800775527954102,0.2474468499422073,1.7971843481063845,1.6984225511550903,56.90916442871094,25.03,0
-0.1938535273075103,-1.2443121671676636,0.2595570981502533,2.8192272186279297,1.6983424425125122,56.909461975097656,25.03,0
-0.1747840046882629,-1.2799365520477295,0.2505354285240173,2.8804078102111816,1.6982910633087158,56.9096565246582,25.03,0
-0.1849373877048492,-1.286004900932312,0.2335502803325653,1.988200306892395,1.6982580423355105,56.9097785949707,25.03,0
-0.202648788690567,-1.2059326171875,0.2058568745851516,0.7922648191452026,1.6982369422912598,56.90985870361328,25.03,0
-0.1972216218709945,-1.0929713249206543,0.1768892854452133,-0.1006078720092773,1.6991411447525024,56.90990829467773,25.03,0
-0.1881410032510757,-1.0260770320892334,0.1415062397718429,-0.4335696101188659,1.6997214555740356,56.909942626953125,25.03,0
-0.2103024572134018,-1.044723629951477,0.09640833735466,-0.2889877557754516,1.7000938653945925,56.90996170043945,25.03,0
-0.2133288532495498,-1.0454943180084229,0.050673771649599,-0.0027443538419902,1.7003328800201416,56.90997695922852,25.03,0
-0.1816843748092651,-0.9676201343536376,0.0157261881977319,0.0698903426527977,1.7004863023757937,56.90998458862305,25.03,0
-0.1613767743110656,-0.9120471477508544,-0.0011033858172595,-0.1378597468137741,1.7005846500396729,56.90998840332031,25.03,0
-0.165137842297554,-0.8763836026191711,-0.0119036380201578,-0.4073196649551391,1.7006478309631348,56.90999221801758,25.03,0
-0.1899425834417343,-0.853496789932251,-0.0188346188515424,-0.5121746063232422,1.700688362121582,56.90999603271485,25.03,0
-0.2002630531787872,-0.8388093709945679,-0.0232825223356485,-0.5328909754753113,1.698878288269043,56.90999603271485,25.03,0
-0.1956905871629715,-0.8349816203117371,-0.0205391570925712,-0.7074014544487,1.6977167129516602,56.90999603271485,25.03,0
-0.1871584802865982,-0.8381229639053345,-0.0131808491423726,-0.9734430313110352,1.6969712972640991,56.90999603271485,25.03,0
-0.176085278391838,-0.8457366824150085,0.0027368383016437,-1.0653564929962158,1.6964929103851318,56.90999603271485,25.03,0
-0.1633813679218292,-0.861818253993988,0.024147443473339,-1.0491071939468384,1.6961859464645386,56.90999603271485,25.03,0
-0.1552287340164184,-0.872138500213623,0.0378875359892845,-1.21064293384552,1.6959888935089111,56.90999603271485,25.03,0
-0.1779857128858566,-0.8899569511413574,0.0523029118776321,-1.3967065811157229,1.6958625316619873,56.90999603271485,25.03,0
-0.2037853747606277,-0.9237829446792604,0.055956095457077,-0.9894728660583496,1.6957813501358032,56.90999603271485,25.03,0
-0.2259398847818374,-1.1022281646728516,0.0359093993902206,0.2176663130521774,1.694352149963379,56.90999603271485,25.03,0
-0.2737440168857574,-1.1047885417938232,0.0958156511187553,1.547637939453125,1.6934349536895752,56.90999603271485,25.03,0
-0.3212153017520904,-1.0280628204345703,0.1622489094734192,2.1539394855499268,1.6928462982177734,57.30049896240234,25.03,0
-0.3292885422706604,-1.0012158155441284,0.1768930852413177,1.8623394966125488,1.6924686431884766,57.55110168457031,25.03,0
-0.3064805865287781,-0.967193603515625,0.1583019942045211,1.001683235168457,1.6922262907028198,57.71192169189453,25.03,0
-0.2526593506336212,-0.9789467453956604,0.1295779794454574,-0.0450319051742553,1.692070722579956,57.815128326416016,25.03,0
-0.1901310980319976,-0.9752936959266664,0.1391334384679794,-0.8063178062438965,1.6919708251953125,57.8813591003418,25.03,0
-0.161199614405632,-0.9449604749679564,0.1452655792236328,-0.925861954689026,1.6919068098068235,57.92386245727539,25.03,0
-0.1762197017669677,-0.9422876834869384,0.1268097311258316,-0.6944770216941833,1.694161057472229,57.95113754272461,25.03,0
-0.2026520520448684,-0.9517679810523988,0.0981725081801414,-0.7000382542610168,1.6956076622009275,57.96864318847656,25.03,0
-0.2252125889062881,-0.9522541165351868,0.0574036911129951,-0.9543874263763428,1.6965360641479492,57.97987747192383,25.03,0
-0.2508862018585205,-0.9413705468177797,0.0256428364664316,-1.0567102432250977,1.697131872177124,57.98708724975586,25.03,0
-0.2729597985744476,-0.934386134147644,-0.0003372261417098,-0.9181683659553528,1.6975141763687134,57.99171447753906,25.03,0
-0.2703320384025574,-0.913110613822937,-0.0226075109094381,-0.7361131906509399,1.6977595090866089,57.99468231201172,25.03,0
-0.2518523931503296,-0.8994572162628174,-0.0313015207648277,-0.5512117743492126,1.6979169845581057,57.99658584594727,25.03,0
-0.2287976592779159,-0.8906952142715454,-0.0312830619513988,-0.2641716003417969,1.6980180740356443,57.99781036376953,25.03,0
-0.2140024602413177,-0.9074633717536926,-0.0256734434515237,0.1063281893730163,1.6962465047836304,57.99859619140625,25.01,0
-0.2157033085823059,-0.929419755935669,-0.0164757389575243,0.4981443881988525,1.6951096057891846,57.99909973144531,25.01,0
-0.222392588853836,-0.9547056555747986,-0.0049754069186747,1.0218652486801147,1.6943800449371338,57.99942398071289,25.01,0
-0.2154898345470428,-0.9541393518447876,0.0080026192590594,1.827276468276977,1.6939117908477783,57.999629974365234,25.01,0
-0.2054622620344162,-0.9817648530006408,0.0275267176330089,2.723896026611328,1.6936112642288208,57.99976348876953,25.01,0
-0.2494071125984192,-1.1114487648010254,0.0344583876430988,3.213313102722168,1.6934183835983276,57.999847412109375,25.01,0
-0.3055972754955292,-1.2114657163619995,0.033308956772089,2.990006446838379,1.693294644355774,57.99990081787109,25.01,0
-0.3416568636894226,-1.0797287225723269,0.0157779958099126,2.255576133728028,1.693215250968933,57.99993515014648,25.01,0
-0.3536022901535034,-1.0287742614746094,-0.0066679143346846,1.4009253978729248,1.694082498550415,57.99995803833008,25.01,0
-0.3276815414428711,-1.1192256212234497,-0.0490612797439098,0.6124272346496582,1.6946390867233276,57.99997329711914,25.01,0
-0.283058226108551,-1.1156965494155884,-0.0762668997049331,-0.0727142691612243,1.6949962377548218,57.99998474121094,25.01,0
-0.2432259917259216,-1.0574541091918943,-0.0937259048223495,-0.5195638537406921,1.695225477218628,57.9999885559082,25.01,0
-0.2176639586687088,-0.9808930158615112,-0.1161256358027458,-0.6486928462982178,1.6953725814819336,57.99999237060547,25.01,0
-0.2012597173452377,-0.937358260154724,-0.1305004954338073,-0.6563262939453125,1.6954669952392578,57.999996185302734,25.01,0
-0.2187212854623794,-0.9150179624557496,-0.1453232318162918,-0.8546841144561768,1.6955275535583496,57.999996185302734,25.01,0
-0.2691115438938141,-0.9062790274620056,-0.1604333817958831,-1.2864975929260254,1.6955664157867432,57.999996185302734,25.01,0
-0.2958513498306274,-0.9062686562538148,-0.1813257485628128,-1.6890008449554443,1.6923781633377075,57.999996185302734,25.01,0
-0.307413637638092,-0.9118597507476808,-0.1723421663045883,-1.8613224029541016,1.690332055091858,57.999996185302734,25.01,0
-0.3148336410522461,-0.9154477715492249,-0.1553814709186554,-1.882344126701355,1.689018964767456,57.999996185302734,25.01,0
-0.3139975965023041,-0.917750358581543,-0.1221059784293174,-1.902999758720398,1.6881763935089111,58.66277313232422,25.01,0
-0.3078632950782776,-0.930423617362976,-0.0951539129018783,-1.919837951660156,1.6876356601715088,59.08810424804688,25.01,0
-0.2983288764953613,-0.9609476327896118,-0.0778576284646987,-1.7443498373031616,1.6872886419296265,59.36105728149414,25.01,0
-0.2866124510765075,-0.9749384522438048,-0.0499645434319973,-1.0692672729492188,1.6870659589767456,59.536224365234375,25.01,0
-0.2790935337543487,-0.9951124787330629,-0.0320643670856952,0.1055550351738929,1.6869230270385742,59.64863586425781,25.01,0
-0.2574750185012817,-1.041645646095276,-0.0261748395860195,1.1353466510772705,1.6886674165725708,59.72077560424805,25.01,0
-0.260394811630249,-1.149876832962036,-0.0279930550605058,1.4272023439407349,1.6897867918014526,59.76707077026367,25.01,0
-0.2846596539020538,-1.1969422101974487,-0.0011710088001564,1.266988754272461,1.6905051469802856,59.79677963256836,25.01,0
-0.3170247673988342,-1.08160400390625,0.0216396115720272,1.2035812139511108,1.6909661293029783,59.81584548950195,25.01,0
-0.3098059594631195,-0.9739999175071716,0.0138870570808649,1.173637628555298,1.6912620067596436,59.82807922363281,25.01,0
-0.2603911459445953,-0.9833146333694458,-0.0358702838420867,0.9251366853713988,1.691451907157898,59.835933685302734,25.01,0
-0.2062884718179702,-1.0060856342315674,-0.0510083548724651,0.6438555121421814,1.6915737390518188,59.84097290039063,25.01,0
-0.1827640384435653,-0.9871121048927308,-0.0551253221929073,0.5672401785850525,1.6916519403457642,59.84420776367188,25.01,0
-0.2236451506614685,-0.9469470977783204,-0.0801584497094154,0.5359857082366943,1.691702127456665,59.846282958984375,25.03,0
-0.2554780840873718,-0.9267692565917968,-0.1130165979266166,0.3403821885585785,1.6917343139648438,59.84761428833008,25.03,0
-0.292699933052063,-0.93061363697052,-0.1620919406414032,0.0751346722245216,1.691754937171936,59.84846878051758,25.03,0
-0.3053912222385406,-0.9442762732505798,-0.1991834491491317,-0.1524071395397186,1.6917681694030762,59.84901809692383,25.03,0
-0.3079380095005035,-0.9586419463157654,-0.2173888683319091,-0.4381508231163025,1.6917767524719238,59.849369049072266,25.03,0
-0.2871812880039215,-0.9846543073654176,-0.2234742790460586,-0.8042359948158264,1.6917822360992432,59.84959411621094,25.03,0
-0.2570675015449524,-0.9957497715950012,-0.221781775355339,-1.0534987449645996,1.69178569316864,59.84973907470703,25.03,0
-0.1761666685342788,-0.9804791212081908,-0.2039022892713546,-1.0558278560638428,1.6917879581451416,59.849830627441406,25.03,0
-0.1130536273121833,-0.9426904320716858,-0.1812327206134796,-0.8602808713912964,1.689494013786316,59.849891662597656,25.03,0
-0.0837468579411506,-0.9240375757217408,-0.1666847020387649,-0.5807393193244934,1.688021898269653,59.84992980957031,25.03,0
-0.0817327871918678,-0.928860604763031,-0.1573486179113388,-0.3225290179252624,1.6870771646499634,59.84995269775391,25.03,0
-0.0860380455851554,-0.9375535249710084,-0.140161707997322,-0.035016942769289,1.6864709854125977,59.84996795654297,25.03,0
-0.0832031369209289,-0.9487298727035522,-0.1179365888237953,0.4325152337551117,1.686081886291504,59.849979400634766,25.03,0
-0.0981771796941757,-0.995086669921875,-0.0868804603815078,0.8901838064193726,1.6858322620391846,59.8499870300293,25.03,0
-0.1469710767269134,-1.1088024377822876,-0.061352651566267,0.9259437322616576,1.6856720447540283,59.84999084472656,25.03,0
-0.2286641597747802,-1.1985719203948977,-0.0449703745543956,0.590634822845459,1.685569167137146,59.84999465942383,25.03,0
-0.2866878509521484,-1.1106387376785278,-0.0288593973964452,0.3181316256523132,1.6882574558258057,59.84999465942383,25.03,0
-0.2791419327259063,-1.0374149084091189,-0.0353136248886585,0.2328191697597503,1.6899826526641846,59.84999465942383,25.03,0
-0.2407127469778061,-1.0631951093673706,-0.0674444511532783,0.2353917509317398,1.691089749336243,59.84999465942383,25.03,0
-0.2104533314704895,-1.062946081161499,-0.0992597118020057,0.3409373760223388,1.691800236701965,59.84999465942383,25.03,0
-0.191034585237503,-1.018004059791565,-0.1308724582195282,0.4158356487751007,1.692256212234497,60.39096450805664,25.03,0
-0.2009638398885727,-0.9779673218727112,-0.1567574739456176,0.1665472686290741,1.6925488710403442,60.738128662109375,25.03,0
-0.1905425488948822,-0.9578717947006226,-0.1901623159646988,-0.3552718162536621,1.6927366256713867,60.96091842651367,25.03,0
-0.1894525289535522,-0.9449756741523744,-0.2171973884105682,-0.7582141757011414,1.6928571462631226,61.1038932800293,25.03,0
-0.1887530237436294,-0.93110191822052,-0.2401447147130966,-0.8914092779159546,1.6915572881698608,61.19564437866211,25.03,0
-0.1715108007192611,-0.9110029935836792,-0.2436754405498504,-0.9589733481407166,1.690723180770874,61.2545280456543,25.03,0
-0.1436524093151092,-0.8981046676635742,-0.2291479408740997,-1.0954790115356443,1.690187931060791,61.29231262207031,25.03,0
-0.1313722729682922,-0.8898272514343262,-0.1974339336156845,-1.1759153604507446,1.6898443698883057,61.31656265258789,25.03,0
-0.1234915852546691,-0.9013085961341858,-0.1658861488103866,-1.0233279466629028,1.6896239519119265,61.332122802734375,25.03,0
-0.1240319833159446,-0.9030789136886596,-0.1344450563192367,-0.6782084107398987,1.6894824504852295,61.34210968017578,25.03,0
-0.1187810078263282,-0.9154105186462402,-0.1030724197626113,-0.2525237798690796,1.6893916130065918,61.34851837158203,25.03,0
-0.1154112368822097,-0.9457153677940368,-0.0773414969444274,0.3251750767230987,1.6893333196640017,61.352630615234375,25.03,0
-0.118846483528614,-1.0043476819992063,-0.0496333204209804,1.09715735912323,1.6888370513916016,61.35527038574219,25.03,0
-0.1210510283708572,-1.0475722551345823,-0.0206562578678131,1.74303936958313,1.688518524169922,61.356964111328125,25.03,0
-0.1168680042028427,-1.075311303138733,-0.0020604485180228,1.896001219749451,1.6883140802383425,61.35805130004883,25.03,0
-0.0917924791574478,-1.1546881198883057,-0.0181156005710363,1.628740668296814,1.6881829500198364,61.35874938964844,25.03,0
-0.0757004544138908,-1.2224209308624268,-0.0340166464447975,1.2709342241287231,1.6880987882614136,61.35919952392578,25.03,0
-0.0709712952375412,-1.181921362876892,-0.0274276994168758,1.019819259643555,1.688044786453247,61.3594856262207,25.03,0
-0.0903274863958358,-1.0663666725158691,-0.0064059700816869,0.915989339351654,1.6880100965499878,61.35966873168945,25.03,0
-0.0803580805659294,-0.992210328578949,0.001486791530624,0.8959307670593262,1.6879878044128418,61.35978698730469,25.03,0
0.0044085560366511,-0.9838054776191713,-0.0214369613677263,0.7648332715034485,1.6884324550628662,61.35986328125,25.03,0
0.0644046738743782,-0.9840095043182372,-0.0361481048166751,0.4335047602653503,1.6887178421020508,61.35991287231445,25.03,0
0.0693200826644897,-0.978542685508728,-0.039991095662117,0.1277302205562591,1.6889009475708008,61.35994338989258,25.03,0
0.0444856397807598,-0.9358499646186828,-0.0256639830768108,0.092717632651329,1.689018487930298,61.359962463378906,25.03,0
0.0229505486786365,-0.8972566723823547,-0.0164696667343378,0.1705606877803802,1.6890939474105835,61.35997772216797,25.03,0
-0.0076627554371953,-0.861294150352478,-0.0049715102650225,-0.005186385475099,1.6891423463821411,61.3599853515625,25.03,0
-0.032906387001276,-0.8326177000999451,0.0024073452223092,-0.494141161441803,1.6891733407974243,61.359989166259766,25.03,0
-0.0603018477559089,-0.8030192852020264,0.0295337680727243,-1.0013833045959473,1.6891932487487793,61.35999298095703,25.03,0
-0.0946759954094886,-0.8008180260658264,0.0525397211313247,-1.2767460346221924,1.6896653175354004,61.3599967956543,25.03,0
-0.1223331242799758,-0.8161987066268921,0.0673036128282547,-1.295824646949768,1.689968228340149,61.3599967956543,25.03,0
-0.1456796526908874,-0.8484602570533752,0.0879737809300422,-1.225669026374817,1.6901626586914062,61.3599967956543,25.03,0
-0.1662598848342895,-0.8859571814537048,0.1124342530965805,-1.216472864151001,1.690287470817566,61.3599967956543,25.03,0
-0.1850648671388626,-0.9548027515411376,0.1337293535470962,-1.0672683715820312,1.690367579460144,61.3599967956543,25.03,0
-0.1635461747646331,-1.026972770690918,0.1306020021438598,-0.4198008179664612,1.6904189586639404,61.73258590698242,25.03,0
-0.1273456215858459,-1.101276159286499,0.1118017211556434,0.4686065316200256,1.690451979637146,61.9716911315918,25.03,0
-0.1153097376227378,-1.283306360244751,0.0717479065060615,0.8058678507804871,1.6904730796813965,62.12513732910156,25.03,0
-0.1355746686458587,-1.366536259651184,0.0516414493322372,0.402517169713974,1.6891095638275146,62.223609924316406,25.03,0
-0.1429817676544189,-1.1904397010803225,0.0331405103206634,-0.0891975089907646,1.6882344484329224,62.28680419921875,25.03,0
-0.0973552390933036,-1.0942243337631226,0.0044743488542735,-0.2077099978923797,1.6876728534698486,62.32735824584961,25.03,0
-0.0624769888818264,-1.0548700094223022,-0.0251174923032522,-0.0831402540206909,1.6873124837875366,62.3533821105957,25.03,0
-0.0736807808279991,-1.0687990188598633,-0.0553033798933029,0.1042786985635757,1.687081217765808,62.37008285522461,25.03,0
-0.0808707326650619,-1.0609445571899414,-0.0690771713852882,0.2639617323875427,1.6869328022003174,62.380802154541016,25.03,0
-0.0798870548605918,-1.0111218690872192,-0.0499275252223014,0.1873083263635635,1.6868375539779663,62.38768005371094,25.03,0
-0.0680602341890335,-0.9791485071182252,-0.0656272545456886,-0.2237235605716705,1.6867763996124268,62.39209365844727,25.03,0
-0.0772637873888015,-0.9530320763587952,-0.0757024437189102,-0.7060372829437256,1.6876550912857056,62.394927978515625,25.05,0
-0.088767871260643,-0.9250764846801758,-0.0653747916221618,-0.9833152890205384,1.6882189512252808,62.39674377441406,25.05,0
-0.101748302578926,-0.9015384316444396,-0.053149327635765,-1.0430313348770142,1.688580870628357,62.397911071777344,25.05,0
-0.126871719956398,-0.8752375245094299,-0.0397059544920921,-0.9631286859512328,1.688813090324402,62.398658752441406,25.05,0
-0.1541900336742401,-0.8527613282203674,-0.0310787707567214,-0.7828790545463562,1.6889621019363403,62.39913940429688,25.05,0
-0.1717213541269302,-0.8383374214172363,-0.0199445653706789,-0.5418150424957275,1.68905770778656,62.39944839477539,25.05,0
-0.1941674947738647,-0.8514720797538757,-0.0127992741763591,-0.2975496649742126,1.6891191005706787,62.3996467590332,25.05,0
-0.2085721343755722,-0.8766944408416748,-0.0138116115704178,-0.0189866330474615,1.6891584396362305,62.39977264404297,25.05,0
-0.2122184336185455,-0.8984785079956055,-0.0200590472668409,0.3245775699615478,1.6891837120056152,62.39985275268555,25.05,0
-0.2145584225654602,-0.9572404623031616,-0.0464593879878521,0.6776126027107239,1.689199924468994,62.39990615844727,25.05,0
-0.2104623168706894,-1.078917145729065,-0.0857927054166793,0.9865694046020508,1.689210295677185,62.399940490722656,25.05,0
-0.2302247583866119,-1.179393291473389,-0.0998390167951583,1.2242484092712402,1.6892169713974,62.39996337890625,25.05,0
-0.2597004771232605,-1.1599065065383911,-0.0752664804458618,1.330203652381897,1.6892212629318235,62.39997863769531,25.05,0
-0.2338341176509857,-1.091423273086548,-0.0315083712339401,1.2513140439987185,1.6892240047454834,62.39998626708984,25.05,0
-0.1612568199634552,-1.0810612440109253,-0.0258180331438779,0.8997508883476257,1.6892257928848269,62.39999008178711,25.05,0
-0.0866920202970504,-1.0520204305648804,-0.0221663024276494,0.2155681699514389,1.6892269849777222,62.399993896484375,25.05,0
-0.044438399374485,-0.994199275970459,0.0025682668201625,-0.5280198454856873,1.688768744468689,62.39999771118164,25.05,0
-0.0453113317489624,-0.9402996897697448,0.0184414889663457,-0.8260830044746399,1.6884746551513672,62.39999771118164,25.05,0
-0.0626648515462875,-0.8889167308807373,0.0342257842421531,-0.6089491844177246,1.6882859468460083,62.39999771118164,25.05,0
-0.0738013386726379,-0.839148759841919,0.038757462054491,-0.326302170753479,1.6881648302078247,62.39999771118164,25.05,0
-0.0809480994939804,-0.8128083348274231,0.0416656322777271,-0.2810534536838531,1.6880871057510376,62.39999771118164,25.05,0
-0.107925571501255,-0.8238934278488159,0.0491297021508216,-0.4526396691799164,1.6880372762680054,62.39999771118164,25.05,0
-0.1364337056875229,-0.8366049528121948,0.0539197139441967,-0.7956212162971497,1.6880053281784058,62.83707427978516,25.05,0
-0.1771196871995926,-0.8391647338867188,0.0681892186403274,-1.1733603477478027,1.687984824180603,63.11756134033203,25.05,0
-0.1976318359375,-0.879991888999939,0.0941398814320564,-1.243808031082153,1.6865944862365725,63.29756164550781,25.05,0
-0.2051975727081298,-0.934181272983551,0.1107935234904289,-0.8519430160522461,1.685702204704285,63.41307830810547,25.05,0
-0.1764661818742752,-1.0137391090393066,0.1158831045031547,-0.3281908631324768,1.6851296424865725,63.48720932006836,25.05,0
-0.1468324810266494,-1.059196949005127,0.113551527261734,-0.0386503897607326,1.6847622394561768,63.53478240966797,25.05,0
-0.150206372141838,-1.11076021194458,0.0784686058759689,0.1256645768880844,1.684526443481445,63.565311431884766,25.05,0
-0.2139470726251602,-1.2614037990570068,0.0447588600218296,0.6431086659431458,1.6843750476837158,63.584903717041016,25.05,0
-0.2548521757125854,-1.2293294668197632,0.0231258850544691,1.6236207485198977,1.684277892112732,63.59747695922852,25.05,0
-0.1803427785634994,-1.0408127307891846,0.0204386357218027,2.42840313911438,1.6842155456542969,63.60554504394531,25.05,0
-0.0989402905106544,-0.9758113026618958,0.0019207918085157,2.3895668983459477,1.6860116720199585,63.610721588134766,25.01,0
-0.0522986389696598,-1.0572481155395508,-0.0659406408667564,1.6875373125076294,1.687164306640625,63.614044189453125,25.01,0
-0.039160031825304,-1.1430962085723877,-0.131881296634674,0.961156725883484,1.6879040002822876,63.61617660522461,25.01,0
-0.0475217513740062,-1.0694397687911987,-0.1294160187244415,0.4161908030509949,1.6883786916732788,63.61754608154297,25.01,0
-0.0472900494933128,-1.005378007888794,-0.1166383996605873,-0.0051884641870856,1.688683271408081,63.61842346191406,25.01,0
-0.063934676349163,-0.9754624366760254,-0.1140362322330474,-0.2326144874095916,1.6888787746429443,63.618988037109375,25.01,0
-0.0802140161395073,-0.956264317035675,-0.1067685335874557,-0.3069119155406952,1.6890043020248413,63.61935043334961,25.01,0
-0.0850633829832077,-0.9271507859230042,-0.0965067744255065,-0.4620690047740936,1.689084768295288,63.61958312988281,25.01,0
-0.0937732011079788,-0.8972718119621277,-0.0675302669405937,-0.6619519591331482,1.687759280204773,63.61973190307617,25.01,0
-0.1105582118034362,-0.8892927765846252,-0.0545325875282287,-0.6791655421257019,1.686908721923828,63.61982727050781,25.01,0
-0.1325254142284393,-0.8897700309753418,-0.0517891980707645,-0.6221432685852051,1.686362862586975,63.61988830566406,25.01,0
-0.1690137982368469,-0.8956741094589233,-0.0556264221668243,-0.7610958814620972,1.6860125064849854,63.61992645263672,25.01,0
-0.2092232704162597,-0.8994629979133606,-0.0580889321863651,-1.015066146850586,1.6857876777648926,63.61995315551758,25.01,0
-0.2686140239238739,-0.9186878204345704,-0.0540714561939239,-1.092067837715149,1.685643434524536,63.61996841430664,25.01,0
-0.3179231584072113,-0.9422207474708556,-0.0458954982459545,-0.9408588409423828,1.6855508089065552,63.61997985839844,25.01,0
-0.3495669066905975,-0.9517250657081604,-0.0350508615374565,-0.7112663388252258,1.6854914426803589,63.61998748779297,25.01,0
-0.3250918686389923,-0.991411030292511,-0.0392869487404823,-0.3633028268814087,1.6859126091003418,63.61999130249024,25.01,0
-0.2869940996170044,-1.0616613626480105,-0.058798748999834,0.2791614532470703,1.6861828565597534,63.6199951171875,25.01,0
-0.2569473683834076,-1.2075039148330688,-0.0937113985419273,1.092706561088562,1.6863563060760498,63.6199951171875,25.01,0
-0.2768495082855224,-1.161152958869934,-0.0713341310620307,1.65778386592865,1.6864676475524902,63.6199951171875,25.01,0
-0.3008171021938324,-1.0586365461349487,-0.0345825888216495,1.7194815874099731,1.6865390539169312,63.6199951171875,25.01,0
-0.2490248382091522,-1.0152384042739868,-0.005399792920798,1.3040885925292969,1.6865848302841189,63.6199951171875,25.01,0
-0.1542120277881622,-0.9929857850074768,0.0021324981935322,0.5431178212165833,1.6866142749786377,63.6199951171875,25.01,0
-0.0261933356523513,-0.97870534658432,0.0125640640035271,-0.2282529473304748,1.6866331100463867,63.9890022277832,25.01,0
0.0223750453442335,-0.9471498727798462,0.0304539911448955,-0.6229621767997742,1.6852680444717407,64.2258071899414,25.01,0
0.0311523396521806,-0.91570383310318,0.0475324913859367,-0.686387300491333,1.6843920946121216,64.37777709960938,25.01,0
0.0087962299585342,-0.878730297088623,0.0640902668237686,-0.8453149199485779,1.6838299036026,64.47530364990234,25.01,0
-0.0055506345815956,-0.8382094502449036,0.0747160911560058,-1.2231638431549072,1.6834691762924194,64.53788757324219,25.01,0
-0.0147576266899704,-0.8178033232688904,0.0759373605251312,-1.462062954902649,1.6832376718521118,64.57805633544922,25.01,0
-0.048655018210411,-0.8047078251838684,0.0711233243346214,-1.2356215715408323,1.6830891370773315,64.60382843017578,25.01,0
-0.0816039592027664,-0.7963038682937622,0.0736317262053489,-0.6711432337760925,1.682993769645691,64.62036895751953,25.01,0
-0.1363353431224823,-0.8077040314674377,0.0864370241761207,-0.1655904799699783,1.6829326152801514,64.6309814453125,25.01,0
-0.1826543360948562,-0.8262155652046204,0.1058502793312072,0.0442017391324043,1.68335223197937,64.6377944946289,25.03,0
-0.2123792022466659,-0.871681809425354,0.1295041292905807,0.0821047648787498,1.683621525764465,64.64216613769531,25.03,0
-0.2090638130903244,-0.9512394070625304,0.1446838080883026,0.2318188846111297,1.683794379234314,64.64497375488281,25.03,0
-0.1957406401634216,-1.024685978889465,0.1544252634048462,0.6324157118797302,1.6839052438735962,64.64677429199219,25.03,0
-0.1815928220748901,-1.0886131525039673,0.1774700880050659,1.0722070932388306,1.683976411819458,64.64793395996094,25.03,0
-0.1557202339172363,-1.1352356672286987,0.1922589242458343,1.1788936853408811,1.684022068977356,64.64867401123047,25.03,0
-0.1335189342498779,-1.1931442022323608,0.1849562227725982,0.8102847337722778,1.6840513944625854,64.6491470336914,25.03,0
-0.1528580635786056,-1.1967198848724363,0.1690742224454879,0.244135782122612,1.6840702295303345,64.64945220947266,25.03,0
-0.1820621192455291,-1.1486345529556274,0.1532842963933944,-0.0690299719572067,1.6872955560684204,64.64965057373047,25.03,0
-0.1784125119447708,-1.056200623512268,0.1487490087747573,0.0703429579734802,1.6893653869628906,64.64977264404297,25.03,0
-0.1704726219177246,-1.0024796724319458,0.1290452033281326,0.3819041550159454,1.690693736076355,64.64985656738281,25.03,0
-0.1597794890403747,-1.012786865234375,0.0828137844800949,0.4636212289333343,1.691546082496643,64.64990997314453,25.03,0
-0.1529172509908676,-1.0697814226150513,0.0307540223002433,0.3261860311031341,1.6920931339263916,64.64994049072266,25.03,0
-0.1317201405763626,-1.0895638465881348,0.0029428380075842,0.212909996509552,1.6924442052841189,64.64996337890625,25.03,0
-0.1069215014576911,-1.0294880867004397,0.0018885440658777,0.1473811119794845,1.6926695108413696,64.64997863769531,25.03,0
-0.0686160624027252,-0.9797393083572388,0.0012119588209316,0.0372595116496086,1.6928141117095947,64.64998626708984,25.03,0
-0.0552293881773948,-0.9310200810432434,-0.0048200087621808,-0.0692359581589698,1.686939358711243,64.64999389648438,25.03,0
-0.0914207845926284,-0.86057049036026,0.0081023443490266,-0.1805695295333862,1.6831692457199097,64.64999389648438,25.03,0
-0.12584188580513,-0.8153600096702576,0.016395166516304,-0.3487465381622314,1.6807498931884766,64.64999389648438,25.03,0
-0.1311380416154861,-0.7975420951843262,0.0217170231044292,-0.4459251463413238,1.6791973114013672,64.64999389648438,25.03,0
-0.1401345878839492,-0.791705310344696,0.0307300593703985,-0.3542380332946777,1.6782008409500122,64.64999389648438,25.03,0
-0.1515058279037475,-0.815948486328125,0.0421118810772895,-0.2129992842674255,1.6775614023208618,64.64999389648438,25.03,0
-0.1699987798929214,-0.8538974523544312,0.0550138540565967,-0.2477505207061767,1.677151083946228,64.64999389648438,25.03,0
-0.1874642670154571,-0.9062398076057434,0.0632935985922813,-0.3882768452167511,1.6768877506256104,64.64999389648438,25.03,0
-0.2042703926563263,-0.9678189754486084,0.0742048323154449,-0.3064949512481689,1.6790140867233276,64.99392700195312,25.03,0
-0.2206533700227737,-1.0241302251815796,0.0868048071861267,0.1257409751415252,1.6803786754608154,65.21463775634766,25.03,0
-0.2255692481994629,-1.1218430995941162,0.0836952030658721,0.5786713361740112,1.6812543869018557,65.35627746582031,25.03,0
-0.2287239730358123,-1.2573206424713137,0.0816996321082115,0.622138261795044,1.681816339492798,65.44717407226562,25.03,0
-0.2419440448284149,-1.2435023784637451,0.1140056401491165,0.2308714538812637,1.682176947593689,65.50550842285156,25.03,0
-0.289612352848053,-1.0667014122009275,0.1571288704872131,-0.2602536082267761,1.682408332824707,65.5429458618164,25.03,0
-0.3202031254768371,-0.9924251437187196,0.1344229131937027,-0.5288559198379517,1.6825568675994873,65.56697082519531,25.03,0
-0.3118456602096557,-0.9615522623062134,0.1086559891700744,-0.4611968696117401,1.682652235031128,65.58238983154297,25.03,0
-0.2337112426757812,-0.9641308784484864,0.0977180302143096,-0.1884923428297042,1.6827133893966677,65.59228515625,25.03,0
-0.1779712885618209,-0.9657857418060304,0.096296451985836,-0.0313991382718086,1.6827526092529297,65.5986328125,25.03,0
-0.1813850253820419,-0.9388588666915894,0.078590840101242,-0.2136092483997345,1.682777762413025,65.60270690917969,25.03,0
-0.1947713047266006,-0.9271764755249025,0.0448373034596443,-0.6314775347709656,1.6827939748764038,65.60531616210938,25.03,0
-0.1921662986278534,-0.9196794033050536,0.0007851283880881,-0.9999535083770752,1.6828043460845947,65.60699462890625,25.03,0
-0.1569079160690307,-0.8980748653411865,-0.0274850223213434,-1.146855711936951,1.6828110218048096,65.60807037353516,25.03,0
-0.1454766690731048,-0.8786125779151917,-0.0456271767616272,-1.119321584701538,1.6828153133392334,65.6087646484375,25.03,0
-0.1829229444265365,-0.8885139226913452,-0.0516719929873943,-1.072991132736206,1.682818055152893,65.60920715332031,25.03,0
-0.2069538086652755,-0.8892702460289001,-0.0499534346163272,-1.0325112342834473,1.6832787990570068,65.60948944091797,25.03,0
-0.1999843418598175,-0.8729622960090637,-0.0376550145447254,-0.8847259879112244,1.6835744380950928,65.60967254638672,25.03,0
-0.1899139583110809,-0.9016811847686768,-0.0409581437706947,-0.6358351707458496,1.683764100074768,65.60978698730469,25.03,0
-0.1778535842895507,-0.9369046688079834,-0.048675674945116,-0.4008772671222687,1.6838858127593994,65.60986328125,25.03,0
-0.1813094913959503,-0.9651068449020386,-0.0480305701494216,-0.0888788998126983,1.6839640140533447,65.60990905761719,25.03,0
-0.1891250610351562,-0.9776076078414916,-0.0364210307598114,0.4337754845619201,1.6840142011642456,65.60993957519531,25.03,0
-0.1997384130954742,-1.0584008693695068,-0.0177751462906599,0.9733918309211732,1.6840463876724243,65.6099624633789,25.03,0
-0.2569294273853302,-1.2222049236297607,-0.0002115162351401,1.2301220893859863,1.6840670108795166,65.60997772216797,25.03,0
-0.310424655675888,-1.271347165107727,0.0166575834155082,1.208582878112793,1.6817848682403564,65.6099853515625,25.03,0
-0.2943748533725738,-1.1741349697113037,0.0106898779049515,1.0908656120300293,1.680320382118225,65.60999298095703,25.03,0
-0.2504883408546448,-1.106152057647705,-0.0099331745877861,1.0368168354034424,1.6793805360794067,65.60999298095703,25.03,0
-0.2223245203495025,-1.1185022592544556,-0.0567545108497142,1.1418519020080566,1.6787773370742798,65.60999298095703,25.03,0
-0.2154461443424224,-1.0704501867294312,-0.0868017449975013,1.3382301330566406,1.6783902645111084,65.60999298095703,25.03,0
-0.2110320031642913,-0.989233136177063,-0.1004865616559982,1.3746899366378784,1.6781418323516846,65.60999298095703,25.03,0
-0.1970037072896957,-0.9091238379478456,-0.1428553313016891,1.0792385339736938,1.6779824495315552,65.60999298095703,25.03,0
-0.1935989260673523,-0.8521165251731873,-0.1812407225370407,0.5743681788444519,1.6778801679611206,65.60999298095703,25.03,0
-0.2082072645425796,-0.8435213565826416,-0.2114720344543457,0.0963206738233566,1.6787327527999878,65.60999298095703,25.03,0
-0.2343753725290298,-0.8771899342536926,-0.2308727502822876,-0.2821142077445984,1.679279923439026,65.99333190917969,25.03,0
-0.2511685490608215,-0.8987964987754822,-0.2321274578571319,-0.596623420715332,1.679630994796753,66.23933410644531,25.03,0
-0.2395543605089187,-0.9238578677177428,-0.2105415612459182,-0.8342831134796143,1.679856300354004,66.39720916748047,25.03,0
-0.2209054976701736,-0.9455385804176332,-0.1854934245347976,-0.9796342849731444,1.680000901222229,66.49851989746094,25.03,0
-0.1977421790361404,-0.9650498032569884,-0.1470278799533844,-1.0657471418380735,1.6800936460494995,66.56353759765625,25.03,0
-0.1996706128120422,-0.9887665510177612,-0.122342899441719,-0.9884541034698486,1.680153250694275,66.60526275634766,25.03,0
-0.2065059542655944,-1.0151821374893188,-0.1009037271142005,-0.5734291672706604,1.6801915168762207,66.63203430175781,25.03,0
-0.222088024020195,-1.071318507194519,-0.1151341721415519,0.1622273474931717,1.6797571182250977,66.64921569824219,25.05,0
-0.2320877015590667,-1.2248969078063965,-0.1522553265094757,0.9997520446777344,1.679478406906128,66.66024780273438,25.05,0
-0.2776893377304077,-1.1667169332504272,-0.1089042499661445,1.7056082487106323,1.6792994737625122,66.66732788085938,25.05,0
-0.2229872345924377,-1.1013915538787842,-0.1146706715226173,2.1048474311828613,1.6791846752166748,66.67186737060547,25.05,0
-0.1486981511116027,-1.0874583721160889,-0.1407623291015625,2.081615447998047,1.6791110038757324,66.6747817993164,25.05,0
-0.1066214591264724,-1.1121034622192385,-0.157506451010704,1.5436503887176514,1.6790636777877808,66.67665100097656,25.05,0
-0.1020101606845855,-1.0831371545791626,-0.1514585465192794,0.5428040027618408,1.6790333986282349,66.67784881591797,25.05,0
-0.1550286412239074,-0.9973748922348022,-0.1811639964580536,-0.5544686913490295,1.679013967514038,66.67861938476562,25.05,0
-0.2058461755514145,-0.9703264832496644,-0.2450094372034073,-1.2263920307159424,1.6790014505386353,66.67911529541016,25.05,0
-0.2272623926401138,-0.9529683589935304,-0.2915795445442199,-1.2563451528549194,1.6789934635162354,66.67943572998047,25.05,0
-0.2186149954795837,-0.9418289065361024,-0.3158677816390991,-0.8671537637710571,1.678988337516785,66.67964172363281,25.05,0
-0.2186633646488189,-0.9458758234977722,-0.3202590346336365,-0.4776726961135864,1.6789849996566772,66.67977142333984,25.05,0
-0.2410854995250702,-0.9596684575080872,-0.3118815422058105,-0.410437524318695,1.678982853889465,66.67985534667969,25.05,0
-0.2330836355686187,-0.9797152876853944,-0.2953097820281982,-0.6682262420654297,1.6789815425872805,66.6799087524414,25.05,0
-0.2167529463768005,-0.9869824647903442,-0.2790772020816803,-0.9303897023200988,1.678980588912964,66.67993927001953,25.05,0
-0.1782839894294738,-0.9692549705505372,-0.2574645280838012,-0.9230849742889404,1.678979992866516,66.67996215820312,25.05,0
-0.1256079524755478,-0.9466829895973206,-0.2435947507619857,-0.7500161528587341,1.6780614852905271,66.67997741699219,25.05,0
-0.0638146325945854,-0.9210020303726196,-0.2346939295530319,-0.6891065835952759,1.6774719953536987,66.67998504638672,25.05,0
-0.0465503334999084,-0.921314775943756,-0.2345796674489975,-0.7646607160568237,1.677093744277954,66.67999267578125,25.05,0
-0.0522644221782684,-0.9271132349967957,-0.2233107984066009,-0.7665735483169556,1.6768509149551392,66.67999267578125,25.05,0
-0.0615291707217693,-0.936432123184204,-0.1880902051925659,-0.5170208215713501,1.6766951084136963,66.67999267578125,25.05,0
-0.0730725228786468,-0.9536080360412598,-0.1486943364143371,0.0802019834518432,1.6765950918197632,66.67999267578125,25.05,0
-0.0972737073898315,-1.031803846359253,-0.1066190153360366,0.9721909761428832,1.6765309572219849,66.67999267578125,25.05,0
-0.1575868278741836,-1.1603542566299438,-0.0852152705192565,1.7739030122756958,1.6764898300170898,66.67999267578125,25.05,0
-0.2186834216117859,-1.2428505420684814,-0.0826751291751861,1.9874591827392576,1.680594801902771,66.67999267578125,25.05,0
-0.2075117230415344,-1.1838363409042358,-0.0698494613170623,1.6659376621246338,1.6832290887832642,66.67999267578125,25.05,0
-0.161157950758934,-1.0899866819381714,-0.061618685722351,1.377204418182373,1.6849197149276731,67.02750396728516,25.05,0
-0.1370085477828979,-1.0241615772247314,-0.0843255221843719,1.2922241687774658,1.686004638671875,67.25051879882812,25.05,0
-0.1774885952472686,-1.0043100118637085,-0.1268863379955291,0.9869084358215332,1.6867008209228516,67.39363861083984,25.05,0
-0.2146618962287902,-0.9859725832939148,-0.1821882873773574,0.2535880208015442,1.687147617340088,67.48548126220703,25.05,0
-0.21612648665905,-0.946215808391571,-0.2288734465837478,-0.5931851863861084,1.6874343156814575,67.54441833496094,25.05,0
-0.2002730518579483,-0.9207022190093994,-0.2644310593605041,-1.2297425270080566,1.687618374824524,67.58224487304688,25.05,0
-0.195697009563446,-0.9155246019363404,-0.2816521227359772,-1.5773446559906006,1.6900317668914795,67.60652160644531,25.05,0
-0.2039559185504913,-0.9066041111946106,-0.281508058309555,-1.5926262140274048,1.6915806531906128,67.62210083007812,25.05,0
-0.198060467839241,-0.9008795022964478,-0.2758178412914276,-1.3014967441558838,1.6925746202468872,67.63209533691406,25.05,0
-0.171885997056961,-0.9028035402297974,-0.24977508187294,-0.9964416027069092,1.6932125091552734,67.63851165771484,25.05,0
-0.1494909524917602,-0.9152337908744812,-0.2162690162658691,-0.9905512928962708,1.6936218738555908,67.64263153076172,25.05,0
-0.1407168805599212,-0.9288086295127868,-0.1779734194278717,-1.1838128566741943,1.6938844919204712,67.64527130126953,25.05,0
-0.1070973202586174,-0.9431179165840148,-0.1422019749879837,-1.0498915910720823,1.694053053855896,67.64696502685547,25.05,0
-0.0911199897527694,-0.9578985571861268,-0.1192459166049957,-0.2402683645486831,1.6941611766815186,67.64805603027344,25.05,0
-0.097659982740879,-0.9953728318214417,-0.1101118102669715,0.8166876435279846,1.6960667371749878,67.64875030517578,25.05,0
-0.1074547469615936,-1.041812777519226,-0.1042500659823417,1.28360915184021,1.6972895860671997,67.64920043945312,25.05,0
-0.1025449186563491,-1.088408589363098,-0.1060861125588417,0.9168934226036072,1.6980743408203125,67.64949035644531,25.05,0
-0.082600750029087,-1.151897668838501,-0.1352532505989074,0.3089685142040252,1.6985780000686646,67.64967346191406,25.05,0
-0.0809972807765007,-1.18704354763031,-0.1483732759952545,0.0513926073908805,1.6989011764526367,67.64978790283203,25.05,0
-0.0911638140678405,-1.1424248218536377,-0.1511951684951782,0.1727012544870376,1.699108600616455,67.64986419677734,25.05,0
-0.0808947831392288,-1.0746067762374878,-0.1474083214998245,0.4046009182929992,1.6992416381835938,67.64990997314453,25.05,0
0.0096618980169296,-1.0422805547714231,-0.1505759209394455,0.5355079174041748,1.6993271112442017,67.64994049072266,25.05,0
0.1013626083731651,-1.032731056213379,-0.1582064777612686,0.4797960221767425,1.7003000974655151,67.64996337890625,25.05,0
0.1546130776405334,-1.0154070854187012,-0.1519077867269516,0.3114880323410034,1.700924515724182,67.64997863769531,25.05,0
0.1216128692030906,-0.9539096355438232,-0.13107231259346,0.1748170554637909,1.701325297355652,67.64998626708984,25.05,0
0.0892396867275238,-0.9032485485076904,-0.1121035367250442,0.1157701015472412,1.701582431793213,67.64999389648438,25.05,0
0.0740622207522392,-0.8651394248008728,-0.0887349173426628,0.0277211051434278,1.7017474174499512,67.64999389648438,25.05,0
0.0587244182825088,-0.8406831622123718,-0.0569449625909328,-0.2509033679962158,1.7018532752990725,67.64999389648438,25.05,0
0.0320881754159927,-0.8361840844154358,-0.0365439988672733,-0.6769062280654907,1.7019212245941162,67.64999389648438,25.05,0
0.0149945691227912,-0.8444923758506775,-0.0122562870383262,-0.9144645929336548,1.7019648551940918,67.64999389648438,25.05,0
-0.0015728974249213,-0.8498241901397705,0.0033301692456007,-0.7158234715461731,1.705206036567688,67.64999389648438,25.05,0
-0.0178027190268039,-0.8476480841636658,0.02452820725739,-0.3089061081409454,1.7072861194610596,67.64999389648438,25.05,0
-0.0450114086270332,-0.85744708776474,0.0381318889558315,-0.1409169435501098,1.7086209058761597,67.64999389648438,25.05,0
-0.068070150911808,-0.8805288672447205,0.0412641763687133,-0.3447952568531036,1.7094775438308716,67.9795913696289,25.05,0
-0.0772701501846313,-0.95131915807724,0.0376765206456184,-0.5329538583755493,1.7100272178649902,68.19110870361328,25.05,0
-0.0887719541788101,-1.013541579246521,0.0297763962298631,-0.1091516986489296,1.7103800773620603,68.32685089111328,25.05,0
-0.0905553773045539,-1.0590702295303345,0.0191087778657674,0.9868125319480896,1.7106064558029177,68.4139633178711,25.05,0
-0.1028954237699508,-1.1610589027404783,-0.0101281842216849,1.969580173492432,1.71075177192688,68.46986389160156,25.05,0
-0.1220101043581962,-1.2768893241882324,-0.0288907829672098,2.073625326156616,1.71497642993927,68.5057373046875,25.05,0
-0.1510701328516006,-1.2224738597869873,-0.0185404419898986,1.4346280097961426,1.7176876068115234,68.52876281738281,25.05,0
-0.1417303085327148,-1.08119535446167,-0.0174959637224674,0.7307851910591125,1.719427466392517,68.54353332519531,25.05,0
-0.0741610303521156,-1.0129220485687256,-0.0392167754471302,0.2970122694969177,1.7205439805984497,68.55301666259766,25.05,0
-0.0475922785699367,-1.0362814664840698,-0.0867425873875618,0.1046235561370849,1.72126042842865,68.55909729003906,25.05,0
-0.058530855923891,-1.0904566049575806,-0.1228396892547607,0.0635588020086288,1.7217202186584473,68.56300354003906,25.05,0
-0.0767461583018302,-1.0300610065460205,-0.1012225374579429,-0.016532827168703,1.722015380859375,68.56551361083984,25.05,0
-0.0716423615813255,-0.9745092391967772,-0.0705565735697746,-0.3187113106250763,1.7222048044204712,68.56712341308594,25.05,0
-0.0515737198293209,-0.9500548243522644,-0.0732680186629295,-0.6989260315895081,1.7241623401641846,68.56815338134766,25.05,0
-0.0778792351484298,-0.9287636280059814,-0.0750080719590187,-0.8461964130401611,1.7254186868667605,68.56881713867188,25.05,0
-0.0947606042027473,-0.9151001572608948,-0.064929187297821,-0.7114211916923523,1.7262248992919922,68.56924438476562,25.05,0
-0.1167896464467048,-0.9063317179679872,-0.0360700413584709,-0.4816271960735321,1.7267422676086426,68.56951141357422,25.05,0
-0.1365243941545486,-0.9063024520874025,-0.0119521273300051,-0.3054980337619781,1.7270742654800415,68.56968688964844,25.05,0
-0.1547867953777313,-0.8838925361633301,0.0091231362894177,-0.2103813588619232,1.7272872924804688,68.5698013305664,25.05,0
-0.1665065437555313,-0.8807067275047302,0.017050253227353,-0.1672538220882415,1.7274240255355835,68.56986999511719,25.05,0
-0.1796253770589828,-0.9122489094734192,0.0165396463125944,-0.0894209966063499,1.7275117635726929,68.56991577148438,25.05,0
-0.1656531989574432,-0.9492841958999634,0.0106141930446028,0.0895003527402877,1.72802734375,68.5699462890625,25.05,0
-0.1398933380842209,-0.978649079799652,-0.0155795197933912,0.3547899425029754,1.728358268737793,68.5699691772461,25.05,0
-0.1177643612027168,-1.1710247993469238,-0.0883668810129165,0.6862534284591675,1.728570580482483,68.56997680664062,25.05,0
-0.17073655128479,-1.1545360088348389,-0.0679043233394622,1.038688063621521,1.7287068367004397,68.56998443603516,25.05,0
-0.2215243726968765,-1.0599879026412964,-0.0211859885603189,1.2039566040039062,1.7287943363189695,68.56999206542969,25.05,0
-0.15335713326931,-0.9937145709991456,-0.0079981740564107,1.041323184967041,1.728850483894348,68.56999206542969,25.05,0
-0.0648291334509849,-0.9791730642318726,-0.0275238640606403,0.725582480430603,1.7288864850997925,68.56999206542969,25.05,0
0.0087763657793402,-0.975438952445984,-0.0512498803436756,0.5014628171920776,1.728909611701965,68.56999206542969,25.05,0
-0.0111611569300293,-0.9338581562042236,-0.032889224588871,0.4113743603229522,1.72846519947052,68.56999206542969,25.05,0
-0.0407492332160472,-0.8959784507751465,-0.0043130880221724,0.3535607755184173,1.728179931640625,68.56999206542969,25.05,0
-0.0597371570765972,-0.8548761010169983,0.0252209808677434,0.198234349489212,1.7279969453811646,68.56999206542969,25.05,0
-0.071922518312931,-0.8173034191131592,0.0441742464900016,-0.1558080911636352,1.7278794050216677,68.56999206542969,25.05,0
-0.0853401497006416,-0.7931914329528809,0.050739586353302,-0.6302098631858826,1.7278040647506714,68.85301971435547,25.05,0
-0.0995485931634903,-0.7889133095741272,0.0549528449773788,-1.0098876953125,1.7277556657791138,69.03465270996094,25.05,0
-0.1310578435659408,-0.7917656302452087,0.0744499936699867,-1.2033870220184326,1.7277246713638306,69.15121459960938,25.05,0
-0.1680720001459121,-0.8215849995613098,0.0981576889753341,-1.227251648902893,1.7277047634124756,69.22601318359375,25.05,0
-0.1974233239889145,-0.8519168496131897,0.1189697012305259,-1.0849332809448242,1.7299872636795044,69.27401733398438,25.03,0
-0.2106615453958511,-0.8993709683418274,0.1491189748048782,-0.8467158675193787,1.7314521074295044,69.30482482910156,25.03,0
-0.2191570699214935,-0.9522153735160828,0.1684670448303222,-0.6938416957855225,1.732392191886902,69.32459259033203,25.03,0
-0.1798268109560012,-1.0365078449249268,0.1640902012586593,-0.7175434231758118,1.7329953908920288,69.3372802734375,25.03,0
-0.1377936005592346,-1.1633729934692385,0.1109014227986335,-0.8044053316116333,1.7333825826644895,69.34542083740234,25.03,0
-0.1276124268770218,-1.306363224983215,0.0655723810195922,-0.7096801400184631,1.7336310148239136,69.35064697265625,25.03,0
-0.1546653807163238,-1.2133996486663818,0.047678355127573,-0.1652432382106781,1.733790397644043,69.35399627685547,25.03,0
-0.155233085155487,-1.047383189201355,0.0305972229689359,0.7752699851989746,1.7338926792144775,69.35614776611328,25.03,0
-0.0884241089224815,-0.9856256246566772,-0.0027555618435144,1.4003326892852783,1.7330400943756104,69.35752868652344,25.03,0
-0.0455499552190303,-1.001970887184143,-0.080137200653553,0.99896502494812,1.7324930429458618,69.35841369628906,25.03,0
-0.0516224354505538,-1.0628403425216677,-0.1521873772144317,-0.11126259714365,1.7321419715881348,69.3589859008789,25.03,0
-0.0499216318130493,-1.0515228509902954,-0.1704361587762832,-0.9312201142311096,1.7319166660308838,69.3593521118164,25.03,0
-0.032036829739809,-1.0162711143493652,-0.1597560793161392,-0.9594436287879944,1.7317720651626587,69.35958099365234,25.03,0
-0.0261571668088436,-0.9824529886245728,-0.158500000834465,-0.422256588935852,1.7316793203353882,69.35973358154297,25.03,0
-0.0671661347150802,-0.9719460010528564,-0.152096152305603,0.2449109405279159,1.7316197156906128,69.35983276367188,25.03,0
-0.0934833288192749,-0.9652032256126404,-0.1367909759283065,0.6479825973510742,1.731581449508667,69.35989379882812,25.03,0
-0.1215677410364151,-0.9440827965736388,-0.104577898979187,0.5591409802436829,1.7320162057876587,69.35993194580078,25.03,0
-0.1563840210437774,-0.9193333387374878,-0.0671120733022689,0.1402873545885086,1.7322951555252075,69.35995483398438,25.03,0
-0.1955204308032989,-0.8978528380393982,-0.0318731181323528,-0.1500042229890823,1.7324742078781128,69.35997009277344,25.03,0
-0.2430270165205001,-0.8896656632423401,-0.0036610080860555,-0.0317777171730995,1.7325891256332395,69.35997772216797,25.03,0
-0.27911177277565,-0.890009343624115,0.0144438985735178,0.2554652094841003,1.7326629161834717,69.3599853515625,25.03,0
-0.2910733520984649,-0.9014254808425904,0.031660359352827,0.3036633133888244,1.7327102422714231,69.35999298095703,25.03,0
-0.2651629745960235,-0.9255449771881104,0.0371111184358596,0.0515705980360507,1.7327406406402588,69.35999298095703,25.03,0
-0.2261440753936767,-0.946621298789978,0.0294135548174381,-0.2642587423324585,1.7327600717544556,69.35999298095703,25.03,0
-0.19550621509552,-0.9937334656715392,-0.0147107187658548,-0.3236368000507355,1.7327725887298584,69.35999298095703,25.03,0
-0.1758446097373962,-1.057554006576538,-0.0822115615010261,0.1398183703422546,1.7327805757522583,69.35999298095703,25.03,0
-0.2136068940162658,-1.160085916519165,-0.1311274915933609,0.910137176513672,1.732785701751709,69.35999298095703,25.03,0
-0.282622754573822,-1.0803427696228027,-0.0729545280337333,1.221772074699402,1.7327890396118164,69.35999298095703,25.03,0
-0.2877287268638611,-0.9955816268920898,-0.0244269166141748,0.6873334646224976,1.7327911853790283,69.35999298095703,25.03,0
-0.2070388346910476,-1.025153398513794,-0.0268713384866714,-0.142868772149086,1.7327924966812134,69.77557373046875,25.03,0
-0.1048767417669296,-1.0441309213638306,-0.0452333502471447,-0.6004106998443604,1.7327934503555298,70.04226684570312,25.03,0
0.0054672164842486,-1.0395162105560305,-0.0514192581176757,-0.6038461327552795,1.7327940464019775,70.21341705322266,25.03,0
0.0482907406985759,-1.0197614431381226,-0.0441934689879417,-0.4305045902729034,1.7291219234466553,70.32324981689453,25.05,0
0.0141968932002782,-0.9734973311424256,-0.0171652752906084,-0.3228465318679809,1.726765275001526,70.39373779296875,25.05,0
-0.035671442747116,-0.9214165806770324,0.0001798625307856,-0.4866251945495605,1.725252985954285,70.43897247314453,25.05,0
-0.0676740705966949,-0.8767986297607422,0.0113109741359949,-0.9535690546035768,1.7242825031280518,70.46800231933594,25.05,0
-0.0826137438416481,-0.8257743120193481,0.0352476052939891,-1.3750343322753906,1.723659634590149,70.48663330078125,25.05,0
-0.1033967137336731,-0.7986276149749756,0.0562065318226814,-1.290831446647644,1.7232599258422852,70.49858856201172,25.05,0
-0.1391251236200332,-0.7924019694328308,0.0752545371651649,-0.7065737247467041,1.723003387451172,70.50625610351562,25.05,0
-0.1788468807935714,-0.7996022701263428,0.0986739993095398,-0.1345891207456588,1.7228387594223022,70.51117706298828,25.05,0
-0.2043380290269851,-0.815418541431427,0.1193010360002517,0.0497663281857967,1.7227331399917605,70.51433563232422,25.05,0
-0.2206967771053314,-0.87035071849823,0.1437338292598724,0.0211894381791353,1.722665309906006,70.51636505126953,25.05,0
-0.2255970984697342,-0.9223963022232056,0.1538156121969223,0.2822913229465484,1.7226217985153198,70.51766967773438,25.05,0
-0.223144069314003,-0.9949806332588196,0.1434922069311142,1.1018801927566528,1.722593903541565,70.51850128173828,25.05,0
-0.2159720808267593,-1.0639522075653076,0.1200739070773124,2.032676219940185,1.7225760221481323,70.51903533935547,25.05,0
-0.2001739740371704,-1.119409680366516,0.0938498452305793,2.235924243927002,1.7225645780563354,70.51937866210938,25.05,0
-0.2180245220661163,-1.1885857582092283,0.0714229792356491,1.459965467453003,1.7225571870803833,70.51959991455078,25.05,0
-0.2518710792064667,-1.1881967782974243,0.0738240256905555,0.2992233633995056,1.7225524187088013,70.51974487304688,25.05,0
-0.2903851568698883,-1.053600549697876,0.0865604281425476,-0.5137431025505066,1.7230082750320437,70.51983642578125,25.05,0
-0.2591235339641571,-1.0008111000061035,0.0835383757948875,-0.6127142310142517,1.723300814628601,70.5198974609375,25.05,0
-0.2166705429553985,-1.0061182975769043,0.070403441786766,-0.163919910788536,1.7234885692596436,70.51993560791016,25.05,0
-0.1950244307518005,-1.0599040985107422,0.0507786497473716,0.2315677255392074,1.7236090898513794,70.51995849609375,25.05,0
-0.1867309659719467,-1.0944207906723022,0.0381845906376838,0.2095106244087219,1.723686456680298,70.51997375488281,25.05,0
-0.1870064735412597,-1.0438004732131958,0.0524935461580753,0.0628003478050232,1.723736047744751,70.51998138427734,25.05,0
-0.1703899651765823,-1.0001198053359983,0.0504806600511074,0.0797099769115448,1.723767876625061,70.51998901367188,25.05,0
-0.1597264409065246,-0.9608924388885498,0.0491889044642448,0.0583184249699115,1.7237883806228638,70.51998901367188,25.05,0
-0.1528832018375396,-0.9133275151252748,0.0539577044546604,-0.2097723186016082,1.7219654321670532,70.51998901367188,25.05,0
-0.1596871614456176,-0.8660097718238831,0.0738113671541214,-0.5430334210395813,1.7207956314086914,70.51998901367188,25.05,0
-0.1696513146162033,-0.8300461769104004,0.0865523070096969,-0.681667149066925,1.7200448513031006,70.51998901367188,25.05,0
-0.204034611582756,-0.8125645518302917,0.0947287082672119,-0.6130009293556213,1.7195630073547363,70.51998901367188,25.05,0
-0.231697604060173,-0.8069436550140381,0.0999758541584014,-0.4937008321285248,1.7192538976669312,70.51998901367188,25.05,0
-0.2606456875801086,-0.831325352191925,0.1089409440755844,-0.4458014965057373,1.7190555334091189,70.51998901367188,25.05,0
-0.2792228758335113,-0.8917543292045593,0.120291993021965,-0.5225397348403931,1.7189282178878784,70.89974975585938,25.05,0
-0.2911446690559387,-0.9473274946212769,0.1275764405727386,-0.5574555993080139,1.7188464403152466,71.1434555053711,25.05,0
-0.2931976020336151,-1.0165778398513794,0.1378489583730697,-0.1642838269472122,1.7201710939407349,71.29985046386719,25.05,0
-0.2777217328548431,-1.061018705368042,0.1500390470027923,0.6469129323959351,1.7210211753845217,71.40021514892578,25.05,0
-0.2174102365970611,-1.1063315868377686,0.141068622469902,1.2104833126068115,1.721566677093506,71.4646224975586,25.05,0
-0.1899013519287109,-1.152204155921936,0.1241163685917854,1.0311813354492188,1.7219167947769165,71.5059585571289,25.05,0
-0.2226276993751526,-1.153653621673584,0.1356284916400909,0.4324679970741272,1.7221415042877195,71.53248596191406,25.05,0
-0.277216225862503,-1.042628288269043,0.1542118489742279,-0.1129677072167396,1.7222856283187866,71.54950714111328,25.05,0
-0.2954546809196472,-0.9825741648674012,0.1605398058891296,-0.5561438798904419,1.722378134727478,71.56043243408203,25.05,0
-0.2343880087137222,-0.98321932554245,0.1310140788555145,-0.8441314101219177,1.7224375009536743,71.56744384765625,25.05,0
-0.1672100573778152,-0.9836333394050598,0.1064683943986892,-0.7853301167488098,1.7192624807357788,71.57194519042969,25.05,0
-0.1129035651683807,-0.9727035164833068,0.1075097098946571,-0.5505531430244446,1.7172249555587769,71.5748291015625,25.05,0
-0.1116394326090812,-0.9321027398109436,0.0969824120402336,-0.5037814974784851,1.7159173488616943,71.5766830444336,25.05,0
-0.1108281835913658,-0.9060474634170532,0.0734332799911499,-0.5955737233161926,1.7150782346725464,71.57787322998047,25.05,0
-0.1159053444862365,-0.8837289214134216,0.0415274761617183,-0.5756640434265137,1.714539647102356,71.5786361694336,25.05,0
-0.1135658025741577,-0.8638083934783936,0.0210521686822175,-0.4374969899654388,1.7141940593719482,71.5791244506836,25.05,0
-0.1120644137263298,-0.8454267978668213,0.0247056186199188,-0.2556823492050171,1.7139723300933838,71.57943725585938,25.05,0
-0.1278942376375198,-0.8392282724380493,0.0382457412779331,-0.0458572022616863,1.7138299942016602,71.57964324951172,25.05,0
-0.1436506807804107,-0.8464459776878357,0.0581305623054504,0.0995442122220993,1.713279366493225,71.57977294921875,25.05,0
-0.1425667107105255,-0.8510779142379761,0.0932825952768325,0.1498635560274124,1.7129260301589966,71.5798568725586,25.05,0
-0.1418710798025131,-0.8596481680870056,0.1214389204978942,0.2609722912311554,1.712699294090271,71.57991027832031,25.05,0
-0.1526202112436294,-0.8931369781494141,0.1451058089733123,0.4970739483833313,1.7125537395477295,71.57994079589844,25.05,0
-0.1875072568655014,-0.9202259182929992,0.1658916175365448,0.7775630950927734,1.7124602794647217,71.57996368408203,25.05,0
-0.2154935300350189,-0.9376100301742554,0.1792307645082473,0.9969732165336608,1.7124003171920776,71.5799789428711,25.05,0
-0.211062416434288,-1.0607216358184814,0.1542044132947921,1.0123878717422483,1.7123619318008425,71.57998657226562,25.05,0
-0.2138165533542633,-1.2740741968154907,0.1213506162166595,0.6461097002029419,1.7123372554779053,71.57999420166016,25.05,0
-0.3051483929157257,-1.276644945144653,0.1170602589845657,-0.0582639873027801,1.7136985063552856,71.57999420166016,25.05,0
-0.3077821731567383,-1.1159592866897583,0.0919158607721328,-0.6894192695617676,1.714572191238403,71.57999420166016,25.05,0
-0.2590923905372619,-1.0576226711273191,0.0477907583117485,-0.7469485402107239,1.7151328325271606,71.57999420166016,25.05,0
-0.2278461009263992,-1.0705655813217163,0.0026804830413311,-0.2034902870655059,1.715492606163025,71.57999420166016,25.05,0
-0.2189895808696746,-1.0620782375335691,-0.0262686908245086,0.449788898229599,1.7157235145568848,71.57999420166016,25.05,0
-0.2245015203952789,-0.9726649522781372,-0.0616399273276329,0.7185577154159546,1.7158716917037964,71.57999420166016,25.05,0
-0.211245447397232,-0.9264801740646362,-0.1179257929325103,0.4575464129447937,1.7159667015075684,71.57999420166016,25.05,0
-0.2027384638786316,-0.9136347770690918,-0.1540468335151672,-0.114786647260189,1.7160277366638184,71.93109130859375,25.05,0
-0.1972791701555252,-0.8997935652732849,-0.1716294586658477,-0.5823891758918762,1.7119354009628296,72.15640258789062,25.03,0
-0.1937757134437561,-0.8909111022949219,-0.177315205335617,-0.6424370408058167,1.709309220314026,72.30099487304688,25.03,0
-0.1915273964405059,-0.896406352519989,-0.1809639781713485,-0.3621230721473694,1.707623839378357,72.39378356933594,25.03,0
-0.1956823319196701,-0.9055306911468506,-0.1609144657850265,-0.081921562552452,1.7065422534942627,72.45333099365234,25.03,0
-0.198348730802536,-0.9057883620262146,-0.1312545090913772,-0.070485420525074,1.705848217010498,72.49154663085938,25.03,0
-0.2168531864881515,-0.917149305343628,-0.1066226884722709,-0.2279448360204696,1.7054028511047363,72.51606750488281,25.03,0
-0.2343260645866394,-0.9356356263160706,-0.0964131727814674,-0.2430114150047302,1.7051169872283936,72.53180694580078,25.03,0
-0.2343436032533645,-0.9754879474639891,-0.0898612961173057,-0.0663863494992256,1.704933524131775,72.54190826416016,25.03,0
-0.2119637578725814,-1.0122584104537964,-0.0856566801667213,0.1042826622724533,1.706652283668518,72.54838562011719,25.03,0
-0.1976016610860824,-1.0638444423675537,-0.088556170463562,0.3141203224658966,1.707755208015442,72.55254364013672,25.03,0
-0.2107759863138198,-1.1529271602630615,-0.0736235752701759,0.7103101015090942,1.7084630727767944,72.55521392822266,25.03,0
-0.2416216135025024,-1.1821064949035645,-0.0416495986282825,1.0612914562225342,1.708917260169983,72.55693054199219,25.03,0
-0.2446232289075851,-1.083278775215149,-0.0043372185900807,1.071576476097107,1.7092087268829346,72.55802917480469,25.03,0
-0.1905717551708221,-1.042248010635376,-0.0195767004042863,0.8345617055892944,1.7093958854675293,72.55873107910156,25.03,0
-0.1334935277700424,-1.0551011562347412,-0.0461498461663723,0.5893123149871826,1.709515929222107,72.5591812133789,25.03,0
-0.1136573329567909,-1.0801429748535156,-0.0520074106752872,0.3674390017986297,1.7095929384231567,72.5594711303711,25.03,0
-0.1177209317684173,-1.0514311790466309,-0.0445709116756916,0.0996633172035217,1.7123967409133911,72.55966186523438,25.03,0
-0.1483175903558731,-0.993821144104004,-0.0453963689506053,-0.183239534497261,1.714195966720581,72.55978393554688,25.03,0
-0.1735505312681198,-0.9568503499031068,-0.0683171972632408,-0.4328592419624328,1.71535062789917,72.55986022949219,25.03,0
-0.1841458082199096,-0.9331246018409728,-0.0886242389678955,-0.6432068347930908,1.7160916328430176,72.55990600585938,25.03,0
-0.2021407932043075,-0.9234965443611144,-0.1016561314463615,-0.8140215873718262,1.7165671586990356,72.5599365234375,25.03,0
-0.2136889398097992,-0.9229156374931335,-0.110019251704216,-0.9487187266349792,1.7168723344802856,72.5599594116211,25.03,0
-0.2266976535320282,-0.9281405806541444,-0.1153862178325653,-1.099645972251892,1.7170681953430176,72.55997467041016,25.03,0
-0.2350458949804306,-0.9370914101600648,-0.1132326498627662,-1.2896493673324585,1.717193841934204,72.55998229980469,25.03,0
-0.2236099988222122,-0.9260422587394714,-0.1062528416514396,-1.4044173955917358,1.7181923389434814,72.55998992919922,25.03,0
-0.2050755470991134,-0.9133537411689758,-0.0793825089931488,-1.2917749881744385,1.718833088874817,72.55998992919922,25.03,0
-0.2043767422437667,-0.9052109718322754,-0.0621386729180812,-0.9543769955635072,1.719244360923767,72.55998992919922,25.03,0
-0.2207216173410415,-0.927974283695221,-0.0566703453660011,-0.5121520757675171,1.7195082902908323,72.55998992919922,25.03,0
-0.2256130427122116,-0.9705713391304016,-0.0643566399812698,0.0367529839277267,1.7196775674819946,72.55998992919922,25.03,0
-0.2343498617410659,-1.0762765407562256,-0.0804848074913024,0.8941518664360046,1.719786286354065,72.55998992919922,25.03,0
-0.2791410684585571,-1.2280787229537964,-0.1356171369552612,2.006845474243164,1.719856023788452,72.55998992919922,25.03,0
-0.3246788084506988,-1.2303344011306765,-0.1709978878498077,2.760316610336304,1.7199007272720337,72.55998992919922,25.03,0
-0.3091201186180115,-1.1814019680023191,-0.2272898703813552,2.684969186782837,1.724520206451416,72.8824234008789,25.05,0
-0.2823421061038971,-1.172391057014465,-0.297001451253891,2.0813162326812744,1.7274847030639648,73.08934783935547,25.05,0
-0.2763530910015106,-1.1498150825500488,-0.3417383432388305,1.4288159608840942,1.7293871641159058,73.22213745117188,25.05,0
-0.2725096642971039,-1.0681538581848145,-0.3592523634433746,0.8058719635009766,1.7306081056594849,73.3073501586914,25.05,0
-0.2588476240634918,-0.993357241153717,-0.3704918622970581,0.2663819193840027,1.7313915491104126,73.3620376586914,25.05,0
-0.2276890277862548,-0.9117704629898072,-0.3665091693401336,-0.0189279150217771,1.7318943738937378,73.39713287353516,25.05,0
-0.2076932340860366,-0.8706082701683044,-0.3583555221557617,-0.1948582082986831,1.7322170734405518,73.4196548461914,25.05,0
-0.1948610842227935,-0.8441927433013916,-0.3419274389743805,-0.5585404634475708,1.7324241399765017,73.4341049194336,25.05,0
-0.2034194618463516,-0.8608274459838867,-0.3201892971992492,-1.107197403907776,1.7298027276992798,73.4433822631836,25.05,0
-0.2033139616250991,-0.8826981782913208,-0.2950434386730194,-1.5703537464141846,1.7281204462051392,73.44933319091797,25.05,0
-0.1976484954357147,-0.9023313522338868,-0.2509174048900604,-1.6597914695739746,1.7270408868789673,73.45315551757812,25.05,0
-0.1884149461984634,-0.920528531074524,-0.2058065384626388,-1.3445994853973389,1.726348042488098,73.45560455322266,25.05,0
-0.1768916100263595,-0.9322064518928528,-0.1656614392995834,-0.9631986618041992,1.7259033918380735,73.4571762084961,25.05,0
-0.1750943660736084,-0.9732873439788818,-0.1398986279964447,-0.7327678799629211,1.7256180047988892,73.45819091796875,25.05,0
-0.1683432310819625,-1.0276395082473757,-0.1233655363321304,-0.4272573292255401,1.7254348993301392,73.4588394165039,25.05,0
-0.1696085184812545,-1.0737152099609375,-0.1239510923624038,0.137807011604309,1.725317358970642,73.4592514038086,25.05,0
-0.1816160529851913,-1.1872504949569702,-0.1411201953887939,0.7834563255310059,1.7293734550476074,73.45951843261719,25.05,0
-0.1949195712804794,-1.2433176040649414,-0.1353450119495391,1.3482649326324463,1.7319763898849487,73.4596939086914,25.05,0
-0.2034569978713989,-1.133756160736084,-0.1036499589681625,1.76446533203125,1.7336468696594238,73.45980072021484,25.05,0
-0.1809469610452652,-1.018663763999939,-0.0889076739549636,1.766448140144348,1.7347187995910645,73.45986938476562,25.05,0
-0.1217191219329834,-0.9671951532363892,-0.1074358001351356,1.176595687866211,1.735406756401062,73.45991516113281,25.05,0
-0.1061011999845504,-0.9789477586746216,-0.1305216252803802,0.3323275148868561,1.7358481884002686,73.45994567871094,25.05,0
-0.112871840596199,-1.0088809728622437,-0.150934562087059,-0.2381358444690704,1.7361315488815308,73.45996856689453,25.05,0
-0.1452057212591171,-0.98330819606781,-0.1696321815252304,-0.3964370191097259,1.7363133430480957,73.45997619628906,25.05,0
-0.1491624116897583,-0.9557015299797058,-0.1816312372684478,-0.3977134823799133,1.7359707355499268,73.4599838256836,25.05,0
-0.1405060440301895,-0.9155940413475036,-0.1837337613105774,-0.4307758212089538,1.7357509136199951,73.45999145507812,25.05,0
-0.1181575655937194,-0.8898553848266602,-0.1738874912261963,-0.4627410471439361,1.735609769821167,73.45999145507812,25.05,0
-0.1094133704900741,-0.8733378052711487,-0.1619709581136703,-0.4796719253063202,1.7355191707611084,73.45999145507812,25.05,0
-0.1093996241688728,-0.8795310854911804,-0.1431280523538589,-0.5371106863021851,1.7354611158370972,73.45999145507812,25.05,0
-0.1037930250167846,-0.8835055828094482,-0.1254379898309707,-0.6062147617340088,1.7354238033294678,73.45999145507812,25.05,0
-0.0834017097949981,-0.8972517251968384,-0.1028899773955345,-0.6577268838882446,1.735399842262268,73.45999145507812,25.05,0
-0.0423268675804138,-0.911670982837677,-0.0828221887350082,-0.7051147222518921,1.735384464263916,73.45999145507812,25.05,0
-0.0103696240112185,-0.9097288846969604,-0.0643460601568222,-0.7104474902153015,1.7353746891021729,73.45999145507812,25.03,0
-0.0122524024918675,-0.9196780920028688,-0.0524891465902328,-0.6887916922569275,1.7353683710098269,73.76093292236328,25.03,0
-0.0302539840340614,-0.9428562521934508,-0.04488006234169,-0.6641465425491333,1.735364317893982,73.95405578613281,25.03,0
-0.0474041365087032,-0.991317331790924,-0.0288014411926269,-0.4190458655357361,1.7353616952896118,74.07799530029297,25.03,0
-0.0528123453259468,-1.0168191194534302,-0.0072875581681728,0.2577191293239593,1.735360026359558,74.15753173828125,25.03,0
-0.0618807934224605,-1.077966809272766,0.0065188133157789,1.1147719621658323,1.735358953475952,74.20857238769531,25.03,0
-0.0900914967060089,-1.2235655784606934,0.0097811734303832,1.700604796409607,1.7353582382202148,74.24132537841797,25.03,0
-0.1249888315796852,-1.2722203731536863,0.0174725428223609,1.875934362411499,1.7353577613830566,74.26234436035156,25.03,0
-0.1193950548768043,-1.146706461906433,0.0112128723412752,1.7770787477493286,1.7358168363571167,74.27583312988281,25.03,0
-0.0878164246678352,-1.0605610609054563,-0.003999772015959,1.5058495998382568,1.736111402511597,74.28449249267578,25.03,0
-0.0787466242909431,-1.050060153007507,-0.0193601455539464,1.023688793182373,1.7363004684448242,74.29004669189453,25.03,0
-0.1065127924084663,-1.0769078731536863,-0.0460108742117881,0.3345127403736114,1.7364217042922974,74.29361724853516,25.03,0
-0.1131359711289405,-1.060550570487976,-0.0631137788295745,-0.4051145613193512,1.736499547958374,74.29590606689453,25.03,0
-0.0782019272446632,-0.9772823452949524,-0.051698338240385,-0.9836595058441162,1.7365494966506958,74.29737091064453,25.03,0
-0.0501854941248893,-0.929443359375,-0.0499703399837017,-1.2904499769210815,1.736581563949585,74.2983169555664,25.03,0
-0.0489994846284389,-0.8987430930137634,-0.0488614104688167,-1.344027400016785,1.7366021871566772,74.29891967773438,25.03,0
-0.0706294700503349,-0.8622480630874634,-0.0425519905984401,-1.206446647644043,1.7352381944656372,74.29930877685547,25.03,0
-0.0845103487372398,-0.8388276696205139,-0.0273074191063642,-1.0106780529022217,1.7343629598617554,74.299560546875,25.03,0
-0.0934183001518249,-0.8349933624267578,-0.0007310058572329,-0.9459487795829772,1.733801245689392,74.29972076416016,25.03,0
-0.1047326847910881,-0.8381304740905762,0.0163242053240537,-1.0799554586410522,1.7334407567977903,74.29981994628906,25.03,0
-0.117591381072998,-0.8625348210334778,0.0272692590951919,-1.155205488204956,1.7332093715667725,74.29988861083984,25.03,0
-0.1314411163330078,-0.9005872011184692,0.0286953896284103,-0.8165784478187561,1.7330609560012815,74.2999267578125,25.03,0
-0.1403290927410125,-0.936202585697174,0.0240128245204687,-0.0045595834963023,1.7329657077789309,74.29995727539062,25.03,0
-0.1404350996017456,-1.0430251359939575,-0.0069810496643185,1.0216904878616333,1.7329045534133911,74.29997253417969,25.03,0
-0.1349053531885147,-1.2179354429244995,-0.0548600070178508,1.834329605102539,1.732865333557129,74.29998016357422,25.03,0
-0.1481500118970871,-1.274204969406128,-0.0631948634982109,2.0262374877929688,1.7328401803970337,74.29998779296875,25.03,0
-0.167845219373703,-1.1591756343841553,-0.0461525991559028,1.5081119537353516,1.7328239679336548,74.29999542236328,25.03,0
-0.1413000524044037,-1.0853564739227295,-0.0408136285841465,0.620309591293335,1.732813596725464,74.29999542236328,25.03,0
-0.0570915937423706,-1.093961238861084,-0.0653762593865394,-0.1249770671129226,1.732806921005249,74.29999542236328,25.03,0
0.0081440964713692,-1.0658966302871704,-0.0811391398310661,-0.327400803565979,1.7328026294708252,74.29999542236328,25.03,0
0.0052264123223721,-0.9751153588294984,-0.0632659792900085,-0.0059001822955906,1.7327998876571655,74.29999542236328,25.03,0
-0.035830408334732,-0.8888683319091797,-0.0294049158692359,0.3186454176902771,1.7327980995178225,74.29999542236328,25.03,0
-0.0621783137321472,-0.8335199356079102,-0.0132726076990365,0.1364193558692932,1.7337148189544678,74.29999542236328,25.05,0
-0.0734891071915626,-0.7924027442932129,0.0026779524050652,-0.4570053815841675,1.7343031167984009,74.29999542236328,25.05,0
-0.0807477235794067,-0.7716138958930969,0.0241096541285514,-0.934560775756836,1.7346806526184082,74.57585906982422,25.05,0
-0.1021992117166519,-0.7806638479232788,0.049058835953474,-1.0511518716812134,1.734923005104065,74.75289154052734,25.05,0
-0.1439544111490249,-0.7864716053009033,0.065069779753685,-1.004165768623352,1.7350784540176392,74.86650085449219,25.05,0
-0.1819460391998291,-0.8069919943809509,0.0753446891903877,-0.988343060016632,1.7351782321929932,74.93940734863281,25.05,0
-0.2007291167974472,-0.8761385679244995,0.0875363051891326,-1.014014720916748,1.735242247581482,74.98619079589844,25.05,0
-0.2015874534845352,-0.9429039359092712,0.0953601822257042,-1.062732458114624,1.735283374786377,75.0162124633789,25.05,0
-0.1909427493810653,-0.9969456791877748,0.0891855508089065,-1.0438406467437744,1.7334736585617063,75.03548431396484,25.05,0
-0.1841115802526474,-1.0596153736114502,0.0628319308161735,-0.8203449845314026,1.7323123216629028,75.0478515625,25.05,0
-0.1853255033493042,-1.1334198713302612,0.0291263684630393,-0.3867297172546386,1.7315670251846311,75.0557861328125,25.05,0
-0.2196911722421646,-1.2759455442428589,-0.0036994710098952,0.1817282140254974,1.7310887575149536,75.06087493896484,25.05,0
-0.2753317356109619,-1.294639229774475,-0.0023741074837744,0.9155371189117432,1.7307817935943604,75.06414031982422,25.05,0
-0.2494631260633468,-1.0883225202560425,-0.0015235655009746,1.669476866722107,1.7305848598480225,75.06623840332031,25.05,0
-0.1712866276502609,-1.0510824918746948,-0.0289666075259447,1.988513469696045,1.7304584980010986,75.06758880615234,25.05,0
-0.1211174502968788,-1.0607706308364868,-0.0745668485760688,1.6630316972732544,1.7303773164749146,75.06845092773438,25.05,0
-0.100117303431034,-1.1285635232925415,-0.1430148780345916,1.0457426309585571,1.7303252220153809,75.06900787353516,25.05,0
-0.0978361666202545,-1.0489180088043213,-0.1253653615713119,0.6137762069702148,1.7302918434143066,75.06936645507812,25.05,0
-0.0851767212152481,-1.003403902053833,-0.0972455963492393,0.5085286498069763,1.7302703857421875,75.06959533691406,25.05,0
-0.0938459411263465,-0.9797933101654052,-0.095993272960186,0.5986201763153076,1.7302566766738892,75.06974029541016,25.05,0
-0.1162026673555374,-0.9590436220169068,-0.100787378847599,0.6492705941200256,1.7302478551864624,75.06983184814453,25.05,0
-0.1361477077007293,-0.9289343357086182,-0.0814728587865829,0.427412211894989,1.730242133140564,75.06989288330078,25.05,0
-0.1545450538396835,-0.8984163999557495,-0.041089043021202,-0.0624735541641712,1.7302385568618774,75.06993103027344,25.05,0
-0.1719491928815841,-0.8844295144081116,-0.0095752598717808,-0.5094093084335327,1.7302361726760864,75.06995391845703,25.05,0
-0.1943137049674987,-0.8810513019561768,0.0050506978295743,-0.6385936737060547,1.7306935787200928,75.0699691772461,25.05,0
-0.2142637372016906,-0.8788833618164062,0.0144367953762412,-0.5495331287384033,1.7309871912002563,75.06997680664062,25.05,0
-0.2326643019914627,-0.871894359588623,0.014862478710711,-0.5747784376144409,1.7311755418777466,75.06998443603516,25.05,0
-0.2444727271795272,-0.8786047697067261,0.0151356579735875,-0.8095165491104126,1.731296420097351,75.06999206542969,25.05,0
-0.2576484680175781,-0.8941066861152649,0.0097131943330168,-0.9995662569999696,1.7313740253448486,75.06999206542969,25.05,0
-0.260506123304367,-0.9152504205703736,-0.0105599546805024,-0.8241754174232483,1.7314238548278809,75.06999206542969,25.05,0
-0.2567422389984131,-0.9400148391723632,-0.0291678681969642,-0.1634856611490249,1.7314558029174805,75.06999206542969,25.05,0
-0.2487290054559707,-0.9671027660369872,-0.0635004565119743,0.751319944858551,1.7314763069152832,75.06999206542969,25.05,0
-0.2379887998104095,-1.023670673370361,-0.1135220006108284,1.3885455131530762,1.7310305833816528,75.06999206542969,25.01,0
-0.2422918975353241,-1.166330337524414,-0.1624162793159485,1.3783189058303833,1.730744481086731,75.06999206542969,25.01,0
-0.284237802028656,-1.106741189956665,-0.1378160715103149,0.9096037745475768,1.7305608987808228,75.06999206542969,25.01,0
-0.299960732460022,-1.0405114889144895,-0.099637970328331,0.3902722597122192,1.7304431200027466,75.32794189453125,25.01,0
-0.2484752684831619,-1.0483890771865845,-0.0583441406488418,-0.0397343747317791,1.7303675413131714,75.49347686767578,25.01,0
-0.159457117319107,-1.0422488451004028,-0.0262463614344596,-0.3837567865848541,1.7303190231323242,75.5997085571289,25.01,0
-0.0407548807561397,-0.9823306798934937,-5.00807618664112e-05,-0.6367737650871277,1.730287790298462,75.66788482666016,25.01,0
-0.0429474599659442,-0.9158897995948792,0.0279567334800958,-0.874379575252533,1.7302677631378174,75.71163177490234,25.01,0
-0.0667456313967704,-0.8676540851593018,0.0459298938512802,-1.155834078788757,1.7284188270568848,75.73970794677734,25.01,0
-0.0988112464547157,-0.8311014175415039,0.0406707115471363,-1.3113772869110107,1.7272323369979858,75.75772857666016,25.01,0
-0.1137913390994072,-0.8076440095901489,0.0428934432566165,-1.124589920043945,1.726470947265625,75.769287109375,25.01,0
-0.1290024816989898,-0.7925903797149658,0.0387220904231071,-0.7109493613243103,1.7259823083877563,75.7767105102539,25.01,0
-0.1667529791593551,-0.7997231483459473,0.0416429303586483,-0.4096728861331939,1.7256686687469482,75.7814712524414,25.01,0
-0.2021746337413787,-0.8154960870742798,0.0547129064798355,-0.3847120404243469,1.7254674434661863,75.78453063964844,25.01,0
-0.2249062061309814,-0.8368138074874878,0.0742960125207901,-0.4546754360198974,1.725338339805603,75.78649139404297,25.01,0
-0.228298470377922,-0.8840809464454651,0.0756677761673927,-0.3562708795070648,1.7252554893493652,75.78775024414062,25.01,0
-0.2080843299627304,-0.9647942185401917,0.0765480920672416,0.065137043595314,1.7252023220062256,75.78855895996094,25.01,0
-0.1783187389373779,-1.0333846807479858,0.0491241589188575,0.8478806614875793,1.7251681089401243,75.78907775878906,25.01,0
-0.1648146659135818,-1.0718042850494385,0.0091339601203799,1.6583019495010376,1.7251461744308472,75.7894058227539,25.01,0
-0.1729418635368347,-1.2028175592422483,-0.0445183217525482,1.798630714416504,1.7251321077346802,75.78961944580078,25.01,0
-0.2061462998390197,-1.3372743129730225,-0.0901448130607605,1.0718584060668943,1.7251230478286743,75.78975677490234,25.01,0
-0.2442483156919479,-1.1660633087158203,-0.0858386233448982,0.2077918350696563,1.725117325782776,75.78984069824219,25.01,0
-0.1847333759069442,-1.0449943542480469,-0.0606840625405311,-0.052945077419281,1.7251136302947998,75.78990173339844,25.01,0
-0.1353445649147033,-1.0680592060089111,-0.0557368621230125,0.1953077316284179,1.7251112461090088,75.7899398803711,25.01,0
-0.0924541279673576,-1.1444364786148071,-0.1029419973492622,0.4477690458297729,1.7241915464401243,75.78996276855469,25.01,0
-0.0705272853374481,-1.137473225593567,-0.1220399960875511,0.455733448266983,1.7236013412475586,75.78997802734375,25.01,0
-0.0788469985127449,-1.0490379333496094,-0.095111571252346,0.2064816802740097,1.7232224941253662,75.78998565673828,25.01,0
-0.0953816622495651,-1.0146764516830444,-0.0834282264113426,-0.2185843586921692,1.7229794263839722,75.78999328613281,25.01,0
-0.1171882078051567,-0.9926251769065856,-0.0759305283427238,-0.5630187392234802,1.7228233814239502,75.78999328613281,25.01,0
-0.1255846172571182,-0.9616805911064148,-0.0599233917891979,-0.5225289463996887,1.7227232456207275,75.78999328613281,25.01,0
-0.1309729516506195,-0.9250288605690002,-0.0328576080501079,-0.1991911232471466,1.7226589918136597,75.78999328613281,25.01,0
-0.1344308704137802,-0.8903123140335083,-0.0098905712366104,0.0190562028437852,1.722617745399475,75.78999328613281,25.01,0
-0.1478455066680908,-0.8456421494483948,0.01044612377882,0.0265594758093357,1.7235095500946045,75.78999328613281,25.05,0
-0.1676498055458068,-0.8169754147529602,0.0234970450401306,-0.0008685356006026,1.7240818738937378,75.78999328613281,25.05,0
-0.2139457017183303,-0.8041765093803406,0.0206768251955509,-0.0542960166931152,1.7244491577148438,75.78999328613281,25.05,0
-0.2548513114452362,-0.8127562403678894,0.0244647450745105,-0.2784591913223266,1.7246848344802856,75.78999328613281,25.05,0
-0.2978954911231994,-0.8462510704994202,0.0324933901429176,-0.6766771078109741,1.7248361110687256,76.04435729980469,25.05,0
-0.3199209868907928,-0.9013327956199646,0.0488412603735923,-0.985969066619873,1.72493314743042,76.20759582519531,25.05,0
-0.3228601217269897,-0.9590721726417542,0.0593323819339275,-0.8190321326255798,1.7249953746795654,76.3123550415039,25.05,0
-0.2855618894100189,-1.0241148471832275,0.060467205941677,-0.0670379847288131,1.725035309791565,76.37957763671875,25.05,0
-0.244832694530487,-1.0938444137573242,0.0444021448493003,0.72006756067276,1.7264381647109983,76.42272186279297,25.05,0
-0.2298905998468399,-1.1833750009536743,0.0172991920262575,0.870511531829834,1.727338433265686,76.45040893554688,25.05,0
-0.259486049413681,-1.1400706768035889,0.0558838210999965,0.4511669278144836,1.7279161214828491,76.46817779541016,25.05,0
-0.3008697926998138,-1.050704836845398,0.0918407589197158,0.0387526750564575,1.728286862373352,76.47957611083984,25.05,0
-0.2938408553600311,-1.0269416570663452,0.1093180850148201,-0.2079981714487075,1.7285248041152954,76.48689270019531,25.05,0
-0.2333523482084274,-1.0396807193756104,0.1093384772539138,-0.5311471819877625,1.72867751121521,76.49158477783203,25.05,0
-0.1217632293701171,-1.008671522140503,0.1149493381381034,-0.892576277256012,1.7287755012512207,76.49459838867188,25.05,0
-0.0725428536534309,-0.9495871663093568,0.1297456175088882,-1.0564517974853516,1.728838324546814,76.49653625488281,25.05,0
-0.0577493757009506,-0.9004746675491333,0.1392410099506378,-1.0971312522888184,1.7293375730514526,76.4977798461914,25.05,0
-0.0650490969419479,-0.8689571022987366,0.1285412907600402,-1.2020536661148071,1.7296580076217651,76.49857330322266,25.05,0
-0.0697336345911026,-0.8431331515312195,0.121674820780754,-1.3016300201416016,1.7298636436462402,76.49908447265625,25.05,0
-0.0615443550050258,-0.8265607953071594,0.111670546233654,-1.265220284461975,1.729995608329773,76.4994125366211,25.05,0
-0.0730822682380676,-0.8327189683914185,0.1052503734827041,-1.1128818988800049,1.730080246925354,76.49962615966797,25.05,0
-0.0916821882128715,-0.8534642457962036,0.1067280545830726,-0.9255554676055908,1.7301346063613892,76.49976348876953,25.05,0
-0.1260096430778503,-0.8667773604393005,0.1188718900084495,-0.6942803263664246,1.7301695346832275,76.49984741210938,25.05,0
-0.1424412578344345,-0.8753209710121155,0.1378606557846069,-0.3595673441886902,1.730191946029663,76.4999008178711,25.05,0
-0.1641816645860672,-0.9199881553649902,0.150046557188034,0.2063246369361877,1.73204243183136,76.49993896484375,25.05,0
-0.172535628080368,-0.9822396636009216,0.1578667610883712,1.2322579622268677,1.7332298755645752,76.49996185302734,25.05,0
-0.1778967231512069,-1.038982391357422,0.1572875380516052,2.592827796936035,1.7339919805526731,76.4999771118164,25.05,0
-0.1701416224241256,-1.220938801765442,0.140122503042221,3.437302589416504,1.7344809770584106,76.49998474121094,25.05,0
-0.1819581687450409,-1.376892328262329,0.1291069835424423,3.0764288902282715,1.734794855117798,76.49999237060547,25.05,0
-0.2119324505329132,-1.2194766998291016,0.1164400801062583,2.0602567195892334,1.734996318817139,76.49999237060547,25.05,0
-0.1975815594196319,-1.107260823249817,0.0859200879931449,1.3543974161148071,1.7351255416870115,76.49999237060547,25.05,0
-0.1883719861507415,-1.074431538581848,0.0495407916605472,1.0483031272888184,1.735208511352539,76.49999237060547,25.05,0
-0.216048464179039,-1.030972599983215,0.0205968804657459,0.8052958846092224,1.7343438863754272,76.49999237060547,25.07,0
-0.2562007308006286,-0.9638986587524414,-0.009173204191029,0.6350175738334656,1.7337889671325684,76.49999237060547,25.07,0
-0.2651748061180115,-0.8872678279876709,-0.0618645809590816,0.5006647109985352,1.7334328889846802,76.49999237060547,25.07,0
-0.254140555858612,-0.8660794496536255,-0.1068744212388992,0.1421690136194229,1.733204364776611,76.49999237060547,25.07,0
-0.2414616197347641,-0.858079731464386,-0.1357591450214386,-0.406742125749588,1.733057737350464,76.49999237060547,25.07,0
-0.2221294641494751,-0.869739294052124,-0.1542956978082656,-0.8306532502174377,1.7329635620117188,76.72569274902344,25.07,0
-0.2153209745883941,-0.8828195333480835,-0.1717891693115234,-1.0489563941955566,1.7329031229019165,76.87053680419922,25.07,0
-0.1997561305761337,-0.885615885257721,-0.1718199253082275,-1.2212939262390137,1.7328643798828125,76.96349334716797,25.07,0
-0.1785719543695449,-0.8930082321166992,-0.1718396544456482,-1.4465326070785522,1.7328394651412964,77.02314758300781,25.07,0
-0.1649771779775619,-0.8977521657943726,-0.1718523204326629,-1.6269036531448364,1.7328234910964966,77.0614242553711,25.07,0
-0.145057275891304,-0.906394362449646,-0.1662626713514328,-1.610100030899048,1.7328132390975952,77.08599090576172,25.07,0
-0.1378716081380844,-0.9175381660461426,-0.1626755595207214,-1.3342058658599854,1.73280668258667,77.10175323486328,25.07,0
-0.1388580352067947,-0.9750696420669556,-0.1603735536336898,-0.8848771452903748,1.7328025102615356,77.11186981201172,25.07,0
-0.1338932961225509,-1.0511744022369385,-0.153298482298851,-0.3994821608066559,1.732799768447876,77.11836242675781,25.07,0
-0.1027183309197425,-1.1112096309661863,-0.1487581133842468,-0.0306624043732881,1.7327980995178225,77.12252807617188,25.07,0
-0.0827120319008827,-1.1553345918655396,-0.1402465850114822,0.1845294535160064,1.7327970266342163,77.12520599365234,25.07,0
-0.0810686945915222,-1.1948469877243042,-0.129186600446701,0.3799484074115753,1.7314192056655884,77.12692260742188,25.07,0
-0.08001409471035,-1.1642260551452637,-0.1108933985233306,0.6558251976966858,1.730534911155701,77.12802124023438,25.07,0
-0.0345551185309886,-1.066206455230713,-0.093556098639965,0.9295966029167176,1.729967474937439,77.12873077392578,25.07,0
0.0226067099720239,-1.0256941318511963,-0.0936255678534507,1.1339479684829712,1.729603290557861,77.12918090820312,25.07,0
0.0816809758543968,-1.016489028930664,-0.1160612478852272,1.2364282608032229,1.7293696403503418,77.12947082519531,25.07,0
0.1139936670660972,-1.004983901977539,-0.1248613968491554,1.0621616840362549,1.729219675064087,77.1296615600586,25.07,0
0.0899478942155838,-0.9472206234931946,-0.1193132773041725,0.5132531523704529,1.72912335395813,77.1297836303711,25.07,0
0.0633211582899093,-0.8989559412002563,-0.1101550385355949,-0.129193365573883,1.7290616035461426,77.1298599243164,25.07,0
