acc_x,acc_y,acc_z,bvp,eda,hr,temp,label
0.0,0.0,0.0,0.0,0.0,0.0,27.71,1
-0.0494791641831398,-0.1510416567325592,0.0598958283662796,-3.0249998569488525,0.3163476288318634,10.833333015441896,27.71,1
-0.1284298747777938,-0.349466472864151,0.1444359868764877,-10.946341514587402,0.7407164573669434,25.365854263305664,27.71,1
-0.1422861218452453,-0.5071117281913757,0.2179713547229766,-17.52398681640625,1.1098443269729614,38.00664520263672,27.71,1
-0.1844242066144943,-0.6648280620574951,0.2716193795204162,-17.833520889282227,1.379142999649048,47.228782653808594,27.71,1
-0.256871223449707,-0.7606291770935059,0.313431054353714,-11.641634941101074,1.561469554901123,53.47256088256836,27.71,1
-0.3266192078590393,-0.8179354667663574,0.3242063224315643,-2.5748798847198486,1.68110191822052,57.56937789916992,27.71,1
-0.2992602288722992,-0.8159945607185364,0.336764246225357,4.157770156860352,1.7585819959640503,60.22268295288086,27.71,1
-0.3263577222824096,-0.8371049761772156,0.32808318734169,5.671939849853516,1.801616072654724,61.93186950683594,27.71,1
-0.349369078874588,-0.8786467909812927,0.3169088661670685,3.247198343276977,1.8292759656906128,63.03043746948242,27.71,1
-0.3529529571533203,-0.8549546599388123,0.3153297305107116,-0.5627806186676025,1.8470379114151,63.73588562011719,27.71,1
-0.3608507215976715,-0.8677326440811157,0.314316064119339,-4.73867130279541,1.8584394454956048,64.188720703125,27.71,1
-0.371517151594162,-0.8759337067604065,0.3080679178237915,-8.851783752441406,1.86575710773468,64.47935485839844,27.71,1
-0.3727648854255676,-0.8644038438796997,0.3152534067630768,-11.87479019165039,1.8704533576965328,64.66587829589844,27.71,1
-0.3679679036140442,-0.8737977147102356,0.3198647201061249,-13.334754943847656,1.873467206954956,64.78557586669922,27.71,1
-0.3704872131347656,-0.8798261880874634,0.3172262609004974,-13.290060997009276,1.8754013776779173,64.86239624023438,27.71,1
-0.3777017295360565,-0.8780971765518188,0.3211308121681213,-11.645638465881348,1.8279837369918823,64.91169738769531,27.71,1
-0.3711360394954681,-0.8769875764846802,0.323636531829834,-9.25404167175293,1.797553777694702,64.94332885742188,27.71,1
-0.378118097782135,-0.887471079826355,0.3196467757225036,-8.242307662963867,1.7780256271362305,64.96363067626953,27.71,1
-0.3881965577602386,-0.8941987752914429,0.3226841688156128,-9.60644245147705,1.7654935121536257,64.9766616821289,27.71,1
-0.3778710067272186,-0.8761250972747803,0.32463338971138,-11.997295379638672,1.7574511766433716,64.98502349853516,27.71,1
-0.3600491285324096,-0.8813198208808899,0.3258842825889587,-13.96509838104248,1.7522900104522705,64.99038696289062,27.71,1
-0.3374165296554565,-0.8902512192726135,0.3490781486034393,-15.707985877990724,1.7489778995513916,64.99382781982422,27.71,1
-0.3900655210018158,-0.8959829211235046,0.319180428981781,-19.359352111816406,1.7468523979187012,64.99604034423828,27.71,1
-0.3846681714057922,-0.894063413143158,0.3223848938941955,-25.586101531982425,1.7220768928527832,64.9974594116211,27.71,1
-0.3924000263214111,-0.892831563949585,0.3132457733154297,-31.59189414978028,1.7061774730682373,64.99836730957031,27.71,1
-0.3917641043663025,-0.892041027545929,0.3073808252811432,-33.884063720703125,1.6959741115570068,64.99895477294922,27.71,1
-0.3913560211658478,-0.8915337324142456,0.3036170303821563,-32.087738037109375,1.6894261837005615,64.99932861328125,27.71,1
-0.3966918885707855,-0.8912081718444824,0.3012016415596008,-27.570920944213867,1.6852240562438965,64.99957275390625,27.71,1
-0.4001161456108093,-0.8909992575645447,0.2940538227558136,-20.5451602935791,1.6825274229049685,64.99972534179688,27.71,1
-0.3967158794403076,-0.8852673768997192,0.2894667685031891,-12.933920860290527,1.6807968616485596,64.99982452392578,27.71,1
-0.3945337831974029,-0.8815889954566956,0.2865230441093445,-8.819719314575195,1.6796863079071045,64.99988555908203,27.71,1
-0.3987312018871307,-0.879228413105011,0.2846339344978332,-11.388526916503906,1.6785147190093994,64.72406768798828,27.75,1
-0.3958270847797394,-0.8777135610580444,0.2834216058254242,-18.35716438293457,1.6777628660202026,64.54706573486328,27.75,1
-0.3995611667633056,-0.8767414093017578,0.2826436161994934,-23.35587310791016,1.677280306816101,64.43347930908203,27.75,1
-0.3963597118854522,-0.8761175274848938,0.2877421081066131,-18.090965270996094,1.6769707202911377,64.36058044433594,27.75,1
-0.3943051993846893,-0.8701193928718567,0.2854162752628326,9.176362037658691,1.6767719984054563,64.31379699707031,27.75,1
-0.3929867446422577,-0.866270124912262,0.2839236855506897,50.10859298706055,1.6766444444656372,64.28377532958984,27.75,1
-0.3977383971214294,-0.8637998700141907,0.2829658091068268,83.64558410644531,1.6765626668930054,64.26451110839844,27.75,1
-0.400787740945816,-0.8622146248817444,0.2767533361911773,100.99400329589844,1.6765100955963137,64.25215148925781,27.75,1
-0.4139401912689209,-0.861197292804718,0.2727665305137634,103.23526000976562,1.6815260648727417,64.24421691894531,27.75,1
-0.422380656003952,-0.8605444431304932,0.2646102607250213,89.7378158569336,1.684744954109192,64.23912811279297,27.75,1
-0.4445905983448028,-0.8545277118682861,0.2537782490253448,61.181888580322266,1.6868107318878174,64.2358627319336,27.75,1
-0.4756369888782501,-0.8394709825515747,0.2412291169166565,22.73301124572754,1.688136339187622,64.2337646484375,27.75,1
-0.4955607652664184,-0.8242106437683105,0.2275780290365219,-16.930763244628906,1.6889870166778564,64.23241424560547,27.75,1
-0.5139445066452026,-0.8312107920646667,0.2188175469636917,-49.11276626586914,1.689532995223999,64.23155212402344,27.75,1
-0.5313398838043213,-0.8413008451461792,0.2131955772638321,-68.41468811035156,1.6898833513259888,64.23099517822266,27.75,1
-0.548101007938385,-0.8477760553359985,0.2039899379014969,-73.72596740722656,1.6901081800460815,64.23063659667969,27.75,1
-0.553259551525116,-0.8463336825370789,0.2036800682544708,-68.63298797607422,1.6916296482086182,64.23040771484375,27.75,1
-0.5565699934959412,-0.8454080820083618,0.2034812122583389,-58.87298202514648,1.692605972290039,64.23026275634766,27.75,1
-0.5474989414215088,-0.8504118323326111,0.2033535987138748,-49.84740447998047,1.693232536315918,64.23017120361328,27.75,1
-0.5360798835754395,-0.8592207431793213,0.2088694721460342,-44.20577621459961,1.6936346292495728,64.23011016845703,27.75,1
-0.5119584202766418,-0.8648737668991089,0.2236047983169555,-41.2265853881836,1.6938927173614502,64.23007202148438,27.75,1
-0.4740875661373138,-0.8685015439987183,0.2386588603258133,-38.72358703613281,1.6940582990646362,64.23004913330078,27.75,1
-0.4441864788532257,-0.876427412033081,0.2483196854591369,-35.63770294189453,1.6941646337509155,64.23003387451172,27.75,1
-0.4138021171092987,-0.8759160041809082,0.2545194327831268,-32.453617095947266,1.6942328214645386,64.23002624511719,27.75,1
-0.3943032026290893,-0.8755878210067749,0.2584980726242065,-29.24949836730957,1.6961126327514648,64.23001861572266,27.75,1
-0.3873876929283142,-0.8865727782249451,0.2610513567924499,-25.04731750488281,1.6973190307617188,64.23001098632812,27.75,1
-0.3717541694641113,-0.9272089600563048,0.2682876586914062,-19.38780975341797,1.6980931758880615,64.23001098632812,27.75,1
-0.356123685836792,-0.9588846564292908,0.2617359757423401,-13.87501049041748,1.6985900402069092,64.23001098632812,27.75,1
-0.346092939376831,-0.9848101139068604,0.2463359236717224,-10.584410667419434,1.6989089250564575,64.23001098632812,27.75,1
-0.3452535569667816,-0.9958497881889344,0.2308552861213684,-9.540301322937012,1.6991134881973269,64.23001098632812,27.75,1
-0.3671059906482696,-1.042118787765503,0.2265184819698333,-9.475707054138184,1.6992448568344116,64.23001098632812,27.75,1
-0.3643363118171692,-1.010236144065857,0.2013442665338516,-10.046874046325684,1.699329137802124,64.23001098632812,27.75,1
-0.3401677906513214,-0.950591206550598,0.1795911341905594,-11.380712509155272,1.699842095375061,64.1476058959961,27.75,1
-0.3470489084720611,-0.9459011554718018,0.1656312197446823,-12.480307579040527,1.7001712322235107,64.0947265625,27.75,1
-0.3514648377895355,-0.9372935891151428,0.1734658777713775,-12.078948974609377,1.7003824710845947,64.060791015625,27.75,1
-0.3598964810371399,-0.9037808775901794,0.1840914785861969,-10.187726020812988,1.700518012046814,64.03900909423828,27.75,1
-0.3541118800640106,-0.854285478591919,0.1797148287296295,-7.662825107574463,1.700605034828186,64.02503204345703,27.75,1
-0.3392041027545929,-0.8225221633911133,0.1992972493171692,-5.175505638122559,1.7006609439849854,64.01606750488281,27.75,1
-0.3408327102661133,-0.8133338689804077,0.223059669137001,-3.1171348094940186,1.70069682598114,64.01031494140625,27.75,1
-0.353073388338089,-0.8186329007148743,0.2383090257644653,-1.7137916088104248,1.7007198333740234,64.00662231445312,27.75,1
-0.3553309738636017,-0.8276312947273254,0.2424973994493484,-0.8561976552009583,1.701652765274048,64.0042495727539,27.75,1
-0.3903664350509643,-0.8222103714942932,0.2619785964488983,-0.1732879728078842,1.702251434326172,64.00272369384766,27.75,1
-0.4240457117557525,-0.8187315464019775,0.2744804918766022,0.6447171568870544,1.702635645866394,64.00174713134766,27.75,1
-0.4288658201694488,-0.8332923650741577,0.2601124048233032,1.5995748043060305,1.7028822898864746,64.0011215209961,27.75,1
-0.4487524032592773,-0.8594300150871277,0.2564895451068878,2.4093892574310303,1.7030404806137085,64.00071716308594,27.75,1
-0.4559167027473449,-0.8762036561965942,0.2597623765468597,2.7141270637512207,1.7031420469284058,64.00045776367188,27.75,1
-0.4773076474666595,-0.9261524081230164,0.2674604654312134,2.3364779949188232,1.70320725440979,64.00029754638672,27.75,1
-0.5134262442588806,-0.9638044238090516,0.2668029069900512,1.3310359716415403,1.7032490968704224,64.00019073486328,27.75,1
-0.5254095196723938,-0.9823695421218872,0.2551853656768799,-0.1059479787945747,1.7014398574829102,64.0001220703125,27.75,1
-0.5163063406944275,-1.0446635484695437,0.2421321272850036,-1.6694025993347168,1.7002787590026855,64.00007629394531,27.75,1
-0.4992689192295074,-1.1350202560424805,0.2337553054094314,-3.095481634140014,1.6995337009429932,64.00004577636719,27.75,1
-0.4603464007377624,-1.07545268535614,0.2227817624807357,-4.454896450042725,1.699055552482605,64.00003051757812,27.75,1
-0.4353681802749634,-0.9980412125587464,0.2157395780086517,-6.079631328582764,1.6987487077713013,64.0000228881836,27.75,1
-0.4081430435180664,-0.9091785550117492,0.2000247538089752,-8.017936706542969,1.6985517740249634,64.00001525878906,27.75,1
-0.3738782107830047,-0.85215163230896,0.1843421161174774,-9.713233947753906,1.6984254121780396,64.00000762939453,27.75,1
-0.3406934440135956,-0.8155550360679626,0.1742779016494751,-10.5826416015625,1.698344349861145,64.00000762939453,27.75,1
-0.330592930316925,-0.7920694351196289,0.1454281657934188,-10.531538963317873,1.695996880531311,64.00000762939453,27.75,1
-0.3465020954608917,-0.7769977450370789,0.1325118392705917,-9.52070140838623,1.6944904327392578,64.00000762939453,27.75,1
-0.3902983367443084,-0.7897167205810547,0.1242228895425796,-7.3386616706848145,1.693523645401001,64.00000762939453,27.75,1
-0.4184042513370514,-0.8034767508506775,0.1189035177230835,-4.351273059844971,1.6929032802581787,64.00000762939453,27.75,1
-0.4756254255771637,-0.8626871705055237,0.1042943075299263,-1.663885235786438,1.692505121231079,64.00000762939453,27.75,1
-0.5067489147186279,-0.8894894123077393,0.0837234035134315,0.1682028770446777,1.6922496557235718,64.00000762939453,27.75,1
-0.532319962978363,-0.8898962736129761,0.0705221816897392,1.591129183769226,1.6920857429504397,64.00000762939453,27.75,1
-0.5599254965782166,-0.9853194952011108,0.0452570766210556,2.9485208988189697,1.691980481147766,64.00000762939453,27.75,1
-0.5552500486373901,-1.0185678005218506,0.0458367094397544,4.0883097648620605,1.683191180229187,63.90327453613281,27.71,1
-0.5186629891395569,-0.9783291220664978,0.0685997828841209,4.930820465087891,1.6775506734848022,63.8411979675293,27.71,1
-0.5175746083259583,-0.9637017846107484,0.0776100382208824,5.378348350524902,1.6739310026168823,63.801361083984375,27.71,1
-0.522473931312561,-0.9375214576721193,0.0889900773763656,5.278627872467041,1.6716080904006958,63.77579498291016,27.71,1
-0.5032269358634949,-0.8479493856430054,0.1242820024490356,4.870705604553223,1.6701173782348633,63.7593879699707,27.71,1
-0.4628864526748657,-0.7456849813461304,0.1469303220510482,4.3473968505859375,1.6691607236862185,63.74885940551758,27.71,1
-0.4146071374416351,-0.663264274597168,0.1670624911785125,3.069350004196167,1.6685467958450315,63.74210357666016,27.71,1
-0.4116131365299225,-0.6551535725593567,0.1967754811048507,0.4184768497943878,1.6681528091430664,63.73776626586914,27.71,1
-0.4152895212173462,-0.6835352182388306,0.2102457880973816,-2.6978182792663574,1.6550467014312744,63.7349853515625,27.71,1
-0.4232465922832489,-0.7521288990974426,0.2412813603878021,-4.450479507446289,1.6466360092163086,63.73320007324219,27.71,1
-0.439548522233963,-0.8017461895942688,0.2779915332794189,-4.3499956130981445,1.6412384510040283,63.732051849365234,27.71,1
-0.4779990315437317,-0.8223921656608582,0.318343311548233,-3.508091926574707,1.6377747058868408,63.73131561279297,27.71,1
-0.530663251876831,-0.8636304140090942,0.3554343283176422,-2.552227735519409,1.6355518102645874,63.73084259033203,27.71,1
-0.5532645583152771,-0.9404747486114502,0.3680416643619537,-0.9285229444503784,1.6341252326965332,63.73054122924805,27.71,1
-0.5901598930358887,-1.0905488729476929,0.3761323094367981,1.4605257511138916,1.6332098245620728,63.7303466796875,27.71,1
-0.6138371825218201,-1.1644667387008667,0.3925199806690216,4.007548809051514,1.6326223611831665,63.73022079467773,27.71,1
-0.6178363561630249,-1.172718524932861,0.3694500029087066,6.88881778717041,1.6313271522521973,63.73014068603516,27.71,1
-0.5812183618545532,-1.1276341676712036,0.315460592508316,10.754840850830078,1.6304959058761597,63.7300910949707,27.71,1
-0.563316822052002,-1.1042993068695068,0.2752155065536499,15.120266914367676,1.62996244430542,63.73005676269531,27.71,1
-0.5406330823898315,-1.0837266445159912,0.2437907606363296,18.84246826171875,1.6296201944351196,63.73003768920898,27.71,1
-0.4980871081352234,-1.0537309646606443,0.2180263996124267,22.16621398925781,1.6294004917144775,63.73002243041992,27.71,1
-0.4315991103649139,-0.9785037040710448,0.179101213812828,26.44158172607422,1.629259467124939,63.73001480102539,27.71,1
-0.3777354061603546,-0.913433849811554,0.1261323988437652,31.33839607238769,1.62916898727417,63.730010986328125,27.71,1
-0.3599621057510376,-0.8828713297843933,0.0809445157647132,34.26593399047852,1.6291109323501587,63.73000717163086,27.71,1
-0.365349531173706,-0.8800513744354248,0.0295544359833002,33.41831970214844,1.6286144256591797,63.7300033569336,27.71,1
-0.3688068985939026,-0.8670461177825928,-0.0090225357562303,30.033388137817383,1.6282957792282104,63.7300033569336,27.71,1
-0.3766233921051025,-0.8531023263931274,-0.0393767915666103,27.13745307922364,1.6280913352966309,63.7300033569336,27.71,1
-0.3704440295696258,-0.86094731092453,-0.0476608574390411,26.92341041564941,1.6279600858688354,63.7300033569336,27.71,1
-0.3720762431621551,-0.8715795874595642,-0.0473793186247348,29.15771484375,1.6278759241104126,63.7300033569336,27.71,1
-0.3899170160293579,-0.8951960802078247,-0.0471986420452594,31.42630386352539,1.6278218030929563,63.7300033569336,27.71,1
-0.406963974237442,-0.9495362043380736,-0.0358871445059776,30.879493713378903,1.6277871131896973,63.7300033569336,27.71,1
-0.4235015213489532,-1.085168480873108,-0.0342258512973785,26.03961563110352,1.6277648210525513,63.7300033569336,27.71,1
-0.411723256111145,-0.9986785054206848,0.0060246908105909,17.552631378173828,1.6282098293304443,63.80523681640625,27.73,1
-0.398566871881485,-0.8704031109809875,0.0542462691664695,7.559885025024414,1.628495454788208,63.853515625,27.73,1
-0.4628949165344238,-0.86085444688797,0.0795943289995193,-2.227670431137085,1.6286786794662476,63.884498596191406,27.73,1
-0.498579204082489,-0.8603244423866272,0.1014590263366699,-11.260178565979004,1.6287963390350342,63.90438079833984,27.73,1
-0.5046859979629517,-0.83199542760849,0.1434794068336486,-18.5219955444336,1.6288717985153198,63.91714096069336,27.73,1
-0.4750183224678039,-0.7858266234397888,0.1704456657171249,-22.70931053161621,1.6289201974868774,63.925331115722656,27.73,1
-0.4727726578712463,-0.7673937082290649,0.1933488398790359,-25.303342819213867,1.6289513111114502,63.93058776855469,27.73,1
-0.5049181580543518,-0.789151132106781,0.2192423194646835,-29.85559844970703,1.6289712190628052,63.9339599609375,27.73,1
-0.5479384064674377,-0.808711588382721,0.2246637195348739,-36.4670295715332,1.628065824508667,63.93612289428711,27.73,1
-0.5587529540061951,-0.8268621563911438,0.2001539915800094,-40.64537811279297,1.6274847984313965,63.9375114440918,27.73,1
-0.5488998293876648,-0.8441079258918762,0.2180117070674896,-39.5221061706543,1.6271119117736816,63.93840408325195,27.73,1
-0.5537722110748291,-0.8495774865150452,0.1902873367071151,-35.81696701049805,1.6268726587295532,63.9389762878418,27.73,1
-0.4001613259315491,-0.8810763955116272,0.2284731715917587,-33.60402297973633,1.6267191171646118,63.9393424987793,27.73,1
-0.3687559962272644,-0.918083906173706,0.2417830973863601,-33.30164337158203,1.626620531082153,63.939579010009766,27.73,1
-0.5221328735351562,-0.9586265087127686,0.1439669281244278,-33.56974792480469,1.626557230949402,63.939727783203125,27.73,1
-0.5981702208518982,-1.0686110258102417,0.0588030405342578,-35.103179931640625,1.6265166997909546,63.939823150634766,27.73,1
-0.6581621766090393,-1.1615839004516602,0.020943084731698,-38.18663787841797,1.6301631927490234,63.939884185791016,27.73,1
-0.6742704510688782,-1.053315281867981,0.0190378408879041,-39.32352066040039,1.6325032711029053,63.93992614746094,27.73,1
-0.6902055740356445,-1.034214735031128,0.0066196154803037,-35.08407211303711,1.6340049505233765,63.9399528503418,27.73,1
-0.7284206748008728,-1.0163593292236328,-0.0293385591357946,-26.749542236328125,1.634968638420105,63.93996810913086,27.73,1
-0.6633805632591248,-0.9657163023948668,-0.0188277978450059,-17.3060359954834,1.6355870962142944,63.939979553222656,27.73,1
-0.588054895401001,-0.9108254313468932,-0.0008870487217791,-7.322818279266357,1.6359840631484983,63.93998718261719,27.73,1
-0.5061286091804504,-0.8700018525123596,-0.0061670313589274,3.4008405208587646,1.6362388134002686,63.93999099731445,27.73,1
-0.4479552507400512,-0.8438035845756531,-0.0151531947776675,13.517732620239258,1.636402249336243,63.93999481201172,27.73,1
-0.4274162650108337,-0.8157955408096313,-0.0321155451238155,21.47544479370117,1.638802170753479,63.93999481201172,27.73,1
-0.4086377322673797,-0.8146148920059204,-0.0541965551674366,27.234275817871094,1.6403422355651855,63.93999481201172,27.73,1
-0.3965867459774017,-0.8250527381896973,-0.0683668777346611,31.48884391784668,1.641330599784851,63.93999481201172,27.73,1
-0.3944509029388428,-0.8709356188774109,-0.055069476366043,34.21201705932617,1.6419647932052612,63.93999481201172,27.73,1
-0.3986780047416687,-0.9171739220619202,-0.0465359687805175,34.86332321166992,1.6423718929290771,63.93999481201172,27.73,1
-0.3957929611206054,-0.9748358726501464,-0.0410596542060375,33.22489547729492,1.642633080482483,63.93999481201172,27.73,1
-0.3939414918422699,-1.0566221475601196,-0.0207519475370645,28.94554710388184,1.6428006887435913,63.93999481201172,27.73,1
-0.3927533328533172,-1.041934609413147,0.0090736914426088,20.93650245666504,1.642908215522766,63.93999481201172,27.73,1
-0.3975886106491089,-1.0325089693069458,0.0394096188247203,8.588617324829102,1.6434365510940552,63.98298645019531,27.73,1
-0.4118871688842773,-1.0432535409927368,0.070073015987873,-6.457705497741699,1.6437755823135376,64.01057434082031,27.73,1
-0.4434542655944824,-1.0277576446533203,0.0953487977385521,-20.42340660095215,1.6439931392669678,64.02828216552734,27.73,1
-0.4301255643367767,-0.9562377333641052,0.1283626556396484,-29.256818771362305,1.6441328525543213,64.03964233398438,27.73,1
-0.3935830891132355,-0.8991448283195496,0.155146837234497,-30.87370109558105,1.6442224979400637,64.04693603515625,27.73,1
-0.3533388972282409,-0.8625059127807617,0.1947264671325683,-26.69867515563965,1.644279956817627,64.0516128540039,27.73,1
-0.3387080430984497,-0.8389931321144104,0.2313219457864761,-20.995689392089844,1.6443169116973877,64.05461883544922,27.73,1
-0.3629054725170135,-0.8239039778709412,0.2548068165779114,-16.95608901977539,1.6443405151367188,64.05654907226562,27.73,1
-0.4008250832557678,-0.84220951795578,0.2698780596256256,-13.374914169311523,1.646650791168213,64.05778503417969,27.73,1
-0.430757462978363,-0.8651524782180786,0.2739521563053131,-7.171715259552002,1.648133397102356,64.05857849121094,27.73,1
-0.4163796901702881,-0.8854737281799316,0.2765666544437408,1.595461368560791,1.6490848064422607,64.05908966064453,27.73,1
-0.3903595507144928,-0.9097102880477904,0.2670489549636841,10.055548667907717,1.6496953964233398,64.05941772460938,27.73,1
-0.3848568797111511,-0.9476550221443176,0.2721365988254547,16.745811462402344,1.6500872373580933,64.05962371826172,27.73,1
-0.4988788366317749,-0.9720057845115662,0.2082282453775406,22.389867782592773,1.650338649749756,64.05976104736328,27.73,1
-0.5944426655769348,-0.9932304620742798,0.1224333494901657,26.893213272094727,1.650499939918518,64.05984497070312,27.73,1
-0.6445744633674622,-1.096415638923645,0.0505818054080009,28.647523880004883,1.6506035327911377,64.05989837646484,27.73,1
-0.6879417300224304,-1.0674717426300049,-0.0067239324562251,27.598716735839844,1.6676549911499023,64.0599365234375,27.73,1
-0.710174560546875,-1.0544949769973757,-0.0267061311751604,26.814592361450195,1.6785975694656372,64.0599594116211,27.73,1
-0.7412356734275818,-1.096547245979309,-0.0731162056326866,29.349411010742188,1.6856199502944946,64.05997467041016,27.73,1
-0.7331799864768982,-1.0899473428726196,-0.0973017439246177,34.329402923583984,1.6901265382766724,64.05998229980469,27.73,1
-0.6384459733963013,-1.035331964492798,-0.0792359784245491,37.30315399169922,1.6930185556411743,64.05998992919922,27.73,1
-0.5552600026130676,-1.000282883644104,-0.0620446391403675,34.149356842041016,1.6948745250701904,64.05998992919922,27.73,1
-0.5018760561943054,-0.9609971046447754,-0.0678055509924888,24.40498161315918,1.6960655450820925,64.05998992919922,27.73,1
-0.4732150733470917,-0.930188000202179,-0.0771003440022468,11.219318389892578,1.696829915046692,64.05998992919922,27.73,1
-0.4716154336929321,-0.9048187136650084,-0.0942607596516609,-1.5773975849151611,1.7009925842285156,64.05998992919922,27.73,1
-0.4537955522537231,-0.9053314924240112,-0.1052733212709426,-12.078858375549316,1.703663945198059,64.05998992919922,27.73,1
-0.4423597753047943,-0.911258339881897,-0.1123405545949935,-19.65283393859864,1.705378174781799,64.05998992919922,27.73,1
-0.4406187236309051,-0.9374529123306274,-0.0832892507314682,-22.91196250915528,1.7064783573150637,64.05998992919922,27.73,1
-0.4339036345481872,-0.9542630910873412,-0.0534502454102039,-20.485855102539062,1.7071843147277832,64.05998992919922,27.73,1
-0.4016054272651672,-0.9370620250701904,-0.0231057424098253,-13.759263038635254,1.7076374292373655,64.05998992919922,27.73,1
-0.3808782696723938,-1.0043922662734983,-0.0036323873791843,-6.816495418548584,1.70792818069458,64.05998992919922,27.73,1
-0.3619790077209472,-1.030807614326477,0.0312555916607379,-3.571937322616577,1.708114743232727,64.05998992919922,27.73,1
-0.3442527651786804,-0.974988341331482,0.0760357826948165,-5.8712568283081055,1.6949223279953003,64.11731719970703,27.71,1
-0.34967041015625,-0.972753405570984,0.1047731339931488,-13.03954029083252,1.6864562034606934,64.15410614013672,27.71,1
-0.3531471490859985,-0.9545258283615112,0.1400084346532821,-21.795520782470703,1.681023120880127,64.1777114868164,27.71,1
-0.3721716403961181,-0.8980462551116943,0.1794137507677078,-27.99497985839844,1.6775364875793457,64.19286346435547,27.71,1
-0.367587149143219,-0.8394097685813904,0.2102995812892913,-29.91703987121582,1.675299048423767,64.20258331298828,27.71,1
-0.3310584425926208,-0.8185735940933228,0.2189247757196426,-29.23741149902344,1.673863172531128,64.20882415771484,27.71,1
-0.3076164126396179,-0.8163976669311523,0.2300577163696289,-27.980854034423828,1.6729416847229004,64.21282958984375,27.71,1
-0.3205615580081939,-0.8317946195602417,0.2763866186141968,-25.55514335632324,1.672350287437439,64.21540069580078,27.71,1
-0.3400645554065704,-0.8528710603713989,0.2949222922325134,-20.150775909423828,1.67380690574646,64.21704864501953,27.71,1
-0.3525804281234741,-0.8719944953918457,0.2956218719482422,-12.010886192321776,1.6747416257858276,64.21810913085938,27.71,1
-0.3494168519973755,-0.9122556447982788,0.307266354560852,-3.07920789718628,1.6753414869308472,64.21878814697266,27.71,1
-0.3417888879776001,-0.9492884874343872,0.3147391080856323,5.9665117263793945,1.6757264137268066,64.21922302246094,27.71,1
-0.331295907497406,-0.9786518216133118,0.2915458381175995,15.690872192382812,1.6759735345840454,64.2195053100586,27.71,1
-0.3469532430171966,-1.0142887830734253,0.2654661834239959,25.14497756958008,1.676132082939148,64.21968078613281,27.71,1
-0.3570012152194977,-1.0427563190460205,0.2375342100858688,31.799619674682617,1.6762337684631348,64.21979522705078,27.71,1
-0.3634494245052337,-1.0554274320602417,0.1860224306583404,34.4974365234375,1.6762990951538086,64.2198715209961,27.71,1
-0.3731852769851684,-1.0915478467941284,0.1473673582077026,34.87452697753906,1.6832267045974731,64.21991729736328,27.71,1
-0.4578020274639129,-1.103532314300537,0.1225607618689537,35.95842742919922,1.68767249584198,64.2199478149414,27.71,1
-0.5121042132377625,-1.0440499782562256,0.1010435372591018,39.51648712158203,1.6905255317687988,64.219970703125,27.71,1
-0.5413544178009033,-1.039464235305786,0.0872350260615348,43.39051055908203,1.6923564672470093,64.21997833251953,27.71,1
-0.5321366786956787,-1.0645103454589844,0.0839712917804718,42.4087028503418,1.6935313940048218,64.21998596191406,27.71,1
-0.498232364654541,-1.052594542503357,0.0818768143653869,34.05818557739258,1.6942853927612305,64.2199935913086,27.71,1
-0.4260945618152618,-0.9889699816703796,0.0917282477021217,21.519821166992188,1.694769263267517,64.2199935913086,27.71,1
-0.3742029070854187,-0.9649326801300048,0.0812570080161094,9.478848457336426,1.6950798034667969,64.2199935913086,27.71,1
-0.3464995920658111,-0.949506938457489,0.0633416175842285,-0.4229775965213775,1.692524790763855,64.2199935913086,27.71,1
-0.334318995475769,-0.9228142499923706,0.0406490042805671,-8.403889656066895,1.690885066986084,64.2199935913086,27.71,1
-0.3320999443531036,-0.9000866413116455,0.020488416776061,-13.403772354125977,1.6898328065872192,64.2199935913086,27.71,1
-0.3194803297519684,-0.8855013847351074,0.00755051150918,-13.64245319366455,1.6891576051712036,64.2199935913086,27.71,1
-0.3113817870616913,-0.8537502884864807,0.0160410329699516,-9.876287460327148,1.6887242794036863,64.2199935913086,27.71,1
-0.3117823898792267,-0.8613631725311279,0.0270875357091426,-6.201894760131836,1.6884461641311646,64.2199935913086,27.71,1
-0.2896483838558197,-0.8886397480964661,0.0341765433549881,-6.462743759155273,1.688267707824707,64.2199935913086,27.71,1
-0.2754440605640411,-0.8949487805366516,0.0499214120209217,-11.312567710876465,1.6881531476974487,64.2199935913086,27.71,1
-0.2663285434246063,-0.943779706954956,0.0936122089624404,-19.472755432128903,1.6821120977401731,64.27373504638672,27.73,1
-0.2884675860404968,-1.031094312667847,0.1048571243882179,-28.91901969909668,1.678235411643982,64.30821990966797,27.73,1
-0.291479617357254,-1.1207144260406494,0.1232690140604972,-36.25290298461914,1.6757475137710571,64.33035278320312,27.73,1
-0.2934125661849975,-1.0606741905212402,0.1686713397502899,-38.315425872802734,1.6741509437561035,64.34455871582031,27.73,1
-0.2554685771465301,-0.98855721950531,0.2257968187332153,-35.28978729248047,1.6731263399124146,64.35367584228516,27.73,1
-0.2814982831478119,-1.0094499588012695,0.2344677895307541,-29.8550968170166,1.6724687814712524,64.35952758789062,27.73,1
-0.2926048934459686,-1.0004667043685913,0.223239004611969,-23.62317276000977,1.672046780586243,64.36328125,27.73,1
-0.2997324764728546,-0.9667128324508668,0.1992396861314773,-16.632431030273438,1.6717760562896729,64.36569213867188,27.73,1
-0.3099043071269989,-0.894671618938446,0.1670449823141098,-9.47715663909912,1.6688480377197266,64.36723327636719,27.73,1
-0.3388231098651886,-0.8484396934509277,0.1463842689990997,-3.2695720195770264,1.6669689416885376,64.36822509765625,27.73,1
-0.3909681737422943,-0.846759557723999,0.1275276392698288,2.28684949874878,1.665763020515442,64.36885833740234,27.73,1
-0.4300296604633331,-0.8512791395187378,0.1042309924960136,8.561067581176758,1.6649891138076782,64.36927032470703,27.73,1
-0.4494992792606354,-0.8429840207099915,0.1004761010408401,15.747332572937012,1.6644924879074097,64.3695297241211,27.73,1
-0.4452004432678222,-0.8320629000663757,0.1372508406639099,22.67698860168457,1.6641738414764404,64.36969757080078,27.73,1
-0.4312461614608764,-0.8362498879432678,0.1664485335350036,28.521249771118164,1.6639692783355713,64.36980438232422,27.73,1
-0.4446821808815002,-0.8613279461860657,0.1795881539583206,33.1029167175293,1.663838028907776,64.369873046875,27.73,1
-0.4477068781852722,-0.8886171579360962,0.1880204081535339,36.25812149047852,1.6655899286270142,64.36991882324219,27.73,1
-0.4384524226188659,-0.906129777431488,0.1934317350387573,38.17905426025391,1.6667141914367676,64.36994934082031,27.73,1
-0.4549045264720917,-0.9957372546195984,0.2080999761819839,39.315067291259766,1.667435646057129,64.3699722290039,27.73,1
-0.4878536462783813,-1.1092199087142944,0.239904299378395,39.34907913208008,1.667898654937744,64.36997985839844,27.73,1
-0.5145962834358215,-1.0812865495681765,0.2547167241573334,37.43989562988281,1.668195724487305,64.36998748779297,27.73,1
-0.4981715083122253,-1.1249361038208008,0.2586247026920318,33.66031646728516,1.668386459350586,64.3699951171875,27.73,1
-0.454044371843338,-1.1753389835357666,0.2611325979232788,28.773571014404297,1.668508768081665,64.3699951171875,27.73,1
-0.3865416944026947,-1.146109104156494,0.2627420425415039,22.46695899963379,1.668587327003479,64.3699951171875,27.73,1
-0.3320268392562866,-1.0937644243240356,0.2637748718261719,13.379054069519045,1.6645063161849976,64.3699951171875,27.73,1
-0.3082378804683685,-1.0321837663650513,0.2420465946197509,1.915151000022888,1.6618874073028564,64.3699951171875,27.73,1
-0.3153626024723053,-0.9926648139953612,0.2113093137741089,-8.440338134765625,1.66020667552948,64.3699951171875,27.73,1
-0.3255326151847839,-0.961706042289734,0.1803883463144302,-14.01112174987793,1.6591280698776243,64.3699951171875,27.73,1
-0.31526580452919,-0.9026540517807008,0.154947280883789,-14.0537109375,1.658435940742493,64.3699951171875,27.73,1
-0.2918838262557983,-0.8479645848274231,0.1442184448242187,-10.233355522155762,1.6579917669296265,64.3699951171875,27.73,1
-0.2656830847263336,-0.8072702288627625,0.1429310590028762,-5.062496662139893,1.6577067375183103,64.3699951171875,27.73,1
-0.265662282705307,-0.7979483008384705,0.1365071237087249,-1.697563886642456,1.65752375125885,64.3699951171875,27.73,1
-0.2712467014789581,-0.808759331703186,0.1323846131563186,-2.837695837020874,1.665210247039795,64.3986587524414,27.71,1
-0.26923269033432,-0.8324905633926392,0.1185434684157371,-8.620798110961914,1.6701430082321167,64.41705322265625,27.71,1
-0.2679401934146881,-0.8533176779747009,0.1152587980031967,-16.520092010498047,1.6733086109161377,64.4288558959961,27.71,1
-0.272708535194397,-0.9002699255943298,0.0907597839832305,-23.29471015930176,1.6753400564193726,64.43643188476562,27.71,1
-0.2981596887111664,-1.0815410614013672,0.0638421773910522,-26.77886962890625,1.6766437292099,64.44129180908203,27.71,1
-0.3424816429615021,-1.192272663116455,0.0521657839417457,-26.23114013671875,1.6774803400039673,64.44441223144531,27.71,1
-0.3597293794155121,-1.117791771888733,0.0614658705890178,-21.90298080444336,1.678017258644104,64.4464111328125,27.71,1
-0.3596024215221405,-1.1035808324813845,0.0674341320991516,-15.095019340515137,1.6783617734909058,64.44769287109375,27.71,1
-0.3651187121868133,-1.0944610834121704,0.0768619924783706,-8.440378189086914,1.6721560955047607,64.44851684570312,27.71,1
-0.3686587512493133,-1.015837550163269,0.0605211518704891,-4.370436668395996,1.6681736707687378,64.44905090332031,27.71,1
-0.3541372418403625,-0.93739253282547,0.0444367676973342,-2.8154425621032715,1.6656179428100586,64.44938659667969,27.71,1
-0.3560137152671814,-0.8702577352523804,0.0453102812170982,-1.867692828178405,1.663977861404419,64.4496078491211,27.71,1
-0.3740112483501434,-0.8271744847297668,0.0514686293900013,-0.3745854198932647,1.662925362586975,64.44974517822266,27.71,1
-0.3967565596103668,-0.8107216954231262,0.0442251525819301,1.3395285606384275,1.6622499227523804,64.44983673095703,27.71,1
-0.4169509708881378,-0.8057610392570496,0.0451744794845581,2.2604193687438965,1.6618164777755735,64.44989776611328,27.71,1
-0.4299106001853943,-0.8081753253936768,0.0569792538881301,1.275060772895813,1.6615382432937622,64.44993591308594,27.71,1
-0.4494228959083557,-0.8153224587440491,0.0757504254579544,-1.797019600868225,1.6631958484649658,64.44995880126953,27.71,1
-0.4731402993202209,-0.825506865978241,0.0933944582939148,-5.5633745193481445,1.6642595529556274,64.4499740600586,27.71,1
-0.499556303024292,-0.865629255771637,0.1215107068419456,-8.392400741577148,1.6649421453475952,64.44998168945312,27.71,1
-0.5221063494682312,-0.9921374320983888,0.1619451940059662,-9.692015647888184,1.6653802394866943,64.44998931884766,27.71,1
-0.5477732419967651,-1.1181052923202517,0.2158825844526291,-9.300792694091797,1.665661334991455,64.44998931884766,27.71,1
-0.5586469769477844,-1.103782057762146,0.2840831577777862,-7.1688761711120605,1.665841817855835,64.44998931884766,27.71,1
-0.5432340502738953,-1.0442101955413818,0.3222525715827942,-4.048855781555176,1.6659575700759888,64.44998931884766,27.71,1
-0.4885607063770294,-1.0619581937789917,0.3467475175857544,-1.2763521671295166,1.666031837463379,64.44998931884766,27.71,1
-0.4422789514064789,-1.1293256282806396,0.3400758504867553,0.381073534488678,1.6633251905441284,64.44998931884766,27.71,1
-0.4069802165031433,-1.1501669883728027,0.3245988190174103,0.9789790511131288,1.6615883111953735,64.44998931884766,27.71,1
-0.3619364202022552,-1.0963685512542725,0.3090687692165375,1.065326690673828,1.6604735851287842,64.44998931884766,27.71,1
-0.3218343555927276,-1.050648212432861,0.3047002553939819,1.7226122617721558,1.6597583293914795,64.44998931884766,27.71,1
-0.3016969263553619,-1.0101120471954346,0.2739079296588897,4.3333740234375,1.6592992544174194,64.44998931884766,27.71,1
-0.2999694347381592,-0.9896960258483888,0.220560535788536,9.215215682983398,1.6590046882629397,64.44998931884766,27.71,1
-0.2932630479335785,-0.9709963798522948,0.1863252520561218,14.662445068359377,1.658815622329712,64.44998931884766,27.71,1
-0.2777637243270874,-0.9198116064071656,0.1643550097942352,18.38028335571289,1.6586942672729492,64.44998931884766,27.71,1
-0.2566215991973877,-0.8589752912521362,0.139060229063034,19.766637802124023,1.6765192747116089,64.49298095703125,27.71,1
-0.2486515939235687,-0.8031407594680786,0.1340230405330658,19.78217315673828,1.6879583597183228,64.52057647705078,27.71,1
-0.2603302299976349,-0.789700448513031,0.1307904720306396,18.892915725708008,1.69529926776886,64.53828430175781,27.71,1
-0.2678248882293701,-0.7866730093955994,0.1175204440951347,16.584692001342773,1.7000102996826172,64.54964447021484,27.71,1
-0.2614389955997467,-0.7959257364273071,0.1202000528573989,12.84638500213623,1.7030335664749146,64.55693817138672,27.71,1
-0.2629386484622955,-0.8186569213867188,0.1275174468755722,8.745631217956543,1.7049736976623535,64.56161499023438,27.71,1
-0.2694988250732422,-0.9507977366447448,0.1042244583368301,5.264932632446289,1.706218719482422,64.56462097167969,27.71,1
-0.3296865224838257,-1.0971735715866089,0.1060696765780448,2.6120593547821045,1.7070177793502808,64.5665512084961,27.71,1
-0.3739092946052551,-1.1015448570251465,0.1184493824839592,0.7877906560897827,1.6919230222702026,64.56778717041016,27.71,1
-0.3743000626564026,-1.1267411708831787,0.1319917440414428,-0.1393048614263534,1.6822360754013062,64.5685806274414,27.71,1
-0.3577575087547302,-1.159704089164734,0.1294869035482406,-0.6303667426109314,1.676019549369812,64.569091796875,27.71,1
-0.3527392148971557,-1.0856956243515017,0.1054883375763893,-2.1635775566101074,1.6720300912857056,64.56941986083984,27.71,1
-0.3383232057094574,-0.9654301404953004,0.0844896659255027,-6.293005466461182,1.669469952583313,64.56962585449219,27.71,1
-0.3346696197986603,-0.8826528787612915,0.0710139274597168,-12.099284172058104,1.667827010154724,64.56976318359375,27.71,1
-0.3603138327598572,-0.829531192779541,0.0567682012915611,-15.703611373901367,1.6667726039886477,64.5698471069336,27.71,1
-0.3879663646221161,-0.7954407930374146,0.0420283377170562,-14.573806762695312,1.6660959720611572,64.56990051269531,27.71,1
-0.4113099277019501,-0.7959545850753784,0.0325691439211368,-10.90746784210205,1.664284586906433,64.56993865966797,27.71,1
-0.4206927120685577,-0.8074798583984375,0.0432920977473259,-8.572535514831543,1.6631221771240234,64.56996154785156,27.71,1
-0.4323118329048157,-0.8260716795921326,0.0557712465524673,-8.980040550231934,1.6623761653900146,64.56997680664062,27.71,1
-0.4621593952178955,-0.8547961711883545,0.074975199997425,-11.871164321899414,1.6618974208831787,64.56998443603516,27.71,1
-0.4869116246700287,-0.8844254612922668,0.0928969606757164,-17.069063186645508,1.6615902185440063,64.56999206542969,27.71,1
-0.4971984028816223,-0.9202331304550172,0.1043981164693832,-23.378314971923828,1.6613930463790894,64.56999206542969,27.71,1
-0.5149953961372375,-1.0271790027618408,0.1733544170856475,-28.25480461120605,1.661266565322876,64.56999206542969,27.71,1
-0.5376120805740356,-1.1126041412353516,0.2455954700708389,-29.93689346313477,1.661185383796692,64.56999206542969,27.71,1
-0.5409305691719055,-1.083458423614502,0.2863578498363495,-28.515724182128903,1.6615922451019287,64.56999206542969,27.71,1
-0.5206691026687622,-1.087145447731018,0.3125168085098266,-24.705394744873047,1.661853313446045,64.56999206542969,27.71,1
-0.4684820473194122,-1.134293794631958,0.3237063288688659,-18.860280990600582,1.6620208024978638,64.56999206542969,27.71,1
-0.384611427783966,-1.108573079109192,0.3252893388271332,-11.433500289916992,1.6621283292770386,64.56999206542969,27.71,1
-0.319592535495758,-1.0584803819656372,0.3151096999645233,-2.90213394165039,1.6621973514556885,64.56999206542969,27.71,1
-0.2834649384021759,-0.998344898223877,0.2861858904361725,7.287476062774658,1.6622416973114014,64.56999206542969,27.71,1
-0.2714758813381195,-0.9653512239456176,0.2676242589950561,19.906211853027344,1.6622700691223145,64.56999206542969,27.71,1
-0.2917708456516266,-0.9553732872009276,0.2333213686943054,33.295654296875,1.6622883081436155,64.56999206542969,27.71,1
-0.3047949969768524,-0.9097856283187866,0.1833188682794571,43.55412673950195,1.6774486303329468,64.60940551757812,27.73,1
-0.2963598370552063,-0.8581389784812927,0.1512301415205001,48.317474365234375,1.687177658081055,64.63469696044922,27.73,1
-0.2797510623931885,-0.8193973898887634,0.1474307626485824,48.32554626464844,1.6934211254119873,64.65092468261719,27.73,1
-0.2746903002262115,-0.7889374494552612,0.1449925452470779,45.2031364440918,1.6974278688430786,64.66133880615234,27.73,1
-0.2882359027862549,-0.7973788976669312,0.1378300637006759,40.09326171875,1.6999990940093994,64.66802215576172,27.73,1
-0.2913309335708618,-0.8419805765151978,0.1276358217000961,34.04112243652344,1.701649188995361,64.67230987548828,27.73,1
-0.2877193689346313,-0.8706033825874329,0.1210937425494194,27.158592224121094,1.702708125114441,64.67506408691406,27.73,1
-0.2965972125530243,-0.9841340184211732,0.1056998670101165,18.21340560913086,1.70338773727417,64.67683410644531,27.73,1
-0.3134900629520416,-1.1521536111831665,0.0846254155039787,7.188600063323975,1.6928067207336426,64.67797088623047,27.73,1
-0.3747108876705169,-1.1480233669281006,0.0822965949773788,-3.1322991847991943,1.6860164403915403,64.67869567871094,27.73,1
-0.3860100209712982,-1.0837973356246948,0.1087909638881683,-9.87030029296875,1.6816588640213013,64.67916107177734,27.73,1
-0.3764678239822387,-1.09855854511261,0.1145979762077331,-12.76133155822754,1.6788623332977295,64.67945861816406,27.73,1
-0.4039308428764343,-1.0408581495285034,0.0959334820508956,-13.355562210083008,1.677067756652832,64.67964935302734,27.73,1
-0.4159572422504425,-0.9646449089050292,0.0783579126000404,-13.410890579223633,1.675916075706482,64.67977142333984,27.73,1
-0.4068817794322967,-0.8429645299911499,0.0670789182186126,-14.449518203735352,1.675176978111267,64.67985534667969,27.73,1
-0.4290465414524078,-0.7536815404891968,0.0710362568497657,-16.509672164916992,1.6747026443481443,64.6799087524414,27.73,1
-0.4600639343261719,-0.7019826173782349,0.0791736245155334,-17.06867218017578,1.6698079109191897,64.67993927001953,27.73,1
-0.4911646544933319,-0.6911963224411011,0.0787979438900947,-13.414920806884766,1.6666667461395264,64.67996215820312,27.73,1
-0.4999277591705322,-0.6842743158340454,0.0897524058818817,-6.373396873474121,1.6646509170532229,64.67997741699219,27.73,1
-0.4999536275863647,-0.6854299306869507,0.1303689926862716,-0.0560993626713752,1.6633572578430176,64.67998504638672,27.73,1
-0.5055680274963379,-0.7085626721382141,0.1788254827260971,1.99173641204834,1.662527084350586,64.67999267578125,27.73,1
-0.5147687792778015,-0.7625923156738281,0.2155198454856872,-0.9716756343841552,1.6619943380355835,64.67999267578125,27.73,1
-0.5486621856689453,-0.8756343126296997,0.2390681654214859,-7.745725631713867,1.661652445793152,64.67999267578125,27.73,1
-0.5648152232170105,-0.9873625636100768,0.2709734439849853,-16.470827102661133,1.6614329814910889,64.67999267578125,27.73,1
-0.569583535194397,-1.1262365579605105,0.3194372951984405,-25.140363693237305,1.6599150896072388,64.67999267578125,27.73,1
-0.5782413482666016,-1.1257935762405396,0.3561363816261291,-31.9901180267334,1.6589410305023191,64.67999267578125,27.73,1
-0.5614063143730164,-1.0751292705535889,0.3628944158554077,-35.884334564208984,1.658315896987915,64.67999267578125,27.73,1
-0.5170159339904785,-1.0594091415405271,0.3448402285575866,-36.52048110961914,1.6579147577285769,64.67999267578125,27.73,1
-0.4885287582874298,-1.0605164766311646,0.3220585584640503,-33.99817657470703,1.657657265663147,64.67999267578125,27.73,1
-0.4534539878368377,-1.0500315427780151,0.3074385821819305,-28.12340545654297,1.6574920415878296,64.67999267578125,27.73,1
-0.3973583877086639,-0.9873251914978028,0.281262993812561,-18.75733184814453,1.6573859453201294,64.67999267578125,27.73,1
-0.3613594472408294,-0.9358882904052734,0.2532694637775421,-6.516626834869385,1.657317876815796,64.67999267578125,27.73,1
-0.3382574021816253,-0.9028790593147278,0.2129137367010116,7.690659999847412,1.6701273918151855,64.70149230957031,27.73,1
-0.3346273899078369,-0.8872933983802795,0.1758202016353607,22.95219612121582,1.6783478260040283,64.71528625488281,27.73,1
-0.3378956317901611,-0.8716936707496643,0.129624605178833,37.04526138305664,1.683623194694519,64.72413635253906,27.73,1
-0.3343952298164367,-0.8336937427520752,0.0943811610341072,46.43330764770508,1.6870086193084717,64.72982025146484,27.73,1
-0.337746649980545,-0.8149054050445557,0.0717639476060867,49.15129852294922,1.689181208610535,64.73346710205078,27.73,1
-0.3454951643943786,-0.8308369517326355,0.0628472939133644,46.52122497558594,1.6905754804611206,64.73580932617188,27.73,1
-0.3560654819011688,-0.8466587066650391,0.0683206468820571,41.01078414916992,1.6914702653884888,64.73731231689453,27.73,1
-0.3516533672809601,-0.8680077195167542,0.0718331336975097,33.75578689575195,1.6920444965362549,64.73827362060547,27.73,1
-0.3544197082519531,-0.9432837963104248,0.0684894695878028,24.86534309387207,1.6809369325637815,64.7388916015625,27.73,1
-0.3617927432060241,-1.0699604749679563,0.0831370204687118,14.731904983520508,1.6738086938858032,64.73928833007812,27.73,1
-0.3721221089363098,-1.028103232383728,0.1317213922739029,4.388326168060303,1.6692341566085815,64.73954010009766,27.73,1
-0.3731531202793121,-0.9116773009300232,0.1684978306293487,-4.614086627960205,1.666298508644104,64.73970031738281,27.73,1
-0.3850103318691253,-0.9097329378128052,0.1865010559558868,-10.53103733062744,1.664414644241333,64.73980712890625,27.73,1
-0.4038151502609253,-0.9364740252494812,0.1924567073583603,-12.51541233062744,1.663205623626709,64.73987579345703,27.73,1
-0.4046874642372131,-0.9200482368469238,0.2018764764070511,-12.144468307495115,1.6624298095703125,64.73992156982422,27.73,1
-0.3716606199741363,-0.8535293936729431,0.2135193198919296,-13.13524055480957,1.6619318723678589,64.73995208740234,27.73,1
-0.3448680937290191,-0.81084144115448,0.2265888005495071,-17.65815544128418,1.657939910888672,64.7399673461914,27.73,1
-0.3780541718006134,-0.8002400994300842,0.2573671340942383,-22.720996856689453,1.6553781032562256,64.73997497558594,27.73,1
-0.4665243923664093,-0.7934367656707764,0.2379344850778579,-22.824535369873047,1.6537340879440308,64.73998260498047,27.73,1
-0.5344950556755066,-0.7890707850456238,0.225463718175888,-16.632219314575195,1.6526789665222168,64.739990234375,27.73,1
-0.5669191479682922,-0.786268949508667,0.2118629217147827,-8.438074111938477,1.6520018577575684,64.739990234375,27.73,1
-0.5821292996406555,-0.7900686264038086,0.2087325006723404,-3.1580474376678467,1.6515673398971558,64.739990234375,27.73,1
-0.591890275478363,-0.8148981332778931,0.184332475066185,-2.395658254623413,1.6512885093688965,64.739990234375,27.73,1
-0.6429365277290344,-0.8588211536407471,0.1182939708232879,-4.969502925872803,1.6511095762252808,64.739990234375,27.73,1
-0.6924883723258972,-0.9093995690345764,0.0591209381818771,-8.892601013183594,1.6496175527572632,64.739990234375,27.73,1
-0.7018967866897583,-0.9138689637184144,0.0099515430629253,-12.356019973754885,1.6486600637435913,64.739990234375,27.73,1
-0.7023367881774902,-0.9447260499000548,-0.0495914183557033,-13.93736171722412,1.6480456590652466,64.739990234375,27.73,1
-0.7529991269111633,-1.037299394607544,-0.0989982113242149,-13.035497665405272,1.6476513147354126,64.739990234375,27.73,1
-0.7463268637657166,-0.973556637763977,-0.130704641342163,-10.178215026855469,1.6473982334136963,64.739990234375,27.73,1
-0.714056134223938,-0.9718345999717712,-0.1622475534677505,-6.281012535095215,1.647235870361328,64.739990234375,27.73,1
-0.6877488493919373,-1.0099139213562012,-0.1768922060728073,-2.031715154647827,1.6471316814422607,64.739990234375,27.73,1
-0.6540730595588684,-1.0231554508209229,-0.1638991981744766,1.877489447593689,1.6470648050308228,64.739990234375,27.73,1
-0.5708863735198975,-0.970077633857727,-0.127572163939476,5.41797399520874,1.6405954360961914,64.75790405273438,27.71,1
-0.4895130395889282,-0.9080264568328856,-0.1098573431372642,10.068882942199709,1.6364437341690063,64.76940155029297,27.71,1
-0.4316945672035217,-0.8626078367233276,-0.0984889939427375,16.901254653930664,1.6337794065475464,64.77677917480469,27.71,1
-0.3945899903774261,-0.8334607481956482,-0.0911934375762939,24.25941467285156,1.632069706916809,64.7815170288086,27.71,1
-0.365180641412735,-0.8035603165626526,-0.0865115746855735,29.160587310791016,1.6309725046157837,64.78455352783203,27.71,1
-0.3519051671028137,-0.7899696826934814,-0.0779092460870742,30.05243873596192,1.6302683353424072,64.78650665283203,27.71,1
-0.3769723773002624,-0.8036391139030457,-0.0891820937395095,27.17475700378418,1.6298164129257202,64.78775787353516,27.71,1
-0.4042546451091766,-0.812411367893219,-0.0908185839653015,21.620059967041016,1.6295263767242432,64.78855895996094,27.71,1
-0.4273605942726135,-0.8628230690956116,-0.0750754624605178,14.651928901672363,1.627044916152954,64.78907775878906,27.71,1
-0.4309931099414825,-0.9063699841499328,-0.0649724304676055,6.902126789093018,1.6254525184631348,64.7894058227539,27.71,1
-0.4221287071704864,-1.0014891624450684,-0.0416955649852752,-1.8938579559326167,1.624430537223816,64.78961944580078,27.71,1
-0.3828533887863159,-0.9841623306274414,0.018024381250143,-11.486613273620604,1.623774766921997,64.78975677490234,27.71,1
-0.3520509898662567,-0.9730429649353028,0.0675447508692741,-19.749244689941406,1.6233538389205933,64.78984069824219,27.71,1
-0.3602726459503174,-1.010689377784729,0.1105196252465248,-24.091596603393555,1.6230837106704712,64.78990173339844,27.71,1
-0.3879399299621582,-1.029250979423523,0.1380984336137771,-24.144763946533203,1.6229103803634644,64.7899398803711,27.71,1
-0.4224885106086731,-0.9907827377319336,0.1725902408361435,-21.850208282470703,1.6227991580963137,64.78996276855469,27.71,1
-0.416670948266983,-0.9325093626976012,0.1835295557975769,-19.34949493408203,1.6241049766540527,64.78997802734375,27.71,1
-0.40174201130867,-0.90630841255188,0.2017453163862228,-17.533309936523438,1.6249428987503052,64.78998565673828,27.71,1
-0.3977592587471008,-0.8950919508934021,0.2526195645332336,-15.558125495910645,1.6254806518554688,64.78999328613281,27.71,1
-0.4008011221885681,-0.8878938555717468,0.2908655107021332,-11.506903648376465,1.6258257627487185,64.78999328613281,27.71,1
-0.4083510041236877,-0.8832745552062988,0.3098117709159851,-4.611555099487305,1.6260472536087036,64.78999328613281,27.71,1
-0.4075983166694641,-0.8803101181983948,0.3275681734085083,3.775811195373535,1.626189351081848,64.78999328613281,27.71,1
-0.4071152806282043,-0.8840054869651794,0.3333654403686523,11.716299057006836,1.6262805461883545,64.78999328613281,27.71,1
-0.3956097364425659,-0.9031702876091005,0.3202924728393554,17.775760650634766,1.626339077949524,64.78999328613281,27.71,1
-0.3938239216804504,-0.9266647100448608,0.3063051998615265,20.937110900878903,1.6314263343811035,64.78999328613281,27.71,1
-0.420666754245758,-0.9641332030296326,0.2805356681346893,21.33222961425781,1.6346909999847412,64.78999328613281,27.71,1
-0.4434907138347626,-0.9769827723503112,0.2192160636186599,20.74388885498047,1.6367861032485962,64.78999328613281,27.71,1
-0.4581378102302551,-0.9852288961410522,0.1518757939338684,21.047014236450195,1.6381306648254397,64.78999328613281,27.71,1
-0.5123196840286255,-1.12486732006073,0.1310517936944961,22.287654876708984,1.638993501663208,64.78999328613281,27.71,1
-0.5974704623222351,-1.0801326036453247,0.1176881417632103,22.66466522216797,1.6395472288131714,64.78999328613281,27.71,1
-0.6409197449684143,-0.9954467415809632,0.0811232477426529,20.35581398010254,1.6399025917053225,64.78999328613281,27.71,1
-0.6855963468551636,-1.02506685256958,0.0296691339462995,15.434854507446287,1.640130639076233,64.78999328613281,27.71,1
-0.7086694240570068,-1.0608686208724976,-0.0089489305391907,9.837132453918455,1.6563433408737185,64.92255401611328,27.71,1
-0.6451075673103333,-1.0334641933441162,-0.0113406833261251,4.657755374908447,1.6667476892471311,65.00762176513672,27.71,1
-0.5651327967643738,-1.0046820640563965,-0.018473345786333,-1.7040947675704956,1.6734246015548706,65.06221008300781,27.71,1
-0.4858207404613495,-0.9918091297149658,-0.0454417765140533,-10.4476957321167,1.677709460258484,65.09724426269531,27.71,1
-0.4405205845832824,-0.9779502749443054,-0.0739441141486167,-18.73501968383789,1.6804592609405518,65.1197280883789,27.71,1
-0.4114495515823364,-0.9690564274787904,-0.0978330448269844,-22.279970169067383,1.682223916053772,65.1341552734375,27.71,1
-0.4039889872074127,-0.9353600144386292,-0.1243591383099556,-20.302398681640625,1.6833564043045044,65.14341735839844,27.71,1
-0.3992012441158294,-0.9193333387374878,-0.1357842832803726,-15.246525764465332,1.684083104133606,65.14936065673828,27.71,1
-0.4017265141010284,-0.9202439188957214,-0.131920725107193,-9.483407020568848,1.6739916801452637,65.1531753540039,27.71,1
-0.4033470749855041,-0.9264260530471802,-0.1126480028033256,-4.817673206329346,1.6675156354904177,65.15562438964844,27.71,1
-0.3931915163993835,-0.9415889382362366,-0.0834865495562553,-3.2923295497894287,1.6633596420288086,65.15719604492188,27.71,1
-0.3754787147045135,-0.9961017966270448,-0.053576860576868,-6.175468444824219,1.660692572593689,65.158203125,27.71,1
-0.3585138916969299,-1.0646716356277466,-0.0231869984418153,-12.81202220916748,1.6589809656143188,65.15885162353516,27.71,1
-0.3308335244655609,-1.0023181438446045,0.0410976633429527,-21.12287139892578,1.657882571220398,65.15926361083984,27.71,1
-0.3186676204204559,-0.9902921319007874,0.0991451814770698,-28.5556869506836,1.6571776866912842,65.15953063964844,27.71,1
-0.3276535868644714,-0.9825745224952698,0.1307989656925201,-32.630619049072266,1.656725287437439,65.15969848632812,27.71,1
-0.3502135574817657,-0.9664262533187866,0.1846991926431656,-32.178993225097656,1.6467950344085691,65.15980529785156,27.71,1
-0.3646912574768066,-0.9336721301078796,0.2248870283365249,-28.596778869628903,1.6404223442077637,65.15987396240234,27.71,1
-0.3459933400154114,-0.8846635222434998,0.2338839471340179,-24.198530197143555,1.6363327503204346,65.15991973876953,27.71,1
-0.3116030097007751,-0.8700059652328491,0.2564509809017181,-19.30167579650879,1.6337082386016846,65.15995025634766,27.71,1
-0.2951310276985168,-0.8605995774269104,0.2765309512615204,-12.924090385437012,1.6320239305496216,65.15997314453125,27.71,1
-0.3069513738155365,-0.8657586574554443,0.2950149178504944,-5.481615543365479,1.6309430599212646,65.15998077392578,27.71,1
-0.3257325291633606,-0.874667227268219,0.3068768680095672,1.6626192331314087,1.6302495002746582,65.15998840332031,27.71,1
-0.3377851843833923,-0.8859819769859314,0.3256847262382507,8.146142959594727,1.6298043727874756,65.15999603271484,27.71,1
-0.3511176705360412,-0.8988409042358398,0.3321567475795746,14.116095542907717,1.631354808807373,65.15999603271484,27.71,1
-0.3484781384468078,-0.912690818309784,0.3251145780086517,19.07219696044922,1.632349729537964,65.15999603271484,27.71,1
-0.346784234046936,-0.9383721947669984,0.2926064431667328,22.63249015808105,1.632988214492798,65.15999603271484,27.71,1
-0.3568927347660064,-0.9604508280754088,0.2605490386486053,25.39734649658203,1.633397936820984,65.15999603271484,27.71,1
-0.3857708871364593,-0.9802173972129822,0.223183125257492,28.2392807006836,1.633660912513733,65.15999603271484,27.71,1
-0.432292103767395,-1.0880645513534546,0.1768127232789993,31.270397186279297,1.6338297128677368,65.15999603271484,27.71,1
-0.495733380317688,-1.1796658039093018,0.1694459766149521,33.70998764038086,1.6339380741119385,65.15999603271484,27.71,1
-0.5588374733924866,-1.0369303226470947,0.1479250937700271,34.58055877685547,1.6340075731277466,65.15999603271484,27.71,1
-0.5769429206848145,-0.9677219986915588,0.1173209100961685,33.39810943603516,1.6597589254379272,65.28180694580078,27.73,1
-0.6165508031845093,-1.0072747468948364,0.0808875784277916,30.18163299560547,1.676284670829773,65.35997772216797,27.73,1
-0.6139799952507019,-0.9990707635879515,0.0631045401096344,25.090208053588867,1.686889886856079,65.41014099121094,27.73,1
-0.5731458067893982,-0.9658170342445374,0.0572901852428913,17.942895889282227,1.6936957836151123,65.44233703613281,27.73,1
-0.4853652417659759,-0.9332811236381532,0.0535588674247264,8.555510520935059,1.6980633735656738,65.46299743652344,27.73,1
-0.4290327429771423,-0.9124014973640442,0.0343709997832775,-1.9362452030181885,1.7008662223815918,65.47625732421875,27.73,1
-0.4096750915050506,-0.9101976752281188,0.0052640046924352,-10.80088233947754,1.7026649713516235,65.4847640991211,27.73,1
-0.4028502404689789,-0.8975878357887268,-0.0246107373386621,-15.25728988647461,1.7038192749023438,65.49021911621094,27.73,1
-0.3984704613685608,-0.8783000111579895,-0.0437826290726661,-13.904047012329102,1.6949200630187988,65.49372100830078,27.73,1
-0.390062004327774,-0.8883132934570312,-0.0560860447585582,-7.4718732833862305,1.6892091035842896,65.4959716796875,27.73,1
-0.3902637064456939,-0.8947392702102661,-0.0639816671609878,0.6648266315460205,1.6855441331863403,65.4974136352539,27.73,1
-0.3903931379318237,-0.9212541580200196,-0.0578530728816986,5.506740093231201,1.6831921339035034,65.49833679199219,27.73,1
-0.3736828863620758,-0.9662587642669678,-0.0427245460450649,3.0753390789031982,1.6816827058792114,65.49893188476562,27.73,1
-0.3517636656761169,-1.006335735321045,-0.0274181552231311,-7.674300193786621,1.680714130401611,65.49931335449219,27.73,1
-0.3376971483230591,-1.0824347734451294,0.0103934770449996,-24.514448165893555,1.6800925731658936,65.49955749511719,27.73,1
-0.3286700844764709,-1.103281855583191,0.0570499077439308,-42.7589111328125,1.6796936988830566,65.49971771240234,27.73,1
-0.3228770196437835,-0.9935092926025392,0.1093824133276939,-57.07527542114258,1.6647480726242063,65.49981689453125,27.73,1
-0.3247571587562561,-0.9174658060073853,0.1373686343431472,-63.56501388549805,1.6551568508148191,65.49988555908203,27.73,1
-0.3315614759922027,-0.9190454483032228,0.1441330313682556,-61.10198593139648,1.6490017175674438,65.49992370605469,27.73,1
-0.3247325718402862,-0.9032658338546752,0.1708651185035705,-51.310096740722656,1.6450517177581787,65.49995422363281,27.73,1
-0.309154599905014,-0.8707482814788818,0.1992157846689224,-37.4311637878418,1.642516851425171,65.49996948242188,27.73,1
-0.2991575598716736,-0.8274893164634705,0.2230073809623718,-22.946393966674805,1.640890121459961,65.4999771118164,27.73,1
-0.3039375841617584,-0.7997281551361084,0.2382754683494568,-10.25103759765625,1.6398460865020752,65.49998474121094,27.73,1
-0.3237984478473663,-0.804303765296936,0.2536714076995849,0.525721549987793,1.6391761302947998,65.49999237060547,27.73,1
-0.336544007062912,-0.8240334391593933,0.2523561120033264,10.81282901763916,1.63874614238739,65.49999237060547,27.73,1
-0.3391256034374237,-0.8478903770446777,0.2515120208263397,21.14754676818848,1.6384702920913696,65.49999237060547,27.73,1
-0.3407823145389557,-0.8632003664970398,0.2789592146873474,30.39505386352539,1.6382932662963867,65.49999237060547,27.73,1
-0.3362477421760559,-0.8618298768997192,0.2965732216835022,37.28253555297852,1.6381796598434448,65.49999237060547,27.73,1
-0.3053488433361053,-0.8777437210083008,0.319072425365448,41.39800643920898,1.6381067037582395,65.49999237060547,27.73,1
-0.3526929914951324,-0.9159451723098756,0.3055222630500793,42.9571418762207,1.6380598545074463,65.49999237060547,27.73,1
-0.3942712843418121,-0.9572539925575256,0.285631000995636,42.68589019775391,1.6380298137664795,65.49999237060547,27.73,1
-0.4153560698032379,-1.02854585647583,0.2616703808307647,41.79171752929688,1.6380105018615725,65.49999237060547,27.73,1
-0.4288870692253113,-1.1638612747192385,0.2518916130065918,41.26804733276367,1.6412113904953003,65.58597564697266,27.71,1
-0.4543638229370117,-1.2171121835708618,0.245616152882576,40.79226303100586,1.6432654857635498,65.64115905761719,27.71,1
-0.4707133173942566,-1.1281346082687378,0.2191978245973587,38.74938583374024,1.6445837020874023,65.67656707763672,27.71,1
-0.4644121825695038,-1.0766316652297974,0.2022440582513809,33.85222625732422,1.645429611206055,65.69929504394531,27.71,1
-0.4771617949008941,-1.0771666765213013,0.1913641095161438,26.1023178100586,1.645972490310669,65.71387481689453,27.71,1
-0.4741482138633728,-1.0775099992752075,0.1787842214107513,15.955633163452148,1.646320939064026,65.72323608398438,27.71,1
-0.4386276304721832,-1.0217525959014893,0.1707111597061157,4.285165786743164,1.6465444564819336,65.72924041748047,27.71,1
-0.3654525876045227,-0.9635795950889589,0.1767258942127227,-6.682949066162109,1.6466879844665527,65.73309326171875,27.71,1
-0.3016997277736664,-0.926247537136078,0.1749880313873291,-14.395177841186523,1.649993658065796,65.73556518554688,27.71,1
-0.2775801420211792,-0.8910943865776062,0.1458838880062103,-17.581815719604492,1.652114987373352,65.73715209960938,27.71,1
-0.2676993608474731,-0.862937331199646,0.1160109788179397,-15.789876937866213,1.653476357460022,65.73817443847656,27.71,1
-0.2669562101364136,-0.8224766850471497,0.0856447145342826,-9.506083488464355,1.6543500423431396,65.73883056640625,27.71,1
-0.2720770537853241,-0.7909135818481445,0.0717551708221435,-1.804949402809143,1.654910683631897,65.73925018310547,27.71,1
-0.2809610962867737,-0.7762559652328491,0.0628416612744331,2.6392178535461426,1.6552704572677612,65.73951721191406,27.71,1
-0.3034557104110718,-0.8060339689254761,0.0627192556858062,0.9915132522583008,1.655501365661621,65.73969268798828,27.71,1
-0.31229367852211,-0.8419371247291565,0.0626407042145729,-6.639914989471436,1.6556495428085327,65.73979949951172,27.71,1
-0.3067698180675506,-0.8649777173995972,0.056992519646883,-18.612913131713867,1.648858904838562,65.7398681640625,27.71,1
-0.3144204616546631,-0.9581326842308044,0.0533678419888019,-32.02503204345703,1.6445010900497437,65.73991394042969,27.71,1
-0.3305257558822632,-1.1074784994125366,0.0510417334735393,-42.60615921020508,1.641704559326172,65.73994445800781,27.71,1
-0.3744478523731231,-1.1585378646850586,0.0775378420948982,-46.80631637573242,1.6399098634719849,65.7399673461914,27.71,1
-0.3914389908313751,-1.0961426496505735,0.1001392900943756,-44.23892974853516,1.6387581825256348,65.73997497558594,27.71,1
-0.3743540346622467,-1.1120787858963013,0.1034480556845665,-37.11715316772461,1.63801908493042,65.73998260498047,27.71,1
-0.3633899092674255,-1.0775234699249268,0.0943758785724639,-27.98260498046875,1.6375447511672974,65.739990234375,27.71,1
-0.3675493001937866,-1.0273590087890625,0.0829561054706573,-18.7099666595459,1.637240290641785,65.739990234375,27.71,1
-0.3534252345561981,-0.933590829372406,0.0700297802686691,-10.584697723388672,1.6375038623809814,65.739990234375,27.71,1
-0.3555567860603332,-0.8622202277183533,0.0617344044148922,-4.034066200256348,1.637673020362854,65.739990234375,27.71,1
-0.3905113339424133,-0.8108209371566772,0.0508131347596645,1.5168001651763916,1.6377816200256348,65.739990234375,27.71,1
-0.4353342652320862,-0.7946291565895081,0.0326089449226856,6.759254455566406,1.6378512382507324,65.739990234375,27.71,1
-0.4640990197658539,-0.7842382192611694,0.0265243183821439,11.363131523132324,1.637895941734314,65.739990234375,27.71,1
-0.4657652676105499,-0.7999609708786011,0.0562062002718448,14.271060943603516,1.6379246711730957,65.739990234375,27.71,1
-0.4612368047237396,-0.8268442749977112,0.080852098762989,15.302462577819824,1.6379430294036863,65.739990234375,27.71,1
-0.4583306908607483,-0.8552919626235962,0.1022661924362182,15.598934173583984,1.637954831123352,65.739990234375,27.71,1
-0.4788568019866943,-0.8903414011001587,0.1439974009990692,16.09012794494629,1.6379624605178833,65.80805969238281,27.71,1
-0.4808337390422821,-0.9352251887321472,0.1651803106069564,16.86750030517578,1.6379673480987549,65.85174560546875,27.71,1
-0.4877001941204071,-0.9864201545715332,0.2011653780937194,18.107967376708984,1.6379704475402832,65.8797836303711,27.71,1
-0.5033022165298462,-1.024871826171875,0.2466496229171753,19.6062126159668,1.6379724740982056,65.89777374267578,27.71,1
-0.5133147239685059,-1.0719389915466309,0.2702410221099853,19.9980697631836,1.6379737854003906,65.90931701660156,27.71,1
-0.4805557429790497,-1.1469262838363647,0.2629895210266113,18.6015567779541,1.6379746198654177,65.9167251586914,27.71,1
-0.4371418356895447,-1.183853268623352,0.2527381479740143,16.981674194335938,1.6379750967025757,65.92147827148438,27.71,1
-0.3700968623161316,-1.1347798109054563,0.2629527449607849,16.558330535888672,1.6379754543304443,65.92453002929688,27.71,1
-0.3158757090568542,-1.0752984285354614,0.269507884979248,16.3045654296875,1.640729904174805,65.9264907836914,27.71,1
-0.2978730201721191,-1.0203332901000977,0.2401279360055923,14.937968254089355,1.6424975395202637,65.92774963378906,27.71,1
-0.3143087923526764,-0.9850598573684692,0.2044802606105804,13.161738395690918,1.643631935119629,65.92855834960938,27.71,1
-0.3248563408851623,-0.9568256139755248,0.1760058552026748,11.903631210327148,1.6443599462509155,65.9290771484375,27.71,1
-0.3148318231105804,-0.921913206577301,0.1465370804071426,10.687837600708008,1.644827127456665,65.92940521240234,27.71,1
-0.2972030937671661,-0.8883128762245178,0.1332234889268875,9.377389907836914,1.6451269388198853,65.92961883544922,27.71,1
-0.2690966725349426,-0.8331634402275085,0.1246795877814292,9.156205177307127,1.6453193426132202,65.92975616455078,27.71,1
-0.2622551321983337,-0.7809783816337585,0.1135988309979438,10.013800621032717,1.6454428434371948,65.92984008789062,27.71,1
-0.2690601944923401,-0.7642823457717896,0.1064878404140472,9.561034202575684,1.6496535539627075,65.92990112304688,27.71,1
-0.2902206182479858,-0.7983500361442566,0.0963266417384147,5.9100189208984375,1.652355670928955,65.92993927001953,27.71,1
-0.2926045954227447,-0.8314082622528076,0.0898057669401168,-0.2985914349555969,1.6540898084640503,65.92996215820312,27.71,1
-0.2829389572143554,-0.8862097263336182,0.0800232663750648,-7.82608699798584,1.6552026271820068,65.92997741699219,27.71,1
-0.2935294210910797,-1.061322569847107,0.0625498741865158,-16.1784725189209,1.6559168100357056,65.92998504638672,27.71,1
-0.3339124321937561,-1.179297685623169,0.0569342337548732,-24.049938201904297,1.6563750505447388,65.92999267578125,27.71,1
-0.354230135679245,-1.0926718711853027,0.0757215321063995,-28.86494255065918,1.6566691398620603,65.92999267578125,27.71,1
-0.3392800092697143,-1.0370804071426392,0.0821803659200668,-29.11753463745117,1.6568578481674194,65.92999267578125,27.71,1
-0.3408814072608948,-1.0853716135025024,0.0807275027036666,-26.040985107421875,1.6477982997894287,65.92999267578125,27.71,1
-0.3531046509742737,-1.037993311882019,0.0853929072618484,-22.432979583740234,1.6419843435287476,65.92999267578125,27.71,1
-0.3497532904148102,-0.974001944065094,0.082789123058319,-19.98859596252441,1.6382533311843872,65.92999267578125,27.71,1
-0.3476025760173797,-0.8993493318557739,0.0811181664466857,-17.603103637695312,1.6358590126037598,65.92999267578125,27.71,1
-0.3574179112911224,-0.8458437919616699,0.0800458416342735,-12.84074878692627,1.6343224048614502,65.92999267578125,27.71,1
-0.380510151386261,-0.8115070462226868,0.0681621357798576,-5.535608768463135,1.633336305618286,65.92999267578125,27.71,1
-0.3953294157981872,-0.8062649965286255,0.0661336332559585,1.1407389640808103,1.6327035427093506,65.92999267578125,27.71,1
-0.4048395752906799,-0.8029009699821472,0.0704296305775642,3.45840072631836,1.632297396659851,65.92999267578125,27.71,1
-0.4221381843090057,-0.8063399195671082,0.0843821018934249,-0.0017943016719073,1.631577491760254,66.11628723144531,27.73,1
-0.4500327706336975,-0.8141446113586426,0.1045315489172935,-8.108519554138184,1.6311155557632446,66.23583984375,27.73,1
-0.4735316932201385,-0.8527398109436035,0.1286578476428985,-18.272815704345703,1.6308190822601318,66.31256103515625,27.73,1
-0.483014166355133,-0.9110946655273438,0.1385429501533508,-27.23899269104004,1.6306288242340088,66.36180114746094,27.73,1
-0.5002950429916382,-0.9877278804779052,0.1672777384519577,-32.25137710571289,1.6305067539215088,66.39339447021484,27.73,1
-0.5393737554550171,-1.0704933404922483,0.2360980361700058,-32.78826904296875,1.630428433418274,66.4136734008789,27.73,1
-0.5644522309303284,-1.062031865119934,0.2914584875106811,-30.528284072875977,1.6303781270980835,66.42668914794922,27.73,1
-0.5581550598144531,-1.0733951330184937,0.326985627412796,-27.032304763793945,1.6303458213806152,66.4350357055664,27.73,1
-0.5093317031860352,-1.159056305885315,0.3441871404647827,-22.5604248046875,1.6321614980697632,66.44039916992188,27.73,1
-0.4444130361080169,-1.2028331756591797,0.3496282994747162,-17.11833953857422,1.633326768875122,66.44384002685547,27.73,1
-0.3523719906806946,-1.1469600200653076,0.3419245779514313,-10.824348449707031,1.634074568748474,66.446044921875,27.73,1
-0.293305367231369,-1.0887126922607422,0.325785219669342,-3.353120803833008,1.634554386138916,66.44746398925781,27.73,1
-0.2721931040287018,-1.0401374101638794,0.2930368185043335,5.554280281066895,1.6348623037338257,66.44837188720703,27.73,1
-0.2866333425045013,-1.0033668279647827,0.2496296763420105,15.286605834960938,1.6350599527359009,66.4489517211914,27.73,1
-0.3014980554580688,-0.9685739874839784,0.2105779200792312,24.62043190002441,1.635186791419983,66.44932556152344,27.73,1
-0.299841821193695,-0.9238548278808594,0.1855167597532272,32.38372039794922,1.635268211364746,66.44956970214844,27.73,1
-0.2875833809375763,-0.8727655410766602,0.1694339513778686,37.90313720703125,1.647714376449585,66.44972229003906,27.73,1
-0.2629233002662658,-0.7951971888542175,0.1647107005119323,41.09767150878906,1.6557016372680664,66.44982147216797,27.73,1
-0.2582934200763702,-0.7902005314826965,0.156081810593605,42.01922607421875,1.660827398300171,66.44988250732422,27.73,1
-0.2553222477436065,-0.7925916910171509,0.1337509751319885,40.33211135864258,1.6641167402267456,66.44992065429688,27.73,1
-0.2534155249595642,-0.8053217530250549,0.1250181049108505,35.502044677734375,1.6662276983261108,66.449951171875,27.73,1
-0.2521919012069702,-0.8414800763130188,0.1194138452410698,27.53724670410156,1.667582392692566,66.44996643066406,27.73,1
-0.2514066398143768,-1.0046287775039673,0.0934262573719024,17.63599395751953,1.6684517860412598,66.4499740600586,27.73,1
-0.3068804442882538,-1.114925980567932,0.0879444628953933,8.118525505065918,1.6690096855163574,66.44998168945312,27.73,1
-0.3312847912311554,-1.0961439609527588,0.1068176627159118,1.2261782884597778,1.653301239013672,66.44998931884766,27.73,1
-0.3245550096035003,-1.095286250114441,0.0965382978320121,-2.2977068424224854,1.6432205438613892,66.44998931884766,27.73,1
-0.3202362060546875,-1.1339203119277954,0.0675504952669143,-3.609750986099243,1.6367512941360474,66.44998931884766,27.73,1
-0.3398557603359222,-1.080344557762146,0.0433500185608863,-4.885237216949463,1.632599711418152,66.44998931884766,27.73,1
-0.3412508964538574,-0.978789448738098,0.0278195459395647,-7.498641490936279,1.629935383796692,66.44998931884766,27.73,1
-0.3421462178230285,-0.9024216532707214,0.0234507583081722,-10.383101463317873,1.6282256841659546,66.44998931884766,27.73,1
-0.3763074278831482,-0.8478154540061951,0.0094515727832913,-10.74741268157959,1.6271284818649292,66.44998931884766,27.73,1
-0.4206212162971496,-0.8183701038360596,-0.0107278479263186,-7.352057933807373,1.6264243125915527,66.44998931884766,27.73,1
-0.4770481288433075,-0.8050715327262878,-0.0348733887076377,-2.2210724353790283,1.6268903017044067,66.682861328125,27.73,1
-0.4964663684368133,-0.8077328205108643,-0.0279775075614452,1.5266857147216797,1.6271893978118896,66.83230590820312,27.73,1
-0.5033301115036011,-0.8150385022163391,-0.0123565793037414,2.3339526653289795,1.6273813247680664,66.92820739746094,27.73,1
-0.5245281457901001,-0.8365201354026794,0.0200591310858726,0.2904684543609619,1.6275044679641724,66.98975372314453,27.73,1
-0.5437296032905579,-0.8615013957023621,0.0464594438672065,-3.801000595092773,1.6275835037231443,67.02925109863281,27.73,1
-0.5672475695610046,-0.9447062015533448,0.0801949650049209,-8.7625093460083,1.6276341676712036,67.05459594726562,27.73,1
-0.6159266829490662,-1.0652755498886108,0.1690177768468856,-13.494192123413086,1.627666711807251,67.07086181640625,27.73,1
-0.6415683627128601,-1.092270016670227,0.2428124696016311,-17.286638259887695,1.6276875734329224,67.081298828125,27.73,1
-0.6020459532737732,-1.1263868808746338,0.2901696562767029,-19.45530128479004,1.625864863395691,67.08799743652344,27.73,1
-0.5486938953399658,-1.1706721782684326,0.3205607831478119,-19.38533401489257,1.6246951818466189,67.09230041503906,27.73,1
-0.4752711951732635,-1.199091911315918,0.334466278553009,-17.15864372253418,1.6239445209503174,67.09505462646484,27.73,1
-0.400163859128952,-1.150156855583191,0.3377922475337982,-13.483407020568848,1.623462796211243,67.0968246459961,27.73,1
-0.3463665246963501,-1.0907642841339111,0.3343288898468017,-8.860663414001465,1.6231536865234375,67.09796142578125,27.73,1
-0.3286358118057251,-1.0414539575576782,0.309715211391449,-2.9133505821228027,1.622955322265625,67.09869384765625,27.73,1
-0.3228550255298614,-0.9986138939857484,0.2827240228652954,5.453164100646973,1.6228280067443848,67.09915924072266,27.73,1
-0.3079497218132019,-0.9543282985687256,0.2598048448562622,16.701316833496094,1.6227463483810425,67.09945678710938,27.73,1
-0.2759932577610016,-0.8923217058181763,0.2171077579259872,29.12879943847656,1.6396785974502563,67.09964752197266,27.73,1
-0.2498876601457595,-0.8301383256912231,0.1897072345018386,39.2392578125,1.6505446434020996,67.09976959228516,27.73,1
-0.2331345826387405,-0.7678415179252625,0.1721231490373611,44.15840148925781,1.657517910003662,67.099853515625,27.73,1
-0.2335789650678634,-0.7334607839584351,0.1608386933803558,43.456790924072266,1.6619929075241089,67.09990692138672,27.73,1
-0.2562552392482757,-0.7337883114814758,0.1535969823598861,38.75760269165039,1.6648647785186768,67.09993743896484,27.73,1
-0.2708075642585754,-0.7675851583480835,0.1601452231407165,32.14502716064453,1.6667077541351318,67.09996032714844,27.73,1
-0.2801464200019836,-0.8228606581687927,0.1531519591808319,24.895675659179688,1.6678904294967651,67.0999755859375,27.73,1
-0.274944007396698,-1.0150710344314575,0.126272976398468,17.191104888916016,1.668649435043335,67.09998321533203,27.73,1
-0.3051920533180237,-1.2615715265274048,0.1202191486954689,9.011689186096191,1.653988003730774,67.09999084472656,27.73,1
-0.3525923788547516,-1.190252661705017,0.1667141169309616,1.193903923034668,1.64457905292511,67.09999084472656,27.73,1
-0.3550223112106323,-1.110897660255432,0.174160823225975,-4.933699131011963,1.6385409832000732,67.09999084472656,27.73,1
-0.3453861474990845,-1.1215476989746094,0.1621463596820831,-8.726322174072266,1.634666085243225,67.09999084472656,27.73,1
-0.3615933060646057,-1.0780023336410522,0.1320450752973556,-10.748212814331056,1.6321793794631958,67.09999084472656,27.73,1
-0.3552007973194122,-1.0052752494812012,0.1239233464002609,-12.500732421875,1.6305835247039795,67.09999084472656,27.73,1
-0.3343051373958587,-0.8970276117324829,0.1299068331718444,-15.18740177154541,1.6295593976974487,67.09999084472656,27.73,1
-0.3712754845619201,-0.8219627737998962,0.1505400240421295,-17.800029754638672,1.6289021968841553,67.09999084472656,27.73,1
-0.4117942452430725,-0.7849860191345215,0.1637812107801437,-17.513412475585938,1.630775809288025,67.29703521728516,27.73,1
-0.4657857120037079,-0.7780497670173645,0.1610831022262573,-13.370732307434082,1.631978154182434,67.4234848022461,27.73,1
-0.4948365688323974,-0.7735984921455383,0.176144927740097,-8.268882751464844,1.6327497959136963,67.504638671875,27.73,1
-0.4966863989830017,-0.7651441693305969,0.2193973958492279,-5.843879222869873,1.6332449913024902,67.55671691894531,27.73,1
-0.503471314907074,-0.7989030480384827,0.2639476656913757,-7.089225769042969,1.6335628032684326,67.59013366699219,27.73,1
-0.5190210342407227,-0.8541542291641235,0.2869396805763244,-11.08049201965332,1.633766770362854,67.61157989501953,27.73,1
-0.5401954650878906,-0.9399912357330322,0.2681079804897308,-16.876922607421875,1.6338976621627808,67.6253433227539,27.73,1
-0.5481862425804138,-1.0062720775604248,0.2504251003265381,-23.3481559753418,1.6339815855026243,67.6341781616211,27.73,1
-0.575705349445343,-1.121578335762024,0.2446750253438949,-28.77641868591309,1.6340354681015017,67.63984680175781,27.73,1
-0.5877677798271179,-1.1172064542770386,0.2689738273620605,-31.812143325805664,1.6340700387954712,67.64348602294922,27.73,1
-0.5675198435783386,-1.064020752906799,0.2621763050556183,-32.237701416015625,1.6340922117233276,67.64582061767578,27.73,1
-0.5209392309188843,-1.0634759664535522,0.1962385326623916,-30.447237014770508,1.6341065168380735,67.6473159790039,27.73,1
-0.5022420287132263,-1.1023107767105105,0.1539234668016433,-26.48231506347656,1.6341156959533691,67.64827728271484,27.73,1
-0.4510588347911834,-1.0936460494995115,0.1491591930389404,-19.946866989135746,1.6341215372085571,67.64889526367188,27.73,1
-0.3790279924869537,-1.0153144598007202,0.1069173365831375,-10.579554557800291,1.6341253519058228,67.6492919921875,27.73,1
-0.3439982831478119,-0.959447979927063,0.0742111653089523,1.4254971742630005,1.6341277360916138,67.64954376220703,27.73,1
-0.3271160125732422,-0.9403893947601318,0.030831130221486,15.048062324523926,1.648818850517273,67.64970397949219,27.73,1
-0.3274774849414825,-0.9225609302520752,-0.0138010010123252,27.98185539245605,1.6582468748092651,67.64981079101562,27.73,1
-0.3333072364330292,-0.8887285590171814,-0.048041108995676,37.274391174316406,1.6642972230911257,67.6498794555664,27.73,1
-0.3314506709575653,-0.8670168519020081,-0.07001443952322,40.97361755371094,1.668179988861084,67.6499252319336,27.73,1
-0.33025923371315,-0.8474857807159424,-0.0897134318947792,39.299259185791016,1.6706717014312744,67.64995574951172,27.73,1
-0.3406901657581329,-0.868538498878479,-0.0743662416934967,34.62068176269531,1.6722707748413086,67.64997100830078,27.73,1
-0.3473841547966003,-0.8876466751098633,-0.0645172968506813,29.776796340942383,1.6732969284057615,67.64997863769531,27.73,1
-0.3460821807384491,-0.9111047983169556,-0.0637945830821991,25.57200050354004,1.6739554405212402,67.64998626708984,27.73,1
-0.3676377534866333,-1.0828965902328491,-0.0409396924078464,20.57000732421875,1.6532620191574097,67.64999389648438,27.73,1
-0.3814708888530731,-1.1427626609802246,0.0017161326250061,13.745198249816896,1.6399821043014526,67.64999389648438,27.73,1
-0.3679570853710174,-0.96286803483963,0.0626768320798873,5.994224548339844,1.6314598321914673,67.64999389648438,27.73,1
-0.3704802691936493,-0.8698131442070007,0.0906023532152175,-1.1616922616958618,1.6259907484054563,67.64999389648438,27.73,1
-0.400088369846344,-0.9220513701438904,0.0805344730615615,-6.9111199378967285,1.6224809885025024,67.64999389648438,27.73,1
-0.419089138507843,-0.93318372964859,0.1076601296663284,-11.21339225769043,1.62022864818573,67.64999389648438,27.73,1
-0.4032938778400421,-0.9123389720916748,0.136263370513916,-14.791170120239258,1.6187832355499268,67.64999389648438,27.73,1
-0.370766282081604,-0.8821686506271362,0.1658148318529129,-18.509464263916016,1.617855668067932,67.64999389648438,27.73,1
-0.3778808116912842,-0.8907960057258606,0.2239636778831482,-21.35780334472656,1.617719292640686,67.86495208740234,27.71,1
-0.3992398381233215,-0.8963325023651123,0.2500846982002258,-20.265905380249023,1.6176317930221558,68.00289916992188,27.71,1
-0.418544590473175,-0.8998855352401733,0.2612498998641968,-13.650355339050291,1.6175756454467771,68.09142303466797,27.71,1
-0.4253354966640472,-0.907763421535492,0.2796106338500976,-4.070420265197754,1.617539644241333,68.14823150634766,27.71,1
-0.4017046391963959,-0.9016234278678894,0.2969912588596344,3.78631854057312,1.6175165176391602,68.1846923828125,27.71,1
-0.3865397274494171,-0.8920853734016418,0.2969495952129364,6.825661659240723,1.6175016164779663,68.20809173583984,27.71,1
-0.3824055194854736,-0.9083555340766908,0.2745317816734314,4.842469215393066,1.6174920797348022,68.22310638427734,27.71,1
-0.4245346188545227,-0.9467856287956238,0.2377542108297348,-0.3280720710754394,1.6174860000610352,68.23274230957031,27.71,1
-0.4739617705345154,-0.9658500552177428,0.1805658340454101,-5.878172397613525,1.6257449388504028,68.23892211914062,27.71,1
-0.5056812763214111,-1.039660096168518,0.0990834385156631,-8.92759895324707,1.6310449838638306,68.24288940429688,27.71,1
-0.5428303480148315,-1.1597981452941897,0.0579882748425006,-7.670975208282471,1.6344462633132937,68.24543762207031,27.71,1
-0.605854868888855,-1.063364863395691,0.0372135378420352,-2.3755791187286377,1.6366291046142578,68.2470703125,27.71,1
-0.6351048350334167,-1.0686527490615845,0.0070881848223507,4.838144779205322,1.6380298137664795,68.24812316894531,27.71,1
-0.6650713682174683,-1.0720462799072266,-0.0234400834888219,11.391340255737305,1.638928771018982,68.24879455566406,27.71,1
-0.6451177000999451,-1.0350396633148191,-0.0430313684046268,15.306614875793455,1.6395056247711182,68.24922943115234,27.71,1
-0.5987259745597839,-0.994497537612915,-0.0388106033205986,15.78789234161377,1.639875888824463,68.24950408935547,27.71,1
-0.5241722464561462,-0.9572843909263612,-0.0640908330678939,13.671345710754396,1.6373591423034668,68.24967956542969,27.71,1
-0.4819256961345672,-0.9278053641319276,-0.0971075519919395,10.87645435333252,1.6357440948486328,68.24979400634766,27.71,1
-0.4548143148422241,-0.9144852161407472,-0.118295781314373,9.129427909851074,1.6347075700759888,68.24987030029297,27.71,1
-0.4318180084228515,-0.8891437649726868,-0.1430887132883072,9.118885040283203,1.6340423822402954,68.24991607666016,27.71,1
-0.4226580858230591,-0.8728811144828796,-0.1645971685647964,10.22271728515625,1.6336156129837036,68.24994659423828,27.71,1
-0.4223775267601013,-0.9016290903091432,-0.1728022843599319,10.873772621154783,1.633341670036316,68.24996948242188,27.71,1
-0.4221974909305572,-0.9312734603881836,-0.1612745225429535,9.733161926269531,1.6331658363342283,68.2499771118164,27.71,1
-0.4108864068984985,-0.9614930152893066,-0.137083351612091,6.367990493774414,1.6330530643463137,68.24998474121094,27.71,1
-0.3924320638179779,-1.025668382644653,-0.0879722014069557,0.7834749221801758,1.6265538930892944,68.24999237060547,27.71,1
-0.3805891275405884,-1.111634612083435,-0.0508577190339565,-7.196166038513184,1.6223831176757812,68.24999237060547,27.71,1
-0.3561956882476806,-1.0716406106948853,0.0009490911616012,-17.48311424255371,1.6197065114974976,68.24999237060547,27.71,1
-0.3237480521202087,-0.9732037782669068,0.056586816906929,-28.40885353088379,1.6179888248443604,68.24999237060547,27.71,1
-0.3197183609008789,-0.9492170810699464,0.0866941288113594,-36.77816009521485,1.6168864965438845,68.24999237060547,27.71,1
-0.3339256644248962,-0.9226282238960266,0.1172108203172683,-40.2539176940918,1.61617910861969,68.24999237060547,27.71,1
-0.3542386293411255,-0.883173942565918,0.1423924565315246,-38.92695999145508,1.6157251596450806,68.24999237060547,27.71,1
-0.3448832333087921,-0.8410611152648926,0.1753458976745605,-34.38534164428711,1.6154338121414185,68.24999237060547,27.71,1
-0.3164883852005005,-0.8196333050727844,0.1964935213327407,-28.62264633178711,1.6101975440979004,68.43270874023438,27.73,1
-0.3038639724254608,-0.8282732963562012,0.2212603986263275,-23.190513610839844,1.606837272644043,68.54996490478516,27.73,1
-0.318153440952301,-0.8506112694740295,0.248349905014038,-18.01708984375,1.6046808958053589,68.62521362304688,27.73,1
-0.3385191559791565,-0.8649464845657349,0.271332174539566,-11.874015808105469,1.603296995162964,68.67350006103516,27.73,1
-0.3683820068836212,-0.8853415846824646,0.291678637266159,-4.331255435943604,1.6024088859558103,68.7044906616211,27.73,1
-0.3819485008716583,-0.8928321599960327,0.2991380393505096,3.647590160369873,1.6018389463424685,68.72438049316406,27.73,1
-0.3850569128990173,-0.8976392149925232,0.3039250671863556,10.702545166015623,1.6014732122421265,68.73714447021484,27.73,1
-0.3926495015621185,-0.9231151938438416,0.2734104692935943,15.86412525177002,1.601238489151001,68.74533081054688,27.73,1
-0.4199130833148956,-0.9506597518920898,0.2482301741838455,18.807523727416992,1.6102685928344729,68.7505874633789,27.73,1
-0.4821914732456207,-0.9795318245887756,0.2040820270776748,20.130380630493164,1.6160635948181152,68.75395965576172,27.73,1
-0.5893314480781555,-1.1436023712158203,0.1701525151729583,21.3447380065918,1.6197824478149414,68.7561264038086,27.73,1
-0.6748810410499573,-1.2041112184524536,0.1875629276037216,23.714704513549805,1.622169017791748,68.75751495361328,27.73,1
-0.6570107936859131,-1.069411277770996,0.15955151617527,26.93017196655273,1.623700499534607,68.75840759277344,27.73,1
-0.6119560599327087,-0.9997619390487672,0.1079887524247169,29.43791389465332,1.6246833801269531,68.75897979736328,27.73,1
-0.6502158045768738,-1.016640543937683,0.069300964474678,29.7324333190918,1.6253141164779663,68.75934600830078,27.73,1
-0.6579753756523132,-1.0274722576141355,0.0612666942179203,27.08403778076172,1.6257189512252808,68.75958251953125,27.73,1
-0.6293683648109436,-1.0232279300689695,0.0337196663022041,21.70514488220215,1.6480129957199097,68.75973510742188,27.73,1
-0.5550323128700256,-1.0093085765838623,-0.0175450779497623,14.298118591308594,1.6623200178146362,68.75983428955078,27.73,1
-0.4961321353912353,-0.9891803860664368,-0.0560416169464588,5.682698249816895,1.671501398086548,68.75989532470703,27.73,1
-0.4527356326580047,-0.965067744255066,-0.0751487016677856,-2.5402793884277344,1.6773935556411743,68.75993347167969,27.73,1
-0.4528751373291015,-0.93280029296875,-0.1098016276955604,-7.813730716705322,1.6811747550964355,68.75995635986328,27.73,1
-0.4529646635055542,-0.912092924118042,-0.137637659907341,-8.389188766479492,1.6836012601852417,68.75997161865234,27.73,1
-0.4474243223667145,-0.9267929792404176,-0.1387078911066055,-5.007527828216553,1.6851584911346436,68.75997924804688,27.73,1
-0.4438688457012176,-0.9250310659408568,-0.1337969303131103,-0.4692900776863098,1.6861578226089478,68.7599868774414,27.73,1
-0.4135982990264892,-0.9462915062904358,-0.0858631655573844,2.113492488861084,1.678536295890808,68.75999450683594,27.73,1
-0.3829768300056457,-0.959935188293457,-0.0271131619811058,0.5860640406608582,1.673645257949829,68.75999450683594,27.73,1
-0.3521302044391632,-1.0134731531143188,0.0105892056599259,-6.265993118286133,1.670506477355957,68.75999450683594,27.73,1
-0.3323346078395843,-0.9974507689476012,0.0515777394175529,-18.56999397277832,1.6684921979904177,68.75999450683594,27.73,1
-0.2972398400306701,-0.9143974184989928,0.1002729162573814,-34.14345169067383,1.6671994924545288,68.75999450683594,27.73,1
-0.3083046674728393,-0.8666963577270508,0.1259249001741409,-48.343544006347656,1.666369915008545,68.75999450683594,27.73,1
-0.3321987688541412,-0.8584756255149841,0.1535824239253997,-56.2382698059082,1.6658375263214111,68.75999450683594,27.73,1
-0.3587281703948974,-0.8420045375823975,0.1769292056560516,-55.2930908203125,1.6654958724975586,68.75999450683594,27.73,1
-0.3477643430233001,-0.8314343094825745,0.1975096017122268,-46.5433349609375,1.6487510204315186,68.97136688232422,27.71,1
-0.3295328617095947,-0.8246509432792664,0.2107169032096862,-33.36901092529297,1.6380051374435425,69.10701751708984,27.71,1
-0.3066373765468597,-0.8426888585090637,0.2415836900472641,-19.04622840881348,1.6311089992523191,69.1940689086914,27.71,1
-0.2975421547889709,-0.8598623275756836,0.272587776184082,-5.874449253082275,1.626683473587036,69.24993133544922,27.71,1
-0.314096450805664,-0.8820788264274597,0.3148755133152008,4.394806385040283,1.6238434314727783,69.28578186035156,27.71,1
-0.3135245144367218,-0.9075316786766052,0.3308177888393402,11.29312515258789,1.6220208406448364,69.30878448486328,27.71,1
-0.2963641583919525,-0.9350613951683044,0.3466463983058929,16.0711612701416,1.6208511590957642,69.32354736328125,27.71,1
-0.2741560637950897,-0.9527283906936646,0.3568042814731598,20.11189079284668,1.6201006174087524,69.33302307128906,27.71,1
-0.254306435585022,-0.9696637988090516,0.3297363817691803,23.69737243652344,1.62650465965271,69.33910369873047,27.71,1
-0.2695569396018982,-0.9861297607421876,0.2955724596977234,26.607364654541016,1.6306143999099731,69.34300994873047,27.71,1
-0.3129304945468902,-1.0078922510147097,0.2624524533748626,28.64679336547852,1.6332517862319946,69.34551239013672,27.71,1
-0.351960688829422,-1.061042547225952,0.2300023883581161,29.75495719909668,1.6349443197250366,69.34712219238281,27.71,1
-0.4273879826068878,-1.184715747833252,0.2035800367593765,30.51626968383789,1.6360304355621338,69.34815216064453,27.71,1
-0.4981839954853058,-1.1689199209213257,0.1642325967550277,31.914810180664062,1.6367274522781372,69.34881591796875,27.71,1
-0.5212256908416748,-1.0916097164154053,0.1277861297130584,33.81901550292969,1.6371747255325315,69.3492431640625,27.71,1
-0.5472080707550049,-1.1259630918502808,0.0876035541296005,34.28510284423828,1.63746178150177,69.3495101928711,27.71,1
-0.5526865124702454,-1.148009181022644,0.0730122402310371,31.04104423522949,1.64912211894989,69.34968566894531,27.71,1
-0.4722356498241424,-1.0949838161468506,0.0748439282178878,23.717885971069336,1.6566050052642822,69.34980010986328,27.71,1
-0.3982158303260803,-1.0329662561416626,0.0592260733246803,14.87684726715088,1.6614071130752563,69.34986877441406,27.71,1
-0.3395186066627502,-0.9819714426994324,0.0492034330964088,8.182143211364746,1.6644887924194336,69.34991455078125,27.71,1
-0.251470148563385,-0.9324525594711304,0.0035870617721229,4.896153450012207,1.666466474533081,69.34994506835938,27.71,1
-0.1725746095180511,-0.906271994113922,-0.031284675002098,3.403597593307495,1.667735576629639,69.34996795654297,27.71,1
-0.155530646443367,-0.8502863645553589,-0.0536633506417274,2.6033942699432373,1.6685500144958496,69.3499755859375,27.71,1
-0.178179457783699,-0.8199557662010193,-0.0512313731014728,3.3007805347442627,1.6690727472305298,69.34998321533203,27.71,1
-0.1927141547203064,-0.8508713245391846,-0.0384751223027706,5.579019069671631,1.6556371450424194,69.34999084472656,27.71,1
-0.2076394706964492,-0.8875044584274292,-0.0190933439880609,7.345580577850342,1.647014856338501,69.34999084472656,27.71,1
-0.2060221284627914,-0.9446001648902892,0.015735862776637,6.018028259277344,1.641481637954712,69.34999084472656,27.71,1
-0.1993864327669143,-1.0148274898529053,0.0436850152909755,0.0931544154882431,1.6379307508468628,69.34999084472656,27.71,1
-0.2063235789537429,-1.1886441707611084,0.0672189444303512,-10.619876861572266,1.63565194606781,69.34999084472656,27.71,1
-0.2611553966999054,-1.294592022895813,0.1103105396032333,-24.76392936706543,1.6341896057128906,69.34999084472656,27.71,1
-0.2739522159099579,-1.1722588539123535,0.1771486699581146,-38.65933227539063,1.633251070976257,69.34999084472656,27.71,1
-0.2765667140483856,-1.071361422538757,0.2088459879159927,-46.83859252929688,1.6326488256454468,69.34999084472656,27.71,1
-0.2894400954246521,-1.0681867599487305,0.2179919481277465,-45.72491455078125,1.612523078918457,69.389404296875,27.73,1
-0.2977014780044555,-1.004573941230774,0.2182635217905044,-37.01033020019531,1.5996074676513672,69.4146957397461,27.73,1
-0.3030031621456146,-0.9357619881629944,0.2184378057718277,-25.692855834960938,1.5913190841674805,69.43092346191406,27.73,1
-0.3231987953186035,-0.8636136054992676,0.2073540985584259,-15.63912582397461,1.5859999656677246,69.44133758544922,27.73,1
-0.3417569696903229,-0.8117151260375977,0.1946434378623962,-8.639086723327637,1.5825865268707275,69.4480209350586,27.73,1
-0.3872531950473785,-0.8063985109329224,0.1752909272909164,-5.0675859451293945,1.5803959369659424,69.45230865478516,27.73,1
-0.4220478236675262,-0.8085843920707703,0.146078273653984,-3.065791130065918,1.5789902210235596,69.45506286621094,27.73,1
-0.4331814646720886,-0.8043894171714783,0.1385268270969391,0.4794508516788482,1.5780880451202393,69.45683288574219,27.73,1
-0.4347286224365234,-0.8128928542137146,0.1672673821449279,6.4338884353637695,1.5848541259765625,69.45796966552734,27.73,1
-0.4357214868068695,-0.8239476680755615,0.1857114136219024,12.648263931274414,1.5891962051391602,69.45869445800781,27.73,1
-0.4531519711017608,-0.8590309023857117,0.1919499635696411,17.087697982788086,1.5919827222824097,69.45915985107422,27.73,1
-0.4475445449352264,-0.8759474754333496,0.1959535032510757,20.12296485900879,1.5937708616256714,69.45945739746094,27.73,1
-0.4439460039138794,-0.9091947078704834,0.2041205167770385,23.532514572143555,1.5949183702468872,69.45964813232422,27.73,1
-0.4696255326271057,-1.0312907695770264,0.2485460638999939,28.28569221496582,1.595654845237732,69.45977020263672,27.73,1
-0.4973007440567016,-1.064862847328186,0.2714580595493316,33.51779556274414,1.5961273908615112,69.45985412597656,27.73,1
-0.5038655400276184,-1.1087985038757324,0.252575010061264,37.23371505737305,1.5964306592941284,69.45990753173828,27.73,1
-0.4465029239654541,-1.1817760467529297,0.2460547238588333,37.77335357666016,1.5952482223510742,69.4599380493164,27.73,1
-0.3872998058795929,-1.1950222253799438,0.2530659139156341,34.8380241394043,1.594489336013794,69.4599609375,27.73,1
-0.3269155621528625,-1.1251540184020996,0.2463697493076324,29.274991989135746,1.594002366065979,69.45997619628906,27.73,1
-0.2881644368171692,-1.057925581932068,0.2308769971132278,21.97549629211425,1.5936897993087769,69.4599838256836,27.73,1
-0.2856872975826263,-0.9979888796806335,0.1985435336828231,13.289363861083984,1.5934892892837524,69.45999145507812,27.73,1
-0.2952931523323059,-0.9483293890953064,0.166598230600357,3.605890035629273,1.5933605432510376,69.45999145507812,27.73,1
-0.2902620732784271,-0.9052652716636658,0.1349020302295684,-5.642847537994385,1.593277931213379,69.45999145507812,27.73,1
-0.2702400982379913,-0.8552380800247192,0.1089634522795677,-11.800274848937988,1.5932248830795288,69.45999145507812,27.73,1
-0.2517933845520019,-0.8119379878044128,0.097915343940258,-12.548934936523438,1.60053551197052,69.45999145507812,27.73,1
-0.245553120970726,-0.7897482514381409,0.0964230746030807,-8.132000923156738,1.6052271127700806,69.45999145507812,27.73,1
-0.2583417892456054,-0.7923014760017395,0.0954654291272163,-2.080313444137573,1.608237862586975,69.45999145507812,27.73,1
-0.2777443826198578,-0.8331243991851807,0.0836553126573562,0.1983169317245483,1.6101700067520142,69.45999145507812,27.73,1
-0.2901958525180816,-0.8649199604988098,0.081674039363861,-5.920118808746338,1.6114099025726318,69.45999145507812,27.73,1
-0.2925887107849121,-0.9189111590385436,0.0692070201039314,-20.89882469177246,1.6122056245803833,69.45999145507812,27.73,1
-0.2997220754623413,-1.1158950328826904,0.0444130823016166,-39.63969802856445,1.6127163171768188,69.45999145507812,27.73,1
-0.3154954016208648,-1.180732488632202,0.0396973080933094,-54.76902389526367,1.613044023513794,69.45999145507812,27.73,1
-0.2976289391517639,-1.1383748054504397,0.0478665456175804,-61.318321228027344,1.6077457666397097,69.52448272705078,27.73,1
-0.3421410322189331,-1.150376558303833,0.0419135428965091,-58.3525505065918,1.604345679283142,69.56586456298828,27.73,1
-0.3819018900394439,-1.102100849151611,0.0268976986408233,-48.39566040039063,1.6021636724472046,69.59242248535156,27.73,1
-0.3738314509391784,-0.9871535897254944,-0.0219230260699987,-35.95492935180664,1.6007633209228516,69.60946655273438,27.73,1
-0.357456773519516,-0.8853982090950012,-0.0364600345492363,-24.41368865966797,1.5998647212982178,69.62040710449219,27.73,1
-0.3749373257160187,-0.8200974464416504,-0.0233979523181915,-13.98348903656006,1.599287986755371,69.62742614746094,27.73,1
-0.4141441881656647,-0.8005822896957397,-0.0262110084295272,-3.549778699874878,1.5989179611206057,69.63192749023438,27.73,1
-0.4505004584789276,-0.7992541193962097,-0.0280162654817104,6.660482406616211,1.5986804962158203,69.63481903076172,27.73,1
-0.4794296026229858,-0.8095973134040833,-0.0067836777307093,15.115188598632812,1.595314860343933,69.63667297363281,27.73,1
-0.5147879719734192,-0.8218327760696411,0.0292332731187343,20.186256408691406,1.5931549072265625,69.63786315917969,27.73,1
-0.4982945322990417,-0.8464781045913696,0.0915312990546226,20.993677139282227,1.5917688608169556,69.63862609863281,27.73,1
-0.4877099692821502,-0.8846851587295532,0.1427061259746551,18.19795036315918,1.5908793210983276,69.63911437988281,27.73,1
-0.4697218537330627,-0.9203997850418092,0.1867427378892898,13.827942848205566,1.5903085470199585,69.63943481445312,27.73,1
-0.4637759029865265,-1.0328837633132937,0.2373940050601959,9.63348388671875,1.589942216873169,69.63964080810547,27.73,1
-0.4767534732818603,-1.11066734790802,0.2866923809051513,6.196545600891113,1.5897071361541748,69.6397705078125,27.73,1
-0.4738861620426178,-1.0990087985992432,0.32952481508255,3.7114758491516113,1.5895562171936035,69.63985443115234,27.73,1
-0.4384594559669494,-1.141906976699829,0.3290233314037323,2.582435846328736,1.5903773307800293,69.63990783691406,27.73,1
-0.4101268649101257,-1.191827654838562,0.3175059556961059,2.9111602306365967,1.5909042358398438,69.63993835449219,27.73,1
-0.3695535361766815,-1.2070705890655518,0.2877236604690552,4.340192317962647,1.5912423133850098,69.63996124267578,27.73,1
-0.332320362329483,-1.177668213844299,0.2630133330821991,6.62580680847168,1.5914592742919922,69.63997650146484,27.73,1
-0.3028284609317779,-1.097223877906799,0.2415578812360763,9.479039192199709,1.5915985107421875,69.63998413085938,27.73,1
-0.2895000278949737,-1.0344038009643557,0.1998001337051391,11.951360702514648,1.5916879177093506,69.6399917602539,27.73,1
-0.2921421527862549,-0.9940894842147828,0.1618068665266037,13.287174224853516,1.5917452573776243,69.6399917602539,27.73,1
-0.2994354963302612,-0.9402292370796204,0.1150338798761367,14.198161125183104,1.5917820930480957,69.6399917602539,27.73,1
-0.2929204106330871,-0.883273720741272,0.0850176736712455,15.793066024780272,1.6051181554794312,69.6399917602539,27.73,1
-0.2719460725784302,-0.8299296498298645,0.0713527724146843,17.715810775756836,1.6136765480041504,69.6399917602539,27.73,1
-0.2584859430789947,-0.7677075862884521,0.0737789720296859,18.906726837158203,1.619168758392334,69.6399917602539,27.73,1
-0.2610435783863067,-0.7501681447029114,0.0809337422251701,19.40229606628418,1.622693419456482,69.6399917602539,27.73,1
-0.2682826817035675,-0.7724990248680115,0.0687319412827491,19.623594284057617,1.6249552965164185,69.6399917602539,27.73,1
-0.2673305571079254,-0.7924274802207947,0.0553037524223327,18.56186485290528,1.6264067888259888,69.6399917602539,27.73,1
-0.2555239796638489,-0.8667919039726257,0.0242952164262533,14.573790550231934,1.6273382902145386,69.6399917602539,27.73,1
-0.2703382968902588,-1.0712523460388184,-0.0012020524591207,8.012736320495605,1.6279361248016355,69.6399917602539,27.73,1
-0.3246274590492248,-1.1744744777679443,-0.0063691823743283,1.4341473579406738,1.6168437004089355,69.72956085205078,27.73,1
-0.3370760381221771,-1.117565393447876,0.0183037221431732,-3.045557737350464,1.6097252368927002,69.78704071044922,27.73,1
-0.3338692486286163,-1.1370222568511963,0.0173440501093864,-5.153703689575195,1.6051570177078247,69.82392883300781,27.73,1
-0.3598001897335052,-1.1439107656478882,-0.0056629101745784,-5.553625106811523,1.602225422859192,69.84760284423828,27.73,1
-0.3876367211341858,-1.0419737100601196,-0.0204274524003267,-5.563074111938477,1.6003440618515017,69.86279296875,27.73,1
-0.3943050801753998,-0.9429696798324584,-0.024304712191224,-7.170549392700195,1.5991367101669312,69.87254333496094,27.73,1
-0.4097799956798553,-0.8738368153572083,0.0067937318235635,-11.387043952941896,1.598361849784851,69.87879943847656,27.73,1
-0.4365042150020599,-0.8294713497161865,0.021153150126338,-17.166797637939453,1.5978646278381348,69.8828125,27.73,1
-0.4648498296737671,-0.806597888469696,0.0247704237699508,-23.029037475585938,1.5984634160995483,69.88538360595703,27.73,1
-0.4774426519870758,-0.7975168228149414,0.0494828782975673,-28.48206329345703,1.5988476276397705,69.88703918457031,27.73,1
-0.4799262285232544,-0.797286868095398,0.0765374600887298,-32.9237174987793,1.599094271659851,69.88809967041016,27.73,1
-0.4927155971527099,-0.8195304274559021,0.099497303366661,-35.06476593017578,1.599252462387085,69.88877868652344,27.73,1
-0.5065208673477173,-0.8450006246566772,0.119829386472702,-34.726295471191406,1.5993540287017822,69.88921356201172,27.73,1
-0.5097824931144714,-0.8893347978591919,0.1496706753969192,-33.609859466552734,1.5994192361831665,69.88949584960938,27.73,1
-0.5174733996391296,-0.9849591851234436,0.2024077326059341,-33.215824127197266,1.5994610786437988,69.88967895507812,27.73,1
-0.5392022728919983,-1.0855097770690918,0.2642402052879333,-33.16358184814453,1.5994879007339478,69.8897933959961,27.73,1
-0.5363532900810242,-1.1220484972000122,0.2983229756355285,-31.97646713256836,1.6018004417419434,69.8898696899414,27.73,1
-0.5065361261367798,-1.162290334701538,0.3201953172683716,-28.108551025390625,1.603284478187561,69.8899154663086,27.73,1
-0.4314234554767608,-1.2049084901809692,0.328633964061737,-20.39936828613281,1.6042369604110718,69.88994598388672,27.73,1
-0.3552315831184387,-1.1650850772857666,0.3284516334533691,-9.071490287780762,1.6048481464385986,69.88996887207031,27.73,1
-0.3119337856769562,-1.1059421300888062,0.3115412890911102,3.980367183685303,1.6052403450012207,69.88997650146484,27.73,1
-0.2841477692127228,-1.0344009399414062,0.283895879983902,16.802274703979492,1.605492115020752,69.88998413085938,27.73,1
-0.2719140648841858,-0.9828920960426332,0.2493613213300705,28.559473037719727,1.6056536436080933,69.8899917602539,27.73,1
-0.286454290151596,-0.9386411905288696,0.2104057073593139,38.694766998291016,1.605757236480713,69.8899917602539,27.73,1
-0.2901875972747803,-0.9046456813812256,0.1798084676265716,46.09466171264648,1.6150048971176147,69.8899917602539,27.73,1
-0.2869856357574463,-0.8772315979003906,0.1601729243993759,49.66482162475586,1.6209394931793213,69.8899917602539,27.73,1
-0.2625397145748138,-0.8540410399436951,0.1643652766942978,49.13645553588867,1.6247479915618896,69.8899917602539,27.73,1
-0.2468517124652862,-0.82796311378479,0.1670556962490081,45.22913360595703,1.6271920204162598,69.8899917602539,27.73,1
-0.2535773813724518,-0.8112277984619141,0.1687822490930557,39.60838317871094,1.6287604570388794,69.8899917602539,27.73,1
-0.2578935325145721,-0.8284769058227539,0.1642924696207046,34.08821487426758,1.6297669410705566,69.8899917602539,27.73,1
-0.2494678348302841,-0.8507419228553772,0.1446178704500198,29.198638916015625,1.6304129362106323,69.8899917602539,27.73,1
-0.2440607100725174,-0.9378014206886292,0.1040029749274253,23.86467170715332,1.6308274269104004,69.8899917602539,27.73,1
-0.2853729128837585,-1.0888333320617676,0.0891342237591743,16.98086929321289,1.620076298713684,69.98672485351562,27.73,1
-0.3454713523387909,-1.1017903089523315,0.101983405649662,8.91976261138916,1.6131768226623535,70.0488052368164,27.73,1
-0.3896368741989136,-1.048529863357544,0.1046314984560012,1.231640338897705,1.6087491512298584,70.0886459350586,27.73,1
-0.4235775172710418,-1.0647302865982056,0.0783420205116272,-5.070697784423828,1.6059077978134155,70.11421203613281,27.73,1
-0.4397608935832977,-1.0359424352645874,0.067068725824356,-10.6055269241333,1.6040843725204468,70.130615234375,27.73,1
-0.4389509260654449,-0.989479124546051,0.0710297226905822,-16.65093421936035,1.6029142141342163,70.14114379882812,27.73,1
-0.4272355735301971,-0.8868905901908875,0.0735716596245765,-23.274782180786133,1.6021631956100464,70.14790344238281,27.73,1
-0.4533039927482605,-0.8098596334457397,0.0863984748721122,-28.98369407653809,1.6016812324523926,70.15223693847656,27.73,1
-0.4756309688091278,-0.7716211676597595,0.1170210838317871,-31.8341007232666,1.602289795875549,70.15502166748047,27.73,1
-0.4955569207668304,-0.7638752460479736,0.1422706842422485,-30.808013916015625,1.6026803255081177,70.15680694580078,27.73,1
-0.5139420032501221,-0.7700998783111572,0.169669970870018,-27.17241096496582,1.602931022644043,70.15795135498047,27.73,1
-0.5257405042648315,-0.7796922922134399,0.2264376878738403,-24.04754066467285,1.603091835975647,70.15868377685547,27.73,1
-0.544507622718811,-0.7970436811447144,0.2796612679958343,-23.27816772460937,1.603195071220398,70.1591567993164,27.73,1
-0.5677468776702881,-0.8305699229240417,0.3026215434074402,-23.723064422607425,1.6032613515853882,70.15946197509766,27.73,1
-0.5938560366630554,-0.9472472667694092,0.2949650287628174,-23.635984420776367,1.6033037900924685,70.15965270996094,27.73,1
-0.6106113791465759,-1.0725040435791016,0.290051519870758,-22.80984878540039,1.6033310890197754,70.15977478027344,27.73,1
-0.6325595378875732,-1.1864732503890991,0.2924960851669311,-21.56316566467285,1.6033486127853394,70.15985870361328,27.73,1
-0.6018624305725098,-1.1252655982971191,0.2884670794010162,-19.688344955444336,1.6033598184585571,70.159912109375,27.73,1
-0.5653694272041321,-1.06919264793396,0.2690881788730621,-17.10948371887207,1.6033670902252195,70.15994262695312,27.73,1
-0.5419503450393677,-1.044403910636902,0.2398585975170135,-14.0931396484375,1.6033717393875122,70.15996551513672,27.73,1
-0.5325191020965576,-1.03969144821167,0.2155029624700546,-10.48436164855957,1.603374719619751,70.15998077392578,27.73,1
-0.4928800165653229,-1.03106951713562,0.1774818152189254,-5.732304096221924,1.6033766269683838,70.15998840332031,27.73,1
-0.4114641845226288,-0.9695586562156676,0.164277583360672,0.2944134473800659,1.6033778190612793,70.15999603271484,27.73,1
-0.3592161834239959,-0.924486756324768,0.1446083188056945,7.404244899749756,1.6033785343170166,70.15999603271484,27.73,1
-0.3536753058433532,-0.9123555421829224,0.0983990728855133,15.778785705566406,1.609346866607666,70.15999603271484,27.73,1
-0.3725105822086334,-0.9045704007148744,0.0519513115286827,25.27304649353028,1.6131770610809326,70.15999603271484,27.73,1
-0.3734024465084076,-0.8771832585334778,0.0053504868410527,34.038516998291016,1.6156350374221802,70.15999603271484,27.73,1
-0.3683770000934601,-0.8708032965660095,-0.0301530119031667,39.312599182128906,1.617212414741516,70.15999603271484,27.73,1
-0.3707497417926788,-0.8779045939445496,-0.0529371127486228,39.92428970336914,1.6182247400283811,70.15999603271484,27.73,1
-0.3890657424926758,-0.8880595564842224,-0.045167539268732,37.02803039550781,1.6188743114471436,70.15999603271484,27.73,1
-0.4064176678657532,-0.9225652813911438,-0.0345837026834487,32.45020294189453,1.6192911863327026,70.15999603271484,27.73,1
-0.4119553864002228,-0.9726979732513428,-0.0389871522784233,27.151500701904297,1.6195586919784546,70.15999603271484,27.73,1
-0.4379002749919891,-1.038456916809082,-0.0082263872027397,21.135818481445312,1.6133036613464355,70.23165130615234,27.75,1
-0.4489524364471435,-0.9854950308799744,0.0395029745995998,14.316092491149902,1.609289526939392,70.27763366699219,27.75,1
-0.4392517507076263,-0.8787360787391663,0.0701329261064529,7.449695110321045,1.6067134141921997,70.30714416503906,27.75,1
-0.4554174840450287,-0.8606042861938477,0.0729961469769477,2.298060655593872,1.6050602197647097,70.32608032226562,27.75,1
-0.4881828427314758,-0.8657616376876831,0.1028224676847457,0.2459395825862884,1.603999376296997,70.3382339477539,27.75,1
-0.4812208712100982,-0.8186913728713989,0.1611476987600326,0.4014450013637543,1.6033185720443726,70.34603118896484,27.75,1
-0.4599597752094269,-0.7660933136940002,0.1817841529846191,-0.4087347984313965,1.602881669998169,70.35103607177734,27.75,1
-0.4743044972419739,-0.7491322159767151,0.1894296705722808,-4.9232330322265625,1.6026012897491455,70.354248046875,27.75,1
-0.5114989876747131,-0.7550408840179443,0.1999339014291763,-12.635360717773438,1.600126028060913,70.35630798339844,27.75,1
-0.5521615743637085,-0.7644305229187012,0.1898815929889679,-20.00996398925781,1.598537564277649,70.35762786865234,27.75,1
-0.6006475687026978,-0.7760540246963501,0.1554417163133621,-23.413423538208008,1.5975180864334106,70.35847473144531,27.75,1
-0.6317631006240845,-0.7891110777854919,0.1389379650354385,-21.821533203125,1.596863865852356,70.35902404785156,27.75,1
-0.6461334824562073,-0.8142836689949036,0.0947601646184921,-17.367841720581055,1.596444010734558,70.359375,27.75,1
-0.6217689514160156,-0.8416334986686707,0.0832027196884155,-13.291644096374512,1.5961745977401731,70.3595962524414,27.75,1
-0.6005353927612305,-0.8871739506721497,0.0701880380511283,-10.890729904174805,1.5960017442703247,70.3597412109375,27.75,1
-0.6316910982131958,-0.933192491531372,0.0226515419781208,-9.0633544921875,1.595890760421753,70.35983276367188,27.75,1
-0.6516850590705872,-0.957126796245575,-0.0246479641646146,-6.658244609832764,1.594442367553711,70.35989379882812,27.75,1
-0.6421249508857727,-1.0284641981124878,-0.0717953890562057,-3.5205373764038086,1.5935128927230835,70.35993194580078,27.75,1
-0.6527831554412842,-1.0910377502441406,-0.0908563435077667,0.5028875470161438,1.592916488647461,70.35995483398438,27.75,1
-0.6540251970291138,-1.0136406421661377,-0.1086863428354263,5.205774784088135,1.5925337076187134,70.35997009277344,27.75,1
-0.6436266899108887,-1.0199493169784546,-0.1145308315753936,9.097965240478516,1.5922880172729492,70.35997772216797,27.75,1
-0.6313557624816895,-1.0239979028701782,-0.1182814911007881,10.93297290802002,1.592130422592163,70.3599853515625,27.75,1
-0.5898943543434143,-0.9594227075576782,-0.1094928979873657,11.247174263000488,1.5920292139053345,70.35999298095703,27.75,1
-0.5408957004547119,-0.9011887907981871,-0.0926573351025581,11.137126922607422,1.5919642448425293,70.35999298095703,27.75,1
-0.492657870054245,-0.8582198023796082,-0.0762554705142974,10.880210876464844,1.5896276235580444,70.35999298095703,27.75,1
-0.4728971421718597,-0.8362425565719604,-0.0825230181217193,10.486051559448242,1.5881280899047852,70.35999298095703,27.75,1
-0.4546180665493011,-0.8221388459205627,-0.0865451693534851,10.193695068359377,1.5871657133102417,70.35999298095703,27.75,1
-0.4316920638084411,-0.8074901103973389,-0.089126355946064,10.027572631835938,1.5865482091903689,70.35999298095703,27.75,1
-0.4169794917106628,-0.8092849254608154,-0.0851850360631942,9.727505683898926,1.5861518383026123,70.35999298095703,27.75,1
-0.4243311285972595,-0.8328278660774231,-0.0770579501986503,9.058457374572754,1.5858975648880005,70.35999298095703,27.75,1
-0.4290489852428436,-0.8591318726539612,-0.049451358616352,7.787195682525635,1.5857343673706057,70.35999298095703,27.75,1
-0.4264788627624511,-0.8872078657150269,-0.0261372607201337,5.452361106872559,1.5856295824050903,70.35999298095703,27.75,1
-0.4192317128181457,-1.0003875494003296,-0.0223711635917425,1.5357599258422852,1.584185242652893,70.39940643310547,27.73,1
-0.4201786816120147,-1.08421528339386,-0.0031609756406396,-3.9154012203216553,1.5832583904266355,70.42469787597656,27.73,1
-0.3816019892692566,-0.9924690127372742,0.059546984732151,-10.061165809631348,1.5826635360717771,70.44092559814453,27.73,1
-0.3848345577716827,-0.9839714765548706,0.0997893437743187,-15.69614028930664,1.5822818279266355,70.45133972167969,27.73,1
-0.4093001186847687,-0.9953116178512572,0.120016798377037,-19.50221824645996,1.5820368528366089,70.45802307128906,27.73,1
-0.4473918080329895,-0.9801979660987854,0.1218020692467689,-20.350494384765625,1.5818796157836914,70.46231079101562,27.73,1
-0.4494457542896271,-0.9537055492401124,0.1341433078050613,-18.150615692138672,1.5817787647247314,70.4650650024414,27.73,1
-0.4059816896915436,-0.925508677959442,0.158856526017189,-13.965946197509766,1.5817140340805054,70.46683502197266,27.73,1
-0.3780889511108398,-0.9130113124847412,0.208302691578865,-8.9768705368042,1.5830495357513428,70.46797180175781,27.73,1
-0.3769823014736175,-0.9161868095397948,0.2512299418449402,-3.937307834625244,1.583906650543213,70.46869659423828,27.73,1
-0.3986632227897644,-0.9070290923118592,0.2675826251506805,0.7620668411254883,1.5844566822052002,70.46916198730469,27.73,1
-0.4181745648384094,-0.8955544233322144,0.2780768275260925,5.390014171600342,1.58480966091156,70.4694595336914,27.73,1
-0.4250980615615845,-0.8937883973121643,0.2904091775417328,9.972123146057127,1.5850361585617063,70.46965026855469,27.73,1
-0.4127478301525116,-0.892655074596405,0.2703345119953155,12.916239738464355,1.5851815938949585,70.46977233886719,27.73,1
-0.3992243707180023,-0.9031233191490172,0.2462562024593353,12.27630615234375,1.5852748155593872,70.46985626220703,27.73,1
-0.4241324663162231,-0.9378301501274108,0.2028152495622635,8.186327934265137,1.5853346586227417,70.46990966796875,27.73,1
-0.4625081419944763,-0.9601029753684998,0.1693395674228668,2.7958672046661377,1.5904223918914795,70.46994018554688,27.73,1
-0.5095265507698059,-1.0135807991027832,0.097476840019226,-1.487412452697754,1.5936874151229858,70.46996307373047,27.73,1
-0.590080201625824,-1.0982797145843506,0.0681528002023696,-3.197228193283081,1.5957826375961304,70.46997833251953,27.73,1
-0.6529704332351685,-1.0406792163848877,0.0437365435063838,-2.367063522338867,1.5971273183822632,70.46998596191406,27.73,1
-0.654145359992981,-1.0596922636032104,0.033665370196104,-0.1290057301521301,1.5979902744293213,70.4699935913086,27.73,1
-0.6716926693916321,-1.0830892324447632,0.0104089463129639,2.518161535263061,1.598544001579285,70.4699935913086,27.73,1
-0.6605624556541443,-1.0981041193008425,-0.0157112348824739,5.137682914733887,1.5988993644714355,70.4699935913086,27.73,1
-0.5862464308738708,-1.05735981464386,-0.0324736647307872,7.348962306976318,1.5991274118423462,70.4699935913086,27.73,1
-0.5161635875701904,-1.0312124490737915,-0.043230827897787,7.947624206542969,1.6061595678329468,70.4699935913086,27.73,1
-0.4711884260177612,-1.003237009048462,-0.0725252479314804,5.089580059051514,1.6106723546981812,70.4699935913086,27.73,1
-0.4423259794712066,-0.979686200618744,-0.0969225019216537,-1.1152905225753784,1.6135684251785278,70.4699935913086,27.73,1
-0.4294014871120453,-0.9589748978614808,-0.1237748041749,-7.239599227905273,1.6154268980026243,70.4699935913086,27.73,1
-0.4155095219612121,-0.9456835985183716,-0.146604835987091,-10.09505558013916,1.61661958694458,70.4699935913086,27.73,1
-0.406594455242157,-0.9483495354652404,-0.1500602960586547,-9.906949996948242,1.6173850297927856,70.4699935913086,27.73,1
-0.4064710438251495,-0.96125590801239,-0.1354844868183136,-8.338874816894531,1.6178761720657349,70.4699935913086,27.73,1
-0.4063918590545654,-0.9639407396316528,-0.1037394702434539,-6.512164115905762,1.6181913614273071,70.4699935913086,27.73,1
-0.3895477056503296,-0.9824570417404176,-0.0665740221738815,-6.067149639129639,1.6110490560531616,70.51298522949219,27.71,1
-0.3619447946548462,-1.011133074760437,-0.0203322768211364,-8.744355201721191,1.606465458869934,70.54057312011719,27.71,1
-0.333035260438919,-0.9679601192474364,0.0205385610461235,-13.93394660949707,1.6035239696502686,70.55828094482422,27.71,1
-0.3088850378990173,-0.9066675901412964,0.0635604336857795,-18.87290382385254,1.601636290550232,70.56964111328125,27.71,1
-0.3157778978347778,-0.9009202122688292,0.096767172217369,-21.21845054626465,1.600424885749817,70.57693481445312,27.71,1
-0.3425924479961395,-0.8916341066360474,0.1348706632852554,-20.219467163085938,1.5996475219726562,70.58161163330078,27.71,1
-0.3598004877567291,-0.8464903831481934,0.1593232899904251,-16.361223220825195,1.5991486310958862,70.5846176147461,27.71,1
-0.3484525084495544,-0.8175197243690491,0.1862111389636993,-11.40250015258789,1.5988285541534424,70.5865478515625,27.71,1
-0.3243767023086548,-0.8213191628456116,0.2146617621183395,-7.700803756713867,1.5931144952774048,70.58778381347656,27.71,1
-0.3089262247085571,-0.8461484909057617,0.2441152781248092,-5.851906776428223,1.5894474983215332,70.58857727050781,27.71,1
-0.3214021027088165,-0.8900713920593262,0.2910057306289673,-4.0850138664245605,1.5870943069458008,70.5890884399414,27.71,1
-0.3462017178535461,-0.9070630669593812,0.3266950845718384,-0.8768126368522644,1.5855841636657717,70.58941650390625,27.71,1
-0.3565189242362976,-0.9179673194885254,0.3607940077781677,3.57876968383789,1.5846149921417236,70.5896224975586,27.71,1
-0.3407488167285919,-0.9305628538131714,0.3770789504051208,8.799022674560547,1.5839930772781372,70.58975982666016,27.71,1
-0.3194329142570495,-0.933048129081726,0.3763341605663299,14.54582405090332,1.5835939645767212,70.58984375,27.71,1
-0.294558048248291,-0.9514363408088684,0.3534650802612304,19.795793533325195,1.5833377838134766,70.58989715576172,27.71,1
-0.3177792131900787,-0.974432408809662,0.310800164937973,23.25090408325196,1.5946495532989502,70.58993530273438,27.71,1
-0.349474549293518,-1.0003855228424072,0.2666269540786743,24.844825744628903,1.6019086837768557,70.58995819091797,27.71,1
-0.4034014344215393,-1.1345939636230469,0.2158880233764648,25.57394218444824,1.6065672636032104,70.58997344970703,27.71,1
-0.4659974873065948,-1.2599056959152222,0.2113155722618103,26.18156814575196,1.609556794166565,70.58998107910156,27.71,1
-0.534156858921051,-1.1332058906555176,0.1859901398420334,26.481943130493164,1.6114753484725952,70.5899887084961,27.71,1
-0.5275176763534546,-1.096679449081421,0.1417488604784011,25.714576721191406,1.6127065420150757,70.5899887084961,27.71,1
-0.5400503873825073,-1.0900322198867798,0.1021618098020553,23.262454986572266,1.6134966611862185,70.5899887084961,27.71,1
-0.5312998294830322,-1.0633752346038818,0.0711593404412269,18.7905216217041,1.6140037775039673,70.5899887084961,27.71,1
-0.4864997863769531,-1.0126817226409912,0.0512637421488761,12.033596992492676,1.6239690780639648,70.5899887084961,27.71,1
-0.4129675030708313,-0.952160656452179,0.0217025708407163,3.4126315116882324,1.6303642988204956,70.5899887084961,27.71,1
-0.3657787144184112,-0.9189195036888124,-0.0084636379033327,-5.086180686950684,1.6344683170318604,70.5899887084961,27.71,1
-0.346691220998764,-0.8919894695281982,-0.0278225746005773,-10.780261039733888,1.637102127075195,70.5899887084961,27.71,1
-0.3512352705001831,-0.8691095113754272,-0.0514415726065635,-12.338587760925291,1.6387922763824463,70.5899887084961,27.71,1
-0.3541513979434967,-0.8488287329673767,-0.0610011108219623,-10.2074613571167,1.6398769617080688,70.5899887084961,27.71,1
-0.3504250049591064,-0.8414114713668823,-0.0559403263032436,-5.540275096893311,1.640573024749756,70.5899887084961,27.71,1
-0.3424358665943146,-0.8590425848960876,-0.03589928150177,0.1274578273296356,1.6410197019577026,70.5899887084961,27.71,1
-0.3317111134529114,-0.8927482962608337,-0.0174403171986341,4.499110698699951,1.623862862586975,70.66880798339844,27.75,1
-0.3192308247089386,-0.9479653239250184,0.0111989062279462,4.861269474029541,1.6128525733947754,70.71939086914062,27.75,1
-0.3112216889858246,-1.0001938343048096,0.035175684839487,-0.8104028105735779,1.6057868003845217,70.7518539428711,27.75,1
-0.3060818910598755,-1.084091067314148,0.0617581531405448,-12.56110668182373,1.6012524366378784,70.7726821899414,27.75,1
-0.3195767700672149,-1.0763559341430664,0.129197210073471,-27.618274688720703,1.5983425378799438,70.78604888916016,27.75,1
-0.3282370269298553,-1.0210119485855105,0.1780734956264495,-41.247013092041016,1.5964751243591309,70.79463195800781,27.75,1
-0.3058058023452759,-1.0022886991500854,0.187048390507698,-49.11541748046875,1.5952767133712769,70.80014038085938,27.75,1
-0.3026062846183777,-1.0238598585128784,0.2096012830734253,-49.138553619384766,1.5945075750350952,70.80367279052734,27.75,1
-0.3117485642433166,-0.987322986125946,0.2744543850421905,-41.98825073242188,1.588505506515503,70.80593872070312,27.75,1
-0.3064199984073639,-0.8967024683952332,0.3048778474330902,-30.546131134033203,1.5846537351608276,70.8073959350586,27.75,1
-0.2974026501178741,-0.83854740858078,0.3132063150405884,-18.30585670471192,1.5821818113327026,70.8083267211914,27.75,1
-0.3252024948596954,-0.8236179351806641,0.3241488337516784,-7.688587188720703,1.5805954933166504,70.80892181396484,27.75,1
-0.3542383909225464,-0.8252326250076294,0.3199755549430847,0.4684313237667084,1.5795775651931765,70.80931091308594,27.75,1
-0.3728719353675842,-0.8262688517570496,0.2893085181713104,6.856725215911865,1.578924298286438,70.80955505371094,27.75,1
-0.4128187596797943,-0.8157382607460022,0.2864215075969696,13.188309669494627,1.578505039215088,70.8097152709961,27.75,1
-0.4328565597534179,-0.8033825755119324,0.2845687866210937,20.569021224975582,1.5782359838485718,70.809814453125,27.75,1
-0.4625089764595032,-0.8290400505065918,0.2553909420967102,28.139354705810547,1.5803582668304443,70.80988311767578,27.75,1
-0.492733746767044,-0.862298846244812,0.2254707217216491,34.19771957397461,1.581720232963562,70.80992126464844,27.75,1
-0.4897391498088836,-0.8892402052879333,0.217465192079544,38.31491470336914,1.5825942754745483,70.80995178222656,27.75,1
-0.4710240662097931,-0.9457140564918518,0.1955343931913375,41.43357849121094,1.5831551551818848,70.80996704101562,27.75,1
-0.4926004707813263,-1.0099445581436155,0.1870582401752472,44.25894927978516,1.583515167236328,70.80997467041016,27.75,1
-0.5120447278022766,-1.0007840394973757,0.1928142756223678,46.22257614135742,1.5837461948394775,70.80998229980469,27.75,1
-0.5133273601531982,-1.0116987228393557,0.1909103989601135,45.91713333129883,1.5838944911956787,70.80998992919922,27.75,1
-0.5085527300834656,-1.0970720052719116,0.1840908229351043,42.11704635620117,1.5839896202087402,70.80998992919922,27.75,1
