acc_x,acc_y,acc_z,bvp,eda,hr,temp,label
0.0,0.0,0.0,0.0,0.0,0.0,22.31,1
0.0416666641831398,-0.0182291660457849,0.1588541567325592,3.123333215713501,0.3366686403751373,11.749999046325684,22.31,1
0.0933689028024673,-0.0426829271018505,0.3719512224197387,7.34536600112915,0.7882973551750183,27.512195587158203,22.31,1
0.1483077257871627,-0.0689368769526481,0.5573089718818665,10.478804588317873,1.1811364889144895,41.22259140014648,22.31,1
0.1937267631292343,-0.0774141475558281,0.6978756785392761,11.405070304870604,1.4677338600158691,51.22506713867188,22.31,1
0.1970287561416626,-0.088643342256546,0.7985349893569946,10.370343208312988,1.66177237033844,57.997161865234375,22.31,1
0.1991953402757644,-0.1126705333590507,0.8590288758277893,8.458186149597168,1.789089560508728,62.44063186645508,22.31,1
0.2173365354537964,-0.1114937737584114,0.88704913854599,6.0414204597473145,1.871546745300293,65.31845092773438,22.31,1
0.2234324067831039,-0.1051455661654472,0.8939186334609985,2.209183692932129,1.8911985158920288,67.17225646972656,22.31,1
0.2217558324337005,-0.1122545897960662,0.8927392959594727,-4.196166515350342,1.903829574584961,68.36377716064453,22.31,1
0.2150827348232269,-0.1112231910228729,0.9031749963760376,-13.176987648010254,1.911940574645996,69.12892150878906,22.31,1
0.2163964360952377,-0.1161583662033081,0.9154710173606871,-23.21549224853516,1.917147159576416,69.62007141113281,22.31,1
0.2116420269012451,-0.1193258240818977,0.9233627319335938,-32.56010055541992,1.9204888343811035,69.935302734375,22.31,1
0.2141884714365005,-0.1269562989473343,0.9284274578094482,-40.97181701660156,1.922633409500122,70.13760375976562,22.31,1
0.2214203923940658,-0.1318531781435012,0.9316777586936952,-49.45106506347656,1.9240096807479856,70.2674331665039,22.31,1
0.2204637080430984,-0.1405934989452362,0.9393613934516908,-58.21722030639648,1.924892902374268,70.35075378417969,22.31,1
0.2142519950866699,-0.1462025493383407,0.9442923069000244,-66.54411315917969,1.9631013870239256,70.40422058105469,22.29,1
0.1990701258182525,-0.1498021185398101,0.9474566578865052,-74.71807098388672,1.9876214265823364,70.43853759765625,22.29,1
0.1893272697925567,-0.1521121263504028,0.9494873881340028,-84.31648254394531,2.00335693359375,70.46055603027344,22.29,1
0.177477091550827,-0.1535945534706115,0.9563883543014526,-95.65300750732422,2.0134551525115967,70.47468566894531,22.29,1
0.1642745584249496,-0.1545458883047104,0.9664148092269896,-106.33517456054688,2.019935607910156,70.48375701904297,22.29,1
0.1446063816547393,-0.1551564037799835,0.9672514200210572,-113.83523559570312,2.024094343185425,70.48957824707031,22.29,1
0.1151911467313766,-0.1499504148960113,0.9565927386283876,-119.6514663696289,2.026763200759888,70.4933090209961,22.29,1
0.1019119173288345,-0.1466095149517059,0.9441548585891724,-129.34539794921875,2.0284759998321533,70.4957046508789,22.29,1
0.1101833954453468,-0.1444655209779739,0.9417707324028016,-145.14620971679688,2.0447237491607666,70.49724578857422,22.29,1
0.1154915541410446,-0.14308962225914,0.9402406811714172,-157.93377685546875,2.0551505088806152,70.49822998046875,22.29,1
0.1188980266451835,-0.1422066539525985,0.9336610436439514,-151.0252227783203,2.06184196472168,70.49886322021484,22.29,1
0.1266818791627884,-0.1416400074958801,0.9238408207893372,-115.3838882446289,2.066136121749878,70.499267578125,22.29,1
0.1316771060228347,-0.1468741446733474,0.9119409918785096,-59.41549682617188,2.068891763687134,70.49952697753906,22.29,1
0.1404805332422256,-0.1558308899402618,0.8931088447570801,-1.977673888206482,2.07066011428833,70.49969482421875,22.29,1
0.1405322849750518,-0.1671765893697738,0.8754256367683411,42.70337677001953,2.071794986724853,70.49980163574219,22.29,1
0.1405654996633529,-0.1968487054109573,0.8472842574119568,73.16838836669922,2.072523355484009,70.49987030029297,22.29,1
0.1629779189825058,-0.2438794374465942,0.8124314546585083,96.82112884521484,2.07987642288208,67.81298828125,22.29,1
0.1661653667688369,-0.296452134847641,0.7620760202407837,120.29376220703124,2.084595203399658,66.08869934082031,22.29,1
0.0898420438170433,-0.3469836115837097,0.6513919830322266,144.13087463378906,2.0876235961914062,64.98214721679688,22.29,1
-0.0095178429037332,-0.3682162463665008,0.5523724555969238,165.05638122558594,2.089566946029663,64.27202606201172,22.29,1
-0.1348568201065063,-0.3538532555103302,0.4664363265037536,180.3875274658203,2.090814113616944,63.816314697265625,22.29,1
-0.220889925956726,-0.3950158953666687,0.4392763376235962,190.38021850585932,2.091614484786988,63.52386474609375,22.29,1
-0.259307712316513,-0.4662138819694519,0.4442377388477325,198.29405212402344,2.092128038406372,63.336185455322266,22.29,1
-0.2279842793941497,-0.6126645803451538,0.48660609126091,207.5499725341797,2.092457771301269,63.21574401855469,22.29,1
-0.185491606593132,-0.745832622051239,0.5081979036331177,217.89645385742188,2.100013971328736,63.138450622558594,22.29,1
-0.1358311623334884,-0.9264544248580932,0.4996631741523742,226.65711975097656,2.104862928390503,63.08884811401367,22.29,1
-0.1151574924588203,-1.1375292539596558,0.499783843755722,233.81613159179688,2.1079747676849365,63.0570182800293,22.29,1
-0.124281421303749,-1.2953760623931885,0.5166546106338501,242.1613311767578,2.109971761703491,63.03659057617188,22.29,1
-0.163723275065422,-1.3854774236679075,0.5890567898750305,252.14190673828125,2.111253261566162,63.02348327636719,22.29,1
-0.1722414642572403,-1.4097126722335815,0.6914981007575989,258.7403259277344,2.1120758056640625,63.01507186889648,22.29,1
-0.2112945914268493,-1.3524943590164185,0.7628368139266968,253.5024871826172,2.1126036643981934,63.009674072265625,22.29,1
-0.2531499564647674,-1.2765905857086182,0.6798691153526306,229.94973754882807,2.1129422187805176,63.00620651245117,22.29,1
-0.2800103425979614,-1.1998909711837769,0.6266251802444458,187.75425720214844,2.1159138679504395,63.00398254394531,22.31,1
-0.2972477972507477,-1.1058874130249023,0.5812607407569885,130.44943237304688,2.117820978164673,63.00255584716797,22.31,1
-0.2803209125995636,-1.0287680625915527,0.5633440017700195,59.99470520019531,2.119044780731201,63.00164031982422,22.31,1
-0.2582626640796661,-0.9568861722946168,0.5798349380493164,-20.20293617248535,2.1198301315307617,63.00105285644531,22.31,1
-0.2664980590343475,-0.905158758163452,0.5624290108680725,-97.21292877197266,2.1203341484069824,63.000675201416016,22.31,1
-0.254989743232727,-0.8831586241722107,0.5176722407341003,-153.51922607421875,2.1206576824188232,63.00043487548828,22.31,1
-0.2476043552160263,-0.9026268124580384,0.4497655034065246,-182.26608276367188,2.1208653450012207,63.00027847290039,22.31,1
-0.2428648322820663,-0.92631596326828,0.4061868786811828,-190.11691284179688,2.1209986209869385,63.00017929077149,22.31,1
-0.2510188221931457,-0.9583116173744202,0.3838183879852295,-185.87625122070312,2.132101058959961,63.00011444091797,22.31,1
-0.2450560480356216,-0.990040123462677,0.3638658225536346,-174.41693115234375,2.139225959777832,63.00007247924805,22.31,1
-0.2300339341163635,-1.0104016065597534,0.3398658633232116,-159.607666015625,2.143798351287842,63.00004577636719,22.31,1
-0.2147958278656005,-1.0122729539871216,0.296475201845169,-144.54019165039062,2.146732807159424,63.000030517578125,22.31,1
-0.2050168961286544,-1.0022783279418943,0.2630317807197571,-129.16371154785156,2.148615837097168,63.00001907348633,22.31,1
-0.2099368870258331,-0.9902665615081788,0.2415697276592254,-112.39234161376952,2.149824380874634,63.0000114440918,22.31,1
-0.1739098280668258,-0.9937536120414734,0.2221988439559936,-95.48174285888672,2.150599956512451,63.00000762939453,22.31,1
-0.1116053164005279,-1.012784719467163,0.2433543652296066,-80.73882293701172,2.151097536087036,63.00000381469727,22.31,1
-0.0436329953372478,-0.9802156090736388,0.2849196493625641,-68.30054473876953,2.147744655609131,62.1043586730957,22.31,1
-0.0224033705890178,-0.9593146443367004,0.3115938305854797,-56.5459213256836,2.14559292793274,61.52958679199219,22.31,1
-0.07035493850708,-0.94590163230896,0.3231140077114105,-45.05806350708008,2.144212245941162,61.16072845458984,22.31,1
-0.1515074670314788,-0.9428916573524476,0.3193114697933197,-35.049041748046875,2.1433260440826416,60.92401885986328,22.31,1
-0.2203798145055771,-0.957753360271454,0.3280667662620544,-27.11397933959961,2.1427574157714844,60.77210998535156,22.31,1
-0.2981647551059723,-1.0008773803710938,0.3616742789745331,-20.517032623291016,2.142392635345459,60.67462539672852,22.31,1
-0.3424848914146423,-0.983769714832306,0.3776438534259796,-14.907782554626465,2.142158508300781,60.612064361572266,22.31,1
-0.3093514740467071,-0.950399935245514,0.3655011355876922,-11.164785385131836,2.142008066177368,60.57191467285156,22.31,1
-0.310479462146759,-0.95137619972229,0.3577086329460144,-9.998733520507812,2.141911745071411,60.54615020751953,22.31,1
-0.3000077903270721,-0.9464049339294434,0.3639034032821655,-10.726449966430664,2.1418497562408447,60.52961730957031,22.31,1
-0.2876898944377899,-0.9320191144943236,0.3678788542747497,-11.995953559875488,2.1418099403381348,60.519004821777344,22.31,1
-0.2741872072219848,-0.9115915894508362,0.3648322820663452,-13.03635025024414,2.141784429550171,60.5121955871582,22.31,1
-0.2599241733551025,-0.8816890716552734,0.3628771603107452,-13.67177391052246,2.141768217086792,60.50782775878906,22.31,1
-0.2899554073810577,-0.8569015860557556,0.3616224825382232,-13.6353120803833,2.1417577266693115,60.50502395629883,22.31,1
-0.3148255050182342,-0.8409943580627441,0.3608173131942749,-12.641035079956056,2.1417510509490967,60.50322341918945,22.31,1
-0.3027968406677246,-0.8419815897941589,0.349105030298233,-11.09657382965088,2.141746759414673,60.50206756591797,22.31,1
-0.2838819622993469,-0.8482128977775574,0.3359909951686859,-9.933464050292969,2.1449570655822754,60.50132751464844,22.29,1
-0.2549501657485962,-0.8354184627532959,0.3331729471683502,-9.49873161315918,2.147017478942871,60.50085067749024,22.29,1
-0.2363834083080291,-0.8272077441215515,0.3257667124271393,-8.62503719329834,2.1483395099639893,60.50054550170898,22.29,1
-0.2356638759374618,-0.8219385743141174,0.3154160380363464,-4.8077898025512695,2.149188041687012,60.50035095214844,22.29,1
-0.2352021336555481,-0.8185571432113647,0.3031758069992065,3.402681589126587,2.14973258972168,60.50022506713867,22.29,1
-0.240503579378128,-0.8163871169090271,0.2953207194805145,13.296794891357422,2.1500821113586426,60.500144958496094,22.29,1
-0.2439057379961013,-0.8429834246635437,0.301475316286087,19.39906883239746,2.150306224822998,60.500091552734375,22.29,1
-0.2404912859201431,-0.9048335552215576,0.2998272180557251,19.019649505615234,2.1504502296447754,60.50005722045898,22.29,1
-0.2438978552818298,-1.00610089302063,0.2931717932224273,14.391087532043455,2.153296947479248,60.500038146972656,22.29,1
-0.2684750854969024,-1.138261795043945,0.2833029329776764,9.145807266235352,2.155123710632324,60.5000228881836,22.29,1
-0.2898451089859009,-1.1670973300933838,0.2825674414634704,5.303205966949463,2.1562960147857666,60.50001525878906,22.29,1
-0.3259502649307251,-1.1128312349319458,0.3044865429401397,3.4140400886535645,2.157048463821411,60.5000114440918,22.29,1
-0.3267293870449066,-1.0612130165100098,0.2961618900299072,2.911032199859619,2.157531261444092,60.50000762939453,22.29,1
-0.2992404997348785,-1.044880747795105,0.2684285044670105,2.3159549236297607,2.1578409671783447,60.50000381469727,22.29,1
-0.2256219685077667,-1.06238853931427,0.2394352555274963,0.6479238867759705,2.1580398082733154,60.50000381469727,22.29,1
-0.1783778369426727,-1.051232933998108,0.2208290547132492,-1.486547350883484,2.1581673622131348,60.50000381469727,22.29,1
-0.1872437000274658,-0.9880961775779724,0.2032908946275711,-2.942310094833374,2.1573309898376465,65.83804321289062,22.29,1
-0.2153243869543075,-0.9027964472770692,0.1640470474958419,-3.615006685256958,2.156794309616089,69.26368713378906,22.29,1
-0.2501382827758789,-0.8312626481056213,0.13886259496212,-4.351223468780518,2.156450033187866,71.46206665039062,22.29,1
-0.2836754024028778,-0.7573674917221069,0.1618850827217102,-5.57960844039917,2.156229019165039,72.87286376953125,22.29,1
-0.3051975667476654,-0.6931524872779846,0.1934529244899749,-6.668851852416992,2.1560871601104736,73.77822875976562,22.29,1
-0.3246070444583893,-0.623954176902771,0.2472979873418808,-6.791070938110352,2.155996084213257,74.35923767089844,22.29,1
-0.3594540357589721,-0.6411221623420715,0.3378303945064544,-6.0562591552734375,2.155937671661377,74.73210144042969,22.29,1
-0.3874146044254303,-0.6745306849479675,0.418319970369339,-5.201363563537598,2.155900239944458,74.97138214111328,22.29,1
-0.3997603058815002,-0.7631436586380005,0.4923646450042724,-4.5094380378723145,2.1590898036956787,75.12493896484375,22.29,1
-0.4244763851165771,-0.8815858960151672,0.5566756129264832,-3.699977159500122,2.1611366271972656,75.22348022460938,22.29,1
-0.4739243984222412,-0.9855841398239136,0.6091421842575073,-2.725524663925171,2.162450075149536,75.2867202758789,22.29,1
-0.494461715221405,-1.1083019971847534,0.6316167116165161,-1.8816401958465576,2.16329312324524,75.32730102539062,22.29,1
-0.4796525239944458,-1.1702619791030884,0.623648464679718,-1.350831389427185,2.1638340950012207,75.35334777832031,22.29,1
-0.436562180519104,-1.1764376163482666,0.5569593906402588,-1.0782577991485596,2.1641812324523926,75.37006378173828,22.29,1
-0.3977137506008148,-1.0908364057540894,0.4581844210624695,-0.974987268447876,2.164403915405273,75.38079071044922,22.29,1
-0.3783808350563049,-1.007913589477539,0.3724052309989929,-0.837062656879425,2.1645469665527344,75.3876724243164,22.29,1
-0.3771696388721466,-0.943502962589264,0.3117593228816986,-0.3759627342224121,2.165556669235229,75.39208984375,22.29,1
-0.3819901347160339,-0.9301568269729614,0.2784380316734314,0.3570189177989959,2.1662044525146484,75.39492797851562,22.29,1
-0.4130725264549255,-0.9495809078216552,0.2290654778480529,1.031611084938049,2.1666202545166016,75.39674377441406,22.29,1
-0.4386171698570251,-0.9676439166069032,0.1749899089336395,1.5970808267593384,2.166887044906616,75.39791107177734,22.29,1
-0.460608035326004,-1.0128223896026611,0.1346895545721054,2.221494674682617,2.167058229446411,75.3986587524414,22.29,1
-0.4747205078601837,-1.075402021408081,0.1088270992040634,2.636538028717041,2.167168140411377,75.39913940429688,22.29,1
-0.4781793057918548,-1.1155619621276855,0.0922300666570663,2.412075996398926,2.167238712310791,75.39944458007812,22.29,1
-0.4748011827468872,-1.1357365846633911,0.0815790444612503,1.77363383769989,2.1672840118408203,75.39964294433594,22.29,1
-0.4726333022117615,-1.1486834287643433,0.0747438296675682,1.2886842489242554,2.169149398803711,75.39977264404297,22.29,1
-0.4600465297698974,-1.1346008777618408,0.064759612083435,0.9989669919013976,2.17034649848938,75.39985656738281,22.29,1
-0.4295779764652252,-1.0975745916366575,0.0527545399963855,0.6733226776123047,2.171114921569824,75.39990997314453,22.29,1
-0.4044272303581238,-1.0682154893875122,0.039452601224184,0.3532830774784088,2.1716079711914062,75.39994049072266,22.29,1
-0.3826891481876373,-1.0605701208114624,0.0253184083849191,0.0475879721343517,2.171924352645874,75.39996337890625,22.29,1
-0.363141119480133,-1.061261534690857,0.0218456722795963,-0.4280304610729217,2.172127485275269,75.39997863769531,22.29,1
-0.3394007682800293,-1.0393141508102417,0.0308126173913478,-0.826401948928833,2.172257661819458,75.39998626708984,22.29,1
-0.3297633528709411,-0.9804473519325256,0.0813492834568023,-0.6199015974998474,2.1723413467407227,75.39999389648438,22.29,1
-0.312383085489273,-0.9202789664268494,0.1641607731580734,0.1109085381031036,2.16964077949524,78.9574966430664,22.29,1
-0.2620449960231781,-0.8200908303260803,0.2173044234514236,0.7841072678565979,2.16790771484375,81.24049377441406,22.29,1
-0.2073498219251632,-0.7446002960205078,0.2626045048236847,1.087154746055603,2.166795492172241,82.7055892944336,22.29,1
-0.1162718534469604,-0.6233837604522705,0.3588487803936004,0.98786199092865,2.166081666946411,83.64580535888672,22.29,1
-0.0858121290802955,-0.612767219543457,0.4262105822563171,0.4978151023387909,2.165623664855957,84.24918365478516,22.29,1
-0.0830581560730934,-0.6563341021537781,0.4694395363330841,-0.0889445468783378,2.165329694747925,84.63639831542969,22.29,1
-0.1036819145083427,-0.7514661550521851,0.4915836155414581,-0.4081718921661377,2.1651411056518555,84.8848876953125,22.29,1
-0.1281125992536544,-0.8293097615242004,0.500196635723114,-0.613033652305603,2.165019989013672,85.04434967041016,22.29,1
-0.1661819070577621,-0.9016563892364502,0.4889306426048279,-1.0884294509887695,2.165860176086426,85.14669036865234,22.29,1
-0.2186014652252197,-0.9816709160804749,0.4649074375629425,-1.830585241317749,2.1663992404937744,85.21236419677734,22.29,1
-0.252241313457489,-1.0330196619033811,0.4494907557964325,-2.593464136123657,2.166745185852051,85.25450897216797,22.29,1
-0.2682316601276397,-1.0043967962265017,0.4787816107273102,-3.2764949798583984,2.1669671535491943,85.28155517578125,22.29,1
-0.2728955745697021,-0.9692349433898926,0.5255676507949829,-3.743485450744629,2.167109727859497,85.29891204833984,22.29,1
-0.2926819324493408,-0.9410723447799684,0.566787838935852,-3.684915542602539,2.167201280593872,85.31005096435547,22.29,1
-0.3165752291679382,-0.9341947436332704,0.5988383293151855,-2.995300054550171,2.167259931564331,85.31719970703125,22.29,1
-0.3319085836410522,-0.9353788495063782,0.6138086915016174,-1.9759498834609983,2.167297601699829,85.32178497314453,22.29,1
-0.3249553143978119,-0.9585298895835876,0.6066225171089172,-0.8058987259864807,2.170994281768799,85.3247299194336,22.29,1
-0.3092975616455078,-0.967789113521576,0.5740219950675964,0.9588416814804076,2.17336654663086,85.32662200927734,22.29,1
-0.3328359425067901,-0.962535560131073,0.4971230924129486,3.721422433853149,2.174888849258423,85.32783508300781,22.29,1
-0.3759303987026214,-1.0655218362808228,0.4253827035427093,6.776849746704102,2.175865888595581,85.32861328125,22.29,1
-0.3923904001712799,-1.1987857818603516,0.3737460672855377,8.701821327209473,2.176492929458618,85.32910919189453,22.29,1
-0.4197468161582947,-1.2283291816711426,0.2902286946773529,8.71908187866211,2.1768951416015625,85.32942962646484,22.29,1
-0.4484981298446655,-1.1857129335403442,0.2086431682109832,7.11441707611084,2.177153348922729,85.32963562011719,22.29,1
-0.4781446158885956,-1.091191053390503,0.1059063002467155,4.737586975097656,2.177319049835205,85.32976531982422,22.29,1
-0.5083655714988708,-1.097705602645874,-0.0048065027222037,2.366786241531372,2.1755893230438232,85.32984924316406,22.29,1
-0.5557485222816467,-1.1410707235336304,-0.103844478726387,0.3222869336605072,2.1744792461395264,85.32990264892578,22.29,1
-0.5469717383384705,-1.146508812904358,-0.1785968989133834,-1.3910036087036133,2.173766851425171,85.32994079589844,22.29,1
-0.5245459675788879,-1.149998664855957,-0.2209709286689758,-2.6337978839874268,2.173309803009033,85.32996368408203,22.29,1
-0.493361085653305,-1.191422700881958,-0.2257730364799499,-3.331039428710937,2.1730165481567383,85.3299789428711,22.29,1
-0.450957328081131,-1.1956151723861694,-0.1896703392267227,-3.753411054611206,2.172828197479248,85.32998657226562,22.29,1
-0.4125494956970215,-1.192707896232605,-0.1497083753347396,-4.099698543548584,2.172707319259644,85.32999420166016,22.29,1
-0.393499344587326,-1.179646611213684,-0.0960742160677909,-4.243109703063965,2.1726298332214355,85.32999420166016,22.29,1
-0.3868718147277832,-1.176862359046936,-0.0504593513906002,-4.1595964431762695,2.171661853790283,87.76972961425781,22.29,1
-0.354629784822464,-1.1862711906433103,0.0179980639368295,-4.070176601409912,2.171040773391724,89.33541107177734,22.29,1
-0.2779609560966491,-1.1531248092651367,0.0955167338252067,-4.073695659637451,2.170642137527466,90.34017944335938,22.29,1
-0.2231615334749221,-1.1094622611999512,0.1620570719242096,-4.007885456085205,2.17038631439209,90.98497772216795,22.29,1
-0.182396650314331,-1.0478554964065552,0.2327477186918258,-3.714871883392334,2.170222043991089,91.39877319335938,22.29,1
-0.1562360972166061,-0.9803309440612792,0.2725151181221008,-3.2653045654296875,2.170116662979126,91.66432189941406,22.29,1
-0.1394477486610412,-0.9146064519882202,0.3036333322525024,-2.8657383918762207,2.17004919052124,91.8347396850586,22.29,1
-0.1286739557981491,-0.8668304681777954,0.3515920639038086,-2.648728132247925,2.170005798339844,91.94409942626952,22.29,1
-0.1161621809005737,-0.8305728435516357,0.3879670202732086,-2.591862678527832,2.1722733974456787,92.0142822265625,22.29,1
-0.1137306243181228,-0.8352936506271362,0.4281036853790283,-2.505213499069214,2.1737284660339355,92.05931854248048,22.29,1
-0.1065724119544029,-0.8551165461540222,0.4538610875606537,-2.084184408187866,2.1746623516082764,92.08822631835938,22.29,1
-0.1019786894321441,-0.8174577355384827,0.4479995965957641,-1.1834588050842283,2.1752617359161377,92.10677337646484,22.29,1
-0.1382151246070861,-0.7820949554443359,0.4106513857841491,-0.1074469164013862,2.1756463050842285,92.1186752319336,22.29,1
-0.1670673489570617,-0.7929877638816833,0.3810856938362121,0.593823254108429,2.175893068313598,92.12631225585938,22.29,1
-0.1967785954475402,-0.8615536689758301,0.3621121346950531,0.6641050577163696,2.176051378250122,92.13121795654295,22.29,1
-0.2102477848529815,-0.9167509078979492,0.3555337488651275,0.3437851667404175,2.17615294456482,92.13436126708984,22.29,1
-0.2412826418876648,-0.9353799819946288,0.3345188200473785,-0.0050807311199605,2.1757588386535645,92.13638305664062,22.29,1
-0.2500034868717193,-0.958530604839325,0.3210326433181762,-0.2038847506046295,2.1755058765411377,92.13768005371094,22.29,1
-0.2611977756023407,-0.9733873009681702,0.3179757595062256,-0.2096581608057022,2.175343513488769,92.13851165771484,22.29,1
-0.2795771956443786,-0.988519251346588,0.3328073620796203,0.0768254101276397,2.175239324569702,92.13904571533205,22.29,1
-0.3025676012039184,-0.987034559249878,0.3423254191875458,0.8159733414649963,2.1751725673675537,92.13938903808594,22.29,1
-0.3005281984806061,-0.9580928683280944,0.3540313243865967,2.085647821426392,2.1751296520233154,92.13961029052734,22.29,1
-0.2936216294765472,-0.8947376012802124,0.3839346170425415,3.735191822052002,2.1751022338867188,92.1397476196289,22.29,1
-0.2947871685028076,-0.8428842425346375,0.4143203794956207,5.359821319580078,2.175084590911865,92.13983917236328,22.29,1
-0.2787418365478515,-0.8264010548591614,0.4506135284900665,6.405997276306152,2.177368640899658,92.13990020751952,22.29,1
-0.2572492957115173,-0.8214209079742432,0.4739043712615967,6.565064430236816,2.1788344383239746,92.1399383544922,22.29,1
-0.2602499425411224,-0.8462138175964355,0.4664599895477295,6.136923313140869,2.1797749996185303,92.13996124267578,22.29,1
-0.2285889536142349,-0.890113353729248,0.4336937665939331,5.636465072631836,2.1803786754608154,92.13997650146484,22.29,1
-0.2026729732751846,-0.9294810891151428,0.4014707207679748,5.028693675994873,2.1807661056518555,92.13998413085938,22.29,1
-0.1972371339797973,-0.98833167552948,0.3751940727233886,3.886320114135742,2.1810147762298584,92.1399917602539,22.29,1
-0.2217376083135604,-1.0764786005020142,0.3695267736911773,2.2396535873413086,2.1811742782592773,92.1399917602539,22.29,1
-0.3158294260501861,-1.2170127630233765,0.3714875876903534,0.5058111548423767,2.181276559829712,92.1399917602539,22.29,1
-0.3538210690021515,-1.1784507036209106,0.3223659694194793,-1.1370903253555298,2.181342363357544,94.0602569580078,22.29,1
-0.3390174806118011,-1.1033238172531128,0.257255882024765,-2.6069886684417725,2.181384563446045,95.29257202148438,22.29,1
-0.3015285134315491,-1.0607094764709473,0.204276442527771,-3.543119668960572,2.1814115047454834,96.0833969116211,22.29,1
-0.2942635715007782,-1.0557531118392944,0.1702772825956344,-3.742626190185547,2.181428909301758,96.59090423583984,22.29,1
-0.3007968962192535,-1.0693657398223877,0.1428608000278473,-3.594799757003784,2.181440114974976,96.91659545898438,22.29,1
-0.2937940657138824,-1.0669060945510864,0.1196687072515487,-3.507098436355591,2.1814472675323486,97.12560272216795,22.29,1
-0.2781045138835907,-1.0709253549575806,0.1047853603959083,-3.339756965637207,2.181451797485352,97.25973510742188,22.29,1
-0.2288514375686645,-1.0791025161743164,0.1232229545712471,-2.8669440746307373,2.181454658508301,97.34580993652344,22.29,1
-0.1804503202438354,-1.0619590282440186,0.1350551396608352,-2.2446706295013428,2.1773252487182617,97.40104675292967,22.29,1
-0.1437914967536926,-1.0229684114456177,0.1370505839586258,-1.676950454711914,2.174675226211548,97.4365005493164,22.29,1
-0.1370593011379242,-1.014739751815796,0.1439289152622223,-1.1549869775772097,2.1729745864868164,97.4592514038086,22.29,1
-0.1383367329835891,-1.009459137916565,0.1427452564239502,-0.7519518733024597,2.171883106231689,97.47384643554688,22.29,1
-0.1559498459100723,-0.9668859243392944,0.125192329287529,-0.6115321516990662,2.171182632446289,97.48321533203124,22.29,1
-0.1784484833478927,-0.911575973033905,0.108330100774765,-0.5894877910614014,2.1707332134246826,97.48922729492188,22.29,1
-0.1928867995738983,-0.8424946069717407,0.1087044402956962,-0.500106930732727,2.1704447269439697,97.49308776855467,22.29,1
-0.1685658395290374,-0.8541399240493774,0.1425313204526901,-0.4105042219161987,2.170259714126587,97.49556732177734,22.29,1
-0.1361647248268127,-0.8672109842300415,0.1810327917337417,-0.2491076737642288,2.1719768047332764,97.49715423583984,22.27,1
-0.1097737774252891,-0.875599205493927,0.2225341349840164,0.2055597603321075,2.173078775405884,97.49817657470705,22.27,1
-0.0928375869989395,-0.9089711904525756,0.2491673082113266,0.7230414152145386,2.173785924911499,97.49883270263672,22.27,1
-0.0931644663214683,-0.9807673692703248,0.266258955001831,0.7936033010482788,2.1742398738861084,97.49925231933594,22.27,1
-0.126960888504982,-1.0548309087753296,0.3220095932483673,0.4627154469490051,2.1745312213897705,97.49951934814452,22.27,1
-0.1598450392484665,-1.0855672359466553,0.374580442905426,0.2252926379442215,2.174718141555786,97.49969482421876,22.27,1
-0.1753504127264022,-1.0661076307296753,0.43070849776268,0.2162313610315323,2.174838066101074,97.4998016357422,22.27,1
-0.1685075461864471,-1.0760107040405271,0.4723260402679443,0.2605724036693573,2.174915075302124,97.49987030029295,22.27,1
-0.0801495686173439,-1.1215503215789795,0.504631519317627,0.3750097453594208,2.173128366470337,97.49991607666016,22.27,1
-0.0346420593559742,-1.1451772451400757,0.4861789047718048,0.6419081091880798,2.171981811523437,97.49994659423828,22.27,1
-0.0670134797692298,-1.1155575513839722,0.4071637988090515,0.8525964617729187,2.17124605178833,97.49996948242188,22.27,1
-0.1157764643430709,-1.0741581916809082,0.3340653479099273,0.7656844258308411,2.170773983001709,97.4999771118164,22.27,1
-0.1582652926445007,-1.0419926643371582,0.2815572023391723,0.3910600543022156,2.170470952987671,97.49998474121094,22.27,1
-0.1967277228832245,-0.9765685200691224,0.2310671806335449,-0.017733359709382,2.170276403427124,97.49999237060548,22.27,1
-0.2270084619522094,-0.9177897572517396,0.1762744933366775,-0.1152749359607696,2.170151710510254,97.49999237060548,22.27,1
-0.2576364576816559,-0.8464822769165039,0.1243183687329292,0.2914458811283111,2.170071601867676,97.49999237060548,22.27,1
-0.2716939747333526,-0.7783301472663879,0.0909759253263473,0.9931127429008484,2.1782829761505127,95.56898498535156,22.27,1
-0.2751174867153168,-0.728996217250824,0.0695786625146865,1.543714165687561,2.1835525035858154,94.32978057861328,22.27,1
-0.2885100543498993,-0.7309232354164124,0.0782382264733314,1.7215123176574707,2.186934232711792,93.53453063964844,22.27,1
-0.3306912779808044,-0.7825398445129395,0.1229798570275306,1.7424659729003906,2.189104557037353,93.02418518066406,22.27,1
-0.3689562976360321,-0.8660443425178528,0.1852791160345077,2.042518854141236,2.1904971599578857,92.69667053222656,22.27,1
-0.449490338563919,-0.9700127243995668,0.2588458359241485,2.779627084732056,2.191390991210937,92.48648834228516,22.27,1
-0.5403568744659424,-1.0199402570724487,0.1829056739807129,3.438954591751098,2.191964626312256,92.3516082763672,22.27,1
-0.3915521204471588,-1.2926852703094482,0.1509649753570556,3.260200262069702,2.1923327445983887,92.26505279541016,22.27,1
-0.2624711692333221,-1.3837506771087646,0.1528583765029907,2.145947456359864,2.191650629043579,92.20950317382812,22.27,1
-0.0732767134904861,-1.2070846557617188,0.260431170463562,0.8505069017410278,2.1912128925323486,92.17385864257812,22.27,1
-0.0022425814531743,-1.0377328395843506,0.3294651806354522,-0.0202405899763107,2.190932035446167,92.1509780883789,22.27,1
0.0153541630133986,-0.9234548211097716,0.384962797164917,-0.6256096959114075,2.190751791000366,92.13629913330078,22.27,1
-0.0181354545056819,-0.9396821856498718,0.4037846326828003,-1.2039772272109983,2.190636157989502,92.12687683105467,22.27,1
-0.022833839058876,-0.966889262199402,0.3990700840950012,-1.5787228345870972,2.1905620098114014,92.12083435058594,22.27,1
-0.0034578947816044,-0.961958110332489,0.3904467821121216,-1.6974053382873535,2.190514326095581,92.11695098876952,22.27,1
-0.0134146269410848,-0.9811846613883972,0.390510618686676,-1.8344727754592896,2.190483808517456,92.11446380615234,22.27,1
-0.0365976057946682,-1.038305401802063,0.3849538266658783,-2.0370771884918213,2.2056126594543457,92.11286163330078,22.29,1
-0.0682684332132339,-1.0469733476638794,0.3589966893196106,-2.034541606903076,2.2153215408325195,92.1118392944336,22.29,1
-0.082995168864727,-1.0581337213516235,0.342338889837265,-1.8179600238800049,2.2215521335601807,92.1111831665039,22.29,1
-0.1092392653226852,-1.1044801473617554,0.314855545759201,-1.8366037607192995,2.225550651550293,92.11075592041016,22.29,1
-0.0980923473834991,-1.0670493841171265,0.2692294716835022,-2.3931198120117188,2.228116512298584,92.11048889160156,22.29,1
-0.0797433480620384,-1.0206373929977417,0.2455470412969589,-3.087021827697754,2.2297632694244385,92.11031341552734,22.29,1
-0.0399791412055492,-0.951668381690979,0.2359468042850494,-3.2708001136779785,2.2308199405670166,92.11019897460938,22.29,1
-0.0144607611000537,-0.8962124586105347,0.2297859191894531,-3.0663065910339355,2.2314982414245605,92.1101303100586,22.29,1
-0.0316711813211441,-0.8438307642936707,0.2202344387769699,-3.121368408203125,2.216784954071045,92.1100845336914,22.29,1
-0.0707047134637832,-0.8046174049377441,0.2308981716632843,-3.3394153118133545,2.207342624664306,92.11005401611328,22.29,1
-0.0957541838288307,-0.7962458729743958,0.2433393150568008,-2.995697498321533,2.2012832164764404,92.11003112792967,22.29,1
-0.1006339415907859,-0.8580467700958252,0.2401277869939804,-2.141003370285034,2.197394609451294,92.11002349853516,22.29,1
-0.1149610430002212,-0.9760758876800536,0.2324690371751785,-1.7143174409866333,2.194899082183838,92.11001586914062,22.29,1
-0.2249152958393097,-1.2085578441619873,0.2555429637432098,-1.7951699495315552,2.1932976245880127,92.1100082397461,22.29,1
-0.3402597904205322,-1.229002594947815,0.2143727391958236,-1.0051511526107788,2.192269802093506,92.1100082397461,22.29,1
-0.3750968277454376,-1.1973406076431274,0.1487676352262497,1.4364283084869385,2.191610336303711,92.1100082397461,22.29,1
-0.3078888356685638,-1.182619571685791,0.0954705029726028,3.881024599075317,2.193023204803467,90.67339324951172,22.29,1
-0.236769750714302,-1.1787703037261963,0.066865250468254,3.8663272857666016,2.19392991065979,89.75145721435547,22.29,1
-0.2135207206010818,-1.125920057296753,0.0485080443322658,1.4064135551452637,2.194511651992798,89.1598129272461,22.29,1
-0.2377852499485016,-1.0584172010421753,0.019934119656682,-1.0212877988815308,2.194885015487671,88.7801284790039,22.29,1
-0.2701501548290252,-0.9983043670654296,-0.0040007517673075,-2.349961996078491,2.195124626159668,88.53646850585938,22.29,1
-0.3021156191825866,-0.9261407852172852,-0.0193607751280069,-4.571172714233398,2.1952784061431885,88.38009643554688,22.29,1
-0.3114336729049682,-0.8630369901657104,-0.0236201789230108,-8.923582077026367,2.1953771114349365,88.27974700927734,22.29,1
-0.3006201386451721,-0.8057473301887512,-0.0151580711826682,-13.042261123657228,2.195440530776977,88.21534729003906,22.29,1
-0.3328650593757629,-0.7745798826217651,-0.0041298028081655,-14.53896713256836,2.1950223445892334,88.17402648925781,22.29,1
-0.4207312762737274,-0.7713717222213745,0.0141430543735623,-14.71130084991455,2.194753885269165,88.14750671386719,22.29,1
-0.4939121007919311,-0.7413240671157837,0.0258695222437381,-16.12236976623535,2.1945815086364746,88.13048553466797,22.29,1
-0.5240820050239563,-0.7164434194564819,0.0613837651908397,-19.17029190063477,2.1944708824157715,88.11956024169922,22.29,1
-0.53224778175354,-0.7564541697502136,0.1345547288656234,-20.24137687683105,2.1944000720977783,88.112548828125,22.29,1
-0.5430858731269836,-0.8604996204376221,0.2206960618495941,-11.005003929138184,2.19435453414917,88.1080551147461,22.29,1
-0.5276500582695007,-0.9720522165298462,0.2983677089214325,12.74209976196289,2.1943252086639404,88.10517120361328,22.29,1
-0.4561687111854553,-1.0548357963562012,0.3817995488643646,39.27748489379883,2.1943066120147705,88.10331726074219,22.29,1
-0.4382849633693695,-1.1079615354537964,0.4689279496669769,50.64590072631836,2.196589946746826,88.10212707519531,22.27,1
-0.4156126379966736,-1.1700434684753418,0.5976130366325378,44.53907775878906,2.1980552673339844,88.10136413574219,22.27,1
-0.356280654668808,-1.0867329835891724,0.6242179274559021,32.64883804321289,2.198995590209961,88.10087585449219,22.27,1
-0.2958137094974518,-1.0388668775558472,0.630095899105072,22.14155960083008,2.199599027633667,88.1005630493164,22.27,1
-0.1842384338378906,-1.1313002109527588,0.617074728012085,13.292038917541504,2.199986219406128,88.10035705566406,22.27,1
-0.1406247168779373,-1.2074120044708252,0.5583385229110718,7.745481491088867,2.200234889984131,88.10022735595703,22.27,1
0.0217106342315673,-1.2394628524780271,0.5374383330345154,6.317652702331543,2.20039439201355,88.10014343261719,22.27,1
0.0083348611369729,-1.1872601509094238,0.4848413467407226,5.204312801361084,2.2004966735839844,88.10009002685547,22.27,1
0.0333377048373222,-1.136966109275818,0.4566853940486908,1.5521230697631836,2.202857732772827,88.10005950927734,22.27,1
0.0941652879118919,-1.059908151626587,0.4554098546504974,-2.328566789627075,2.2043728828430176,88.10003662109375,22.27,1
0.0548320859670639,-0.999261200428009,0.4266024231910705,-3.5758166313171387,2.2053451538085938,88.10002136230469,22.27,1
-0.0263874419033527,-0.9547436833381652,0.3465399444103241,-3.3802735805511475,2.2059690952301025,88.10001373291016,22.27,1
-0.0897050127387046,-0.9037837982177734,0.2727693617343902,-4.390461921691895,2.206369638442993,88.10000610351562,22.27,1
-0.1191430315375328,-0.8598851561546326,0.2310254126787185,-6.418034076690674,2.2066266536712646,88.10000610351562,22.27,1
-0.1324368864297866,-0.8093224167823792,0.2210298776626587,-7.2785563468933105,2.206791639328003,88.10000610351562,22.27,1
-0.1297725588083267,-0.7768741846084595,0.2258108705282211,-6.587636470794678,2.206897497177124,88.10000610351562,22.27,1
-0.1224649772047996,-0.7448552250862122,0.2344768047332763,-6.176486968994141,2.203751802444458,86.82819366455078,22.27,1
-0.1345687210559845,-0.7522961497306824,0.2400381118059158,-6.955164432525635,2.201733112335205,86.01201629638672,22.27,1
-0.1423362046480178,-0.7850601673126221,0.2548025846481323,-7.422631740570068,2.200437545776367,85.48823547363281,22.27,1
-0.1753097921609878,-0.8956506252288818,0.2810708880424499,-5.974328517913818,2.19960618019104,85.15210723876953,22.27,1
-0.1964703500270843,-1.0505878925323486,0.3035261631011963,-3.285845994949341,2.1990725994110107,84.9364013671875,22.27,1
-0.2044522017240524,-1.2003976106643677,0.3179366588592529,-1.4996289014816284,2.198730230331421,84.7979736328125,22.27,1
-0.2599544525146484,-1.212570309638977,0.3159889280796051,-1.6179869174957275,2.1985106468200684,84.70913696289062,22.27,1
-0.3179637193679809,-1.192393183708191,0.3147389888763428,-2.6898982524871826,2.19836974143982,84.6521224975586,22.27,1
-0.3383973836898803,-1.190640211105347,0.2635568976402282,-3.4852664470672607,2.1973609924316406,84.61553955078125,22.27,1
-0.3067283630371094,-1.1671241521835327,0.2195156216621399,-3.898958444595337,2.19671368598938,84.5920639038086,22.27,1
-0.2528183460235595,-1.1016528606414795,0.1856546849012375,-4.429553031921387,2.196298122406006,84.57699584960938,22.27,1
-0.2462108731269836,-1.0148550271987915,0.1583269089460373,-5.307444095611572,2.1960315704345703,84.56732177734375,22.27,1
-0.253166139125824,-0.9423598051071168,0.1351917386054992,-6.594504356384277,2.1958603858947754,84.56111907958984,22.27,1
-0.2856184840202331,-0.873445451259613,0.1147471442818641,-8.255205154418945,2.1957507133483887,84.55713653564453,22.27,1
-0.317640095949173,-0.829220175743103,0.11842031031847,-9.92282009124756,2.1956801414489746,84.55458068847656,22.27,1
-0.3269941806793213,-0.8008389472961426,0.1319730877876281,-11.078981399536133,2.1956348419189453,84.55294036865234,22.27,1
-0.3609859645366668,-0.7322455644607544,0.1742571145296096,-11.52716827392578,2.194688081741333,84.55188751220703,22.31,1
-0.4219843447208404,-0.6994218230247498,0.2349792271852493,-11.349054336547852,2.194080352783203,84.55121612548828,22.31,1
-0.4499340355396271,-0.7511284947395325,0.3411204814910888,-10.604217529296877,2.193690538406372,84.55078125,22.31,1
-0.4510772228240967,-0.7731152772903442,0.4036380350589752,-9.072946548461914,2.1934401988983154,84.55049896240234,22.31,1
-0.4518108665943146,-0.7704318165779114,0.4549537599086761,-6.513931751251221,2.193279504776001,84.55032348632812,22.31,1
-0.4466838836669922,-0.8862630128860474,0.5158740878105164,-3.152067184448242,2.193176507949829,84.55020904541016,22.31,1
-0.4321981370449066,-0.9829878807067872,0.5549692511558533,0.6748644113540649,2.193110466003418,84.55013275146484,22.31,1
-0.4284997880458832,-1.084244728088379,0.574460506439209,5.111932754516602,2.193068027496338,84.55008697509766,22.31,1
-0.4149308502674103,-1.1548233032226562,0.5757733583450317,9.983542442321776,2.1957950592041016,84.55005645751953,22.31,1
-0.4006253182888031,-1.2560943365097046,0.5374314188957214,13.898028373718262,2.197545051574707,84.55003356933594,22.31,1
-0.3858470916748047,-1.1419554948806765,0.4512502551078796,15.371173858642578,2.1986682415008545,84.5500259399414,22.31,1
-0.3819610476493835,-1.0295233726501465,0.373553067445755,14.199251174926758,2.1993889808654785,84.55001831054688,22.31,1
-0.3626738786697387,-0.9965553283691406,0.3013003766536712,11.186573028564451,2.1998515129089355,84.55001068115234,22.31,1
-0.3558942675590515,-1.0313760042190552,0.2549327611923218,7.583729743957519,2.200148344039917,84.55001068115234,22.31,1
-0.3515434861183166,-1.0817108154296875,0.2307744622230529,4.766489028930664,2.200338840484619,84.55001068115234,22.31,1
-0.3431536257266998,-1.0804262161254885,0.1928799599409103,3.3490469455718994,2.2004611492156982,84.55001068115234,22.31,1
-0.3377695083618164,-1.0907973051071167,0.1685614436864853,2.758263349533081,2.2005395889282227,83.45732116699219,22.31,1
-0.3567053973674774,-1.1366373300552368,0.1473574489355087,2.114022016525269,2.200589895248413,82.75609588623047,22.31,1
-0.3744551241397857,-1.1716525554656982,0.1225543990731239,1.0951296091079712,2.200622081756592,82.30609130859375,22.31,1
-0.3746503293514251,-1.1717323064804075,0.0954416841268539,-0.1176186129450798,2.2006428241729736,82.01730346679688,22.31,1
-0.3747755885124206,-1.13819682598114,0.0724445283412933,-1.2398179769515991,2.200656175613404,81.83197784423828,22.31,1
-0.3692582249641418,-1.0998823642730713,0.0632840543985366,-2.02804970741272,2.200664758682251,81.71304321289062,22.31,1
-0.3657174706459045,-1.047305464744568,0.0462098382413387,-2.401336193084717,2.2006702423095703,81.63671875,22.31,1
-0.3634452223777771,-1.002369046211243,0.0296548139303922,-2.547743082046509,2.200673818588257,81.58773803710938,22.31,1
-0.3675847947597503,-1.0015202760696411,0.0246285274624824,-2.749175786972046,2.20113492012024,81.55630493164062,22.31,1
-0.3590458035469055,-0.9953778386116028,0.0493918173015117,-2.7709665298461914,2.2014307975769043,81.5361328125,22.31,1
-0.347968190908432,-0.969044864177704,0.0876745656132698,-1.921549916267395,2.201620817184448,81.52318572998047,22.31,1
-0.2848814725875854,-0.8905704021453857,0.1794155240058899,-0.0329773724079132,2.201742649078369,81.51487731933594,22.31,1
-0.188418298959732,-0.7898300290107727,0.2606806755065918,2.1427128314971924,2.2018208503723145,81.5095443725586,22.31,1
-0.0593404993414878,-0.6748006939888,0.3184297680854797,3.746734857559204,2.201871156692505,81.5061264038086,22.31,1
-0.0156902186572551,-0.6009814739227295,0.3946742117404938,4.346194744110107,2.201903343200684,81.5039291381836,22.31,1
-0.0380579493939876,-0.6263796091079712,0.4380057454109192,3.878240585327149,2.201924085617065,81.50251770019531,22.31,1
-0.0971944704651832,-0.7546341419219971,0.4602156579494476,2.710951328277588,2.201937437057495,81.50161743164062,22.27,1
-0.1463404297828674,-0.8649294376373291,0.4744687080383301,1.4853696823120115,2.201945781707764,81.50103759765625,22.27,1
-0.1554883867502212,-0.9525039196014404,0.4836154878139496,0.4624119400978088,2.201951265335083,81.50066375732422,22.27,1
-0.1389679163694381,-1.0031063556671145,0.48948535323143,-0.5917294025421143,2.201954841613769,81.50042724609375,22.27,1
-0.1283660233020782,-1.024384617805481,0.4932523071765899,-1.80918550491333,2.201956987380981,81.50027465820312,22.27,1
-0.1271601170301437,-1.026844143867493,0.4956697225570678,-3.020387887954712,2.201958417892456,81.50017547607422,22.27,1
-0.1319840103387832,-1.022824764251709,0.5084166526794434,-4.109352111816406,2.2019593715667725,81.50011444091797,22.27,1
-0.1518730372190475,-1.0034520626068115,0.5445857644081116,-5.026723384857178,2.2019600868225098,81.50007629394531,22.27,1
-0.1814299821853637,-0.9294442534446716,0.5789925456047058,-5.4398932456970215,2.209764242172241,81.50004577636719,22.27,1
-0.2115934789180755,-0.8707547783851624,0.606670618057251,-4.999274730682373,2.2147724628448486,81.50003051757812,22.27,1
-0.2309506833553314,-0.8610801100730896,0.6132372617721558,-3.867440700531006,2.217986583709717,81.5000228881836,22.27,1
-0.2433730214834213,-0.8828603625297546,0.606255829334259,-2.4424924850463867,2.2200491428375244,81.50001525878906,22.27,1
-0.2513449490070343,-0.919228732585907,0.579384446144104,-0.6323989629745483,2.2213728427886963,81.50000762939453,22.27,1
-0.2452653348445892,-0.9481656551361084,0.534151017665863,1.919254302978516,2.222222328186035,81.50000762939453,22.27,1
-0.2469615638256073,-0.977931261062622,0.4939272999763489,5.211908340454102,2.2227673530578613,81.50000762939453,22.27,1
-0.2760389745235443,-1.025022029876709,0.4401251375675201,8.568098068237305,2.223117113113404,81.50000762939453,22.27,1
-0.3338836133480072,-1.1280131340026855,0.3944024741649627,10.632343292236328,2.22793197631836,81.0987548828125,22.27,1
-0.4213849306106567,-1.2109003067016602,0.3650602996349334,10.230255126953123,2.231021881103516,80.84125518798828,22.27,1
-0.4719404578208923,-1.0793659687042236,0.2622635662555694,7.693700313568115,2.233004808425904,80.6760025024414,22.27,1
-0.5043841004371643,-0.9837592244148254,0.1515123397111892,4.6292724609375,2.2342774868011475,80.56995391845703,22.27,1
-0.5643889904022217,-1.0847398042678833,0.0244608372449874,2.2435379028320312,2.2350940704345703,80.50189971923828,22.27,1
-0.5972989201545715,-1.160738825798035,-0.0738668367266655,0.5297992825508118,2.2356181144714355,80.4582290649414,22.27,1
-0.584831953048706,-1.1927173137664795,-0.2209344804286956,-0.9282371401786804,2.235954523086548,80.4301986694336,22.27,1
-0.5656358003616333,-1.246825933456421,-0.3489006757736206,-2.161274671554565,2.2361702919006348,80.41221618652344,22.27,1
-0.5477190613746643,-1.270354151725769,-0.4142287075519562,-3.056461811065674,2.2303411960601807,80.40067291259766,22.27,1
-0.5306233763694763,-1.2686599493026731,-0.4113702774047851,-3.7312536239624015,2.226600408554077,80.39326477050781,22.27,1
-0.514054536819458,-1.250779390335083,-0.3815470337867737,-4.221617221832275,2.2242000102996826,80.38851165771484,22.27,1
-0.4866282939910888,-1.2169135808944702,-0.3064304292201996,-4.303437232971191,2.2226593494415283,80.38545989990234,22.27,1
-0.4690276980400085,-1.223169207572937,-0.2078449577093124,-4.0836687088012695,2.221670866012573,80.38349914550781,22.27,1
-0.4521348774433136,-1.2327815294265747,-0.1277851611375808,-4.10026741027832,2.221036434173584,80.38224792480469,22.27,1
-0.4189029633998871,-1.2333524227142334,-0.054016288369894,-4.48708963394165,2.2206292152404785,80.38143920898438,22.27,1
-0.3807832896709442,-1.2169255018234253,0.0101176518946886,-4.749660015106201,2.220367908477783,80.38092041015625,22.27,1
-0.3395269513130188,-1.1783946752548218,0.0568728968501091,-4.556322574615479,2.224790573120117,80.3805923461914,22.29,1
-0.3074532449245453,-1.142472267150879,0.0868777185678482,-4.1026530265808105,2.2276289463043213,80.38037872314453,22.29,1
-0.2812724113464355,-1.125017166137695,0.1285241842269897,-3.721949577331543,2.229450225830078,80.38024139404297,22.29,1
-0.2028955370187759,-1.0690332651138306,0.1776415854692459,-3.6890079975128174,2.230619192123413,80.38015747070312,22.29,1
-0.130206674337387,-0.9827260375022888,0.1979667544364929,-4.190924167633057,2.2313692569732666,80.38009643554688,22.29,1
-0.0835591480135917,-0.8993501663208008,0.2278036028146743,-4.903525352478027,2.2318506240844727,80.38005828857422,22.29,1
-0.0536234527826309,-0.812257707118988,0.2525489628314972,-4.952418327331543,2.2321596145629883,80.38003540039062,22.29,1
-0.0735968649387359,-0.7171823382377625,0.274026870727539,-3.823040723800659,2.232357978820801,80.38002014160156,22.29,1
-0.0976101979613304,-0.7513306140899658,0.2934079468250274,-1.923186421394348,2.230189800262451,80.38001251220703,22.29,1
-0.1242161244153976,-0.8068316578865051,0.3226389288902282,0.1200232729315757,2.2287983894348145,80.3800048828125,22.29,1
-0.1356925070285797,-0.8704379200935364,0.3693865537643432,2.165665626525879,2.227905511856079,80.3800048828125,22.29,1
-0.1318618357181549,-0.9056589603424072,0.3937887251377105,4.23078203201294,2.227332353591919,80.3800048828125,22.29,1
-0.1350013017654419,-0.94505512714386,0.3982530832290649,5.950138092041016,2.2269647121429443,80.3800048828125,22.29,1
-0.1594071388244629,-1.009521722793579,0.4235091507434845,6.827819347381592,2.226728677749634,80.3800048828125,22.29,1
-0.1806671619415283,-1.056490421295166,0.4453147947788238,6.7641143798828125,2.2265772819519043,80.3800048828125,22.29,1
-0.1887128502130508,-1.0474478006362915,0.4649061858654022,6.150020122528076,2.226480007171631,80.3800048828125,22.29,1
-0.2050716578960418,-1.0192537307739258,0.4774788022041321,5.616209030151367,2.227335929870605,80.16863250732422,22.29,1
-0.2043742537498474,-0.9619759917259216,0.4743516445159912,5.6104021072387695,2.2278852462768555,80.0329818725586,22.29,1
-0.1983289271593094,-0.9028273224830629,0.4611492753028869,6.0115065574646,2.228237628936768,79.94593048095703,22.29,1
-0.2000471502542495,-0.876064658164978,0.4526767432689667,6.362059116363525,2.228463888168335,79.89006805419922,22.29,1
-0.2011498063802719,-0.8588899374008179,0.4416417777538299,6.508206844329834,2.228609085083008,79.85421752929688,22.29,1
-0.2018574327230453,-0.8366726040840149,0.4233646392822265,6.745299339294434,2.2287023067474365,79.83121490478516,22.29,1
-0.2079093158245086,-0.844805896282196,0.3948420882225036,7.345273494720459,2.228761911392212,79.81645202636719,22.29,1
-0.2117930799722671,-0.8724164962768555,0.3653424084186554,8.063482284545898,2.228800296783448,79.80697631835938,22.29,1
-0.2254810035228729,-0.9293197989463806,0.3408134281635284,8.055069923400879,2.229283809661865,79.80089569091797,22.29,1
-0.2846450805664062,-1.0162169933319092,0.3362677097320556,6.663214206695557,2.2295942306518555,79.79698944091797,22.29,1
-0.3506020605564117,-1.1167649030685425,0.3389483094215393,4.236659049987793,2.2297933101654053,79.79448699951172,22.29,1
-0.3705383539199829,-1.1253129243850708,0.323875218629837,1.4613597393035889,2.229921102523804,79.79287719726562,22.29,1
-0.3553434610366821,-1.030038595199585,0.2806155383586883,-1.6380552053451538,2.230003118515014,79.7918472290039,22.29,1
-0.3343966901302337,-0.9800926446914672,0.247256189584732,-5.0529465675354,2.230055809020996,79.79118347167969,22.29,1
-0.309758722782135,-1.0264090299606323,0.2202503085136413,-8.014680862426758,2.2300896644592285,79.79075622558594,22.29,1
-0.2883497178554535,-1.0673277378082275,0.1973217129707336,-9.94759464263916,2.2301113605499268,79.79048919677734,22.29,1
-0.252219557762146,-1.0655981302261353,0.1770096868276596,-11.170114517211914,2.2310433387756348,79.79031372070312,22.29,1
-0.2178377360105514,-1.0756837129592896,0.1863656938076019,-12.00123119354248,2.2316415309906006,79.79019927978516,22.29,1
-0.1957734674215316,-1.0989494323730469,0.2091631591320037,-12.204997062683104,2.232025384902954,79.79013061523438,22.29,1
-0.1928094327449798,-1.108282208442688,0.2125977128744125,-11.518935203552246,2.232271671295166,79.79008483886719,22.29,1
-0.2021028399467468,-1.0974781513214111,0.192410722374916,-10.018217086791992,2.2324297428131104,79.79005432128906,22.29,1
-0.2080668061971664,-1.073751449584961,0.1738580912351608,-8.005448341369629,2.232531309127808,79.79003143310547,22.29,1
-0.2118941396474838,-1.0753183364868164,0.1731476336717605,-5.900524616241455,2.2325963973999023,79.79002380371094,22.29,1
-0.2031547576189041,-1.0707260370254517,0.1726917028427124,-4.051727771759033,2.232638120651245,79.7900161743164,22.29,1
-0.1919485479593277,-1.045387864112854,0.1668013334274292,-2.4962708950042725,2.2317466735839844,79.79000854492188,22.29,1
-0.1847570538520813,-1.0403228998184204,0.1686190068721771,-1.1147327423095703,2.23117470741272,79.79000854492188,22.29,1
-0.1521530896425247,-1.059463620185852,0.1697854846715927,0.0083089601248502,2.230807542800904,79.79000854492188,22.29,1
-0.1032408699393272,-0.998975932598114,0.170534074306488,0.528388261795044,2.230571985244751,79.79000854492188,22.29,1
-0.0774495974183082,-0.932169497013092,0.1766122430562973,0.1778732687234878,2.2304208278656006,79.79000854492188,22.29,1
-0.0832893401384353,-0.8725036978721619,0.180512860417366,-0.957041323184967,2.2303237915039062,79.79000854492188,22.29,1
-0.1094280481338501,-0.8454091548919678,0.1886138319969177,-2.3194801807403564,2.2302615642547607,79.79000854492188,22.29,1
-0.1318001449108123,-0.8056303262710571,0.2218014448881149,-3.0039384365081787,2.230221509933472,79.79000854492188,22.29,1
-0.1405594944953918,-0.7857003211975098,0.2486971169710159,-2.3755767345428467,2.232032299041748,80.10527038574219,22.29,1
-0.1517785042524337,-0.7841059565544128,0.2715549767017364,-0.6933509111404419,2.233194351196289,80.30758666992188,22.29,1
-0.203760415315628,-0.9006360769271851,0.3533971309661865,1.192284345626831,2.2339401245117188,80.43742370605469,22.29,1
-0.2203260958194732,-1.0313961505889893,0.4451031386852264,2.792877197265625,2.234418630599976,80.52074432373047,22.29,1
-0.1581859290599823,-1.0873215198516846,0.5207480788230896,4.217711448669434,2.2347257137298584,80.57421875,22.29,1
-0.0959168523550033,-1.0952223539352417,0.5357060432434082,5.5799102783203125,2.2349228858947754,80.60853576660156,22.29,1
-0.0559561401605606,-1.0779016017913818,0.5061207413673401,6.615306854248047,2.2350494861602783,80.63055419921875,22.29,1
-0.0638983026146888,-1.033199429512024,0.4031679928302765,6.964498043060303,2.235130548477173,80.64468383789062,22.29,1
-0.1025817692279815,-1.0101099014282229,0.3147077560424804,6.6404547691345215,2.234264373779297,80.65375518798828,22.29,1
-0.1777865588665008,-0.9784990549087524,0.285927951335907,6.0240888595581055,2.233708620071411,80.65957641601562,22.29,1
-0.248439759016037,-0.9358219504356384,0.2450676262378692,5.331186771392822,2.233351945877075,80.6633071899414,22.29,1
-0.2993786931037903,-0.8748475909233093,0.1852591633796692,4.40645694732666,2.2331230640411377,80.66570281982422,22.29,1
-0.3432639241218567,-0.8133266568183899,0.1356819868087768,3.2326414585113525,2.232976198196411,80.66724395751953,22.29,1
-0.3658291697502136,-0.7906394004821777,0.1262573152780532,2.178417921066284,2.232881784439087,80.66822814941406,22.29,1
-0.3747124671936035,-0.8264600038528442,0.1314046531915664,1.5341211557388306,2.232821226119995,80.66886138916016,22.29,1
-0.4307932257652282,-0.8830342292785645,0.1291101425886154,1.3105250597000122,2.2327823638916016,80.66926574707031,22.29,1
-0.4723803997039795,-0.9417314529418944,0.1444309800863266,1.4823005199432373,2.2396433353424072,80.66952514648438,22.29,1
-0.515861988067627,-1.0353776216506958,0.2046429812908172,1.789577841758728,2.244046211242676,80.66969299316406,22.29,1
-0.5325704216957092,-1.0730832815170288,0.2768702208995819,1.7073298692703247,2.2468717098236084,80.6697998046875,22.29,1
-0.4929129481315613,-1.1980406045913696,0.4239814579486847,1.1888129711151123,2.248684883117676,80.66986846923828,22.29,1
-0.3890942335128784,-1.138286590576172,0.4959978759288788,0.7915723323822021,2.2498486042022705,80.66991424560547,22.29,1
-0.2496982812881469,-1.060755491256714,0.5534093976020813,0.6978620290756226,2.2505953311920166,80.6699447631836,22.29,1
-0.1490464359521865,-1.0445871353149414,0.5846550464630127,0.4550128281116485,2.2510745525360107,80.66996765136719,22.29,1
-0.1404316127300262,-1.073395609855652,0.5767178535461426,-0.0590913668274879,2.251382112503052,80.66997528076172,22.29,1
-0.0565342791378498,-1.2038387060165403,0.4652664959430694,-0.3460229337215423,2.255251884460449,80.66998291015625,22.29,1
0.0532839484512805,-1.1811919212341309,0.4217323064804077,-0.2829613983631134,2.257735252380371,80.66999053955078,22.29,1
0.123758964240551,-1.1498651504516602,0.4217834174633026,-0.4610292315483093,2.259329080581665,80.66999053955078,22.29,1
0.140996903181076,-1.107370376586914,0.4610006511211395,-1.173593044281006,2.2603518962860107,80.66999053955078,22.29,1
0.0960814729332923,-1.0633063316345217,0.4749724566936493,-1.9891331195831297,2.2610082626342773,80.66999053955078,22.29,1
8.404290565522388e-05,-1.029430866241455,0.399972140789032,-2.5698208808898926,2.26142954826355,80.66999053955078,22.29,1
-0.0615215860307216,-1.013289213180542,0.3070590794086456,-3.0714457035064697,2.261699914932251,80.66999053955078,22.29,1
-0.1122520789504051,-0.9917349219322203,0.2306394875049591,-3.5044195652008057,2.261873245239258,80.66999053955078,22.29,1
-0.1448079943656921,-0.9275226593017578,0.1760000139474868,-3.581652879714966,2.250049114227295,80.89927673339844,22.29,1
-0.143309399485588,-0.8695216178894043,0.1521310955286026,-3.358941078186035,2.2424612045288086,81.04641723632812,22.29,1
-0.1199565976858139,-0.8043109774589539,0.1648022681474685,-3.3593204021453857,2.2375917434692383,81.1408462524414,22.29,1
-0.1273612082004547,-0.7512670159339905,0.1841294467449188,-3.8467941284179688,2.234466791152954,81.20144653320312,22.29,1
-0.137710839509964,-0.722824215888977,0.196532517671585,-4.449815273284912,2.232461214065552,81.2403335571289,22.29,1
-0.1443526297807693,-0.7661467790603638,0.1932965517044067,-4.675583839416504,2.231174230575561,81.26528930664062,22.29,1
-0.1486149579286575,-0.8499264717102051,0.1800243407487869,-4.562523365020752,2.2303483486175537,81.28130340576172,22.29,1
-0.190534695982933,-1.026842474937439,0.1491159051656723,-4.575949668884277,2.229818344116211,81.29158020019531,22.29,1
-0.2678163349628448,-1.1627681255340576,0.151671752333641,-4.778025150299072,2.231314420700073,81.29817962646484,22.29,1
-0.3733889758586883,-1.2443995475769043,0.158909723162651,-4.474213600158691,2.232274293899536,81.30241394042969,22.29,1
-0.4243461191654205,-1.29118812084198,0.107576884329319,-2.656338214874268,2.2328903675079346,81.30513000488281,22.29,1
-0.4178630411624908,-1.3268121480941772,0.0578411072492599,1.286765694618225,2.233285665512085,81.30687713623047,22.29,1
-0.3465292751789093,-1.3048913478851318,0.0315213203430175,6.668952465057373,2.233539342880249,81.30799865722656,22.29,1
-0.2951536178588867,-1.223650574684143,0.0314241163432598,11.161876678466797,2.2337021827697754,81.3087158203125,22.29,1
-0.2733792066574096,-1.160319447517395,0.0257639642804861,12.493922233581545,2.233806848526001,81.30917358398438,22.29,1
-0.2761989831924438,-1.0972859859466553,0.0109360544010996,10.661821365356444,2.2338738441467285,81.3094711303711,22.29,1
-0.2836063206195831,-1.0344436168670654,-0.0097751934081316,7.286382675170898,2.232999086380005,81.30966186523438,22.29,1
-0.2995554804801941,-0.9549306631088256,-0.0286642555147409,3.354010343551636,2.2324376106262207,81.30978393554688,22.29,1
-0.3097907304763794,-0.8815127015113831,-0.0407861657440662,-0.7530580163002014,2.2320773601531982,81.30986022949219,22.29,1
-0.3107613325119018,-0.8232017159461975,-0.0429675355553627,-4.03001880645752,2.2318460941314697,81.30990600585938,22.29,1
-0.3113842308521271,-0.7633900046348572,-0.0331718660891056,-5.68516206741333,2.231697797775269,81.3099365234375,22.29,1
-0.3117839694023132,-0.7250062823295593,-0.0268855690956115,-6.374749660491943,2.231602668762207,81.3099594116211,22.29,1
-0.3344315886497497,-0.7171671390533447,-0.011655836366117,-7.05732011795044,2.231541395187378,81.30997467041016,22.29,1
-0.3825521767139435,-0.824091911315918,0.0149110527709126,-7.352051258087158,2.2315022945404053,81.30998229980469,22.29,1
-0.424628734588623,-0.965481162071228,0.0487534739077091,-5.982772350311279,2.231935977935791,81.30998992919922,22.29,1
-0.468424379825592,-1.1177921295166016,0.1096560135483741,-2.413533926010132,2.2322144508361816,81.30998992919922,22.29,1
-0.5189210176467896,-1.2043410539627075,0.1767286360263824,2.270158529281616,2.2323930263519287,81.30998992919922,22.29,1
-0.5625224113464355,-1.2990676164627075,0.2981408238410949,6.117787837982178,2.232507705688477,81.30998992919922,22.29,1
-0.4841455519199371,-1.1471421718597412,0.4152405858039856,8.085413932800293,2.23258113861084,81.30998992919922,22.29,1
-0.4114566743373871,-0.9768741130828856,0.4791929423809051,8.678181648254395,2.232628345489502,81.30998992919922,22.29,1
-0.3648091554641723,-0.934779167175293,0.5034405589103699,8.521199226379395,2.232658624649048,81.30998992919922,22.29,1
-0.3180801272392273,-0.9413517117500304,0.519001305103302,7.471075057983398,2.232678174972534,81.30998992919922,22.29,1
-0.3384720981121063,-1.0239384174346924,0.495400607585907,5.6794023513793945,2.234067678451538,81.53569793701172,22.29,1
-0.2396030128002166,-1.155306696891785,0.4690594971179962,4.096117973327637,2.234959602355957,81.6805419921875,22.29,1
-0.0921879038214683,-1.245208978652954,0.4689486026763916,3.241273164749145,2.235531806945801,81.77349853515625,22.29,1
0.0304035022854805,-1.258120894432068,0.4856707751750946,2.592370748519897,2.2358992099761963,81.8331527709961,22.29,1
0.0586956366896629,-1.2496137619018557,0.4796087741851806,1.5633221864700315,2.2361347675323486,81.87142944335938,22.29,1
0.1048407703638076,-1.1825788021087646,0.4813162982463836,0.3189782500267029,2.236285924911499,81.89599609375,22.29,1
0.0169008020311594,-1.1115708351135254,0.3928477168083191,-0.7554284334182739,2.2363829612731934,81.91175842285156,22.29,1
-0.0507295578718185,-1.0212197303771973,0.3192803561687469,-1.6634578704833984,2.236445426940918,81.921875,22.29,1
-0.0941308289766311,-0.9408465623855592,0.2720690369606018,-2.446803092956543,2.2410757541656494,81.9283676147461,22.29,1
-0.1219832673668861,-0.8780720829963684,0.2417715340852737,-2.7739627361297607,2.244047164916992,81.93253326416016,22.29,1
-0.106270708143711,-0.8097981810569763,0.2447194457054138,-2.417868137359619,2.2459540367126465,81.93521118164062,22.29,1
-0.0905895233154296,-0.7323972582817078,0.2578068077564239,-1.802428960800171,2.247177839279175,81.93692779541016,22.29,1
-0.0861240103840828,-0.6771280765533447,0.2662055194377899,-1.4397186040878296,2.247963190078736,81.93802642822266,22.29,1
-0.1112471744418144,-0.6472572684288025,0.2771930992603302,-1.1711262464523315,2.248467206954956,81.93873596191406,22.29,1
-0.2001408487558365,-0.7624344825744629,0.3066353797912597,-0.5294417142868042,2.248790740966797,81.9391860961914,22.29,1
-0.2795787751674652,-0.9203152060508728,0.3479208350181579,0.4161581695079803,2.2489984035491943,81.9394760131836,22.29,1
-0.3305574655532837,-1.032829523086548,0.4359909892082214,1.0158246755599976,2.2436230182647705,81.93966674804688,22.27,1
-0.3632726669311523,-1.0882413387298584,0.4869115650653839,0.7629576325416565,2.24017333984375,81.93978881835938,22.27,1
-0.3170941174030304,-1.0958126783370972,0.4244273006916046,-0.101502701640129,2.237959623336792,81.93986511230469,22.27,1
-0.2370793968439102,-1.1062692403793335,0.3507418632507324,-0.7673234343528748,2.236538887023926,81.93991088867188,22.27,1
-0.1577416807413101,-1.1073819398880005,0.2810636758804321,-0.7790300846099854,2.2356271743774414,81.93994140625,22.27,1
-0.1572072803974151,-1.096900463104248,0.2307504564523697,-0.5106843709945679,2.235042095184326,81.9399642944336,22.27,1
-0.1792554259300232,-1.0845762491226196,0.1984623372554779,-0.5677604079246521,2.234666585922241,81.93997955322266,22.27,1
-0.2325890809297561,-1.0486783981323242,0.1665461212396621,-1.1346096992492676,2.234425544738769,81.93998718261719,22.27,1
-0.2780110836029053,-1.008847951889038,0.1236730366945266,-2.1002535820007324,2.2333531379699707,81.93999481201172,22.27,1
-0.3295514285564422,-0.9441025853157043,0.0793662369251251,-3.2895779609680176,2.2326648235321045,81.93999481201172,22.27,1
-0.3738225996494293,-0.8633683323860168,0.0565304569900035,-4.475561618804932,2.2322230339050293,81.93999481201172,22.27,1
-0.4190266132354736,-0.777971088886261,0.0418757684528827,-5.408621311187744,2.231939554214477,81.93999481201172,22.27,1
-0.4760248064994812,-0.6839836239814758,0.0604601055383682,-6.0038228034973145,2.231757640838623,81.93999481201172,22.27,1
-0.5293962955474854,-0.6236678957939148,0.1115708798170089,-6.457440376281738,2.2316410541534424,81.93999481201172,22.27,1
-0.6140270233154297,-0.663329541683197,0.2171418964862823,-6.938422679901123,2.2315661907196045,81.93999481201172,22.27,1
-0.6571425795555115,-0.7447598576545715,0.3016846179962158,-7.304410457611084,2.231518030166626,81.93999481201172,22.27,1
-0.6848116517066956,-0.8026149272918701,0.3615370690822601,-7.15594482421875,2.230109930038452,82.16211700439453,22.27,1
-0.7081658840179443,-0.8845251798629761,0.4111424684524536,-6.028886318206787,2.229206323623657,82.30465698242188,22.27,1
-0.7119577527046204,-0.9706770777702332,0.4709652364253998,-3.714941501617432,2.2286264896392822,82.39613342285156,22.27,1
-0.7087933421134949,-1.0539532899856567,0.5373449325561523,-0.5712523460388184,2.2282543182373047,82.45484161376953,22.27,1
-0.6787737607955933,-1.1073951721191406,0.5575524568557739,2.6212713718414307,2.228015661239624,82.49251556396484,22.27,1
-0.6259222626686096,-1.1081044673919678,0.5369338393211365,5.006811141967773,2.2278623580932617,82.51669311523438,22.27,1
-0.5192341208457947,-1.041386365890503,0.4565287232398987,5.914345264434815,2.227764129638672,82.5322036743164,22.27,1
-0.4619633853435516,-1.0097661018371582,0.3601471483707428,5.335993766784668,2.22770094871521,82.54216003417969,22.27,1
-0.2908637225627899,-1.0118651390075684,0.2647083699703216,4.262656211853027,2.2276604175567627,82.54855346679688,22.27,1
-0.1474751681089401,-0.9852232933044434,0.3434056043624878,3.785222053527832,2.2276344299316406,82.55265045166016,22.27,1
-0.1058366224169731,-0.973723828792572,0.3995067179203033,3.9696452617645264,2.2276177406311035,82.55528259277344,22.27,1
-0.1350931376218795,-0.9551485776901244,0.3907270133495331,4.152483940124512,2.227607011795044,82.55696868896484,22.27,1
-0.2042482644319534,-0.937630295753479,0.3515060544013977,3.950969696044922,2.22760009765625,82.55805206298828,22.27,1
-0.2766169011592865,-0.9487791657447816,0.2871518731117248,3.3702449798583984,2.227595806121826,82.55874633789062,22.27,1
-0.3174611628055572,-0.9783249497413636,0.2290597409009933,2.25597620010376,2.227592945098877,82.55919647216797,22.27,1
-0.3324771225452423,-1.0028835535049438,0.1861817836761474,0.4697125256061554,2.227591037750244,82.55948638916016,22.27,1
-0.3309179544448852,-1.018643856048584,0.1642629504203796,-1.4325323104858398,2.228048801422119,82.5596694946289,22.29,1
-0.3299173712730407,-1.023160099983215,0.155794471502304,-2.556553840637207,2.2283425331115723,82.55978393554688,22.29,1
-0.3292752504348755,-1.0148627758026123,0.1335665732622146,-2.847976922988892,2.2285311222076416,82.55986022949219,22.29,1
-0.351254254579544,-1.0207335948944092,0.0969108864665031,-3.077986478805542,2.228652238845825,82.55990600585938,22.29,1
-0.3653591275215149,-1.0133056640625,0.0733873769640922,-3.61251163482666,2.2287299633026123,82.5599365234375,22.29,1
-0.352019727230072,-0.9861477017402648,0.0806824415922164,-3.808653354644776,2.2287797927856445,82.5599594116211,22.29,1
-0.3434592485427856,-0.9687193036079408,0.096559539437294,-2.698537349700928,2.228811740875244,82.55997467041016,22.29,1
-0.3379656374454498,-0.946339190006256,0.1459329724311828,0.1634165495634079,2.228832244873047,82.55998229980469,22.29,1
-0.2784624099731445,-0.9319769144058228,0.177617996931076,4.045704364776611,2.228386402130127,82.55998992919922,22.29,1
-0.1675055921077728,-0.8555867671966553,0.2091471701860427,7.203492164611816,2.228100299835205,82.55998992919922,22.29,1
-0.0851043462753295,-0.7337929010391235,0.2797607481479645,8.402403831481934,2.227916717529297,82.55998992919922,22.29,1
-0.054615069180727,-0.6668281555175781,0.3362720310688019,8.02895450592041,2.2277989387512207,82.55998992919922,22.29,1
-0.1022220999002456,-0.7078206539154053,0.3781355023384094,7.054868698120117,2.227723360061645,82.55998992919922,22.29,1
-0.1383713334798813,-0.77890944480896,0.4050010442733764,5.723989009857178,2.227674961090088,82.55998992919922,22.29,1
-0.1559720486402511,-0.8413234949111938,0.4110462665557861,3.945602416992188,2.2276437282562256,82.55998992919922,22.29,1
-0.1896582692861557,-0.8925727605819702,0.414925754070282,1.912274956703186,2.227623701095581,82.55998992919922,22.29,1
-0.233667254447937,-0.9254615902900696,0.4174153804779053,-0.2595808804035187,2.226692676544189,82.75703430175781,22.29,1
-0.2731052339076996,-0.9633610844612122,0.4134153127670288,-2.642143726348877,2.226095199584961,82.88348388671875,22.29,1
-0.2816209197044372,-0.9876828193664552,0.4164460599422455,-5.048866271972656,2.2257118225097656,82.96463775634766,22.29,1
-0.2702924907207489,-0.9920955300331116,0.4351843297481537,-6.976698398590088,2.225465774536133,83.01671600341797,22.29,1
-0.2518270015716553,-0.9725362658500672,0.475198358297348,-7.998915195465088,2.225307941436768,83.05013275146484,22.29,1
-0.2399769127368927,-0.9543864727020264,0.5008770823478699,-8.088868141174316,2.2252066135406494,83.07157897949219,22.29,1
-0.2435677647590637,-0.9595323204994202,0.5061606168746948,-7.616373538970947,2.2251415252685547,83.08534240722656,22.29,1
-0.2402743846178054,-0.9684324264526368,0.4927579760551452,-6.983556747436523,2.225099802017212,83.09417724609375,22.29,1
-0.2325631082057953,-0.9853395223617554,0.4617658257484436,-5.957665920257568,2.225531816482544,83.09984588623047,22.29,1
-0.2108211368322372,-0.996189534664154,0.4194857776165008,-3.619080066680908,2.225809097290039,83.10348510742188,22.29,1
-0.1968683898448944,-1.0087502002716064,0.3811573088169098,0.5399603843688965,2.225987195968628,83.10581970214844,22.29,1
-0.2047076374292373,-1.0056153535842896,0.3229736685752868,5.559163093566895,2.2261013984680176,83.10731506347656,22.29,1
-0.2377272993326187,-1.0092014074325562,0.2744392156600952,9.43222713470459,2.2261745929718018,83.1082763671875,22.29,1
-0.3204929232597351,-1.0842738151550293,0.2488903552293777,10.559940338134766,2.2262215614318848,83.10889434814453,22.29,1
-0.4127915501594543,-1.143646478652954,0.2324945777654647,8.865403175354004,2.2262518405914307,83.10929107666016,22.29,1
-0.466425746679306,-1.1201728582382202,0.1995816081762313,5.904260158538818,2.226271152496338,83.10954284667969,22.29,1
-0.4896495342254638,-1.0155445337295532,0.1056888848543167,3.677954435348511,2.2272019386291504,83.10970306396484,22.25,1
-0.4989554286003113,-0.9539978504180908,0.0286406222730875,2.908433437347412,2.2277991771698,83.10980987548828,22.25,1
-0.5161229968070984,-0.9984673261642456,-0.0264022946357727,2.686874866485596,2.228182554244995,83.10987854003906,22.25,1
-0.5103468298912048,-1.1109719276428225,-0.0561278946697711,1.896245241165161,2.228428363800049,83.10992431640625,22.25,1
-0.473053365945816,-1.1663775444030762,-0.0696062967181205,0.3714132308959961,2.228586196899414,83.10995483398438,22.25,1
-0.4155339002609253,-1.1683470010757446,-0.0838537365198135,-1.406050682067871,2.228687524795532,83.10997009277344,22.25,1
-0.3786212205886841,-1.1696109771728516,-0.0873991474509239,-2.87632155418396,2.228752613067627,83.10997772216797,22.25,1
-0.3661283552646637,-1.1592265367507937,-0.0728810653090477,-3.54399847984314,2.2287943363189697,83.1099853515625,22.25,1
-0.3637089133262634,-1.1357691287994385,-0.0579664222896099,-3.3920977115631104,2.2292799949646,83.10999298095703,22.25,1
-0.3621562421321869,-1.1151176691055298,-0.0427972860634326,-3.022340774536133,2.2295916080474854,83.10999298095703,22.25,1
-0.3555620610713959,-1.1074625253677368,-0.0218670610338449,-2.917607545852661,2.229791641235352,83.10999298095703,22.25,1
-0.3513303101062774,-1.1025499105453491,-0.0084352474659681,-2.904134511947632,2.229919910430908,83.10999298095703,22.25,1
-0.3374190628528595,-1.0937994718551636,0.011380068026483,-2.69844651222229,2.2300024032592773,83.10999298095703,22.25,1
-0.3172960579395294,-1.0769884586334229,0.0352919436991214,-2.3837363719940186,2.230055332183838,83.10999298095703,22.25,1
-0.3043822944164276,-1.0662001371383667,0.056234985589981,-2.120869874954224,2.2300891876220703,83.10999298095703,22.25,1
-0.2681061029434204,-1.0480811595916748,0.1088594421744346,-2.0130810737609863,2.230110883712769,83.10999298095703,22.25,1
-0.2168372571468353,-1.0196601152420044,0.1538263410329818,-2.191106081008911,2.230584144592285,83.28553771972656,22.25,1
-0.1671425402164459,-0.9958233833312988,0.2050746083259582,-2.5561325550079346,2.2308878898620605,83.398193359375,22.25,1
-0.0904691368341445,-0.9805263876914978,0.2603538930416107,-2.747394561767578,2.2310829162597656,83.47048950195312,22.25,1
-0.035666786134243,-0.981905162334442,0.3014267385005951,-2.590694665908813,2.231207847595215,83.51688385009766,22.25,1
0.0106977587565779,-0.9100189208984376,0.3445782363414764,-2.124711036682129,2.231288194656372,83.54666137695312,22.25,1
0.0292563028633594,-0.8302998542785645,0.3778681755065918,-1.3670997619628906,2.231339693069458,83.5657730102539,22.25,1
-0.0260071828961372,-0.8295207023620605,0.3824383914470672,-0.5047380924224854,2.231372833251953,83.57803344726562,22.25,1
-0.0782654359936714,-0.9241828322410583,0.3965668678283691,0.0486759953200817,2.231394052505493,83.58589935302734,22.25,1
-0.0894106701016426,-1.0073226690292358,0.4112314581871032,0.2569397091865539,2.233243703842163,83.59095001220703,22.25,1
-0.118954136967659,-1.0494815111160278,0.4318379163742065,0.6306239366531372,2.2344307899475098,83.59419250488281,22.25,1
-0.1491089910268783,-1.0765365362167358,0.4450619518756866,1.5475398302078247,2.23519253730774,83.59627532958984,22.25,1
-0.2300361543893814,-1.0827033519744873,0.442352831363678,2.838148593902588,2.235681295394897,83.59761047363281,22.25,1
-0.2875683307647705,-1.0474765300750732,0.4126254022121429,3.9995663166046143,2.235995054244995,83.59846496582031,22.25,1
-0.3188913762569427,-1.0136743783950806,0.3935480415821075,4.6875762939453125,2.236196279525757,83.59901428222656,22.25,1
-0.3166016042232513,-0.9639932513237,0.3925008475780487,5.010876655578613,2.23632550239563,83.599365234375,22.25,1
-0.3095344007015228,-0.920915186405182,0.3918288052082062,5.225517272949219,2.236408472061157,83.59959411621094,22.25,1
-0.3049990832805633,-0.8876724243164062,0.3913975358009338,5.227123260498047,2.2360026836395264,83.59973907470703,22.29,1
-0.290893018245697,-0.8663390874862671,0.3911207616329193,4.740923404693604,2.2357423305511475,83.5998306274414,22.29,1
-0.2818405628204345,-0.8470508456230164,0.379747599363327,3.9058525562286377,2.2355751991271973,83.59989166259766,22.29,1
-0.2872267663478851,-0.862661600112915,0.361253410577774,3.230231523513794,2.2354679107666016,83.59992980957031,22.29,1
-0.2794877588748932,-0.889473021030426,0.3381893634796142,2.9578728675842285,2.2353992462158203,83.5999526977539,22.29,1
-0.2577280104160309,-0.9402657151222228,0.3121926188468933,2.6935243606567383,2.2353551387786865,83.59996795654297,22.29,1
-0.2381660640239715,-0.984057068824768,0.2787160873413086,1.7930352687835691,2.235326766967773,83.5999755859375,22.29,1
-0.2480034381151199,-1.0569419860839844,0.2628305554389953,0.1439631879329681,2.2353086471557617,83.59998321533203,22.29,1
-0.3046964704990387,-1.1596931219100952,0.2638316750526428,-1.6487445831298828,2.236215114593506,83.59999084472656,22.29,1
-0.3522743284702301,-1.2200350761413574,0.2588763833045959,-2.906678438186645,2.2367968559265137,83.59999084472656,22.29,1
-0.354818195104599,-1.1691946983337402,0.2053163796663284,-3.384350776672364,2.2371702194213867,83.59999084472656,22.29,1
-0.3732440173625946,-1.136568307876587,0.137358009815216,-3.2968103885650635,2.237409830093384,83.59999084472656,22.29,1
-0.3962641954421997,-1.1324238777160645,0.0881484672427177,-3.1009113788604736,2.2375636100769043,83.59999084472656,22.29,1
-0.399841696023941,-1.1409597396850586,0.0677641630172729,-3.129245519638061,2.2376623153686523,83.59999084472656,22.29,1
-0.3797464072704315,-1.1408398151397705,0.0546826869249343,-3.369548320770264,2.2377254962921143,83.59999084472656,22.29,1
-0.3332637846469879,-1.123969554901123,0.0518855229020118,-3.624073028564453,2.2377662658691406,83.59999084472656,22.29,1
-0.2922383546829223,-1.1131432056427002,0.0500904656946659,-3.712178230285645,2.236414909362793,83.7612075805664,22.29,1
-0.2715083658695221,-1.1061954498291016,0.0489385016262531,-3.489278078079224,2.235547542572021,83.86466979980469,22.29,1
-0.2470095008611679,-1.084943413734436,0.0481992363929748,-3.0381321907043457,2.2349910736083984,83.93106842041016,22.29,1
-0.2312875539064407,-1.0601096153259275,0.0477248169481754,-2.7593605518341064,2.2346339225769043,83.97367858886719,22.29,1
-0.2100025564432144,-1.0609660148620603,0.0642136856913566,-2.906475305557251,2.2344045639038086,84.00102233886719,22.29,1
-0.1907452940940857,-1.0615155696868896,0.0803930684924125,-3.1621007919311523,2.234257459640503,84.01856994628906,22.29,1
-0.1727893203496933,-1.0450749397277832,0.0963738411664962,-2.978636741638184,2.2341630458831787,84.02983093261719,22.29,1
-0.1556684374809265,-1.0065354108810425,0.1234227046370506,-2.391582727432251,2.234102487564087,84.03705596923828,22.29,1
-0.1446812450885772,-0.992998480796814,0.1407811045646667,-2.0399231910705566,2.2368178367614746,84.04169464111328,22.29,1
-0.1152391955256462,-0.9843112826347352,0.1575185060501098,-2.2190794944763184,2.238560438156128,84.04467010498047,22.29,1
-0.0739538818597793,-0.9507474899291992,0.1962484717369079,-2.523928165435791,2.2396788597106934,84.04657745361328,22.29,1
-0.0418615713715553,-0.940403699874878,0.2267009168863296,-2.597754955291748,2.240396499633789,84.04780578613281,22.29,1
-0.0268643461167812,-0.9505589604377748,0.2518413066864013,-2.397934913635254,2.2408571243286133,84.04859161376953,22.29,1
-0.0340333133935928,-0.9570760130882264,0.2735727429389953,-1.721567988395691,2.241152763366699,84.0490951538086,22.29,1
-0.0610250420868396,-0.966856062412262,0.3323009312152862,-0.4133661687374115,2.241342306137085,84.04942321777344,22.29,1
-0.0559556819498539,-0.9731323719024658,0.381184846162796,1.2107465267181396,2.241464138031006,84.04962921142578,22.29,1
-0.0471046827733516,-0.999551236629486,0.4013601839542389,2.804725170135498,2.241542100906372,84.04976654052734,22.29,1
-0.0246312990784645,-1.061287522315979,0.4143075346946716,4.207401752471924,2.2415921688079834,84.04985046386719,22.29,1
-0.0102091757580637,-1.095308542251587,0.4226164221763611,4.946342945098877,2.241624355316162,84.0499038696289,22.29,1
0.0046438877470791,-1.0779569149017334,0.4335463643074035,4.607308387756348,2.241645097732544,84.04994201660156,22.29,1
-0.0250086914747953,-1.066821575164795,0.4181694686412811,3.615899324417114,2.2416584491729736,84.04996490478516,22.29,1
-0.0776246562600135,-1.0652732849121094,0.3859103620052337,2.775463104248047,2.241666793823242,84.04998016357422,22.29,1
-0.1729660779237747,-1.0306930541992188,0.3036327958106994,2.293440818786621,2.241672277450561,84.04998779296875,22.29,1
-0.239748477935791,-0.9805126190185548,0.2340384721755981,1.969776272773743,2.241675853729248,84.04999542236328,22.29,1
-0.2826055884361267,-0.9035274982452391,0.1781812906265258,1.8587965965271,2.245809555053711,84.04999542236328,22.29,1
-0.2877177000045776,-0.8317317962646484,0.1591286957263946,2.077764749526977,2.248462200164795,84.04999542236328,22.29,1
-0.2854005992412567,-0.7744618654251099,0.1580973863601684,2.354423761367798,2.25016450881958,84.04999542236328,22.29,1
-0.2895113825798034,-0.7601004242897034,0.1630333214998245,2.306265354156494,2.2512569427490234,84.04999542236328,22.29,1
-0.3089427649974823,-0.7788729667663574,0.1662009209394455,1.9744237661361688,2.251958131790161,84.04999542236328,22.29,1
-0.3605971336364746,-0.8748867511749268,0.2410047650337219,1.7937101125717163,2.252408027648926,84.04999542236328,22.29,1
-0.3825503885746002,-0.9700894951820374,0.2554229199886322,2.075404405593872,2.2526967525482178,84.04999542236328,22.29,1
-0.4078342914581299,-0.9808051586151124,0.2198934704065323,2.575028896331787,2.25288200378418,84.04999542236328,22.29,1
-0.4240600168704986,-1.0492573976516724,0.2082882672548294,2.659209012985229,2.2511649131774902,84.17897033691406,22.29,1
-0.3728972375392914,-1.070794939994812,0.2120362669229507,2.0182113647460938,2.250062942504883,84.2617416381836,22.29,1
-0.306477278470993,-1.1741809844970703,0.2984081208705902,0.8760104775428772,2.249355792999268,84.31485748291016,22.29,1
-0.1462995111942291,-1.134170413017273,0.3930210471153259,-0.4337829053401947,2.2489020824432373,84.34894561767578,22.29,1
-0.0826910585165023,-1.074907302856445,0.4425426125526428,-1.603929877281189,2.248610734939575,84.37081909179688,22.29,1
-0.1426307559013366,-1.087255597114563,0.4743227064609527,-2.2509682178497314,2.24842381477356,84.38485717773438,22.29,1
-0.2426721155643463,-1.1399621963500977,0.472326248884201,-2.2076303958892822,2.2483038902282715,84.39386749267578,22.29,1
-0.3292640149593353,-1.2521551847457886,0.3926761746406555,-1.8502217531204224,2.2482268810272217,84.39965057373047,22.29,1
0.040597166866064,-1.1898075342178345,0.3807457685470581,-1.7856559753417969,2.260112762451172,84.40335845947266,22.29,1
0.1492039561271667,-1.0882209539413452,0.3786872923374176,-2.2493643760681152,2.267740488052368,84.4057388305664,22.29,1
0.1349349319934845,-0.97824627161026,0.4445395767688751,-2.812056541442871,2.2726354598999023,84.40726470947266,22.29,1
0.0809957012534141,-0.930061936378479,0.4979953467845917,-2.9152145385742188,2.2757768630981445,84.40824890136719,22.29,1
-0.0375860147178173,-0.9103356003761292,0.4427357912063598,-2.587332010269165,2.277792930603028,84.40887451171875,22.29,1
-0.085696056485176,-0.8808830380439758,0.3401000797748565,-2.308846950531006,2.2790865898132324,84.4092788696289,22.29,1
-0.1221680864691734,-0.8675798177719116,0.2630388438701629,-2.3056774139404297,2.279916763305664,84.40953826904297,22.29,1
-0.1343781948089599,-0.8422492742538452,0.2135853916406631,-2.35379958152771,2.280449628829956,84.40970611572266,22.29,1
-0.1254206150770187,-0.820395827293396,0.1818490028381347,-2.259291410446167,2.2716104984283447,84.4098129272461,22.27,1
-0.1028788313269615,-0.8175671100616455,0.1894712895154953,-2.252380132675171,2.2659380435943604,84.40988159179688,22.27,1
-0.127597227692604,-0.821349561214447,0.1999606043100357,-2.5811243057250977,2.2622976303100586,84.40992736816406,22.27,1
-0.149057850241661,-0.8293746709823608,0.2122898250818252,-2.992717742919922,2.259961605072021,84.40995788574219,22.27,1
-0.1684278100728988,-0.884904682636261,0.2090064585208892,-3.0347349643707275,2.258462429046631,84.40997314453125,22.27,1
-0.1864561140537262,-0.9765183925628662,0.2068993747234344,-2.6317901611328125,2.257500410079956,84.40998077392578,22.27,1
-0.2260145097970962,-1.1136796474456787,0.2279382795095443,-1.8895556926727293,2.256882905960083,84.40998840332031,22.27,1
-0.3241719007492065,-1.1569197177886963,0.2694287002086639,-0.8364376425743103,2.256486654281616,84.40999603271484,22.27,1
-0.3703703284263611,-1.1566797494888306,0.2792615592479706,0.2836322784423828,2.258986711502075,84.40999603271484,22.27,1
-0.316051185131073,-1.1733191013336182,0.1960073113441467,1.049002170562744,2.2605910301208496,84.40999603271484,22.27,1
-0.2420078814029693,-1.195192813873291,0.1313839852809906,1.332383155822754,2.26162052154541,84.40999603271484,22.27,1
-0.1776978224515915,-1.1812412738800049,0.1123035475611686,1.1989740133285522,2.2622811794281006,84.40999603271484,22.27,1
-0.1868073046207428,-1.1331034898757937,0.094461053609848,0.4899916052818298,2.2627053260803223,84.40999603271484,22.27,1
-0.2150443345308303,-1.0854181051254272,0.0774129927158355,-1.1615726947784424,2.262977361679077,84.40999603271484,22.27,1
-0.2555563449859619,-1.010034203529358,0.0496792010962963,-4.073643207550049,2.2631521224975586,84.40999603271484,22.27,1
-0.2927501499652862,-0.933668315410614,0.0262834765017032,-8.18871784210205,2.2632641792297363,84.40999603271484,22.27,1
-0.2998256683349609,-0.8510744571685791,0.0112694483250379,-12.62082290649414,2.2628772258758545,84.54254913330078,22.27,1
-0.2931707799434662,-0.7812771201133728,0.0016343088354915,-16.03472328186035,2.2626287937164307,84.62761688232422,22.27,1
-0.2833023071289062,-0.7308874130249023,0.0010488053085282,-17.913883209228516,2.262469291687012,84.68220520019531,22.27,1
-0.293762594461441,-0.70414799451828,0.0006730628665536,-18.990846633911133,2.262367010116577,84.71723937988281,22.27,1
-0.3116709589958191,-0.6981837153434753,0.0060297073796391,-20.280271530151367,2.262301445007324,84.7397232055664,22.27,1
-0.3623479306697845,-0.7503339648246765,0.0262606162577867,-20.871299743652344,2.2622592449188232,84.754150390625,22.27,1
-0.4564450085163116,-0.8957564830780029,0.0560369752347469,-16.113174438476562,2.2622323036193848,84.76341247558594,22.27,1
-0.5448199510574341,-1.0394601821899414,0.1031345948576927,-1.3661562204360962,2.2622148990631104,84.76935577392578,22.27,1
-0.5847405791282654,-1.126083254814148,0.1669457852840423,20.693967819213867,2.2635810375213623,84.7731704711914,22.27,1
-0.5935660600662231,-1.1704773902893066,0.2134939134120941,40.30714797973633,2.2644577026367188,84.77561950683594,22.27,1
-0.5544475317001343,-1.271738052368164,0.3273324370384216,49.8951416015625,2.26502013206482,84.77719116210938,22.27,1
-0.3949969410896301,-1.2023746967315674,0.4507674276828766,49.6998405456543,2.265381097793579,84.7781982421875,22.27,1
-0.2814751863479614,-1.0571013689041138,0.5019919872283936,44.12899398803711,2.265612840652466,84.77884674072266,22.27,1
-0.2422100901603698,-0.935884416103363,0.5460605621337891,36.44472885131836,2.265761613845825,84.77925872802734,22.27,1
-0.245000883936882,-0.9252676367759703,0.5799390077590942,27.6800537109375,2.265856981277466,84.77952575683594,22.27,1
-0.2523896396160126,-1.0639965534210205,0.5624958276748657,18.26144218444824,2.265918254852295,84.77969360351562,22.27,1
-0.2459357529878616,-1.2034047842025757,0.484128475189209,9.232834815979004,2.2659575939178467,84.77980041503906,22.25,1
-0.1074474453926086,-1.298466682434082,0.4618256986141205,1.7514010667800903,2.2659828662872314,84.77986907958984,22.25,1
-0.0241713896393775,-1.2699075937271118,0.4307197332382202,-3.608633995056152,2.2659990787506104,84.77991485595703,22.25,1
0.068454809486866,-1.195602297782898,0.4219532608985901,-6.901510238647461,2.266009330749512,84.77994537353516,22.25,1
0.1222992017865181,-1.0807441473007202,0.4387185573577881,-8.771073341369629,2.2660160064697266,84.77996826171875,22.25,1
0.0337023958563804,-0.9902414083480836,0.387902021408081,-10.22163200378418,2.2660202980041504,84.77997589111328,22.25,1
-0.0455450378358364,-0.9097709059715272,0.3161064684391022,-11.775885581970217,2.2660229206085205,84.77998352050781,22.25,1
-0.1075970232486724,-0.8189451098442078,0.2420433610677719,-12.97752285003662,2.2660248279571533,84.77999114990234,22.25,1
-0.1530161947011947,-0.7662561535835266,0.1945139169692993,-13.010653495788574,2.2669436931610107,84.77999114990234,22.25,1
-0.1597725003957748,-0.7156500816345215,0.1864033490419387,-11.849664688110352,2.267533540725708,84.77999114990234,22.25,1
-0.1417172104120254,-0.6831740140914917,0.2035895586013794,-10.445415496826172,2.267911911010742,84.77999114990234,22.25,1
-0.1413259208202362,-0.6623327136039734,0.2146186828613281,-9.49409294128418,2.2681548595428467,84.77999114990234,22.25,1
-0.1802592277526855,-0.69374018907547,0.227294310927391,-8.485922813415527,2.268310785293579,84.77999114990234,22.25,1
-0.2220377027988433,-0.7586778998374939,0.2466243505477905,-6.585035800933838,2.2684109210968018,84.77999114990234,22.25,1
-0.2656420469284057,-0.8955133557319641,0.281420350074768,-4.068263530731201,2.26847505569458,84.77999114990234,22.25,1
-0.2768314778804779,-1.0728908777236938,0.3149459660053253,-2.084138870239258,2.2685163021087646,84.77999114990234,22.25,1
-0.2784144580364227,-1.2091126441955566,0.3700474202632904,-1.1583515405654907,2.264870405197144,84.90180206298828,22.25,1
-0.352201372385025,-1.2853363752365112,0.4166039228439331,-0.671711802482605,2.26253080368042,84.97997283935547,22.25,1
-0.4219446778297424,-1.2614812850952148,0.3793078958988189,-0.015487209893763,2.2610294818878174,85.03013610839844,22.25,1
-0.4219197034835815,-1.1678036451339722,0.2546135187149048,0.4343005716800689,2.260065793991089,85.06233215332031,22.25,1
-0.3379370868206024,-1.113284468650818,0.1633962988853454,-0.0114795286208391,2.2594475746154785,85.08299255371094,22.25,1
-0.2672485411167145,-1.0726994276046753,0.1104561164975166,-1.2433555126190186,2.259050846099853,85.09625244140625,22.25,1
-0.261069118976593,-1.0242632627487185,0.0932754725217819,-2.57845401763916,2.258796215057373,85.1047592163086,22.25,1
-0.2794946134090423,-0.9819841384887696,0.0822499245405197,-3.804248809814453,2.2586326599121094,85.11022186279297,22.25,1
-0.3025145828723907,-0.9156674146652222,0.0583810396492481,-5.289495468139648,2.254855394363404,85.11372375488281,22.25,1
-0.3172874748706817,-0.828326940536499,0.0430633649230003,-7.073799133300781,2.2524313926696777,85.11597442626953,22.25,1
-0.3211700916290283,-0.7610812783241272,0.0388311371207237,-8.455312728881836,2.25087571144104,85.11741638183594,22.25,1
-0.3124662041664123,-0.7123291492462158,0.0529084615409374,-8.90839672088623,2.249877452850342,85.11833953857422,22.25,1
-0.3124783039093017,-0.6866406202316284,0.0787357985973358,-8.85881519317627,2.249236822128296,85.11893463134766,22.25,1
-0.3012905418872833,-0.6981440186500549,0.1177013963460922,-9.10285472869873,2.2488255500793457,85.11931610107422,22.25,1
-0.3109041750431061,-0.7447106838226318,0.1762939244508743,-9.857755661010742,2.2485616207122803,85.11956024169922,22.25,1
-0.328269213438034,-0.7857900261878967,0.2362863272428512,-10.173826217651367,2.248392343521118,85.11972045898438,22.25,1
-0.3506086468696594,-0.862532377243042,0.3027748763561249,-7.811538219451904,2.2519562244415283,85.11981964111328,22.27,1
-0.3929336667060852,-0.956563413143158,0.3678345084190368,-1.3372727632522583,2.2542431354522705,85.11988830566406,22.27,1
-0.4424865245819092,-1.0728847980499268,0.4599660038948059,6.923169136047363,2.25571084022522,85.11992645263672,22.27,1
-0.4630911648273468,-1.1587287187576294,0.5470795631408691,12.485774040222168,2.25665283203125,85.11995697021484,22.27,1
-0.4539229273796081,-1.1970250606536863,0.6197773218154907,13.633711814880373,2.2572572231292725,85.1199722290039,22.27,1
-0.4480392932891845,-1.1824170351028442,0.5880617499351501,12.145612716674805,2.2576451301574707,85.11997985839844,22.27,1
-0.4050790965557098,-1.1282602548599243,0.5173285603523254,9.857918739318848,2.2578940391540527,85.11998748779297,22.27,1
-0.3215319514274597,-1.0375277996063232,0.4271538555622101,7.565815925598144,2.258053779602051,85.1199951171875,22.27,1
-0.27911177277565,-0.9793009757995604,0.3636871576309204,6.198770999908447,2.258615255355835,85.1199951171875,22.27,1
-0.2686822712421417,-0.9811187982559204,0.334153413772583,6.1884636878967285,2.2589755058288574,85.1199951171875,22.27,1
-0.2619892060756683,-0.9878831505775452,0.3431892395019531,6.593845367431641,2.259206771850586,85.1199951171875,22.27,1
-0.2576939761638641,-0.9866263270378112,0.3489879071712494,6.420504093170166,2.259355068206787,85.1199951171875,22.27,1
-0.260535329580307,-0.9746242165565492,0.3135247528553009,5.703808307647705,2.2594501972198486,85.1199951171875,22.27,1
-0.2679565250873565,-0.9669219851493835,0.2739731967449188,4.570350170135498,2.2595114707946777,85.1199951171875,22.27,1
-0.3063056468963623,-0.9731746315956116,0.2150046527385711,2.553234577178955,2.2595505714416504,85.1199951171875,22.27,1
-0.3365136981010437,-0.9883828163146972,0.1603687107563018,-0.4644530415534973,2.259575843811035,85.1199951171875,22.27,1
-0.3503017127513885,-0.9981425404548644,0.130904272198677,-3.475803852081299,2.261428117752075,85.2346420288086,22.27,1
-0.347954511642456,-1.0156012773513794,0.1231912449002265,-5.329498767852783,2.262616872787476,85.30821228027344,22.27,1
-0.3408504426479339,-1.0380008220672607,0.1126436963677406,-5.895725250244141,2.263379573822021,85.35543060302734,22.27,1
-0.3194981217384338,-1.052375555038452,0.1002771109342575,-5.807692527770996,2.263869047164917,85.38572692871094,22.27,1
-0.3057954311370849,-1.022416114807129,0.0867431759834289,-5.461009502410889,2.264183282852173,85.4051742553711,22.27,1
-0.3025996088981628,-0.9807987213134766,0.0836556479334831,-4.586499214172363,2.2643847465515137,85.41764831542969,22.27,1
-0.2949509620666504,-0.9484933018684388,0.1040653511881828,-2.244749069213867,2.264514207839966,85.4256591796875,22.27,1
-0.2956402599811554,-0.9333593249320984,0.1283586770296096,2.2459194660186768,2.264597177505493,85.43080139160156,22.27,1
-0.2513004243373871,-0.890060544013977,0.2055242508649826,7.467194080352783,2.263732671737671,85.43409729003906,22.27,1
-0.1948567926883697,-0.8230894804000854,0.2494468986988067,10.36650276184082,2.2631778717041016,85.43621063232422,22.27,1
-0.1586345136165619,-0.7353290915489197,0.2944272458553314,9.547346115112305,2.262821674346924,85.43756866455078,22.27,1
-0.1577802449464798,-0.6902050971984863,0.3624774515628814,6.571176528930664,2.2625932693481445,85.43843841552734,22.27,1
-0.1684275716543197,-0.7228226065635681,0.4005503952503204,3.568556785583496,2.262446641921997,85.43899536132812,22.27,1
-0.1640648692846298,-0.8277212977409363,0.4025923311710357,1.183078408241272,2.262352466583252,85.4393539428711,22.27,1
-0.1668629050254821,-0.8782458901405334,0.3927071690559387,-0.9675698280334472,2.26229214668274,85.43958282470703,22.27,1
-0.1686585247516632,-0.888278603553772,0.3919612169265747,-3.14306378364563,2.2622532844543457,85.43973541259766,22.27,1
-0.1866041719913482,-0.9115102887153624,0.4026780426502228,-5.230607986450195,2.2640645503997803,85.43983459472656,22.27,1
-0.1925228834152221,-0.9376146197319032,0.4095554947853088,-7.1685638427734375,2.2652268409729004,85.43989562988281,22.27,1
-0.2075167149305343,-0.9655624032020568,0.4195668399333954,-9.017687797546388,2.265972852706909,85.43993377685547,22.27,1
-0.233932226896286,-0.9667043685913086,0.4651759564876556,-10.462294578552246,2.266451597213745,85.43995666503906,22.27,1
-0.2508841753005981,-0.9562416672706604,0.5056408047676086,-10.905712127685549,2.266758680343628,85.43997192382812,22.27,1
-0.2617629468441009,-0.9103429317474364,0.5428043603897095,-10.380609512329102,2.266955852508545,85.43997955322266,22.27,1
-0.2743421196937561,-0.8696922063827515,0.5666537880897522,-9.631632804870604,2.267082452774048,85.43998718261719,22.27,1
-0.2656213641166687,-0.8715937733650208,0.5595678687095642,-9.032757759094238,2.2671635150909424,85.43999481201172,22.27,1
-0.2544271051883697,-0.9175962805747986,0.5382272005081177,-7.917588710784912,2.269969940185547,85.43999481201172,22.27,1
-0.2472432851791381,-0.9639113545417786,0.5133364796638489,-5.038061618804932,2.27177095413208,85.43999481201172,22.27,1
-0.2314375787973404,-1.0048292875289917,0.4749719500541687,0.4103413224220276,2.2729268074035645,85.43999481201172,22.27,1
-0.2268921583890915,-1.0310879945755005,0.4391562342643738,7.557457447052002,2.2736685276031494,85.43999481201172,22.27,1
-0.2351707220077514,-1.109514832496643,0.3993784487247467,13.444540023803713,2.274144411087036,85.43999481201172,22.27,1
-0.268472284078598,-1.2438113689422607,0.3906446993350982,15.201958656311035,2.274449825286865,85.43999481201172,22.27,1
-0.3066366314888,-1.234833002090454,0.3626487553119659,13.00155544281006,2.2746458053588867,85.43999481201172,22.27,1
-0.370312750339508,-1.1171156167984009,0.2607159614562988,9.51156997680664,2.2747716903686523,85.43999481201172,22.27,1
-0.416774183511734,-1.058364748954773,0.1785080432891845,6.824075698852539,2.281738042831421,85.5295639038086,22.27,1
-0.4409926831722259,-1.0766395330429075,0.1201539635658264,5.206873893737793,2.2862088680267334,85.58704376220703,22.27,1
-0.4285458624362945,-1.0995627641677856,0.0771078988909721,4.12605619430542,2.2890779972076416,85.62393188476562,22.27,1
-0.409362643957138,-1.1142736673355105,0.04948341101408,3.031201124191284,2.290919065475464,85.6476058959961,22.27,1
-0.4026497304439544,-1.15730082988739,0.0373533777892589,1.5332542657852173,2.292100667953491,85.66279602050781,22.27,1
-0.3927440047264099,-1.1961088180541992,0.0351667962968349,-0.3738417625427246,2.292858839035034,85.67254638671875,22.27,1
-0.3807893097400665,-1.2098180055618286,0.0281658004969358,-2.23182225227356,2.2933454513549805,85.67880249023438,22.27,1
-0.3787152469158172,-1.2130179405212402,0.0236729644238948,-3.470740556716919,2.2936577796936035,85.68281555175781,22.27,1
-0.3717864453792572,-1.215071439743042,0.0151919461786746,-3.95054030418396,2.291562795639038,85.68538665771484,22.27,1
-0.3561443984508514,-1.2107915878295898,0.0041515422053635,-4.133058071136475,2.2902183532714844,85.68704223632812,22.27,1
-0.3405084609985351,-1.2024471759796145,-0.0029335534200072,-4.440063953399658,2.289355516433716,85.68810272216797,22.27,1
-0.3304742276668548,-1.1970922946929932,0.0093129631131887,-4.697986602783203,2.288801908493042,85.68878173828125,22.27,1
-0.3240348100662231,-1.1880580186843872,0.0395631678402423,-4.455092906951904,2.2884466648101807,85.68921661376953,22.27,1
-0.3143045902252197,-1.182260274887085,0.0757693350315094,-3.672266960144043,2.2882184982299805,85.68949890136719,22.27,1
-0.2744736671447754,-1.1505508422851562,0.1437865644693374,-2.829549551010132,2.288072109222412,85.68968200683594,22.27,1
-0.2433146983385086,-1.1134082078933716,0.2098271995782852,-2.4356276988983154,2.287978172302246,85.6897964477539,22.27,1
-0.150547593832016,-1.0615832805633545,0.2969904839992523,-2.580497026443481,2.2929675579071045,85.68987274169922,22.29,1
-0.0182439386844635,-0.9723473191261292,0.3305357694625854,-2.924246311187744,2.2961695194244385,85.6899185180664,22.29,1
0.0834542587399482,-0.8982874751091003,0.3744542896747589,-2.9334728717803955,2.298224210739136,85.68994903564453,22.29,1
0.1263272017240524,-0.7611957788467407,0.4530186355113983,-2.351851463317871,2.2995429039001465,85.68997192382812,22.29,1
0.0978628471493721,-0.684413731098175,0.4922411739826202,-1.4447965621948242,2.300389051437378,85.68997955322266,22.29,1
0.0404116474092006,-0.7135083079338074,0.4950208365917206,-0.6584941148757935,2.300932168960572,85.68998718261719,22.29,1
0.00354277016595,-0.7881572246551514,0.5024024248123169,-0.1503078788518905,2.3012807369232178,85.68999481201172,22.29,1
-0.0257153268903493,-0.8360626101493835,0.5015417337417603,0.1722342371940612,2.301504373550415,85.68999481201172,22.29,1
-0.0612848103046417,-0.8724033236503601,0.4953916072845459,0.4902830123901367,2.306238174438477,85.68999481201172,22.29,1
-0.1009045839309692,-0.9181157946586608,0.4914448261260986,1.016820192337036,2.3092761039733887,85.68999481201172,22.29,1
-0.1711124628782272,-0.9810380935668944,0.4665209054946899,1.7273093461990356,2.311225652694702,85.68999481201172,22.29,1
-0.2721455693244934,-1.0326135158538818,0.4337328374385834,2.315815687179565,2.312476873397827,85.68999481201172,22.29,1
-0.3257872760295868,-1.04891836643219,0.4182891249656677,2.64691162109375,2.313279867172241,85.68999481201172,22.29,1
-0.3042337000370025,-1.003404140472412,0.3859871327877044,2.966867208480835,2.31379508972168,85.68999481201172,22.29,1
-0.2680107355117798,-0.9518046379089355,0.3708553612232208,3.4838802814483643,2.3141257762908936,85.68999481201172,22.29,1
-0.2335693836212158,-0.901897668838501,0.3891335427761078,4.012711524963379,2.314337968826294,85.68999481201172,22.29,1
-0.2394557744264602,-0.881065845489502,0.4176567494869232,4.226694583892822,2.3163106441497803,85.7759780883789,22.29,1
-0.2488310933113098,-0.8844904899597168,0.4359613060951233,4.174139976501465,2.3175764083862305,85.83116149902344,22.29,1
-0.2604454159736633,-0.9258726239204408,0.4309147894382477,4.5165839195251465,2.318388700485229,85.86656951904297,22.29,1
-0.2623010277748108,-0.9692226648330688,0.4108828902244568,5.735883712768555,2.3189101219177246,85.88929748535156,22.29,1
-0.2411007732152938,-1.0250310897827148,0.375636488199234,7.030668258666992,2.319244623184204,85.90387725830078,22.29,1
-0.2274956703186035,-1.094432353973389,0.3474195897579193,6.83338737487793,2.3194594383239746,85.91323852539062,22.29,1
-0.2467535585165023,-1.166958928108215,0.3293116092681885,4.757862567901611,2.319597244262696,85.91924285888672,22.29,1
-0.2871010303497314,-1.1799156665802002,0.3064953982830047,1.9964624643325808,2.319685697555542,85.923095703125,22.29,1
-0.3073959648609161,-1.126655101776123,0.2750599384307861,-0.3452745974063873,2.324791669845581,85.92556762695312,22.29,1
-0.3148222863674164,-1.0420955419540403,0.2268976122140884,-2.1310901641845703,2.328068256378174,85.92715454101562,22.29,1
-0.3475769460201263,-1.0158189535140991,0.1959898024797439,-3.3810184001922607,2.3301711082458496,85.92817687988281,22.29,1
-0.3741947710514068,-1.0213472843170166,0.1817527115345001,-3.910874843597412,2.3315205574035645,85.9288330078125,22.29,1
-0.3912765681743622,-1.0640794038772583,0.1614206284284591,-3.9069788455963135,2.3323864936828613,85.92925262451172,22.29,1
-0.4022386968135834,-1.1138935089111328,0.1483726650476455,-3.8794004917144775,2.332942247390747,85.92951965332031,22.29,1
-0.3924802243709564,-1.173850178718567,0.1399992257356643,-4.1017351150512695,2.333298921585083,85.92969512939453,22.29,1
-0.352631151676178,-1.2011314630508425,0.129027858376503,-4.588343620300293,2.3335278034210205,85.92980194091797,22.29,1
-0.315862774848938,-1.2130411863327026,0.1219870746135711,-5.305452346801758,2.3322975635528564,85.92987060546875,22.29,1
-0.2698758542537689,-1.1926952600479126,0.1118709295988082,-6.113161087036133,2.331508159637451,85.92991638183594,22.29,1
-0.2347663044929504,-1.1628451347351074,0.105378970503807,-6.674492835998535,2.3310015201568604,85.92994689941406,22.29,1
-0.2178327888250351,-1.1212979555130005,0.1012128069996833,-6.68004846572876,2.330676317214966,85.92996978759766,22.29,1
-0.2293569296598434,-1.0610487461090088,0.0817458778619766,-6.070993423461914,2.330467700958252,85.92997741699219,22.29,1
-0.24794802069664,-1.0055909156799316,0.0636553466320037,-4.9707865715026855,2.330333948135376,85.92998504638672,22.29,1
-0.2822698056697845,-0.9588057398796082,0.0408503375947475,-3.494483470916748,2.3302481174468994,85.92999267578125,22.29,1
-0.2930999994277954,-0.9287816882133484,0.037410944700241,-1.8950486183166504,2.330193042755127,85.92999267578125,22.29,1
-0.2440724521875381,-0.915111780166626,0.0743881613016128,-0.7145724892616272,2.334289073944092,85.92999267578125,22.29,1
-0.1790227442979812,-0.9231325387954712,0.137302428483963,-0.3367639183998108,2.3369176387786865,85.92999267578125,22.29,1
-0.1204842701554298,-0.9282798171043396,0.1888727396726608,-0.4704785645008087,2.33860445022583,85.92999267578125,22.29,1
-0.0325376763939857,-0.8868008255958557,0.2219675928354263,-0.4810548424720764,2.339686870574951,85.92999267578125,22.29,1
0.0294991601258516,-0.8433886766433716,0.2711948454380035,0.049544233828783,2.340381622314453,85.92999267578125,22.29,1
0.0749086067080497,-0.8379203677177429,0.3531660139560699,1.2140445709228516,2.340827465057373,85.92999267578125,22.29,1
0.0816586762666702,-0.8791933059692383,0.4057703912258148,2.814006805419922,2.341113567352295,85.92999267578125,22.29,1
0.0747949331998825,-0.939266562461853,0.4339310824871063,4.30650520324707,2.341297149658203,85.92999267578125,22.29,1
0.0703901797533035,-1.044991374015808,0.4408074617385864,5.095923900604248,2.34279203414917,86.0052261352539,22.29,1
0.0619656890630722,-1.1016439199447632,0.4452203214168548,5.133209705352783,2.3437514305114746,86.05351257324219,22.29,1
0.011777140200138,-1.1100114583969116,0.4760411083698272,4.942183494567871,2.344367027282715,86.0844955444336,22.29,1
-0.0652131736278534,-1.0873923301696775,0.5126134157180786,4.769437789916992,2.344762086868286,86.10437774658203,22.29,1
-0.1202189028263092,-1.05608332157135,0.5248878598213196,4.207174777984619,2.34501576423645,86.11714172363281,22.29,1
-0.1611161828041076,-1.0135999917984009,0.5103738307952881,3.0725104808807373,2.345178365707397,86.12532806396484,22.29,1
-0.1985572576522827,-0.9751410484313964,0.4786684513092041,2.0613248348236084,2.345282793045044,86.13058471679688,22.29,1
-0.2561714351177215,-0.933667004108429,0.4247351288795471,1.885303974151612,2.3453497886657715,86.13395690917969,22.29,1
-0.3155359923839569,-0.8734647035598755,0.3789282739162445,2.2524092197418213,2.3495242595672607,86.13612365722656,22.29,1
-0.3536327481269836,-0.8404281139373779,0.3551298379898071,2.359023332595825,2.352203130722046,86.13751220703125,22.29,1
-0.3836788237094879,-0.8696070909500122,0.3622484803199768,2.001115560531616,2.353922367095948,86.1384048461914,22.29,1
-0.3973628878593445,-0.9107235670089722,0.3724145889282226,1.585137128829956,2.3550257682800293,86.13897705078125,22.29,1
-0.4229378700256347,-0.9930874705314636,0.3901341557502746,1.4220807552337646,2.355733871459961,86.13934326171875,22.29,1
-0.4169593155384063,-1.0571393966674805,0.3959077894687652,1.4428308010101318,2.3561882972717285,86.13957977294922,22.29,1
-0.3851337432861328,-1.098244309425354,0.3492330014705658,1.312843918800354,2.3564798831939697,86.13973236083984,22.29,1
-0.3143299520015716,-1.1750030517578125,0.3080842494964599,0.6920394897460938,2.3566670417785645,86.13983154296875,22.29,1
-0.2856854796409607,-1.2410557270050049,0.3096662163734436,-0.3476381301879883,2.3581643104553223,86.139892578125,22.25,1
-0.2505097985267639,-1.210673451423645,0.3442680835723877,-1.3480229377746582,2.3591251373291016,86.13993072509766,22.25,1
-0.1887516379356384,-1.196773648262024,0.3384847044944763,-2.068828821182251,2.359741687774658,86.13995361328125,22.25,1
-0.1827054619789123,-1.1990491151809692,0.2675999701023102,-2.5349831581115723,2.360137224197388,86.13996887207031,22.25,1
0.0170967373996973,-1.2564871311187744,0.2333057820796966,-2.594101667404175,2.360391139984131,86.13997650146484,22.25,1
0.2684693038463592,-1.2373697757720947,0.2896665930747986,-2.205713987350464,2.3605542182922363,86.13998413085938,22.25,1
0.2562547624111175,-1.1075481176376345,0.320237934589386,-1.8525744676589968,2.360658884048462,86.1399917602539,22.25,1
0.1812428832054138,-1.0354315042495728,0.4070301651954651,-1.844486951828003,2.360725879669189,86.1399917602539,22.25,1
-0.0068397871218621,-0.9723579287528992,0.4011528789997101,-1.796306014060974,2.362605333328247,86.1399917602539,22.25,1
-0.088356003165245,-0.9206854104995728,0.3470012247562408,-1.4071286916732788,2.363811492919922,86.1399917602539,22.25,1
-0.1350706368684768,-0.8595360517501831,0.2898586988449096,-1.0713952779769895,2.3645856380462646,86.1399917602539,22.25,1
-0.1650494039058685,-0.8258917331695557,0.2307968288660049,-1.2428590059280396,2.365082263946533,86.1399917602539,22.25,1
-0.1618969440460205,-0.8043007254600525,0.2096876353025436,-1.8293771743774407,2.365401029586792,86.1399917602539,22.25,1
-0.1486783325672149,-0.7960426211357117,0.2129343003034591,-2.521037340164185,2.365605592727661,86.1399917602539,22.25,1
-0.1234020665287971,-0.796340823173523,0.2318111360073089,-3.129703521728516,2.365736961364746,86.1399917602539,22.25,1
-0.1183767616748809,-0.8021299839019775,0.2383274286985397,-3.5023975372314453,2.365821123123169,86.1399917602539,22.25,1
-0.1319451332092285,-0.8450295329093933,0.2425092160701751,-3.601850748062134,2.3580713272094727,86.20089721679688,22.25,1
-0.1406525373458862,-0.9341354966163636,0.2283995300531387,-3.644178628921509,2.353097915649414,86.23998260498047,22.25,1
-0.1462404429912567,-1.052894115447998,0.213746964931488,-3.811062812805176,2.349906206130981,86.26506805419922,22.25,1
-0.1890108585357666,-1.2130731344223022,0.1931482404470443,-3.968315362930298,2.34785795211792,86.28116607666016,22.25,1
-0.2332517802715301,-1.2766823768615725,0.1967224925756454,-3.8112854957580566,2.346543550491333,86.29149627685547,22.25,1
-0.3008274734020233,-1.216743230819702,0.2437984347343444,-3.2519431114196777,2.345700025558472,86.29812622070312,22.25,1
-0.3385958969593048,-1.1558866500854492,0.2012379914522171,-2.477410793304444,2.345158576965332,86.30237579345703,22.25,1
-0.3180513083934784,-1.1336257457733154,0.1459362804889679,-1.640015721321106,2.344811201095581,86.30510711669922,22.25,1
-0.2600847780704498,-1.1249377727508545,0.0936535075306892,-0.6619669198989868,2.348719835281372,86.3068618774414,22.25,1
-0.2452762871980667,-1.136155605316162,0.0656992048025131,0.5783089399337769,2.3512279987335205,86.3079833984375,22.25,1
-0.2749574780464172,-1.1041702032089231,0.0533575154840946,1.9008851051330569,2.352837562561035,86.30870819091797,22.25,1
-0.2940051555633545,-1.0500571727752686,0.0286440085619688,2.835620403289795,2.3538706302642822,86.30917358398438,22.25,1
-0.3062288463115692,-1.0041348934173584,0.0071865264326334,3.073639392852783,2.354533433914185,86.3094711303711,22.25,1
-0.3308666348457336,-0.9242846965789796,-0.0121814236044883,2.5242013931274414,2.3549587726593018,86.30966186523438,22.25,1
-0.3466777503490448,-0.856248140335083,-0.0190128851681947,1.0681705474853516,2.355231761932373,86.30978393554688,22.25,1
-0.3456288576126098,-0.8013905882835388,-0.0122013753280043,-1.1595361232757568,2.3554069995880127,86.30986022949219,22.25,1
-0.3393579721450805,-0.7717839479446411,0.0033654088620096,-3.531367540359497,2.35689663887024,86.30990600585938,22.29,1
-0.3185403645038605,-0.7975663542747498,0.035746369510889,-5.52278995513916,2.3578526973724365,86.3099365234375,22.29,1
-0.3107785880565643,-0.8588941693305969,0.0565266087651252,-6.854508399963379,2.358466148376465,86.3099594116211,22.29,1
-0.3169930577278137,-0.8926530480384827,0.0698621720075607,-6.627191066741943,2.358859777450561,86.30997467041016,22.29,1
-0.3601655662059784,-0.9479042291641236,0.0952134877443313,-3.765719413757324,2.359112501144409,86.30998229980469,22.29,1
-0.4102623164653778,-1.0001546144485474,0.122678056359291,1.3056741952896118,2.3592746257781982,86.30998992919922,22.29,1
-0.4536070823669433,-1.0448814630508425,0.1794876605272293,6.838720798492432,2.3593785762786865,86.30998992919922,22.29,1
-0.4982165694236755,-1.0735845565795898,0.2719225287437439,11.31381607055664,2.359445333480835,86.30998992919922,22.29,1
-0.5380399227142334,-1.136786699295044,0.3648285567760467,14.03520679473877,2.359947204589844,86.30998992919922,22.29,1
-0.5076184868812561,-1.1269662380218506,0.463634729385376,14.964810371398926,2.36026930809021,86.30998992919922,22.29,1
-0.4433135986328125,-1.042295217514038,0.5102494955062866,14.497352600097656,2.360476016998291,86.30998992919922,22.29,1
-0.3404708802700043,-1.0047515630722046,0.5121753215789795,12.968541145324709,2.3606085777282715,86.30998992919922,22.29,1
-0.246483489871025,-1.047831416130066,0.5022156238555908,10.654720306396484,2.3606936931610107,86.30998992919922,22.29,1
-0.1861677914857864,-1.103466510772705,0.4902262985706329,8.29211139678955,2.360748291015625,86.30998992919922,22.29,1
-0.1642539650201797,-1.1335721015930176,0.4657389223575592,6.539475440979004,2.360783338546753,86.30998992919922,22.29,1
-0.161386489868164,-1.1752833127975464,0.4500243365764618,5.124546051025391,2.3608057498931885,86.30998992919922,22.29,1
-0.131557434797287,-1.2076488733291626,0.4399396181106567,3.3710379600524902,2.361279487609864,86.37805938720703,22.29,1
-0.1236104071140289,-1.2116259336471558,0.4278700649738312,1.1852949857711792,2.3615834712982178,86.42174530029297,22.29,1
-0.135303795337677,-1.1917871236801147,0.4089289605617523,-1.0234686136245728,2.361778497695923,86.44978332519531,22.29,1
-0.081232413649559,-1.1230779886245728,0.3911758661270141,-2.8636698722839355,2.361903667449951,86.4677734375,22.29,1
-0.0521302856504917,-1.0565932989120483,0.3797829747200012,-4.030274868011475,2.3619840145111084,86.47931671142578,22.29,1
-0.0446497648954391,-0.9691449999809264,0.3500805795192718,-4.341860294342041,2.3620355129241943,86.48672485351562,22.29,1
-0.0286536496132612,-0.879439115524292,0.3142259418964386,-4.015179634094238,2.362068653106689,86.4914779663086,22.29,1
-0.0295838117599487,-0.8218710422515869,0.2800209522247314,-3.479520320892334,2.362089872360229,86.4945297241211,22.29,1
-0.0357785113155841,-0.7793293595314026,0.2636679410934448,-2.7166035175323486,2.3588900566101074,86.49649047851562,22.29,1
-0.0285583641380071,-0.740833044052124,0.2699668407440185,-1.3922673463821411,2.3568365573883057,86.49774932861328,22.29,1
-0.0463159866631031,-0.7161282896995544,0.2964002192020416,0.220703974366188,2.355518579483032,86.4985580444336,22.29,1
-0.0801029056310653,-0.7506541609764099,0.2965703010559082,1.3489630222320557,2.354672908782959,86.49907684326172,22.29,1
-0.1073831766843795,-0.8399841785430908,0.2742883563041687,1.7111746072769165,2.354130268096924,86.49940490722656,22.29,1
-0.1752700507640838,-1.0708420276641846,0.2431957721710205,1.467138648033142,2.3537819385528564,86.49961853027344,22.29,1
-0.263618141412735,-1.191004514694214,0.2456334382295608,0.6119281649589539,2.353558301925659,86.499755859375,22.29,1
-0.3147170841693878,-1.22333562374115,0.2304044663906097,-0.6820724606513977,2.35341477394104,86.49983978271484,22.29,1
-0.2859339118003845,-1.216094970703125,0.1646536439657211,-1.7740155458450315,2.357454299926758,86.4999008178711,22.27,1
-0.2506692111492157,-1.233839511871338,0.1112630069255828,-2.3995277881622314,2.360046625137329,86.49993896484375,22.27,1
-0.1944517195224762,-1.234031319618225,0.0769999697804451,-2.983656883239746,2.3617100715637207,86.49996185302734,22.27,1
-0.1751678884029388,-1.2117633819580078,0.0550119243562221,-3.809921741485596,2.362777709960937,86.4999771118164,22.27,1
-0.1963792890310287,-1.1638864278793335,0.0409012623131275,-4.716341495513916,2.3634629249572754,86.49998474121094,22.27,1
-0.2379804104566574,-1.0827817916870115,0.0262480750679969,-5.631208896636963,2.3639025688171387,86.49999237060547,22.27,1
-0.2702753841876983,-1.0027446746826172,0.0168445035815238,-6.5658278465271,2.364184617996216,86.49999237060547,22.27,1
-0.2910004556179046,-0.9121969938278198,0.0108098331838846,-7.251594543457031,2.364365816116333,86.49999237060547,22.27,1
-0.2987028360366821,-0.842893123626709,0.0125349033623933,-7.516133785247803,2.359891653060913,86.49999237060547,22.27,1
-0.3036457598209381,-0.792820155620575,0.0248375032097101,-7.635743618011475,2.357020378112793,86.49999237060547,22.27,1
-0.3124156296253204,-0.7830772995948792,0.0439281538128852,-7.819979667663574,2.355177640914917,86.49999237060547,22.27,1
-0.3292391896247864,-0.7880204319953918,0.0729727521538734,-7.848647594451904,2.353995084762573,86.49999237060547,22.27,1
-0.3456333577632904,-0.8135837316513062,0.125198557972908,-7.691498756408691,2.353236198425293,86.49999237060547,22.27,1
-0.3561541736125946,-0.8411843776702881,0.1811051666736602,-7.655136108398437,2.352749347686768,86.49999237060547,22.27,1
-0.3629058301448822,-0.8924834728240967,0.2561672329902649,-7.398933410644531,2.352436780929565,86.49999237060547,22.27,1
-0.3560431003570556,-0.9813820719718932,0.3267288506031036,-5.737000465393066,2.352236270904541,86.49999237060547,22.27,1
-0.3404434621334076,-1.049627661705017,0.3776090145111084,-1.997866153717041,2.353484630584717,86.56448364257812,22.27,1
-0.3136391937732696,-1.1046192646026611,0.4438475966453552,3.0850441455841064,2.354285717010498,86.60586547851562,22.27,1
-0.3188288509845733,-1.1623008251190186,0.5143445730209351,7.769246101379394,2.35479998588562,86.6324234008789,22.27,1
-0.3277570307254791,-1.1825242042541504,0.5875743627548218,10.234328269958496,2.3551299571990967,86.64946746826172,22.27,1
-0.3054977655410766,-1.0667535066604614,0.5785912871360779,9.820781707763672,2.355341672897339,86.66040802001953,22.27,1
-0.2576263844966888,-0.9924585819244384,0.56163090467453,7.839337348937988,2.3554775714874268,86.66742706298828,22.27,1
-0.2436986267566681,-1.0511380434036257,0.4947689771652221,6.316980361938477,2.355564832687378,86.67192840576172,22.27,1
-0.1899783909320831,-1.150370717048645,0.4406652748584747,5.934726715087891,2.355620861053467,86.67481994628906,22.27,1
-0.1107216477394104,-1.225248098373413,0.4227379560470581,5.947363376617432,2.3551974296569824,86.67667388916016,22.27,1
-0.0766525566577911,-1.2005289793014526,0.4000377058982849,5.586467742919922,2.354925632476806,86.67786407470703,22.27,1
-0.0883756205439567,-1.173470139503479,0.3686766624450683,4.724332332611084,2.3547513484954834,86.67862701416016,22.27,1
-0.0847032591700553,-1.1057254076004028,0.348550945520401,3.536947727203369,2.3546395301818848,86.67911529541016,22.27,1
-0.1047376468777656,-1.045457363128662,0.3244398832321167,2.1802451610565186,2.354567766189575,86.67943572998047,22.27,1
-0.1511812061071396,-0.973194181919098,0.2753801345825195,0.8295263648033142,2.3545217514038086,86.67964172363281,22.27,1
-0.1809860169887542,-0.9268198013305664,0.2271030843257904,-0.2880675494670868,2.3544921875,86.67977142333984,22.27,1
-0.1889174729585647,-0.8858638405799866,0.2017194330692291,-1.051848530769348,2.354473114013672,86.67985534667969,22.27,1
-0.1772141009569168,-0.8371896147727966,0.196625217795372,-1.4739302396774292,2.352624893188477,86.6799087524414,22.27,1
-0.1641057729721069,-0.7947577238082886,0.1989538073539734,-1.5262608528137207,2.3514387607574463,86.67993927001953,22.27,1
-0.1444980651140213,-0.7451362609863281,0.217241495847702,-1.1478474140167236,2.350677490234375,86.67996215820312,22.27,1
-0.1599038392305374,-0.7412809729576111,0.2289774715900421,-0.4249382615089416,2.350188970565796,86.67997741699219,22.27,1
-0.1697903722524643,-0.7556001543998718,0.2477045059204101,0.4688921868801117,2.3498754501342773,86.67998504638672,22.27,1
-0.1705372035503387,-0.8151693940162659,0.265320211648941,1.228795051574707,2.349674224853516,86.67999267578125,22.27,1
-0.1710164844989776,-0.8925818800926208,0.2766249477863312,1.4370161294937134,2.3495452404022217,86.67999267578125,22.27,1
-0.2049106955528259,-1.0318251848220823,0.3118685483932495,1.00817608833313,2.3494622707366943,86.67999267578125,22.27,1
-0.2714442610740661,-1.1155856847763062,0.4184524714946747,0.3782961964607239,2.3494091033935547,86.67999267578125,22.27,1
-0.3085438907146454,-1.1133606433868408,0.4868519008159637,-0.0474199019372463,2.349375009536743,86.67999267578125,22.27,1
-0.2651790082454681,-1.050357222557068,0.4355845749378204,-0.3170374035835266,2.349353075027466,86.67999267578125,22.27,1
-0.209361046552658,-1.0435118675231934,0.369097501039505,-0.8017464280128479,2.349339008331299,86.67999267578125,22.27,1
-0.1455514132976532,-1.072705626487732,0.3208321332931518,-1.825737476348877,2.349329948425293,86.67999267578125,22.27,1
-0.1493842601776123,-1.0410605669021606,0.2954559922218323,-3.2602946758270264,2.3493242263793945,86.67999267578125,22.27,1
-0.1798328310251236,-1.0039591789245603,0.2903665900230407,-4.542751312255859,2.349320650100708,86.67999267578125,22.27,1
-0.2609484791755676,-0.9465630054473876,0.2926982641220093,-5.394418716430664,2.349318265914917,86.67999267578125,22.27,1
-0.3297971785068512,-0.887338399887085,0.2885968387126922,-6.12009859085083,2.349775552749634,86.73731231689453,22.27,1
-0.373980313539505,-0.8381358981132507,0.2803670167922973,-6.944055557250977,2.350069046020508,86.77410125732422,22.27,1
-0.3799434006214142,-0.8233538866043091,0.2918789088726043,-7.569553375244141,2.350257396697998,86.7977066040039,22.27,1
-0.3725746273994446,-0.8138676285743713,0.3104621171951294,-7.576878547668457,2.3503782749176025,86.81285858154297,22.27,1
-0.3454546630382538,-0.802182137966156,0.3391810655593872,-6.836403846740723,2.3504559993743896,86.82257843017578,22.27,1
-0.3224528431892395,-0.8114763498306274,0.368806779384613,-5.436905384063721,2.350505828857422,86.82881927490234,22.27,1
-0.3076916038990021,-0.8510274887084961,0.399014413356781,-3.5070059299468994,2.350537776947021,86.83282470703125,22.27,1
-0.3094142377376556,-0.9099957942962646,0.3960088491439819,-0.9035460948944092,2.350558280944824,86.83539581298828,22.27,1
-0.3105197250843048,-0.9590337872505188,0.3828845024108886,2.9418280124664307,2.351948499679565,86.83704376220703,22.27,1
-0.3000336289405823,-1.0072969198226929,0.3632664978504181,7.895875453948975,2.3528406620025635,86.83810424804688,22.27,1
-0.2933042645454407,-1.0662583112716677,0.3506768047809601,12.103296279907228,2.353413343429565,86.83878326416016,22.27,1
-0.3113768398761749,-1.120889663696289,0.3369996845722198,13.53156280517578,2.353780746459961,86.83921813964844,22.27,1
-0.3229747712612152,-1.1671444177627563,0.3170269429683685,12.237692832946776,2.3540165424346924,86.8395004272461,22.27,1
-0.319222092628479,-1.135252594947815,0.2818184792995453,9.69130802154541,2.354167938232422,86.83967590332031,22.27,1
-0.3056183159351349,-1.0084284543991089,0.2144415229558944,6.80328369140625,2.354264974594116,86.83979034423828,22.27,1
-0.3080837428569793,-0.9214422702789308,0.1600073277950287,3.993367910385132,2.354327440261841,86.8398666381836,22.27,1
-0.3320569992065429,-0.9215973019599916,0.1250745952129364,1.8318681716918943,2.3580398559570312,86.83991241455078,22.29,1
-0.3698327541351318,-0.9776745438575744,0.1194500997662544,0.5558019280433655,2.360422372817993,86.8399429321289,22.29,1
-0.3884772956371307,-1.0248572826385498,0.1214383915066719,-0.1842872053384781,2.3619513511657715,86.8399658203125,22.29,1
-0.3780511915683746,-1.071929693222046,0.117116592824459,-0.7774588465690613,2.3629324436187744,86.83997344970703,22.29,1
-0.3601647615432739,-1.1077358722686768,0.1087453365325927,-1.4483108520507812,2.3635621070861816,86.83998107910156,22.29,1
-0.3262951672077179,-1.1251164674758911,0.0921775922179222,-2.373220682144165,2.363966226577759,86.8399887084961,22.29,1
-0.2877663075923919,-1.1082813739776611,0.0815453678369522,-3.51849102973938,2.3642256259918213,86.8399887084961,22.29,1
-0.263040691614151,-1.0806843042373655,0.0747222229838371,-4.604552268981934,2.364392042160034,86.8399887084961,22.29,1
-0.2471732199192047,-1.0517785549163818,0.0759412944316864,-5.190463542938232,2.3649580478668213,86.8399887084961,22.29,1
-0.2369903922080993,-1.0276306867599487,0.082321397960186,-4.961012840270996,2.365321397781372,86.8399887084961,22.29,1
-0.2360534071922302,-1.0065362453460691,0.0864157825708389,-4.183230876922607,2.3655545711517334,86.8399887084961,22.29,1
