acc_x,acc_y,acc_z,bvp,eda,hr,temp,label
0.0,0.0,0.0,0.0,0.0,0.0,27.75,2
-0.0494791641831398,-0.1536458283662796,0.0338541641831398,17.10833168029785,0.3097274899482727,13.833332061767578,27.75,2
-0.1158536598086357,-0.3597561120986938,0.0792682915925979,42.12975692749024,0.7252156734466553,32.39024353027344,27.75,2
-0.1686046570539474,-0.5390365719795227,0.1187707632780075,64.55428314208984,1.0866187810897827,48.53156280517578,27.75,2
-0.2231039553880691,-0.6805077195167542,0.1529281437397003,80.55545806884766,1.350281834602356,60.307525634765625,27.75,2
-0.19412562251091,-0.7707999348640442,0.1760541349649429,90.88651275634766,1.5287928581237793,68.28034973144531,27.75,2
-0.225089356303215,-0.8355976939201355,0.196781188249588,98.10231018066406,1.64592182636261,73.51166534423828,27.75,2
-0.133556380867958,-0.91661936044693,0.215784415602684,104.28606414794922,1.72178053855896,76.89973449707031,27.75,2
-0.2422986328601837,-0.9073193073272704,0.1553535014390945,110.51626586914062,1.7312222719192505,79.08222961425781,27.75,2
-0.2842186689376831,-0.9405043125152588,0.1500798612833023,116.74063873291016,1.737290859222412,80.48501586914062,27.75,2
-0.3167342841625213,-0.933831751346588,0.1410968750715255,120.87732696533205,1.7411878108978271,81.38581848144531,27.75,2
-0.320814698934555,-0.9407430291175842,0.1409278362989425,120.47349548339844,1.7436892986297607,81.96405792236328,27.75,2
-0.3290311098098755,-0.9395812153816224,0.1352217942476272,115.74342346191406,1.7452948093414309,82.33517456054688,27.75,2
-0.339901864528656,-0.938835620880127,0.131559818983078,108.59149169921876,1.7463252544403076,82.57334899902344,27.75,2
-0.3412804901599884,-0.932759404182434,0.1292097270488739,98.83208465576172,1.7469865083694458,82.7261962890625,27.75,2
-0.3421652019023895,-0.934457778930664,0.1277015656232834,85.23550415039062,1.7474108934402466,82.82428741455078,27.75,2
-0.3427329659461975,-0.935547649860382,0.1323314756155014,67.16304016113281,1.7293211221694946,82.88723754882812,27.75,2
-0.3430973291397095,-0.9362471103668212,0.1353026926517486,43.7426643371582,1.717712163925171,82.9276351928711,27.75,2
-0.3489289283752441,-0.9366959929466248,0.1372094452381134,14.318022727966309,1.7102621793746948,82.95355987548828,27.75,2
-0.3470735251903534,-0.9313862323760986,0.1384330987930297,-17.90653419494629,1.7054811716079712,82.97019958496094,27.75,2
-0.3458828330039978,-0.93357652425766,0.1448161453008651,-46.28535842895508,1.7024129629135132,82.98087310791016,27.75,2
-0.3507165014743805,-0.9349821209907532,0.1489124149084091,-67.5746841430664,1.700443983078003,82.98772430419922,27.75,2
-0.3482207059860229,-0.935884177684784,0.1571389287710189,-83.2718505859375,1.6991804838180542,82.99211883544922,27.75,2
-0.3410212695598602,-0.9420608282089232,0.1624182313680648,-97.26114654541016,1.6983696222305298,82.99494171142578,27.75,2
-0.3419988453388214,-0.9460246562957764,0.1658061891794204,-109.89647674560548,1.685914158821106,82.99675750732422,27.75,2
-0.337028443813324,-0.9429706335067748,0.1679803878068924,-120.26570892333984,1.6779210567474363,82.99791717529297,27.75,2
-0.3338387310504913,-0.9410107135772704,0.1637778878211975,-129.1842803955078,1.6727914810180664,82.99866485595703,27.75,2
-0.3317917585372925,-0.9453507661819458,0.1610809713602066,-139.822998046875,1.6694996356964111,82.9991455078125,27.75,2
-0.3304781019687652,-0.9481359720230104,0.1593502461910247,-153.47511291503906,1.6673871278762815,82.99945068359375,27.75,2
-0.3240373134613037,-0.9443255662918092,0.1526417881250381,-166.10543823242188,1.6660313606262207,82.99964904785156,27.75,2
-0.3199039697647095,-0.9474780559539796,0.1427389085292816,-176.04872131347656,1.665161371231079,82.99977111816406,27.75,2
-0.317251443862915,-0.949501097202301,0.1363838165998459,-186.1735382080078,1.6646029949188232,82.9998550415039,27.75,2
-0.3155491948127746,-0.9452016353607178,0.1323054730892181,-202.2257843017578,1.6679168939590454,80.3738784790039,27.75,2
-0.3144567906856537,-0.9424424767494202,0.1296882331371307,-220.6309814453125,1.6700435876846311,78.68867492675781,27.75,2
-0.3193535208702087,-0.9406718015670776,0.128008633852005,-235.5950469970703,1.6714082956314087,77.60720825195312,27.75,2
-0.3224959671497345,-0.9395354986190796,0.1269307732582092,-243.62538146972656,1.6722841262817385,76.9131851196289,27.75,2
-0.3245126008987427,-0.9388062953948976,0.1262390613555908,-216.22390747070312,1.6728461980819702,76.46780395507812,27.75,2
-0.3314045369625091,-0.9383382797241212,0.1257951557636261,-152.4669952392578,1.6732069253921509,76.1819839477539,27.75,2
-0.3358273804187774,-0.9324401617050172,0.1255102902650833,-77.4023666381836,1.6734384298324585,75.9985580444336,27.75,2
-0.3498612642288208,-0.9342528581619264,0.130925253033638,-10.335704803466797,1.6735869646072388,75.88085174560547,27.75,2
-0.3644651770591736,-0.924220621585846,0.134400263428688,36.2756462097168,1.6709280014038086,75.80531311035156,27.87,2
-0.3794349133968353,-0.9177824854850768,0.1310325413942337,50.95860290527344,1.6692216396331787,75.7568359375,27.87,2
-0.3890416324138641,-0.9080531001091005,0.123273566365242,42.18179321289063,1.6681265830993652,75.72572326660156,27.87,2
-0.3952066600322723,-0.8850160241127014,0.107098750770092,35.33126449584961,1.6674238443374634,75.70575714111328,27.87,2
-0.4047608077526092,-0.8870254755020142,0.1023164615035057,52.176082611083984,1.6669728755950928,75.69294738769531,27.87,2
-0.4332831799983978,-0.8995105624198914,0.0824541375041008,89.00994873046875,1.6666834354400637,75.68472290039062,27.87,2
-0.4459894299507141,-0.9075227975845336,0.0809031948447227,119.42603302001952,1.6664977073669434,75.67945098876953,27.87,2
-0.4485458135604858,-0.907066822052002,0.0911034345626831,134.3238067626953,1.6663784980773926,75.67606353759766,27.87,2
-0.4501863420009613,-0.9123719930648804,0.0976493582129478,141.17233276367188,1.6676791906356812,75.67388916015625,27.87,2
-0.4456413686275482,-0.9213743209838868,0.1074479296803474,141.8306884765625,1.6685138940811155,75.67249298095703,27.87,2
-0.437126874923706,-0.9327492713928224,0.1249316409230232,128.05543518066406,1.6690495014190674,75.67160034179688,27.87,2
-0.4204672276973724,-0.9400490522384644,0.1361516863107681,100.22403717041016,1.6693933010101318,75.67102813720703,27.87,2
-0.3929826915264129,-0.9503313899040222,0.1489498317241668,69.30137634277344,1.6696138381958008,75.67066192626953,27.87,2
-0.3697469234466553,-0.9569299817085266,0.1571629494428634,44.48438262939453,1.669755458831787,75.67042541503906,27.87,2
-0.3492377698421478,-0.9443712830543518,0.1568358838558197,25.73161125183105,1.6698462963104248,75.67027282714844,27.87,2
-0.3304783999919891,-0.9363118410110474,0.1566259860992431,11.82705783843994,1.6699045896530151,75.67017364501953,27.87,2
-0.3128419518470764,-0.942335307598114,0.1564912796020507,5.2254252433776855,1.669024109840393,75.67011260986328,27.87,2
-0.2959261238574981,-0.9517985582351683,0.1452092975378036,4.564287662506104,1.6684590578079224,75.67007446289062,27.87,2
-0.2850705087184906,-0.9578715562820436,0.1435669362545013,4.372875213623047,1.6680964231491089,75.6700439453125,27.87,2
-0.2837017774581909,-0.9785621762275696,0.1369151920080185,2.3799331188201904,1.6678637266159058,75.67002868652344,27.87,2
-0.2772256433963775,-1.0086334943771362,0.1102553904056549,1.8819791078567505,1.6677144765853882,75.6700210571289,27.87,2
-0.2786673903465271,-1.0615181922912598,0.0875488892197609,4.098884105682373,1.6676186323165894,75.67001342773438,27.87,2
-0.3075815141201019,-1.0842610597610474,0.0785749331116676,5.718607902526856,1.6675571203231812,75.67000579833984,27.87,2
-0.3373324573040008,-1.037280559539795,0.0672181919217109,4.282493591308594,1.6675176620483398,75.67000579833984,27.87,2
-0.3116427063941955,-0.9791423082351683,0.0431367680430412,1.601833701133728,1.6647380590438845,73.54911804199219,27.87,2
-0.2727654278278351,-0.9754191637039183,0.0444760173559188,-0.0611383542418479,1.662954330444336,72.18805694580078,27.87,2
-0.2534140050411224,-0.9618343114852904,0.0677265673875808,-1.1140077114105225,1.6618095636367798,71.31460571289062,27.87,2
-0.2297998070716858,-0.9195297360420228,0.0938429832458496,-3.004171848297119,1.661074995994568,70.75407409667969,27.87,2
-0.2202433496713638,-0.8755877614021301,0.1050052195787429,-5.678861141204834,1.6606035232543943,70.39435577392578,27.87,2
-0.2365016639232635,-0.8585838675498962,0.123364046216011,-7.997195243835449,1.6603009700775146,70.16351318359375,27.87,2
-0.2581308782100677,-0.8700628280639648,0.1519390046596527,-9.624689102172852,1.6601067781448364,70.01536560058594,27.87,2
-0.2664134800434112,-0.8774293661117554,0.1702767759561538,-11.15635108947754,1.659982204437256,69.92029571533203,27.87,2
-0.2717287838459015,-0.8765590190887451,0.1876426786184311,-12.909537315368652,1.6599022150039673,69.85928344726562,27.83,2
-0.2751398384571075,-0.8704026937484741,0.1987871080636978,-14.400053977966309,1.6598509550094604,69.82012939453125,27.83,2
-0.3053177297115326,-0.8608541488647461,0.1947434097528457,-15.15595817565918,1.6598180532455444,69.79500579833984,27.83,2
-0.3302819430828094,-0.8771175742149353,0.1977461725473404,-15.408185958862305,1.659796953201294,69.77888488769531,27.83,2
-0.3519003093242645,-0.8987500071525574,0.1884776353836059,-15.466156959533691,1.6597833633422852,69.76853942871094,27.83,2
-0.3433826267719269,-0.9518169164657592,0.1881273835897445,-14.983885765075684,1.659774661064148,69.76189422607422,27.83,2
-0.3547098040580749,-1.0250566005706787,0.1935003995895385,-13.467063903808594,1.659769058227539,69.75762939453125,27.83,2
-0.4011633396148681,-1.1280354261398315,0.1689596176147461,-11.16451930999756,1.6597654819488523,69.75489807128906,27.83,2
-0.4197790026664734,-1.093361258506775,0.1476129740476608,-8.848556518554688,1.6588449478149414,69.75314331054688,27.83,2
-0.4149321317672729,-1.0990983247756958,0.1339139342308044,-6.889404773712158,1.6582542657852173,69.75201416015625,27.83,2
-0.3894305825233459,-1.1251710653305054,0.1307204514741897,-4.955027103424072,1.6578751802444458,69.75128936767578,27.83,2
-0.3618696331977844,-1.108316421508789,0.1342688351869583,-2.663960218429565,1.6576318740844729,69.75082397460938,27.83,2
-0.3105959296226501,-1.0247290134429932,0.1309482008218765,-0.0866695791482925,1.6574757099151611,69.75052642822266,27.83,2
-0.2776914238929748,-0.9430986046791076,0.1400127559900283,2.702963590621948,1.6573755741119385,69.75033569335938,27.83,2
-0.2621729969978332,-0.9019084572792052,0.1346343159675598,5.929802417755127,1.657311201095581,69.75021362304688,27.83,2
-0.2522141635417938,-0.8754749894142151,0.1031938791275024,9.458709716796877,1.6572699546813965,69.75013732910156,27.83,2
-0.2458231449127197,-0.8417181968688965,0.0830172151327133,12.636916160583496,1.6544891595840454,69.75009155273438,27.83,2
-0.2417217642068863,-0.8200550079345703,0.0644712224602699,15.281962394714355,1.6527045965194702,69.75006103515625,27.83,2
-0.261480838060379,-0.8341416716575623,0.0525694675743579,17.76398468017578,1.651559352874756,69.75003814697266,27.83,2
-0.2965521514415741,-0.8655728101730347,0.0393338315188884,19.940763473510746,1.6508244276046753,69.7500228881836,27.83,2
-0.3358522355556488,-0.9025368094444276,0.0308399628847837,21.11915779113769,1.6503528356552124,69.75001525878906,27.83,2
-0.3610727787017822,-0.9262582063674928,0.0309868622571229,21.08005142211914,1.650050163269043,69.75000762939453,27.83,2
-0.3660623133182525,-0.9638723134994508,0.0422766841948032,20.098407745361328,1.6498559713363647,69.75000762939453,27.83,2
-0.3636665344238281,-1.0775753259658811,0.0215329676866531,18.049745559692383,1.6497312784194946,69.75000762939453,27.83,2
-0.3621290624141693,-1.2177165746688845,0.0194163937121629,14.503087043762209,1.6487330198287964,68.97975158691406,27.83,2
-0.3611423969268799,-1.1453157663345337,0.0292536467313766,9.504287719726562,1.6480923891067505,68.48544311523438,27.83,2
-0.3493136763572693,-1.0260820388793943,0.0411644056439399,3.258322238922119,1.6476813554763794,68.16822814941406,27.83,2
-0.3585160076618194,-0.9999446272850036,0.0376124940812587,-4.522430419921875,1.6474175453186035,67.96465301513672,27.83,2
-0.3700192868709564,-0.9831711649894714,0.0409308560192585,-13.5783109664917,1.6472482681274414,67.83401489257812,27.83,2
-0.3494125604629516,-0.8940380811691284,0.0542559400200843,-21.99080467224121,1.6471396684646606,67.75017547607422,27.83,2
-0.3081994950771332,-0.7808598279953003,0.0684049874544143,-27.772794723510746,1.6470699310302734,67.69637298583984,27.83,2
-0.2985446453094482,-0.7138262987136841,0.0886805802583694,-30.80265235900879,1.647025227546692,67.6618423461914,27.83,2
-0.331533133983612,-0.7211880087852478,0.1016922891139984,-31.518217086791992,1.647455811500549,67.63968658447266,27.77,2
-0.3527032434940338,-0.7650967836380005,0.1268357783555984,-29.3979721069336,1.647732138633728,67.6254653930664,27.77,2
-0.3662889897823334,-0.804470419883728,0.1485691964626312,-24.39384078979492,1.64790940284729,67.61634063720703,27.77,2
-0.3862031102180481,-0.8353359699249268,0.2017008662223816,-17.739622116088867,1.6480231285095217,67.61048889160156,27.77,2
-0.4045806229114532,-0.8719369769096375,0.2413954883813858,-10.130367279052734,1.648096203804016,67.60672760009766,27.77,2
-0.4387653470039367,-0.9402076005935668,0.2612714469432831,-1.3600904941558838,1.6481430530548096,67.60431671142578,27.77,2
-0.4607031345367431,-1.0679863691329956,0.2740266919136047,7.657284259796143,1.6481730937957764,67.60276794433594,27.77,2
-0.4635859727859497,-1.1611829996109009,0.2934078276157379,15.081354141235352,1.6481924057006836,67.60177612304688,27.77,2
-0.4654360115528106,-1.232186794281006,0.3058455288410187,20.565792083740234,1.6477454900741575,67.60114288330078,27.77,2
-0.4778188169002533,-1.2385685443878174,0.2970339953899383,25.353620529174805,1.6474586725234983,67.6007308959961,27.77,2
-0.4689720571041107,-1.1698929071426392,0.268988162279129,29.79829978942871,1.647274613380432,67.60047149658203,27.77,2
-0.4688925147056579,-1.1426141262054443,0.2341966331005096,32.385528564453125,1.6471564769744873,67.60030364990234,27.77,2
-0.4688414633274078,-1.125108242034912,0.2006738930940628,31.52731132507324,1.647080659866333,67.6001968383789,27.77,2
-0.4184287190437317,-1.0690916776657104,0.1791609227657318,27.15753173828125,1.6470320224761963,67.60012817382812,27.77,2
-0.3580878674983978,-1.0051546096801758,0.1597573608160019,20.419591903686523,1.647000789642334,67.60008239746094,27.77,2
-0.3137668073177337,-0.9417324066162108,0.1193163990974426,12.70645236968994,1.6469807624816897,67.60005187988281,27.77,2
-0.3133129775524139,-0.9290205836296082,0.0709726214408874,5.09833288192749,1.646509051322937,67.60002899169922,27.77,2
-0.3186194896697998,-0.92646062374115,0.0287528205662965,-1.6828856468200684,1.646206259727478,67.60002136230469,27.77,2
-0.3220249116420746,-0.8968288898468018,-0.0151347406208515,-7.102288246154785,1.6460119485855105,67.60001373291016,27.77,2
-0.3186125457286834,-0.8778129816055298,-0.0488970279693603,-10.924077033996582,1.64588725566864,67.60000610351562,27.77,2
-0.3108249008655548,-0.8935985565185547,-0.070563718676567,-13.308611869812012,1.6458072662353516,67.60000610351562,27.77,2
-0.3114250302314758,-0.914924383163452,-0.0732726082205772,-14.584506034851074,1.6457558870315552,67.60000610351562,27.77,2
-0.3118101358413696,-0.9510011672973632,-0.0750110149383544,-15.191929817199709,1.6457229852676392,67.60000610351562,27.77,2
-0.2896661758422851,-0.9909464716911316,-0.0761266201734542,-15.982987403869627,1.645701885223389,67.60000610351562,27.77,2
-0.2810532450675964,-1.0669610500335691,-0.065647006034851,-18.113550186157227,1.6452293395996094,68.52072143554688,27.77,2
-0.2923192679882049,-1.0317761898040771,-0.0421284697949886,-22.343299865722656,1.6449260711669922,69.11158752441406,27.77,2
-0.3051469326019287,-0.9476210474967957,-0.0158400759100914,-28.296358108520508,1.644731521606445,69.49076843261719,27.77,2
-0.3469656407833099,-0.9495928883552552,0.0178236234933137,-34.6065788269043,1.644606590270996,69.7341079711914,27.77,2
-0.39059579372406,-0.945260524749756,0.0562203712761402,-39.9207649230957,1.644526481628418,69.89026641845703,27.77,2
-0.4129973649978637,-0.9200891852378844,0.0864589661359787,-44.01895904541016,1.6444751024246216,69.99048614501953,27.77,2
-0.3602001070976257,-0.8703489899635315,0.1170599088072776,-48.01032257080078,1.644442081451416,70.05479431152344,27.77,2
-0.2983289957046509,-0.8440263867378235,0.1422955989837646,-52.37020111083984,1.644420862197876,70.0960693359375,27.77,2
-0.2698192298412323,-0.860720694065094,0.1864792853593826,-54.52325820922852,1.6457843780517578,70.12255859375,27.77,2
-0.3075010478496551,-0.8714341521263123,0.2148338407278061,-50.7388916015625,1.64665949344635,70.13955688476562,27.77,2
-0.3428786098957062,-0.878309428691864,0.2162368297576904,-40.858543395996094,1.6472210884094238,70.15045928955078,27.77,2
-0.3543863296508789,-0.8939171433448792,0.2171371877193451,-28.43111038208008,1.6475814580917358,70.15745544433594,27.77,2
-0.3673691153526306,-0.9151288270950316,0.2289105355739593,-16.661951065063477,1.6478127241134644,70.16194915771484,27.77,2
-0.3812984824180603,-0.9343390464782716,0.2028793543577194,-6.773343086242676,1.647961139678955,70.16483306884766,27.77,2
-0.4014331102371216,-0.9690581560134888,0.1357940733432769,1.0414520502090454,1.6480563879013062,70.16668701171875,27.77,2
-0.4311476647853851,-0.991338849067688,0.0815470442175865,7.314021587371826,1.6481175422668457,70.1678695678711,27.77,2
-0.4614123106002807,-1.0112351179122925,0.0243433248251676,13.094858169555664,1.643566370010376,70.16863250732422,27.77,2
-0.480834424495697,-1.0575900077819824,-0.0403556004166603,19.534587860107425,1.6406457424163818,70.16912078857422,27.77,2
-0.5436784029006958,-1.1209245920181274,-0.0538867749273777,27.92691802978516,1.638771414756775,70.16943359375,27.77,2
-0.5728124976158142,-1.0664068460464478,-0.0793636292219162,39.04475402832031,1.6375685930252075,70.16963958740234,27.77,2
-0.6027045845985413,-1.0818004608154297,-0.1069087535142898,52.069297790527344,1.6367967128753662,70.16976928710938,27.77,2
-0.6162898540496826,-1.0916792154312134,-0.11898785084486,65.23193359375,1.6363013982772827,70.16985321044922,27.77,2
-0.5914214849472046,-1.058834433555603,-0.1043484285473823,77.16480255126953,1.6359834671020508,70.16990661621094,27.77,2
-0.49709352850914,-0.9873765707015992,-0.0837581381201744,86.87186431884766,1.6357795000076294,70.16993713378906,27.77,2
-0.4085704088211059,-0.941519021987915,-0.0873377993702888,93.33058166503906,1.6356486082077026,70.16996002197266,27.77,2
-0.3629569113254547,-0.9064925312995912,-0.0840372443199157,96.071044921875,1.6355645656585691,70.16997528076172,27.77,2
-0.3448803424835205,-0.8560256958007812,-0.0931146889925003,95.32191467285156,1.6355106830596924,70.16998291015625,27.77,2
-0.3332798480987549,-0.8292367458343506,-0.1101356148719787,91.16544342041016,1.635475993156433,70.16999053955078,27.77,2
-0.3202375471591949,-0.8344362378120422,-0.121058665215969,83.42513275146484,1.6354538202285769,70.16999053955078,27.77,2
-0.3174655139446258,-0.8881529569625854,-0.1280684471130371,72.43911743164062,1.6354395151138306,70.16999053955078,27.77,2
-0.3212843537330627,-0.9394185543060304,-0.1269691586494445,59.08000946044922,1.6354303359985352,70.16999053955078,27.77,2
-0.3125395178794861,-1.033893346786499,-0.115068145096302,43.84689331054688,1.6354244947433472,70.16999053955078,27.77,2
-0.3069275915622711,-1.111315131187439,-0.0738441124558448,26.626564025878903,1.6354206800460815,70.87576293945312,27.77,2
-0.3089239597320556,-1.0714356899261477,-0.0305955782532691,7.561327457427978,1.6354182958602903,71.32868194580078,27.77,2
-0.3214006423950195,-1.0458433628082275,0.0083543909713625,-12.404841423034668,1.6354167461395264,71.61933898925781,27.77,2
-0.3462007939815521,-1.0630062818527222,0.0277524646371603,-31.97471618652344,1.63541579246521,71.80587005615234,27.77,2
-0.3733116388320923,-1.029238224029541,0.0513965785503387,-49.771263122558594,1.6354151964187622,71.92557525634766,27.77,2
-0.3851120471954345,-0.9739812016487122,0.0721677839756012,-64.4557876586914,1.635414719581604,72.00239562988281,27.77,2
-0.3311093747615814,-0.9049338102340698,0.1078886464238166,-75.59552764892578,1.635414481163025,72.05169677734375,27.77,2
-0.2964535653591156,-0.8662209510803223,0.1420077830553054,-83.57910919189453,1.6354143619537354,72.08332824707031,27.77,2
-0.2966045439243316,-0.8525727987289429,0.180696815252304,-87.3662109375,1.6358731985092163,72.10363006591797,27.75,2
-0.3302880823612213,-0.8550097346305847,0.1943296492099762,-84.22923278808594,1.6361676454544067,72.11666107177734,27.75,2
-0.3519042432308197,-0.8621714115142822,0.1974806487560272,-72.97663879394531,1.6363565921783447,72.1250228881836,27.75,2
-0.3601784706115722,-0.8779628872871399,0.2106983363628387,-55.58085632324219,1.636477828025818,72.13038635253906,27.75,2
-0.3654884099960327,-0.8936947584152222,0.2191806733608245,-35.3784065246582,1.6365556716918943,72.13382720947266,27.75,2
-0.363298237323761,-0.909388303756714,0.2078308314085006,-15.495682716369627,1.6366056203842163,72.13603973388672,27.75,2
-0.3842838108539581,-0.9698395133018494,0.1781560629606247,1.8460187911987305,1.6366376876831057,72.13745880126953,27.75,2
-0.4257400035858154,-1.0142313241958618,0.1479169577360153,16.42852783203125,1.6366581916809082,72.13836669921875,27.75,2
-0.4523442089557647,-1.053915023803711,0.078131265938282,29.451717376708984,1.6375892162322998,72.13895416259766,27.75,2
-0.5030038952827454,-1.2025327682495115,0.0389446020126342,41.187618255615234,1.6381866931915283,72.13932800292969,27.75,2
-0.5411121249198914,-1.15236496925354,0.0193946287035942,50.89725112915039,1.6385700702667236,72.13957214355469,27.75,2
-0.5375789403915405,-1.0865834951400757,-0.0043469667434692,58.36432266235352,1.6388161182403564,72.13972473144531,27.75,2
-0.5409093499183655,-1.1003464460372925,-0.0251807309687137,63.07744216918945,1.6389740705490112,72.13982391357422,27.75,2
-0.5542421340942383,-1.1091787815093994,-0.0441484153270721,63.31122589111328,1.6390753984451294,72.13988494873047,27.75,2
-0.5068206191062927,-1.047673583030701,-0.0283319111913442,57.92975997924805,1.639140486717224,72.13992309570312,27.75,2
-0.4428015649318695,-0.9858119487762452,-0.0293773394078016,47.48663711547852,1.639182209968567,72.13995361328125,27.75,2
-0.3849245011806488,-0.9461127519607544,-0.0468415580689907,33.454891204833984,1.6378321647644043,72.13996887207031,27.75,2
-0.3645756542682647,-0.9262338280677797,-0.0692446380853653,18.55678939819336,1.6369658708572388,72.13997650146484,27.75,2
-0.3515169322490692,-0.9134767055511476,-0.1004149690270423,6.2123847007751465,1.636409878730774,72.13998413085938,27.75,2
-0.3375388085842132,-0.905289888381958,-0.1316138356924057,-2.261261224746704,1.6360530853271484,72.1399917602539,27.75,2
-0.3285684585571289,-0.9168294072151184,-0.1460376977920532,-7.563021183013916,1.6358240842819214,72.1399917602539,27.75,2
-0.3284095823764801,-0.9466258883476256,-0.1608918756246566,-9.890613555908203,1.6356772184371948,72.1399917602539,27.75,2
-0.3339053988456726,-0.9545519948005676,-0.159228891134262,-9.983540534973145,1.6355829238891602,72.1399917602539,27.75,2
-0.3318345248699188,-0.95963853597641,-0.1245750337839126,-10.76685619354248,1.6355223655700684,72.1399917602539,27.75,2
-0.3081144690513611,-1.0524672269821167,-0.1079339608550071,-14.629999160766602,1.635942459106445,72.8493423461914,27.75,2
-0.2872945070266723,-1.0728548765182495,-0.0804613530635833,-21.508544921875,1.6362121105194092,73.3045654296875,27.75,2
-0.2907267808914184,-1.0355584621429443,-0.0180488191545009,-30.90616226196289,1.6363850831985474,73.5967025756836,27.75,2
-0.3209182918071747,-1.0396126508712769,0.0164061803370714,-42.60823059082031,1.6364960670471191,73.7841796875,27.75,2
-0.3402934670448303,-1.0142256021499634,0.038517415523529,-55.212364196777344,1.6365673542022705,73.90448760986328,27.75,2
-0.3471295833587646,-0.9531514048576356,0.0639026835560798,-66.79398345947266,1.636613130569458,73.98169708251953,27.75,2
-0.3235277235507965,-0.9083597660064696,0.0969868078827858,-76.27204895019531,1.6366424560546875,74.03124237060547,27.75,2
-0.2915880978107452,-0.8740172982215881,0.1294138431549072,-82.00343322753906,1.6366612911224363,74.06304168701172,27.75,2
-0.2766888439655304,-0.8519782423973083,0.1726147383451461,-80.72322082519531,1.63483726978302,74.08345031738281,27.71,2
-0.2951162457466125,-0.8602259755134583,0.2059363722801208,-70.59412384033203,1.633666753768921,74.09654235839844,27.71,2
-0.3069418668746948,-0.8823121786117554,0.2329180538654327,-54.06622314453125,1.6329156160354614,74.10494995117188,27.71,2
-0.3089331090450287,-0.9132791757583618,0.2502333521842956,-35.79644012451172,1.632433533668518,74.11034393310547,27.71,2
-0.2934176623821258,-0.9331520199775696,0.2445519715547561,-18.905872344970703,1.6321241855621338,74.11380767822266,27.71,2
-0.2666673958301544,-0.9459052681922911,0.2353082150220871,-4.337016582489014,1.6319255828857422,74.11602783203125,27.71,2
-0.2550984025001526,-0.9708828926086426,0.2069850116968155,8.372892379760742,1.6317981481552124,74.1174545288086,27.71,2
-0.2812607288360595,-1.0093032121658323,0.1552221626043319,20.60993385314941,1.6317163705825806,74.11837005615234,27.71,2
-0.3148435354232788,-1.033959150314331,0.099612645804882,33.27436447143555,1.6298274993896484,74.11895751953125,27.71,2
-0.3643839061260223,-1.105759620666504,0.0527301095426082,46.044681549072266,1.628615379333496,74.11933135986328,27.71,2
-0.4241649508476257,-1.1630326509475708,0.0338391475379467,58.61784362792969,1.6278374195098877,74.11957550048828,27.71,2
-0.4737245142459869,-1.0710383653640747,-0.0118706310167908,70.71697235107422,1.627338171005249,74.1197280883789,27.71,2
-0.5111267566680908,-1.1183594465255735,-0.0300089847296476,80.53073120117188,1.627017855644226,74.11982727050781,27.71,2
-0.5351293683052063,-1.143129587173462,-0.0360513627529144,85.47442626953125,1.626812219619751,74.11988830566406,27.71,2
-0.4889573454856872,-1.086254596710205,-0.0175379142165184,84.50554656982422,1.6266802549362185,74.11992645263672,27.71,2
-0.4145446121692657,-0.9993754625320436,-5.927501842961647e-05,78.23405456542969,1.6265956163406372,74.11995697021484,27.71,2
-0.3276063799858093,-0.926828145980835,0.0111575098708271,68.39126586914062,1.626541256904602,74.1199722290039,27.71,2
-0.2886077463626861,-0.8914669752120972,0.0015624734805896,58.14464569091797,1.6265064477920532,74.11997985839844,27.71,2
-0.2747762203216553,-0.8687742352485657,-0.0045950692147016,50.11084747314453,1.6264840364456177,74.11998748779297,27.71,2
-0.2826932668685913,-0.8542113304138184,-0.0029488508589565,43.83386993408203,1.6264697313308716,74.1199951171875,27.71,2
-0.2821761965751648,-0.8448656797409058,-0.0074901771731674,38.02870941162109,1.6264605522155762,74.1199951171875,27.71,2
-0.2762466073036194,-0.844465970993042,0.0007910096901468,33.378990173339844,1.6264545917510986,74.1199951171875,27.71,2
-0.2724413275718689,-0.9057849645614624,0.0173009485006332,30.08338165283203,1.626450777053833,74.1199951171875,27.71,2
-0.2588037848472595,-0.94513601064682,0.0334938503801822,25.61111640930176,1.626448392868042,74.1199951171875,27.71,2
-0.2388564348220825,-1.0151714086532593,0.0550810731947422,17.43169593811035,1.6264468431472778,74.5928955078125,27.71,2
-0.2148598283529281,-1.0881049633026123,0.0633367374539375,5.339896202087402,1.626445770263672,74.89637756347656,27.71,2
-0.2162535190582275,-1.1908873319625854,0.0854280665516853,-9.8788480758667,1.626445174217224,75.09113311767578,27.71,2
-0.2507345378398895,-1.1113049983978271,0.1275938898324966,-27.36223030090332,1.626444697380066,75.21611785888672,27.71,2
-0.2728624939918518,-1.0322446823120115,0.1490557044744491,-45.06293869018555,1.6264444589614868,75.29632568359375,27.71,2
-0.2758673727512359,-1.0206928253173828,0.1460353434085846,-59.9080810546875,1.6264443397521973,75.3478012084961,27.71,2
-0.272197961807251,-1.0076817274093628,0.1608903706073761,-70.53826904296875,1.6264442205429075,75.3808364868164,27.71,2
-0.2810387015342712,-0.9265608191490172,0.1704234778881073,-78.31665802001953,1.6264441013336182,75.40203094482422,27.71,2
-0.2755166292190552,-0.8241221308708191,0.176541268825531,-83.6738052368164,1.6264441013336182,75.41563415527344,27.73,2
-0.2775706648826599,-0.7751762270927429,0.1860650926828384,-83.94471740722656,1.6264441013336182,75.42436218261719,27.73,2
-0.2900843620300293,-0.7773522138595581,0.1809813827276229,-77.49080657958984,1.6264441013336182,75.42996215820312,27.73,2
-0.3093104958534241,-0.7899441719055176,0.1665233969688415,-66.67472076416016,1.6264441013336182,75.43355560302734,27.73,2
-0.3328442573547363,-0.8092204928398132,0.1628428697586059,-54.19850158691406,1.6264441013336182,75.43586730957031,27.73,2
-0.3535446524620056,-0.8103954195976257,0.1604809314012527,-40.223411560058594,1.6264441013336182,75.43734741210938,27.73,2
-0.3724267482757568,-0.8167471885681152,0.1645629405975341,-24.54483795166016,1.6264441013336182,75.43830108642578,27.73,2
-0.3845441937446594,-0.8712033629417419,0.1727803200483322,-8.134907722473145,1.6264441013336182,75.43891143798828,27.73,2
-0.392320454120636,-0.93413907289505,0.1780537515878677,8.2320556640625,1.6273622512817385,75.43930053710938,27.73,2
-0.3861152827739715,-0.9857231378555298,0.1758401691913604,24.4460563659668,1.6279515027999878,75.4395523071289,27.73,2
-0.3989264667034149,-1.1027934551239014,0.1968107223510742,39.813133239746094,1.6283296346664429,75.43971252441406,27.73,2
-0.4295390546321869,-1.1723246574401855,0.204670637845993,52.65912628173828,1.6285723447799685,75.4398193359375,27.73,2
-0.4491844475269317,-1.2393368482589722,0.1761280298233032,61.30777740478516,1.6287280321121216,75.43988800048828,27.73,2
-0.4394006431102752,-1.2991347312927246,0.1466154754161834,64.71560668945312,1.6288279294967651,75.43992614746094,27.73,2
-0.3715464174747467,-1.2479451894760132,0.1556648910045623,62.25236892700195,1.6288920640945437,75.43995666503906,27.73,2
-0.3000126183032989,-1.1311280727386477,0.167070060968399,53.993682861328125,1.6289331912994385,75.43997192382812,27.73,2
-0.254106342792511,-1.0449659824371338,0.1575959175825119,41.87609100341797,1.6266642808914185,75.43997955322266,27.73,2
-0.2414396703243255,-1.00086772441864,0.1235270872712135,29.32772827148437,1.6252082586288452,75.43998718261719,27.73,2
-0.2501042485237121,-0.9725679755210876,0.0904681235551834,18.91757774353028,1.6242737770080566,75.43999481201172,27.73,2
-0.2556646764278412,-0.9264179468154908,0.0636550113558769,11.405784606933594,1.6236741542816162,75.43999481201172,27.73,2
-0.2368419468402862,-0.8576170802116394,0.0464478954672813,7.118951797485352,1.6232893466949463,75.43999481201172,27.73,2
-0.2191648185253143,-0.8134647011756897,0.0466009080410003,6.34907341003418,1.623042345046997,75.43999481201172,27.73,2
-0.2190162092447281,-0.7851302027702332,0.0411013290286064,8.008137702941895,1.622883915901184,75.43999481201172,27.73,2
-0.230116382241249,-0.7837401032447815,0.0375720150768756,9.556477546691896,1.6227822303771973,75.43999481201172,27.73,2
-0.2428376078605651,-0.8332279920578003,0.0185137819498777,8.658513069152832,1.623635172843933,75.92723083496094,27.73,2
-0.2342080473899841,-0.87058424949646,0.0174788534641265,4.127087593078613,1.6241824626922607,76.23990631103516,27.73,2
-0.2286700904369354,-0.9169484376907348,0.0168146956712007,-4.444972038269043,1.624533772468567,76.44056701660156,27.73,2
-0.247507244348526,-1.1034399271011353,-0.0116003928706049,-16.559459686279297,1.6247591972351074,76.5693359375,27.73,2
-0.2987802624702453,-1.2175216674804688,-0.0354333370923996,-30.205684661865234,1.6249037981033323,76.6519775390625,27.73,2
-0.3428798913955688,-1.1731795072555542,-0.0171413011848926,-42.69609069824219,1.6249966621398926,76.70500946044922,27.73,2
-0.3319960534572601,-1.1615166664123535,0.0281841196119785,-52.900665283203125,1.625056266784668,76.73904418945312,27.73,2
-0.3362070024013519,-1.1036521196365356,0.0460758171975612,-61.860450744628906,1.6250945329666138,76.76087951660156,27.73,2
-0.3501048982143402,-0.988149106502533,0.012775482609868,-70.36174011230469,1.624659776687622,76.77489471435547,27.75,2
-0.3590237498283386,-0.880439281463623,-0.0085947532206773,-76.12190246582031,1.6243808269500732,76.78388977050781,27.75,2
-0.3871384561061859,-0.8001217842102051,-0.0055156177841126,-74.84223937988281,1.624201774597168,76.78966522216797,27.75,2
-0.4163764119148254,-0.7821652889251709,-0.0091373799368739,-64.76007080078125,1.624086856842041,76.79336547851562,27.75,2
-0.4351396560668945,-0.7818374037742615,-0.0170593932271003,-48.59904861450195,1.624013066291809,76.79574584960938,27.75,2
-0.4303874969482422,-0.8096158504486084,0.0058455867692828,-30.36408042907715,1.6239657402038574,76.79727172851562,27.75,2
-0.4273378252983093,-0.8498335480690002,0.0317402333021163,-12.335097312927246,1.623935341835022,76.79824829101562,27.75,2
-0.4309785068035126,-0.8756429553031921,0.0651512518525123,4.228976726531982,1.6239159107208252,76.79887390136719,27.75,2
-0.4277171194553375,-0.9145970344543456,0.0977880656719207,18.054502487182617,1.623444437980652,76.79927825927734,27.75,2
-0.4144285917282104,-0.9675843715667723,0.1243302673101425,28.51759147644043,1.623141884803772,76.7995376586914,27.75,2
-0.4282918870449066,-1.0575664043426514,0.1861457228660583,35.94513320922852,1.6229476928710938,76.7997055053711,27.75,2
-0.4539818465709686,-1.1097139120101929,0.2482064217329025,41.00547409057617,1.6228231191635132,76.79981231689453,27.75,2
-0.4480771124362945,-1.1375813484191897,0.2544467449188232,44.41770553588867,1.6227431297302246,76.79988098144531,27.75,2
-0.388310045003891,-1.2226383686065674,0.2360603362321853,46.75078582763672,1.6226918697357178,76.7999267578125,27.75,2
-0.3331616520881653,-1.266027569770813,0.224261000752449,47.907676696777344,1.6226589679718018,76.79995727539062,27.75,2
-0.286575049161911,-1.1931122541427612,0.2110911011695861,47.2564811706543,1.6226378679275513,76.79997253417969,27.75,2
-0.256678432226181,-1.1183305978775024,0.197041630744934,44.83592224121094,1.6262967586517334,76.79998016357422,27.75,2
-0.2542858421802521,-1.0479488372802734,0.1656343936920166,41.84593200683594,1.6286448240280151,76.79998779296875,27.75,2
-0.2695437371730804,-1.0027819871902466,0.1174901649355888,39.15687561035156,1.6301517486572266,76.79999542236328,27.75,2
-0.2737375795841217,-0.957003116607666,0.0753984227776527,36.28477096557617,1.6311187744140625,76.79999542236328,27.75,2
-0.2484400868415832,-0.8940382599830627,0.0483863689005374,33.116065979003906,1.631739377975464,76.79999542236328,27.75,2
-0.2266078442335128,-0.8312399387359619,0.0310515854507684,31.304691314697266,1.632137656211853,76.79999542236328,27.75,2
-0.2069993913173675,-0.7741462588310242,0.0199271198362112,32.00519561767578,1.63239324092865,76.79999542236328,27.75,2
-0.2112091332674026,-0.7654956579208374,0.0071903034113347,33.228572845458984,1.6325572729110718,76.79999542236328,27.75,2
-0.2251062542200088,-0.7879331111907959,0.0046143229119479,31.48795318603516,1.6294488906860352,77.1331787109375,27.75,2
-0.234024628996849,-0.8079299330711365,-0.0194298904389143,25.41980361938477,1.627454161643982,77.34699249267578,27.75,2
-0.2397479265928268,-0.8319582939147949,-0.0292623080313205,16.133838653564453,1.6261740922927856,77.48420715332031,27.75,2
-0.2378230392932891,-0.9873226881027222,-0.0523655116558074,4.865262985229492,1.6253526210784912,77.572265625,27.75,2
-0.2869677245616913,-1.1653953790664673,-0.0559962689876556,-7.718628406524658,1.624825358390808,77.62877655029297,27.75,2
-0.3352992832660675,-1.1453256607055664,-0.0415329560637474,-20.38352394104004,1.624487042427063,77.6650390625,27.75,2
-0.3215335011482239,-1.1156527996063232,-0.0154579114168882,-31.74260902404785,1.624269962310791,77.68831634521484,27.75,2
-0.2903082966804504,-1.1693814992904663,0.0068733259104192,-41.85886764526367,1.6241306066513062,77.70325469970703,27.75,2
-0.2982586324214935,-1.1086993217468262,0.0156064536422491,-51.99438095092773,1.624041199684143,77.71283721923828,27.73,2
-0.3033607006072998,-0.9913881421089172,0.0100153237581253,-63.0235595703125,1.6239838600158691,77.71898651123047,27.73,2
-0.3122327029705047,-0.8993112444877625,0.0176228079944849,-74.20708465576172,1.623947024345398,77.72293090820312,27.73,2
-0.3459151089191437,-0.8402215838432312,0.0337004028260707,-82.20443725585938,1.623923420906067,77.7254638671875,27.73,2
-0.3731283247470855,-0.807898998260498,0.0328225269913673,-82.1562728881836,1.6239081621170044,77.72708892822266,27.73,2
-0.3905921876430511,-0.8095473647117615,0.0322591587901115,-72.15863800048828,1.6238983869552612,77.72813415527344,27.73,2
-0.3962017297744751,-0.8106051683425903,0.0486909449100494,-55.64703369140625,1.6238921880722046,77.72880554199219,27.73,2
-0.4053993821144104,-0.8224795460700989,0.0648336932063102,-37.70655822753906,1.62388813495636,77.72923278808594,27.73,2
-0.4280952215194702,-0.8692842721939087,0.0751931816339492,-20.919841766357425,1.62526273727417,77.72950744628906,27.73,2
-0.4482578635215759,-0.904918611049652,0.0930368527770042,-6.0772881507873535,1.6261448860168457,77.72968292236328,27.73,2
-0.4332082271575928,-0.9333844780921936,0.1212812140583992,5.869630813598633,1.6267110109329224,77.72979736328125,27.73,2
-0.4515390992164612,-1.0748032331466677,0.1897867918014526,14.460779190063477,1.6270742416381836,77.72987365722656,27.73,2
-0.4744983613491058,-1.1935465335845947,0.2337497323751449,20.758668899536133,1.627307415008545,77.72991943359375,27.73,2
-0.4276567697525024,-1.2809447050094604,0.1891915500164032,26.25481605529785,1.6274570226669312,77.72994995117188,27.73,2
-0.3584121167659759,-1.3090429306030271,0.1549988985061645,31.394086837768555,1.6275529861450195,77.72997283935547,27.73,2
-0.2803882360458374,-1.243108153343201,0.1890337616205215,36.003395080566406,1.6276146173477173,77.72998046875,27.73,2
-0.2527081072330475,-1.1392195224761963,0.1884842813014984,40.65952682495117,1.6271952390670776,77.72998809814453,27.73,2
-0.251737892627716,-1.055756449699402,0.1713383346796035,46.90054321289063,1.626926064491272,77.72999572753906,27.73,2
-0.2679086029529571,-1.00219464302063,0.1491395086050033,55.41254806518555,1.626753330230713,77.72999572753906,27.73,2
-0.2670904994010925,-0.9510284066200256,0.1236980259418487,64.13162231445312,1.6266424655914309,77.72999572753906,27.73,2
-0.2329788208007812,-0.9125950932502748,0.1185666918754577,69.54073333740234,1.6265714168548584,77.72999572753906,27.73,2
-0.199892371892929,-0.8823330402374268,0.1040781512856483,70.39311981201172,1.6265257596969604,77.72999572753906,27.73,2
-0.1786593943834304,-0.8517170548439026,0.0891824662685394,68.20663452148438,1.626496434211731,77.72999572753906,27.73,2
-0.198619931936264,-0.8656561374664307,0.0852210447192192,63.70096206665039,1.626477599143982,77.72999572753906,27.73,2
-0.2226250022649765,-0.8857969641685486,0.0826788321137428,55.478607177734375,1.6255472898483276,78.005859375,27.73,2
-0.2324323058128357,-0.8651355504989624,0.081047385931015,43.022491455078125,1.624950289726257,78.18289184570312,27.73,2
-0.2387260645627975,-0.8742673397064209,0.0744026452302932,28.067928314208984,1.6245671510696411,78.29650115966797,27.73,2
-0.2371672689914703,-0.924909770488739,0.0421495623886585,12.1835298538208,1.6243213415145874,78.3694076538086,27.73,2
-0.264155775308609,-1.0357780456542969,-0.000939707737416,-4.587771415710449,1.6241636276245115,78.41619110107422,27.73,2
-0.3038665652275085,-1.090133547782898,-0.0173963736742734,-22.08586883544922,1.624062418937683,78.44621276855469,27.73,2
-0.340546190738678,-1.108222484588623,0.0056293327361345,-39.09025573730469,1.623997449874878,78.46548461914062,27.73,2
-0.3808783888816833,-1.0750486850738523,-0.0019851927645504,-54.806922912597656,1.6239557266235352,78.47785186767578,27.73,2
-0.4179568290710449,-1.0257707834243774,-0.0124695310369133,-69.53599548339844,1.6239289045333862,78.48578643798828,27.71,2
-0.4305560886859894,-0.9213760495185852,-0.0247955508530139,-83.59187316894531,1.623911738395691,78.49087524414062,27.71,2
-0.427446037530899,-0.8319904208183289,-0.0215101316571235,-96.41682434082033,1.6239007711410522,78.494140625,27.71,2
-0.4310479462146759,-0.7914211750030518,-0.0026084154378622,-105.56069946289062,1.6238937377929688,78.4962387084961,27.71,2
-0.4501527547836303,-0.7933750748634338,0.0095216175541281,-106.39160919189452,1.6238892078399658,78.49758911132812,27.71,2
-0.4680109024047851,-0.8058245182037354,0.0340992994606494,-95.76869201660156,1.623886227607727,78.49845123291016,27.71,2
-0.462677925825119,-0.8306071758270264,0.0946540385484695,-76.29069519042969,1.6238843202590942,78.49900817871094,27.71,2
-0.464853286743164,-0.8521090149879456,0.1391123533248901,-54.16804122924805,1.6238831281661987,78.4993667602539,27.71,2
-0.4718470871448517,-0.888298749923706,0.1788386851549148,-33.49369812011719,1.6248005628585815,78.49959564208984,27.71,2
-0.4707375466823578,-0.984294295310974,0.2043327689170837,-15.120924949645996,1.6253893375396729,78.49974060058594,27.71,2
-0.4644277095794678,-1.0570942163467407,0.2262911796569824,0.9150150418281556,1.6257672309875488,78.49983215332031,27.71,2
-0.4547806680202484,-1.1038130521774292,0.2571761310100555,14.713299751281738,1.6260097026824951,78.49989318847656,27.71,2
-0.4709808230400085,-1.1393922567367554,0.2769963145256042,26.69941520690918,1.6261652708053589,78.49993133544922,27.71,2
-0.5149638056755066,-1.1062473058700562,0.2953135669231415,36.77024459838867,1.6262651681900024,78.49995422363281,27.71,2
-0.4984073638916015,-1.1185634136199951,0.2902751863002777,44.078609466552734,1.6263291835784912,78.49996948242188,27.71,2
-0.4765868484973907,-1.1488581895828247,0.2814440727233886,48.67555236816406,1.6263703107833862,78.4999771118164,27.71,2
-0.4457903802394867,-1.1515063047409058,0.2589834332466125,52.41019058227539,1.6291509866714478,78.49998474121094,27.71,2
-0.4204291999340057,-1.1252168416976929,0.2333739548921585,57.18569564819336,1.6309354305267334,78.49999237060547,27.71,2
-0.3649694323539734,-1.0523680448532104,0.2169392704963684,62.53244018554688,1.6320806741714478,78.49999237060547,27.71,2
-0.3181829750537872,-0.9888246059417723,0.1728057861328125,65.30448150634766,1.6328155994415283,78.49999237060547,27.71,2
-0.2937559187412262,-0.9424483180046082,0.1220923587679863,62.79507446289063,1.6332871913909912,78.49999237060547,27.71,2
-0.3004711270332336,-0.901491105556488,0.0727540701627731,56.74945068359375,1.6335898637771606,78.49999237060547,27.71,2
-0.3103783428668976,-0.8696093559265137,0.0354938246309757,51.84868240356445,1.6337840557098389,78.49999237060547,27.71,2
-0.3111384510993957,-0.8323561549186707,0.011582345701754,49.23029327392578,1.633908748626709,78.49999237060547,27.71,2
-0.3060284554958343,-0.8364380598068237,0.0018351087346673,45.1424674987793,1.6344480514526367,78.7077865600586,27.71,2
-0.3027491569519043,-0.8446553945541382,-0.0044201067648828,36.9088249206543,1.6347941160202026,78.84113311767578,27.71,2
-0.3062424659729004,-0.8723198771476746,-0.0028365701436996,25.76385307312012,1.6350162029266355,78.92671203613281,27.71,2
-0.2916909456253052,-0.934855580329895,-0.0018203473882749,13.23420524597168,1.6351587772369385,78.98162841796875,27.71,2
-0.2823526263236999,-1.0309650897979736,-0.0011681942269206,-0.7321817874908447,1.635250210762024,79.0168685913086,27.71,2
-0.3043487071990967,-1.115033745765686,0.0496302880346775,-15.634915351867676,1.635308861732483,79.03948974609375,27.71,2
-0.3296600580215454,-1.0458331108093262,0.0878276079893112,-29.698347091674805,1.635346531867981,79.05400085449219,27.71,2
-0.3235123455524444,-0.9006642699241638,0.117938220500946,-41.44978713989258,1.6353707313537598,79.06331634521484,27.71,2
-0.3195670843124389,-0.8914698362350464,0.1260659247636795,-50.42779922485352,1.6307954788208008,79.06929779052734,27.69,2
-0.3394263386726379,-0.919156014919281,0.1256840527057647,-56.93454360961914,1.627859354019165,79.07313537597656,27.69,2
-0.3353775441646576,-0.8697501420974731,0.1646234095096588,-62.22079849243164,1.6259751319885254,79.07559204101562,27.69,2
-0.3159859478473663,-0.8268487453460693,0.1896124482154846,-67.58362579345703,1.6247659921646118,79.0771713256836,27.69,2
-0.3203348517417907,-0.8273059725761414,0.1944534182548523,-72.1035385131836,1.6239899396896362,79.07818603515625,27.69,2
-0.3455168306827545,-0.844392716884613,0.2031578570604324,-72.80445098876953,1.6234920024871826,79.0788345336914,27.69,2
-0.3784705102443695,-0.866553544998169,0.2143416404724121,-68.01295471191406,1.623172402381897,79.07925415039062,27.69,2
-0.3940204977989197,-0.869579553604126,0.227116510272026,-59.019630432128906,1.6229673624038696,79.07952117919922,27.69,2
-0.4039995968341827,-0.8715214729309082,0.2409124672412872,-48.03916931152344,1.622376799583435,79.07969665527344,27.69,2
-0.3992080390453338,-0.8727676868438721,0.2497659176588058,-36.396095275878906,1.6219978332519531,79.07980346679688,27.69,2
-0.3961330950260162,-0.8847630023956299,0.244252011179924,-24.986989974975582,1.6217546463012695,79.07987213134766,27.69,2
-0.4053553342819214,-0.937243103981018,0.2351157218217849,-14.498287200927734,1.6215986013412476,79.07991790771484,27.69,2
-0.4560558199882507,-0.9821173548698424,0.1900681555271148,-4.410367965698242,1.621498465538025,79.07994842529297,27.69,2
-0.4717991650104522,-1.0053173303604126,0.1331703513860702,6.925033092498779,1.621434211730957,79.07997131347656,27.69,2
-0.4875001013278961,-1.1825411319732666,0.1302432566881179,20.28265380859375,1.6213929653167725,79.0799789428711,27.69,2
-0.5423582792282104,-1.24029541015625,0.1339626014232635,34.182098388671875,1.6213665008544922,79.07998657226562,27.69,2
-0.566367506980896,-1.2213810682296753,0.0803717151284217,46.22596740722656,1.6204313039779663,79.07999420166016,27.69,2
-0.5705797076225281,-1.2148406505584717,0.0179912969470024,55.31282424926758,1.619831085205078,79.07999420166016,27.69,2
-0.5340984463691711,-1.1770567893981934,0.0003502299659885,62.0721321105957,1.6194459199905396,79.07999420166016,27.69,2
-0.4603069126605987,-1.0632449388504028,-0.0277641136199235,67.83931732177734,1.6191987991333008,79.07999420166016,27.69,2
-0.4129517376422882,-0.9790114164352416,-0.0570018328726291,73.52869415283203,1.6190401315689087,79.07999420166016,27.69,2
-0.388159692287445,-0.9361507892608644,-0.109351560473442,78.86361694335938,1.6189383268356323,79.07999420166016,27.69,2
-0.3946406841278076,-0.903047502040863,-0.1541421562433242,82.22994232177734,1.6188730001449585,79.07999420166016,27.69,2
-0.3932020366191864,-0.8706081509590149,-0.1828861832618713,81.59943389892578,1.6188311576843262,79.07999420166016,27.69,2
-0.3810832500457763,-0.8553882241249084,-0.2069302201271057,76.15412139892578,1.6206402778625488,79.20538330078125,27.69,2
-0.3733060956001282,-0.8568165302276611,-0.2055669724941253,66.71614074707031,1.621801257133484,79.28585052490234,27.69,2
-0.3795107305049896,-0.8689286708831787,-0.1878987997770309,54.411376953125,1.6225463151931765,79.33749389648438,27.69,2
-0.3666991889476776,-0.8934948444366455,-0.1485715061426162,39.58260345458984,1.6230244636535645,79.37063598632812,27.69,2
-0.3528797030448913,-0.9484444260597228,-0.1121379658579826,22.22767448425293,1.6233313083648682,79.39190673828125,27.69,2
-0.3608044683933258,-1.0396857261657717,-0.055170364677906,2.825277328491211,1.623528242111206,79.40555572509766,27.69,2
-0.3658901154994964,-1.0254679918289185,0.0037792539224028,-17.36442756652832,1.62365460395813,79.41431427001953,27.69,2
-0.3635560274124145,-0.9715616703033448,0.0584030523896217,-36.38631820678711,1.6237356662750244,79.41993713378906,27.69,2
-0.3620581328868866,-1.0265320539474487,0.0710663646459579,-52.33726501464844,1.621951699256897,79.42354583740234,27.73,2
-0.3666946589946747,-1.045015573501587,0.0791929513216018,-64.5512466430664,1.6208068132400513,79.42585754394531,27.73,2
-0.3584745526313782,-0.9897039532661438,0.1123969927430152,-73.98371887207031,1.6200721263885498,79.4273452758789,27.73,2
-0.3252105116844177,-0.9262192845344543,0.1449009925127029,-81.7494125366211,1.6196006536483765,79.42829895019531,27.73,2
-0.2926680147647857,-0.8966740369796753,0.1713579595088958,-86.65775299072266,1.6192981004714966,79.42890930175781,27.73,2
-0.2941752076148987,-0.9057024717330932,0.193934291601181,-85.07147979736328,1.6191039085388184,79.4292984008789,27.73,2
-0.3119357526302337,-0.91149640083313,0.2028247117996215,-74.97167205810547,1.6189793348312378,79.42955017089844,27.73,2
-0.3401267826557159,-0.9096168279647828,0.2253233939409256,-59.16833114624024,1.6188993453979492,79.4297103881836,27.73,2
-0.3638159334659576,-0.9084106087684632,0.2453595250844955,-42.49562072753906,1.6179301738739014,79.42981719970703,27.73,2
-0.3678227066993713,-0.8964409828186035,0.2582175731658935,-27.217504501342773,1.6173081398010254,79.42988586425781,27.73,2
-0.3647962510585785,-0.9111506938934326,0.2496757954359054,-13.328752517700195,1.6169090270996094,79.42992401123047,27.73,2
-0.3684518337249756,-0.9429816007614136,0.2385963946580886,-1.0087220668792725,1.6166528463363647,79.4299545288086,27.73,2
-0.4043844044208526,-0.9802021980285645,0.2090951800346374,9.856771469116213,1.6164884567260742,79.42996978759766,27.73,2
-0.4554327428340912,-0.9984904527664183,0.1565763503313064,20.65222930908203,1.6163829565048218,79.42997741699219,27.73,2
-0.4937903881072998,-1.1221822500228882,0.0892861410975456,32.45243453979492,1.616315245628357,79.42998504638672,27.73,2
-0.5743838548660278,-1.0896050930023191,0.0740920305252075,44.85085678100586,1.6162718534469604,79.42999267578125,27.73,2
-0.5813218951225281,-0.9791345596313475,0.0587435476481914,56.9453239440918,1.616702914237976,79.42999267578125,27.73,2
-0.5577855110168457,-0.9810119867324828,0.0209049023687839,67.6517333984375,1.616979479789734,79.42999267578125,27.73,2
-0.5762678384780884,-1.021401286125183,-0.0033777588978409,74.97389221191406,1.617156982421875,79.42999267578125,27.73,2
-0.5657376050949097,-1.0361251831054688,0.0034301227424293,76.83901977539062,1.6172709465026855,79.42999267578125,27.73,2
-0.4862088561058044,-1.0007919073104858,-0.0201898422092199,73.07408142089844,1.6173440217971802,79.42999267578125,27.73,2
-0.4015852510929107,-0.96692156791687,-0.0465433225035667,65.80715942382812,1.6173909902572632,79.42999267578125,27.73,2
-0.3472786843776703,-0.95638108253479,-0.0634554699063301,57.55392456054688,1.6174211502075195,79.42999267578125,27.73,2
-0.3180256485939026,-0.9384212493896484,-0.0799064859747886,49.18720626831055,1.6174404621124268,79.42999267578125,27.73,2
-0.3216438293457031,-0.9157000780105592,-0.1016593500971794,40.29267120361328,1.6183710098266602,79.56255340576172,27.73,2
-0.3295635282993316,-0.9123145341873168,-0.1380101889371872,30.951940536499023,1.6189682483673096,79.64762115478516,27.73,2
-0.3402437269687652,-0.9325329661369324,-0.1501425206661224,21.6723747253418,1.619351506233215,79.70220947265625,27.73,2
-0.3526954352855682,-0.9678990840911864,-0.1411350220441818,11.765702247619627,1.6195974349975586,79.73724365234375,27.73,2
-0.3494906723499298,-0.9793995022773744,-0.1241589784622192,-0.4242632985115051,1.6197552680969238,79.75972747802734,27.73,2
-0.3082496225833893,-1.0595508813858032,-0.1076669543981552,-15.430146217346191,1.619856595993042,79.77415466308594,27.73,2
-0.2761856913566589,-1.077400803565979,-0.0690944567322731,-32.02100372314453,1.6199215650558472,79.78341674804688,27.73,2
-0.2612066864967346,-1.0048891305923462,-0.0219497494399547,-48.35002136230469,1.61996328830719,79.78936004638672,27.73,2
-0.2963762283325195,-0.997539758682251,0.0195005629211664,-62.78779220581055,1.6199901103973389,79.79317474365234,27.73,2
-0.3301415741443634,-0.9872255921363832,0.0461009852588176,-74.0987777709961,1.6200072765350342,79.79562377929688,27.73,2
-0.3630057573318481,-0.941422164440155,0.0687693804502487,-81.8841552734375,1.6200182437896729,79.79719543457031,27.73,2
-0.3337161242961883,-0.8896370530128479,0.1001099720597267,-86.65465545654297,1.6200252771377563,79.79820251464844,27.73,2
-0.2925286293029785,-0.8508065938949585,0.1258203387260437,-88.34754180908203,1.6200298070907593,79.7988510131836,27.73,2
-0.2660968899726867,-0.8482785224914551,0.1759064197540283,-85.19217681884766,1.620032787322998,79.79926300048828,27.73,2
-0.2659278213977813,-0.8634494543075562,0.2248421013355255,-75.7047348022461,1.6200346946716309,79.79953002929688,27.73,2
-0.2938081920146942,-0.8955764174461365,0.2506484389305115,-61.5626106262207,1.6200358867645264,79.79969787597656,27.73,2
-0.3172979950904846,-0.9217914342880248,0.2504161298274994,-46.4037971496582,1.6168230772018433,79.7998046875,27.73,2
-0.3211768567562103,-0.9386146664619446,0.2502670586109161,-32.254844665527344,1.614761233329773,79.79987335205078,27.73,2
-0.3180682957172394,-0.9718019962310792,0.2557691633701324,-19.2841854095459,1.6134381294250488,79.79991912841797,27.73,2
-0.3160734176635742,-0.9930996894836426,0.2481045424938202,-7.822026252746582,1.6125890016555786,79.7999496459961,27.73,2
-0.3203909993171692,-1.0011695623397827,0.2151969522237777,1.876731514930725,1.612044095993042,79.79997253417969,27.73,2
-0.3399550914764404,-0.9951527714729308,0.1660898923873901,10.913158416748049,1.6116944551467896,79.79998016357422,27.73,2
-0.3581079840660095,-0.9912915825843812,0.1065869331359863,20.842926025390625,1.6114699840545654,79.79998779296875,27.73,2
-0.4369307458400726,-1.1623446941375732,0.0851946845650672,32.0732536315918,1.611325979232788,79.79999542236328,27.73,2
-0.5490901470184326,-1.143367886543274,0.0714663714170456,43.97698974609375,1.6112335920333862,79.79999542236328,27.73,2
-0.5762854218482971,-1.0528208017349243,0.0234719049185514,55.718170166015625,1.61117422580719,79.79999542236328,27.73,2
-0.5881400108337402,-1.0842772722244265,-0.012925955466926,65.9649887084961,1.6111361980438232,79.79999542236328,27.73,2
-0.5845520496368408,-1.1044642925262451,-0.0306862313300371,72.4942398071289,1.611111760139465,79.79999542236328,27.73,2
-0.4982828795909881,-1.0334525108337402,-0.036485981196165,73.25939178466797,1.6110961437225342,79.79999542236328,27.73,2
-0.4093336462974548,-0.9654901623725892,-0.04580570012331,68.26908111572266,1.6110860109329224,79.79999542236328,27.73,2
-0.3578489422798157,-0.9274736046791076,-0.0741776600480079,60.244441986083984,1.6110795736312866,79.79999542236328,27.73,2
-0.3583956658840179,-0.8974789977073669,-0.1035806983709335,52.74093627929688,1.6110754013061523,79.79999542236328,27.73,2
-0.3643442988395691,-0.8726323843002319,-0.1224498748779296,47.21268844604492,1.613827109336853,79.89314270019531,27.73,2
-0.3513684570789337,-0.8734806180000305,-0.1401568055152893,42.640357971191406,1.6155929565429688,79.95291900634766,27.73,2
-0.331845760345459,-0.8796226978302002,-0.1571178585290908,37.85390853881836,1.6167261600494385,79.99127960205078,27.73,2
-0.3137194514274597,-0.8947598934173584,-0.1456113904714584,32.496559143066406,1.6174533367156982,80.01589965820312,27.73,2
-0.3076848089694977,-0.9492563009262084,-0.1102383285760879,25.92376518249512,1.6179200410842896,80.03170013427734,27.73,2
-0.2982143461704254,-1.0234133005142212,-0.0931357145309448,17.102115631103516,1.6182194948196411,80.04183959960938,27.73,2
-0.2753434181213379,-1.1661652326583862,-0.0653669163584709,5.579793930053711,1.6184117794036863,80.04834747314453,27.73,2
-0.271861732006073,-1.196199655532837,-0.0251554008573293,-8.653706550598145,1.6185351610183716,80.05252075195312,27.73,2
-0.2808229327201843,-1.1091163158416748,0.0342366807162761,-25.30419158935547,1.615401029586792,80.0551986694336,27.73,2
-0.2865737080574035,-1.0700246095657349,0.0779488757252693,-42.97553634643555,1.6133897304534912,80.05691528320312,27.73,2
-0.2846664488315582,-1.056133270263672,0.1115986183285713,-59.27427291870117,1.612099051475525,80.05802154541016,27.73,2
-0.2666491568088531,-0.991240918636322,0.1499864161014557,-72.94384765625,1.611270785331726,80.05873107910156,27.73,2
-0.2494889199733734,-0.9272056221961976,0.1858170330524444,-84.86528015136719,1.6107392311096191,80.0591812133789,27.73,2
-0.2272809147834777,-0.8469270467758179,0.2032132893800735,-95.0056610107422,1.6103980541229248,80.0594711303711,27.73,2
-0.2242246568202972,-0.8122022151947021,0.2199749797582626,-99.83294677734376,1.6101791858673096,80.05966186523438,27.73,2
-0.239056646823883,-0.8067111372947693,0.2195361256599426,-96.0415267944336,1.6100386381149292,80.05978393554688,27.73,2
-0.2709660530090332,-0.8199805617332458,0.2024611681699752,-85.04605102539062,1.6067352294921875,80.05986022949219,27.73,2
-0.2970414459705353,-0.839691698551178,0.2026989907026291,-70.65267944335938,1.604615330696106,80.05990600585938,27.73,2
-0.3249706923961639,-0.8691344857215881,0.2140471637248993,-55.06034851074219,1.6032549142837524,80.0599365234375,27.73,2
-0.3484918475151062,-0.8768336176872253,0.1877431124448776,-39.53334045410156,1.6023818254470823,80.0599594116211,27.73,2
-0.3747819066047668,-0.9153611063957214,0.1708626896142959,-25.08719825744629,1.6018215417861938,80.05997467041016,27.73,2
-0.4028488993644714,-0.9736725091934204,0.1600298136472702,-10.88687229156494,1.6014620065689087,80.05998229980469,27.73,2
-0.4040673673152923,-1.0054956674575806,0.1362845748662948,4.642471790313721,1.601231336593628,80.05998992919922,27.73,2
-0.4104470908641815,-1.10988450050354,0.1378395706415176,21.282649993896484,1.601083278656006,80.05998992919922,27.73,2
-0.4481278657913208,-1.076115369796753,0.1332397013902664,38.06606674194336,1.6037421226501465,80.05998992919922,27.73,2
-0.4555158913135528,-1.0376509428024292,0.1134944409132003,54.787357330322266,1.6054484844207764,80.05998992919922,27.73,2
-0.4546593427658081,-1.108128786087036,0.0952252969145774,70.40116882324219,1.6065435409545898,80.05998992919922,27.73,2
-0.4093274474143982,-1.1533575057983398,0.0890989825129509,82.00112915039062,1.6072462797164917,80.05998992919922,27.73,2
-0.3690405189990997,-1.1096115112304688,0.1075585708022117,86.7118148803711,1.6076972484588623,80.05998992919922,27.73,2
-0.3040022552013397,-1.0367556810379028,0.1194048672914505,83.66597747802734,1.6079866886138916,80.05998992919922,27.73,2
-0.2678622305393219,-0.9844032526016236,0.1158115938305854,74.72172546386719,1.6081724166870115,80.05998992919922,27.73,2
-0.2558651864528656,-0.9564042687416076,0.0799189880490303,64.13459777832031,1.6082916259765625,80.05998992919922,27.73,2
-0.2481661587953567,-0.9328383207321168,0.0456896312534809,56.01124954223633,1.6069912910461426,80.08148956298828,27.73,2
-0.2376275956630706,-0.8841284513473511,0.0237232018262147,50.98803329467773,1.606156826019287,80.09528350830078,27.73,2
-0.2252667844295501,-0.8416736721992493,0.0040286374278366,46.79354095458984,1.6056212186813354,80.10414123535156,27.73,2
-0.2173343300819397,-0.8144286870956421,-0.0030124266631901,41.83398818969727,1.6052775382995603,80.10982513427734,27.73,2
-0.2346348315477371,-0.836128830909729,-0.0019332020310685,35.98221206665039,1.6050570011138916,80.11347198486328,27.73,2
-0.2457372993230819,-0.8556525111198425,-0.0068383920006453,28.612060546875,1.6049154996871948,80.11581420898438,27.73,2
-0.2416666746139526,-0.8625838756561279,0.0124048367142677,18.669675827026367,1.6048246622085571,80.11731719970703,27.73,2
-0.2334565967321396,-0.9398031234741212,0.0023629358038306,5.998222351074219,1.6047663688659668,80.11827850341797,27.73,2
-0.2281878441572189,-1.0845201015472412,-0.0096791526302695,-9.03004550933838,1.6051878929138184,80.118896484375,27.73,2
-0.2639910876750946,-1.1214134693145752,-0.0118092978373169,-25.82156181335449,1.605458378791809,80.11929321289062,27.73,2
-0.2813697755336761,-1.1003072261810305,-0.0075785275548696,-42.69135284423828,1.605631947517395,80.11954498291016,27.73,2
-0.3317068219184875,-1.1595336198806765,0.0007343116449192,-57.66961669921875,1.605743408203125,80.11970520019531,27.73,2
-0.3752058148384094,-1.1023794412612915,-0.0163220837712287,-70.5168685913086,1.6058149337768557,80.11981201171875,27.73,2
-0.3807298541069031,-1.0153212547302246,-0.0216701235622167,-81.41260528564453,1.6058608293533323,80.11988067626953,27.73,2
-0.3506882190704345,-0.9090723395347596,0.0028866860084235,-87.74566650390625,1.6058902740478516,80.11992645263672,27.73,2
-0.3538003265857696,-0.8408879041671753,0.0130480574443936,-85.62274932861328,1.6059091091156006,80.11995697021484,27.73,2
-0.3781885802745819,-0.8027288317680359,-0.0084198303520679,-74.80596923828125,1.6036258935928345,80.1199722290039,27.73,2
-0.4050351083278656,-0.7894361019134521,-0.0221966858953237,-59.140811920166016,1.6021606922149658,80.11997985839844,27.73,2
-0.4110681414604187,-0.7809056043624878,-0.0142445554956793,-42.30599594116211,1.6012203693389893,80.11998748779297,27.73,2
-0.4261353313922882,-0.8034200668334961,0.0188475362956523,-26.01029396057129,1.6006169319152832,80.1199951171875,27.73,2
-0.4358045756816864,-0.8346619009971619,0.0456819087266922,-11.271472930908203,1.6002296209335327,80.1199951171875,27.73,2
-0.43641197681427,-0.8882977366447449,0.0740982145071029,1.4221200942993164,1.5999810695648191,80.1199951171875,27.73,2
-0.4200084507465362,-0.9786958694458008,0.1203230395913124,12.258651733398438,1.5998215675354004,80.1199951171875,27.73,2
-0.4094816148281097,-1.064697027206421,0.1443896889686584,21.14033889770508,1.5997192859649658,80.1199951171875,27.73,2
-0.4307149648666382,-1.0974966287612915,0.1766276061534881,27.846799850463867,1.6065393686294556,80.1199951171875,27.73,2
-0.4443413019180298,-1.0961543321609497,0.2029138207435608,32.85997009277344,1.6109161376953125,80.1199951171875,27.73,2
-0.4194992482662201,-1.1400752067565918,0.2085872590541839,36.4998779296875,1.6137248277664185,80.1199951171875,27.73,2
-0.3699704110622406,-1.17945659160614,0.1898370385169983,37.98669052124024,1.6155272722244265,80.1199951171875,27.73,2
-0.3269900977611542,-1.1767404079437256,0.1778042316436767,36.33988952636719,1.6166839599609375,80.1199951171875,27.73,2
-0.2882122695446014,-1.1134217977523804,0.1644844859838485,31.618093490600582,1.6174262762069702,80.1199951171875,27.73,2
-0.2689246535301208,-1.0559942722320557,0.1447411030530929,25.184471130371094,1.6179026365280151,80.1199951171875,27.73,2
-0.2677425146102905,-1.0135427713394165,0.1096798330545425,19.146228790283203,1.618208408355713,80.1199951171875,27.73,2
-0.2725816667079925,-0.9751043319702148,0.0759839788079261,15.031200408935549,1.612437129020691,80.19522857666016,27.73,2
-0.2756871581077575,-0.933643400669098,0.0487621426582336,12.9277982711792,1.6087334156036377,80.24351501464844,27.73,2
-0.2552889883518219,-0.8790473341941833,0.036890510469675,12.301636695861816,1.6063566207885742,80.27449798583984,27.73,2
-0.2366008460521698,-0.8328151702880859,0.0292719807475805,13.14653778076172,1.6048312187194824,80.29438018798828,27.73,2
-0.2246078699827194,-0.7919504642486572,0.0299806203693151,15.397635459899902,1.603852391242981,80.30714416503906,27.73,2
-0.2225092500448227,-0.7769213914871216,0.0304353851824998,17.820302963256836,1.6032241582870483,80.3153305053711,27.73,2
-0.2379557937383651,-0.8064610362052917,0.0195316784083843,18.583282470703125,1.6028209924697876,80.32058715820312,27.73,2
-0.2422707229852676,-0.8590044975280762,0.0013387581566348,16.586612701416016,1.6025623083114624,80.32395935058594,27.73,2
-0.2450397908687591,-0.909517228603363,-0.01033641025424,11.4683256149292,1.6023962497711182,80.32612609863281,27.73,2
-0.2580123841762543,-1.0314977169036863,-0.0122310873121023,3.264826774597168,1.602289795875549,80.3275146484375,27.73,2
-0.2999240756034851,-1.1489622592926023,-0.0302403047680854,-6.940077304840088,1.6022213697433472,80.32840728759766,27.73,2
-0.338016152381897,-1.1179865598678589,-0.0194064863026142,-17.265031814575195,1.6021775007247925,80.3289794921875,27.73,2
-0.2728970646858215,-1.1260969638824463,0.0043393559753894,-26.62449836730957,1.6021493673324585,80.329345703125,27.73,2
-0.2423029243946075,-1.1536928415298462,0.0139802973717451,-35.46110153198242,1.6021312475204468,80.32958221435547,27.73,2
-0.2786470949649811,-1.0874357223510742,0.0033739756327122,-45.06917572021485,1.6021196842193604,80.3297348022461,27.73,2
-0.3019706904888153,-1.0001335144042969,-0.0146281002089381,-55.84227752685547,1.6021122932434082,80.329833984375,27.73,2
-0.3225362300872803,-0.8937279582023621,-0.0205830205231905,-65.39260864257812,1.600271463394165,80.32989501953125,27.73,2
-0.3413317799568176,-0.8254430294036865,-0.0132089974358677,-69.55462646484375,1.5990900993347168,80.3299331665039,27.73,2
-0.3589914441108703,-0.7984150052070618,-0.0140745490789413,-66.66899871826172,1.5983320474624634,80.3299560546875,27.73,2
-0.3815199434757232,-0.8090588450431824,-0.014630009420216,-59.07071304321289,1.5978455543518066,80.32997131347656,27.73,2
-0.3903796672821045,-0.8214871883392334,-0.0093886982649564,-49.42616271972656,1.5975333452224731,80.3299789428711,27.73,2
-0.4016630947589874,-0.8462563157081604,0.0219637472182512,-38.396785736083984,1.5973329544067385,80.32998657226562,27.73,2
-0.4145019352436065,-0.8789450526237488,0.0644750371575355,-26.81905174255371,1.597204327583313,80.32999420166016,27.73,2
-0.4283389449119568,-0.922313928604126,0.0973541140556335,-16.845500946044922,1.5971218347549438,80.32999420166016,27.73,2
-0.4148276448249817,-1.0061233043670654,0.1408451050519943,-9.406103134155272,1.5979866981506348,80.32999420166016,27.73,2
-0.4229501783847809,-1.110287308692932,0.2023417651653289,-2.725995779037476,1.5985417366027832,80.32999420166016,27.73,2
-0.4337605237960815,-1.160340428352356,0.2530023455619812,5.218722820281982,1.598897933959961,80.32999420166016,27.73,2
-0.4183068871498108,-1.1756683588027954,0.2631222903728485,14.250853538513184,1.5991264581680298,80.32999420166016,27.73,2
-0.3692052066326141,-1.2246893644332886,0.2584211230278015,23.09592628479004,1.5992732048034668,80.32999420166016,27.73,2
-0.2985101640224457,-1.2673437595367432,0.2274153232574463,31.18684196472168,1.599367380142212,80.32999420166016,27.73,2
-0.2811310291290283,-1.2051525115966797,0.1907242536544799,38.6934700012207,1.5994278192520142,80.32999420166016,27.73,2
-0.2531847655773163,-1.1372528076171875,0.155982494354248,46.172645568847656,1.5994665622711182,80.32999420166016,27.73,2
-0.1848705112934112,-1.0656898021697998,0.1672738790512085,54.26831817626953,1.5985735654830933,80.30491638183594,27.73,2
-0.1746169924736023,-1.0253626108169556,0.1521289348602295,62.29030990600586,1.5980005264282229,80.28882598876953,27.73,2
-0.1960257440805435,-0.9714940786361694,0.0976275950670242,67.96141815185547,1.5976327657699585,80.27850341796875,27.73,2
-0.2153624296188354,-0.8977399468421936,0.0570539981126785,69.78443908691406,1.597396731376648,80.2718734741211,27.73,2
-0.2221738249063491,-0.8504087924957275,0.0366139709949493,68.1384506225586,1.5972453355789185,80.26762390136719,27.73,2
-0.2041538953781128,-0.79764324426651,0.0178989637643098,63.46016311645508,1.5971481800079346,80.264892578125,27.73,2
-0.1981875151395797,-0.7637813687324524,0.0058887507766485,55.32049179077149,1.5970858335494995,80.26313781738281,27.73,2
-0.205554187297821,-0.7924307584762573,0.0037790613714605,43.60171127319336,1.5970457792282104,80.26201629638672,27.73,2
-0.2102816849946975,-0.8164140582084656,-0.0087703643366694,29.17406463623047,1.6002333164215088,80.26129150390625,27.71,2
-0.2133155167102813,-0.8262073397636414,-0.0168238636106252,13.35553741455078,1.6022788286209106,80.26082611083984,27.71,2
-0.2152624577283859,-0.9892297983169556,-0.0387854576110839,-2.563830614089966,1.6035915613174438,80.26052856445312,27.71,2
-0.2445007711648941,-1.1722171306610107,-0.0584769211709499,-17.369243621826172,1.6044340133666992,80.26033782958984,27.71,2
-0.2968508899211883,-1.127312421798706,-0.0487226694822311,-30.216630935668945,1.604974627494812,80.26021575927734,27.71,2
-0.3136528432369232,-1.07050621509552,-0.0368651784956455,-41.10886764526367,1.6053215265274048,80.26013946533203,27.71,2
-0.3020442724227905,-1.1124200820922852,-0.0124624017626047,-50.89686965942383,1.6055442094802856,80.26009368896484,27.71,2
-0.3561700880527496,-1.0497536659240725,-0.0303887501358985,-60.4240608215332,1.6056870222091677,80.26006317138672,27.71,2
-0.3853071331977844,-0.9759513139724731,-0.0474906228482723,-69.27873229980469,1.5988930463790894,80.26004028320312,27.71,2
-0.3872123062610626,-0.895002543926239,-0.0360745228826999,-75.1366958618164,1.5945329666137695,80.26002502441406,27.71,2
-0.3996304869651794,-0.8486520648002625,-0.0175527781248092,-75.0590591430664,1.5917350053787231,80.26001739501953,27.71,2
-0.4299908578395843,-0.8357003331184387,-0.0224599111825227,-68.0626220703125,1.5899393558502195,80.260009765625,27.71,2
-0.4550721645355224,-0.8441819548606873,-0.0144134778529405,-56.07438278198242,1.588787078857422,80.260009765625,27.71,2
-0.4655701220035553,-0.855222761631012,0.0075435820035636,-42.11509704589844,1.5880476236343384,80.260009765625,27.71,2
-0.4723071157932281,-0.8735036849975586,0.0440254583954811,-28.14839172363281,1.5875730514526367,80.260009765625,27.71,2
-0.4822283089160919,-0.8852353096008301,0.0786329731345176,-15.025993347167969,1.5872684717178345,80.260009765625,27.71,2
-0.4829973876476288,-0.9151550531387328,0.1232331842184066,-3.627672910690308,1.5870730876922607,80.260009765625,27.71,2
-0.4666976034641266,-0.990333616733551,0.1518550366163253,4.883692741394043,1.586947679519653,80.260009765625,27.71,2
-0.4730306565761566,-1.077763319015503,0.1870162189006805,10.14159107208252,1.5868672132492063,80.260009765625,27.71,2
-0.5106815099716187,-1.1282728910446167,0.2431672811508178,13.33309555053711,1.586815595626831,80.260009765625,27.71,2
-0.5124525427818298,-1.1215026378631592,0.2624084651470184,16.370010375976562,1.586782455444336,80.260009765625,27.71,2
-0.4744046926498413,-1.1507444381713867,0.2691586017608642,20.665515899658203,1.5867611169815063,80.260009765625,27.71,2
-0.410803347826004,-1.1751079559326172,0.2734904289245605,26.92946434020996,1.586747407913208,80.260009765625,27.71,2
-0.358792096376419,-1.1627541780471802,0.2594770193099975,35.54933547973633,1.5867387056350708,80.260009765625,27.71,2
-0.2918276190757751,-1.0876529216766355,0.2392884790897369,46.55166244506836,1.5881102085113523,80.31016540527344,27.71,2
-0.2600492238998413,-1.0170661211013794,0.20953930914402,59.25129699707031,1.588990330696106,80.34234619140625,27.71,2
-0.2564490139484405,-0.9717676043510436,0.1568613648414611,71.82925415039062,1.5895551443099976,80.36299896240234,27.71,2
-0.2765296995639801,-0.931502103805542,0.1062623709440231,81.2302017211914,1.5899176597595217,80.37625885009766,27.71,2
-0.2894163429737091,-0.8944664597511292,0.0737908482551574,84.5261001586914,1.590150237083435,80.384765625,27.71,2
-0.2752951383590698,-0.8427102565765381,0.0473547205328941,81.13838195800781,1.5902994871139526,80.39022064208984,27.71,2
-0.2494396418333053,-0.798300564289093,0.0303895343095064,72.75215148925781,1.5903953313827517,80.39372253417969,27.71,2
-0.244042620062828,-0.7865942716598511,0.025100028142333,60.90738677978516,1.5904568433761597,80.3959732055664,27.71,2
-0.2573724389076233,-0.7902774214744568,0.016107752919197,46.14094543457031,1.5895780324935913,80.39741516113281,27.71,2
-0.2659267485141754,-0.8094343543052673,0.0215325765311718,29.470882415771484,1.589014172554016,80.3983383178711,27.71,2
-0.2770141959190368,-0.883303701877594,0.0138183683156967,12.818755149841309,1.58865225315094,80.39893341064453,27.71,2
-0.2729339301586151,-0.9642954468727112,0.0032700588926672,-2.532135248184204,1.588420033454895,80.3993148803711,27.71,2
-0.2983043193817138,-1.133824586868286,0.0244896337389946,-16.603727340698242,1.5882710218429563,80.3995590209961,27.71,2
-0.3369766771793365,-1.06348979473114,0.0772915557026863,-29.55698585510254,1.5881754159927368,80.39971923828125,27.71,2
-0.3450010418891907,-0.9679730534553528,0.1055790185928344,-41.115455627441406,1.5881140232086182,80.39981842041016,27.71,2
-0.3445528447628021,-1.0074357986450195,0.1125367283821106,-51.42057037353516,1.5880745649337769,80.39988708496094,27.71,2
-0.3554607629776001,-1.032760739326477,0.1114040166139602,-61.85641098022461,1.588049292564392,80.3999252319336,27.71,2
-0.3848519325256347,-0.9706439971923828,0.1162748783826828,-74.00979614257812,1.5880330801010132,80.39995574951172,27.71,2
-0.358931303024292,-0.880401074886322,0.1473895907402038,-86.63127899169922,1.5880227088928225,80.39997100830078,27.71,2
-0.3534924983978271,-0.8392816781997681,0.1673572212457656,-94.41217803955078,1.5880160331726074,80.39997863769531,27.71,2
-0.3723932802677154,-0.8352847099304199,0.1801712960004806,-92.48755645751952,1.5880117416381836,80.39998626708984,27.71,2
-0.3957182466983795,-0.8383174538612366,0.1827968657016754,-81.94491577148438,1.588008999824524,80.39999389648438,27.71,2
-0.3994913399219513,-0.851459264755249,0.1956773549318313,-68.08216857910156,1.5880072116851809,80.39999389648438,27.71,2
-0.3963149189949035,-0.8430995941162109,0.2095410823822021,-54.22757339477539,1.5880060195922852,80.39999389648438,27.71,2
-0.3942764699459076,-0.8433325886726379,0.2184380143880844,-40.54300308227539,1.588923454284668,80.39999389648438,27.71,2
-0.4041638374328613,-0.8826665282249451,0.2129520177841186,-27.343719482421875,1.5895122289657593,80.39999389648438,27.71,2
-0.4217045307159424,-0.9247021079063416,0.1982358694076538,-15.86023235321045,1.5898901224136353,80.39999389648438,27.71,2
-0.4273633658885956,-0.985264778137207,0.1775963455438614,-6.212272644042969,1.5901325941085815,80.39999389648438,27.71,2
-0.4197993576526642,-1.0241304636001587,0.1195688843727111,2.741398334503174,1.590288162231445,80.39999389648438,27.71,2
-0.4149451851844787,-1.0994521379470823,0.0767324268817901,11.643597602844238,1.5903880596160889,80.39999389648438,27.71,2
-0.4901989102363586,-1.170180320739746,0.0772313252091407,20.27989959716797,1.5904521942138672,80.39999389648438,27.71,2
-0.544090211391449,-1.1204074621200562,0.0495626181364059,28.42313003540039,1.5904933214187622,80.39999389648438,27.71,2
-0.5506856441497803,-1.1332483291625977,0.0094153378158807,36.06005859375,1.591896891593933,80.44298553466797,27.71,2
-0.5157337784767151,-1.1134999990463257,-0.0163488741964101,43.53687286376953,1.5927976369857788,80.47057342529297,27.71,2
-0.4597170650959015,-1.0672399997711182,-0.0384806394577026,51.516387939453125,1.5933756828308103,80.48828125,27.71,2
-0.3845843374729156,-0.9703797101974488,-0.0414879843592643,60.00480270385742,1.593746542930603,80.49964141845703,27.71,2
-0.3419662415981293,-0.9138181209564208,-0.0490156970918178,68.00655364990234,1.593984603881836,80.5069351196289,27.71,2
-0.320214182138443,-0.8887156844139099,-0.0762376487255096,74.45642852783203,1.5941373109817505,80.51161193847656,27.71,2
-0.3342438340187073,-0.8614108562469482,-0.1216960027813911,78.32331085205078,1.5942354202270508,80.51461791992188,27.71,2
-0.3432472646236419,-0.8382903933525085,-0.1508685499429702,77.87430572509766,1.5942983627319336,80.51654815673828,27.71,2
-0.349025160074234,-0.862637460231781,-0.1695898175239563,71.38471984863281,1.5929615497589111,80.51778411865234,27.73,2
-0.3527330756187439,-0.8838597536087036,-0.1816040575504303,58.75445175170898,1.5921037197113037,80.5185775756836,27.73,2
-0.3495148122310638,-0.925467848777771,-0.1725207716226577,41.58873748779297,1.5915532112121582,80.51908874511719,27.73,2
-0.3530473113059997,-0.9745606780052184,-0.138702780008316,21.72380828857422,1.5911998748779297,80.51941680908203,27.73,2
-0.360912024974823,-1.0844343900680542,-0.100207008421421,0.4383626878261566,1.590973138809204,80.51962280273438,27.73,2
-0.3659591376781463,-1.1213583946228027,-0.0531115420162677,-20.687498092651367,1.5908275842666626,80.51976013183594,27.73,2
-0.3580025434494018,-1.0722830295562744,-0.0004972853930667,-39.33211898803711,1.5907342433929443,80.51984405517578,27.73,2
-0.319309800863266,-0.9960071444511414,0.0332675203680992,-53.783470153808594,1.5906742811203003,80.5198974609375,27.73,2
-0.3112723529338836,-1.0142309665679932,0.0437402762472629,-64.13945770263672,1.5883405208587646,80.51993560791016,27.73,2
-0.3173099458217621,-1.0147303342819214,0.0560588650405406,-71.93534088134766,1.5868427753448486,80.51995849609375,27.73,2
-0.3267822861671448,-0.942279815673828,0.0695619955658912,-78.57552337646484,1.585881590843201,80.51997375488281,27.73,2
-0.3272633254528045,-0.8789919018745422,0.089423082768917,-83.05176544189453,1.585264801979065,80.51998138427734,27.73,2
-0.305180937051773,-0.8439751267433167,0.1077665537595748,-81.60377502441406,1.5848690271377563,80.51998901367188,27.73,2
-0.3022052645683288,-0.8662855625152588,0.153124988079071,-71.34909057617188,1.5846149921417236,80.51998901367188,27.73,2
-0.3058934211730957,-0.8806031346321106,0.1766356378793716,-53.859283447265625,1.5844520330429075,80.51998901367188,27.73,2
-0.3026624917984009,-0.878595769405365,0.1805278807878494,-33.7254638671875,1.584347367286682,80.51998901367188,27.73,2
-0.3117846250534057,-0.8829053044319153,0.1830256879329681,-14.639126777648926,1.5783127546310425,80.51998901367188,27.73,2
-0.3008453547954559,-0.8800731897354126,0.1902264207601547,1.8654860258102417,1.5744401216506958,80.51998901367188,27.73,2
-0.299422949552536,-0.9062445759773254,0.19484743475914,15.448646545410156,1.5719548463821411,80.51998901367188,27.73,2
-0.3097056746482849,-0.939833164215088,0.1866173893213272,26.569446563720703,1.5703599452972412,80.51998901367188,27.73,2
-0.3834778368473053,-0.9949750304222108,0.1309558451175689,36.24259948730469,1.5693364143371582,80.51998901367188,27.73,2
-0.4364183247089386,-1.030361890792847,0.0896376967430114,45.0655517578125,1.5686795711517334,80.51998901367188,27.73,2
-0.4368058443069458,-1.0978533029556274,0.0519265383481979,53.063453674316406,1.5682580471038818,80.51998901367188,27.73,2
-0.4930322766304016,-1.1299699544906616,0.061312336474657,60.35633850097656,1.5679875612258911,80.51998901367188,27.73,2
-0.5403107404708862,-1.0330272912979126,0.0449445024132728,66.77762603759766,1.566436767578125,80.59523010253906,27.73,2
-0.5538579821586609,-1.0547816753387451,0.0176472458988428,70.83395385742188,1.565441608428955,80.64351654052734,27.73,2
-0.5681496262550354,-1.096731185913086,0.0113249868154525,70.2844009399414,1.5648030042648315,80.67449951171875,27.73,2
-0.5493322610855103,-1.0676742792129517,0.018463272601366,64.23185729980469,1.564393162727356,80.69438171386719,27.73,2
-0.4756808578968048,-0.9930495023727416,0.0230442136526107,54.253719329833984,1.5641300678253174,80.70714569091797,27.73,2
-0.4116223156452179,-0.9339640736579896,0.0147884497418999,43.3076171875,1.5639612674713137,80.71533203125,27.73,2
-0.3761110007762909,-0.9016441702842712,-0.0129007212817668,33.682090759277344,1.5638529062271118,80.72058868408203,27.73,2
-0.3533218801021576,-0.8697075843811035,-0.0362678095698356,25.78534507751465,1.5637834072113037,80.72396087646484,27.73,2
-0.3442949056625366,-0.8548102974891663,-0.0624590143561363,18.517967224121094,1.5683292150497437,80.72612762451172,27.71,2
-0.3440997004508972,-0.8564456105232239,-0.0904625728726387,10.945131301879885,1.5712463855743408,80.7275161743164,27.71,2
-0.3551699519157409,-0.8686906099319458,-0.0972380936145782,3.272998809814453,1.5731185674667358,80.72840881347656,27.71,2
-0.3622742295265198,-0.921330988407135,-0.1183795556426048,-4.4664387702941895,1.5743199586868286,80.7289810180664,27.71,2
-0.3668333292007446,-0.966308057308197,-0.1207513809204101,-13.58895206451416,1.575091004371643,80.7293472290039,27.71,2
-0.352965772151947,-1.0287584066390991,-0.0942846089601516,-25.121639251708984,1.5755857229232788,80.72958374023438,27.71,2
-0.3272730410099029,-1.1136176586151123,-0.0661042109131813,-38.17595672607422,1.575903296470642,80.729736328125,27.71,2
-0.3163827061653137,-1.1064999103546145,-0.0256285537034273,-51.020938873291016,1.5761070251464844,80.7298355102539,27.71,2
-0.314991682767868,-0.9955744743347168,0.0115419412031769,-62.255558013916016,1.5753198862075806,80.72989654541016,27.71,2
-0.325294554233551,-0.9803666472434998,0.0297980513423681,-70.39675903320312,1.574814796447754,80.72993469238281,27.71,2
-0.337504118680954,-0.9929982423782348,0.0471115447580814,-74.13096618652344,1.574490666389465,80.7299575805664,27.71,2
-0.3453395366668701,-0.9451267123222352,0.0694179013371467,-73.27796936035156,1.5742826461791992,80.72997283935547,27.71,2
-0.3223789632320404,-0.8864166140556335,0.089330606162548,-68.12336730957031,1.5741491317749023,80.72998046875,27.71,2
-0.2908508777618408,-0.8487398624420166,0.1077072098851203,-58.27366256713867,1.574063420295715,80.72998809814453,27.71,2
-0.2818135023117065,-0.8413544297218323,0.1362935751676559,-44.10684585571289,1.5740084648132324,80.72999572753906,27.71,2
-0.2984049320220947,-0.8646037578582764,0.1658342182636261,-28.688570022583008,1.5739731788635254,80.72999572753906,27.71,2
-0.314650148153305,-0.8795238137245178,0.1791939288377761,-15.988851547241213,1.567064881324768,80.72999572753906,27.71,2
-0.3194776177406311,-0.8946964740753174,0.1989629715681076,-7.527219772338867,1.5626314878463743,80.72999572753906,27.71,2
-0.3225755989551544,-0.9044333696365356,0.2228451520204544,-2.286907434463501,1.5597864389419556,80.72999572753906,27.71,2
-0.3189659416675567,-0.9218775033950806,0.2381713539361953,1.416367769241333,1.5579606294631958,80.72999572753906,27.71,2
-0.3222472369670868,-0.9666588306427002,0.2200179547071457,5.21161699295044,1.5567889213562012,80.72999572753906,27.71,2
-0.3523418605327606,-0.995396852493286,0.1803792864084243,10.02243709564209,1.5560369491577148,80.72999572753906,27.71,2
-0.3884481787681579,-1.0138392448425293,0.1381481438875198,15.495738983154297,1.5555543899536133,80.72999572753906,27.71,2
-0.4228146970272064,-1.115238904953003,0.0774599760770797,21.136240005493164,1.5552446842193604,80.72999572753906,27.71,2
-0.4896513223648071,-1.2138980627059937,0.0665026754140853,27.292451858520508,1.5564230680465698,80.7801513671875,27.71,2
-0.5325432419776917,-1.053300857543945,0.0482753627002239,33.847686767578125,1.55717933177948,80.81233978271484,27.71,2
-0.5432754755020142,-1.034205436706543,0.0029914756305515,39.14356231689453,1.5576646327972412,80.83300018310547,27.71,2
-0.589347243309021,-1.0555377006530762,-0.0204713400453329,41.43871688842773,1.5579761266708374,80.84626007080078,27.71,2
-0.5797290205955505,-1.046836495399475,-0.0355284251272678,40.557861328125,1.558176040649414,80.85476684570312,27.71,2
-0.5399699211120605,-1.0076658725738523,-0.0563867427408695,37.420291900634766,1.5583043098449707,80.86022186279297,27.71,2
-0.4640748798847198,-0.9601373076438904,-0.0753701850771904,33.2966423034668,1.5583865642547607,80.86372375488281,27.71,2
-0.4265653491020202,-0.935234010219574,-0.1043459922075271,29.90156364440918,1.5584393739700315,80.86597442626953,27.71,2
-0.40809166431427,-0.9136547446250916,-0.1285387724637985,28.532459259033203,1.5626046657562256,80.86741638183594,27.71,2
-0.4074318706989288,-0.8998063802719116,-0.1608576327562332,28.94715690612793,1.5652776956558228,80.86833953857422,27.71,2
-0.4014106690883636,-0.8965170979499817,-0.1815980076789856,30.27014541625977,1.5669931173324585,80.86893463134766,27.71,2
-0.3807533085346222,-0.9056017398834229,-0.1781146675348281,31.88941764831543,1.56809401512146,80.86931610107422,27.71,2
-0.3563010394573211,-0.9282251000404358,-0.1534881591796875,32.38043975830078,1.568800449371338,80.86956024169922,27.71,2
-0.3294134438037872,-0.9539390206336976,-0.1320865154266357,29.46048355102539,1.5692538022994995,80.86972045898438,27.71,2
-0.3009629845619201,-1.0320162773132324,-0.1239499449729919,21.88674545288086,1.569544792175293,80.86981964111328,27.71,2
-0.2827050983905792,-1.0989151000976562,-0.0963372662663459,10.036751747131348,1.5697314739227295,80.86988830566406,27.71,2
-0.2933793365955353,-1.046684741973877,-0.039432618767023,-4.8441033363342285,1.5680148601531982,80.86992645263672,27.71,2
-0.3114250004291534,-1.0299595594406128,-0.0029144885484129,-21.028709411621094,1.5669132471084597,80.86995697021484,27.71,2
-0.328603446483612,-1.0304218530654907,0.0261185206472873,-36.77817153930664,1.5662063360214231,80.8699722290039,27.71,2
-0.3340298235416412,-1.025120735168457,0.0559457838535308,-50.85118103027344,1.565752625465393,80.86997985839844,27.71,2
-0.3207188248634338,-0.9937299489974976,0.0862827524542808,-62.14303588867188,1.56546151638031,80.86998748779297,27.71,2
-0.2785899341106415,-0.9176074266433716,0.1225445941090583,-69.206787109375,1.565274715423584,80.8699951171875,27.71,2
-0.2571518123149872,-0.8631585836410522,0.1514131277799606,-70.27912902832031,1.565154790878296,80.8699951171875,27.71,2
-0.2545896172523498,-0.8338142037391663,0.158743754029274,-64.4398422241211,1.565077781677246,80.8699951171875,27.71,2
-0.2697386741638183,-0.8373737931251526,0.1634481251239776,-53.45572280883789,1.5627334117889404,80.8699951171875,27.71,2
-0.2738626897335052,-0.8452559113502502,0.1664671152830124,-41.29799270629883,1.5612289905548096,80.8699951171875,27.71,2
-0.2765092551708221,-0.8447164297103882,0.168404534459114,-30.91999053955078,1.5602635145187378,80.8699951171875,27.71,2
-0.2838054299354553,-0.8387724161148071,0.1752456277608871,-22.71947860717773,1.5596438646316528,80.8699951171875,27.71,2
-0.2828899323940277,-0.8517512083053589,0.1796358525753021,-15.909189224243164,1.559246301651001,80.8699951171875,27.71,2
-0.3214868307113647,-0.9104602336883544,0.1824532449245453,-9.49666976928711,1.5589910745620728,80.8699951171875,27.71,2
-0.3686471879482269,-0.9985162615776062,0.1786635071039199,-2.468849897384644,1.55882728099823,80.8699951171875,27.71,2
-0.4045097827911377,-1.0998077392578125,0.1370470523834228,5.638106346130371,1.5587222576141355,80.8699951171875,27.71,2
-0.4051332175731659,-1.220788598060608,0.1103400066494941,14.817343711853027,1.55773663520813,80.85566711425781,27.71,2
-0.4111310839653015,-1.2928292751312256,0.1043965145945549,25.18268585205078,1.5571041107177734,80.84647369384766,27.71,2
-0.4485668241977691,-1.1991164684295654,0.1005823165178299,36.266212463378906,1.556698203086853,80.840576171875,27.71,2
-0.4166131913661957,-1.13897705078125,0.0701457187533378,46.22713088989258,1.5564377307891846,80.83678436279297,27.71,2
-0.3345316648483276,-1.1227741241455078,0.1121887788176536,52.80576705932617,1.5562704801559448,80.83435821533203,27.71,2
-0.3714208602905273,-1.106778264045715,0.0999851748347282,54.60215377807617,1.5561631917953491,80.83279418945312,27.71,2
-0.3671053349971771,-1.0629264116287231,0.0977513790130615,51.76398086547852,1.5560942888259888,80.83179473876953,27.71,2
-0.3307492434978485,-0.9676114916801452,0.1075134053826332,46.60364532470703,1.556050181388855,80.8311538696289,27.71,2
-0.2906246781349182,-0.9008460640907288,0.1081803366541862,42.313995361328125,1.560153245925903,80.83074188232422,27.73,2
-0.253679484128952,-0.857999861240387,0.0974127873778343,39.84416961669922,1.562786340713501,80.83047485351562,27.73,2
-0.2467635124921798,-0.8361014127731323,0.0737094655632972,37.48892211914063,1.5644761323928833,80.83030700683594,27.73,2
-0.2479230016469955,-0.8164504766464233,0.0529002659022808,33.8135871887207,1.5655605792999268,80.8302001953125,27.73,2
-0.2374715507030487,-0.7870463132858276,0.0395461209118366,28.64264488220215,1.566256403923035,80.83013153076172,27.73,2
-0.2363621890544891,-0.7849697470664978,0.0309761986136436,21.59835433959961,1.566702961921692,80.83008575439453,27.73,2
-0.2468458116054535,-0.8396148681640625,0.0254765152931213,12.11228370666504,1.566989541053772,80.8300552368164,27.73,2
-0.2591713666915893,-0.8858785033226013,0.0219471361488103,0.3534533679485321,1.5671734809875488,80.83003234863281,27.73,2
-0.2614834308624267,-0.921165645122528,0.0420732796192169,-13.286649703979492,1.565455436706543,80.83002471923828,27.73,2
-0.2461738586425781,-1.0501686334609983,0.0325979851186275,-28.49946594238281,1.5643529891967771,80.83001708984375,27.73,2
-0.2419468313455581,-1.2169219255447388,0.0321150608360767,-44.04087066650391,1.5636454820632937,80.83000946044922,27.73,2
-0.2840163707733154,-1.1783924102783203,0.065391793847084,-57.88004684448242,1.5631914138793943,80.83000946044922,27.73,2
-0.311014175415039,-1.1144819259643557,0.092344656586647,-68.94660186767578,1.5629000663757324,80.83000946044922,27.73,2
-0.3395353555679321,-1.140641212463379,0.12083700299263,-77.37403869628906,1.5627130270004272,80.83000946044922,27.73,2
-0.3466430604457855,-1.051071047782898,0.1335239708423614,-82.38819885253906,1.5625929832458496,80.83000946044922,27.73,2
-0.3288132846355438,-0.9376122951507568,0.1192746460437774,-81.79413604736328,1.5625159740447998,80.83000946044922,27.73,2
-0.2949800491333008,-0.8144209980964661,0.1437169015407562,-74.57376098632812,1.561548352241516,80.83000946044922,27.73,2
-0.3348433375358581,-0.7577550411224365,0.1258158832788467,-62.43106460571289,1.560927391052246,80.83000946044922,27.73,2
-0.3660230934619903,-0.7437812089920044,0.1087302640080452,-47.83526992797852,1.5605288743972778,80.83000946044922,27.73,2
-0.4084235727787018,-0.7516069412231445,0.0865701511502265,-32.30291748046875,1.5602731704711914,80.83000946044922,27.73,2
-0.4356337487697601,-0.7622268199920654,0.0891423895955085,-17.079509735107422,1.56010901927948,80.83000946044922,27.73,2
-0.4586934447288513,-0.8026286363601685,0.1131841987371444,-3.3154296875,1.5600037574768066,80.83000946044922,27.73,2
-0.467894047498703,-0.856545090675354,0.1342106163501739,8.881603240966797,1.5599361658096311,80.83000946044922,27.73,2
-0.4626029133796692,-0.90234112739563,0.1588997095823288,19.750564575195312,1.5598927736282349,80.83000946044922,27.73,2
-0.4256207346916199,-0.9765125513076782,0.1747437566518783,28.56349754333496,1.564455270767212,80.87657928466797,27.73,2
-0.3962899148464203,-1.0688936710357666,0.1905093193054199,34.788761138916016,1.5673831701278689,80.90646362304688,27.73,2
-0.4558359384536743,-1.1505696773529053,0.2342133969068527,39.6113510131836,1.569262146949768,80.92564392089844,27.73,2
-0.4716580510139465,-1.063040256500244,0.22867351770401,44.5333251953125,1.5704679489135742,80.93795013427734,27.73,2
-0.442627340555191,-1.046053409576416,0.2419116646051406,49.246803283691406,1.571241855621338,80.94584655761719,27.73,2
-0.390410453081131,-1.1191188097000122,0.2224182784557342,51.96712493896485,1.5717384815216064,80.95092010498047,27.73,2
-0.3401073515415191,-1.1716057062149048,0.1987129896879196,51.090423583984375,1.5720571279525757,80.95417022705078,27.73,2
-0.3190212547779083,-1.1213221549987793,0.1779025346040725,46.41859436035156,1.5722616910934448,80.95626068115234,27.73,2
-0.2830983102321625,-1.0554665327072144,0.1701453477144241,39.54055404663086,1.5714750289916992,80.95760345458984,27.73,2
-0.260045051574707,-1.0076063871383667,0.1483739167451858,32.64748001098633,1.5709701776504517,80.95845794677734,27.73,2
-0.2676418721675873,-0.9656969308853148,0.0952178388833999,26.58308219909668,1.5706462860107422,80.9590072631836,27.73,2
-0.2725170850753784,-0.916410744190216,0.0555075518786907,20.89643096923828,1.5704383850097656,80.95936584472656,27.73,2
-0.253254622220993,-0.8511950373649597,0.0300237759947776,15.728053092956545,1.5703049898147583,80.9595947265625,27.73,2
-0.2352953106164932,-0.8093433976173401,0.0248653050512075,12.296643257141112,1.5702193975448608,80.9597396850586,27.73,2
-0.2349656075239181,-0.7880831956863403,0.021554896607995,11.280394554138184,1.570164442062378,80.95983123779297,27.73,2
-0.2459495663642883,-0.7912329435348511,0.0082349181175231,11.857048034667969,1.570129156112671,80.95989227294922,27.73,2
-0.2585962116718292,-0.8044497966766357,-0.005910852458328,12.556708335876465,1.5701065063476562,80.95993041992188,27.73,2
-0.2779076397418976,-0.852116048336029,-0.0093910191208124,12.013336181640623,1.570091962814331,80.95995330810547,27.73,2
-0.3014961779117584,-0.9554765820503236,-0.0340154878795146,8.90963077545166,1.570082664489746,80.95996856689453,27.73,2
-0.316633939743042,-1.0889806747436523,-0.0666113793849945,2.496952533721924,1.5700767040252686,80.95997619628906,27.73,2
-0.3543373346328735,-1.157862663269043,-0.0819317698478698,-6.544376373291016,1.570072889328003,80.9599838256836,27.73,2
-0.3729354441165924,-1.1181005239486694,-0.0637746453285217,-16.56685447692871,1.5700703859329224,80.95999145507812,27.73,2
-0.3624795377254486,-1.1205723285675049,-0.0353291220963001,-26.111963272094727,1.5700688362121582,80.95999145507812,27.73,2
-0.3781606256961822,-1.071778655052185,-0.0562588423490524,-34.68794631958008,1.5700677633285522,80.95999145507812,27.73,2
-0.3938216269016266,-1.0124768018722534,-0.0696903318166732,-42.93218994140625,1.5650174617767334,80.95999145507812,27.73,2
-0.381480872631073,-0.9072469472885132,-0.0559187904000282,-50.76649856567383,1.5617765188217163,80.95999145507812,27.73,2
-0.3791590631008148,-0.8341187238693237,-0.0358854606747627,-55.2244758605957,1.5596966743469238,80.95999145507812,27.73,2
-0.4000601470470428,-0.7983847856521606,-0.0230292230844497,-52.70074081420898,1.5583618879318235,80.95999145507812,27.73,2
-0.4134732484817505,-0.8090394139289856,-0.0147788301110267,-43.70104598999024,1.5575053691864014,80.95999145507812,27.73,2
-0.4164832532405853,-0.8270725011825562,-0.0094842026010155,-32.6484260559082,1.5569556951522827,80.95999145507812,27.73,2
-0.412817120552063,-0.8442428708076477,0.0386957786977291,-22.99394798278809,1.556602954864502,80.95999145507812,27.73,2
-0.4048666357994079,-0.8552618622779846,0.0696149170398712,-15.114449501037598,1.556376576423645,80.95999145507812,27.73,2
-0.3997644484043121,-0.8679309487342834,0.0838592648506164,-8.757366180419922,1.558526635169983,80.94566345214844,27.73,2
-0.413283497095108,-0.9208434820175172,0.1097937896847724,-4.581026554107666,1.5599064826965332,80.93647003173828,27.73,2
-0.42195925116539,-0.9659952521324158,0.1264370828866958,-2.2519845962524414,1.5607919692993164,80.93057250976562,27.73,2
-0.4331246018409729,-1.0509487390518188,0.1818999797105789,0.8369065523147583,1.561360239982605,80.9267807006836,27.73,2
-0.4458876848220825,-1.116662621498108,0.2286884188652038,6.996462345123291,1.5617249011993408,80.92435455322266,27.73,2
-0.459676057100296,-1.1476384401321411,0.2699100971221924,15.581581115722656,1.561958909034729,80.92279052734375,27.73,2
-0.4013513326644897,-1.2290924787521362,0.2683749198913574,24.129039764404297,1.562109112739563,80.92179107666016,27.73,2
-0.330335259437561,-1.281364917755127,0.2505964040756225,30.91478157043457,1.56220543384552,80.92115020751953,27.73,2
-0.2623701095581054,-1.236541509628296,0.2279916405677795,35.87135314941406,1.560430884361267,80.92073822021484,27.71,2
-0.2187540084123611,-1.174189805984497,0.2022896558046341,40.32042694091797,1.5592920780181885,80.92047119140625,27.71,2
-0.2019592523574829,-1.100589394569397,0.1634045094251632,46.034481048583984,1.5585612058639526,80.92030334472656,27.71,2
-0.2247679829597473,-1.0589547157287598,0.1216569319367408,53.13712310791016,1.55809223651886,80.92019653320312,27.71,2
-0.2394053190946579,-1.021040439605713,0.0892679616808891,58.82011795043945,1.557791233062744,80.92012786865234,27.71,2
-0.2432009428739547,-0.9575247764587402,0.0572870410978794,59.984413146972656,1.557598114013672,80.92008209228516,27.71,2
-0.2344412058591842,-0.8999707698822021,0.0367635264992713,56.91614532470703,1.557474136352539,80.92005157470703,27.71,2
-0.2008308470249176,-0.8406448364257812,0.0235927142202854,52.03089141845703,1.5573946237564087,80.92002868652344,27.71,2
-0.1904571950435638,-0.7969750761985779,0.031933769583702,45.88287353515625,1.5600978136062622,80.9200210571289,27.71,2
-0.2005933076143264,-0.7913414239883423,0.0316888056695461,37.42338180541992,1.5618325471878052,80.92001342773438,27.71,2
-0.2015003114938736,-0.815714955329895,0.0035427268594503,26.896562576293945,1.56294584274292,80.92000579833984,27.71,2
-0.1964845955371856,-0.8369542956352234,-0.0089220311492681,15.13619899749756,1.5636602640151978,80.92000579833984,27.71,2
-0.1820702403783798,-0.9121599793434144,-0.0225189682096242,1.649163842201233,1.56411874294281,80.92000579833984,27.71,2
-0.2287976890802383,-1.1171603202819824,-0.05363579839468,-13.67679500579834,1.5644129514694214,80.92000579833984,27.71,2
-0.2923713326454162,-1.1815444231033323,-0.073604792356491,-28.782081604003903,1.5646017789840698,80.92000579833984,27.71,2
-0.3163759112358093,-1.1500914096832275,-0.0752241909503936,-41.39558410644531,1.5647228956222534,80.92000579833984,27.71,2
-0.326182872056961,-1.1802866458892822,-0.076263427734375,-51.45703887939453,1.558833122253418,80.92000579833984,27.71,2
-0.3660630881786346,-1.1436864137649536,-0.0657348036766052,-60.75488662719727,1.555053472518921,80.92000579833984,27.71,2
-0.3804603517055511,-1.0306341648101809,-0.0925647839903831,-70.43683624267578,1.5526279211044312,80.92000579833984,27.71,2
-0.3785041272640228,-0.930094838142395,-0.0985871702432632,-78.19066619873047,1.551071286201477,80.92000579833984,27.71,2
-0.3940420746803283,-0.8655744791030884,-0.0800608918070793,-79.1039810180664,1.5500723123550415,80.92000579833984,27.71,2
-0.4152089655399322,-0.835364580154419,-0.0625740215182304,-71.32478332519531,1.549431324005127,80.92000579833984,27.71,2
-0.4343904554843902,-0.8439664840698242,-0.0513519532978534,-58.89511489868164,1.5490199327468872,80.92000579833984,27.71,2
-0.4411022365093231,-0.8550844788551331,-0.0273569542914628,-46.87374114990234,1.5487558841705322,80.92000579833984,27.71,2
-0.4454094767570495,-0.8622193932533264,0.0104327527806162,-36.41486358642578,1.5508818626403809,80.923583984375,27.71,2
-0.4425758421421051,-0.8556026220321655,0.0458795614540576,-26.44997787475586,1.5522462129592896,80.9258804321289,27.71,2
-0.4407573938369751,-0.8569540977478027,0.0686272829771041,-17.07796859741211,1.5531216859817505,80.92735290527344,27.71,2
-0.4507859647274017,-0.8970057964324951,0.0944210067391395,-9.150456428527832,1.553683519363403,80.92829895019531,27.71,2
-0.4628194868564605,-1.04026198387146,0.1333650350570678,-2.207261800765991,1.5540441274642944,80.92890930175781,27.71,2
-0.4873352348804474,-1.1377933025360107,0.1919437199831009,5.110959053039551,1.5542755126953125,80.9292984008789,27.71,2
-0.491872489452362,-1.0772322416305542,0.223938375711441,12.952874183654783,1.5544240474700928,80.92955017089844,27.71,2
-0.4667953550815582,-1.04956316947937,0.2444707006216049,20.346281051635746,1.5545192956924438,80.9297103881836,27.71,2
-0.4283111989498138,-1.1549577713012695,0.2632449269294739,27.2619857788086,1.5564165115356443,80.92981719970703,27.75,2
-0.3756254017353058,-1.1946051120758057,0.2361087352037429,34.84558868408203,1.5576341152191162,80.92988586425781,27.75,2
-0.336216926574707,-1.1528751850128174,0.2130965143442154,43.85018157958984,1.558415412902832,80.92992401123047,27.75,2
-0.3053290545940399,-1.0701175928115845,0.1983285993337631,54.32198715209961,1.5589168071746826,80.9299545288086,27.75,2
-0.2911047637462616,-1.0114108324050903,0.1832536160945892,65.86074829101562,1.5592385530471802,80.92996978759766,27.75,2
-0.2987697720527649,-0.9737361669540404,0.1399927139282226,76.65836334228516,1.5594451427459717,80.92997741699219,27.75,2
-0.2924931943416595,-0.9215698838233948,0.1178281381726265,83.92082977294922,1.559577703475952,80.92998504638672,27.75,2
-0.2716719210147857,-0.8712992072105408,0.1092019602656364,86.27070617675781,1.559662699699402,80.92999267578125,27.75,2
-0.2303211390972137,-0.8054517507553101,0.0980684012174606,83.83430480957031,1.5587990283966064,80.92999267578125,27.75,2
-0.1981868147850036,-0.7575968503952026,0.0853257551789283,76.01557922363281,1.5582448244094849,80.92999267578125,27.75,2
-0.211151510477066,-0.7604730129241943,0.0715504810214042,61.98779678344727,1.557889103889465,80.92999267578125,27.75,2
-0.2418625950813293,-0.8015031814575195,0.0571125298738479,43.1585693359375,1.5576608180999756,80.92999267578125,27.75,2
-0.2615711987018585,-0.8558228611946106,0.0422493070363998,22.58793258666992,1.5575144290924072,80.92999267578125,27.75,2
-0.2630234956741333,-0.969050943851471,0.0271131731569767,2.3901116847991943,1.5574203729629517,80.92999267578125,27.75,2
-0.2695532739162445,-1.114485263824463,0.022997448220849,-16.325302124023438,1.557360053062439,80.92999267578125,27.75,2
-0.340917021036148,-1.1574366092681885,0.0595406331121921,-32.36617660522461,1.557321310043335,80.92999267578125,27.75,2
-0.353127509355545,-1.0506538152694702,0.0829919502139091,-45.37587738037109,1.556837558746338,80.92999267578125,27.75,2
-0.3273768424987793,-1.043702244758606,0.0868461057543754,-56.72337341308594,1.5565271377563477,80.92999267578125,27.75,2
-0.3052537739276886,-1.0560344457626345,0.0837217047810554,-68.23297882080078,1.5563279390335083,80.92999267578125,27.75,2
-0.3078497946262359,-1.030361890792847,0.0929121896624565,-81.08977508544922,1.5562000274658203,80.92999267578125,27.75,2
-0.3207113146781921,-0.9187245965003968,0.1044078916311264,-95.0439910888672,1.5561180114746094,80.92999267578125,27.75,2
-0.3513562083244324,-0.8582777380943298,0.1117851734161377,-106.42440032958984,1.556065320968628,80.92999267578125,27.75,2
-0.3822178840637207,-0.8250842094421387,0.110921710729599,-109.23514556884766,1.556031584739685,80.92999267578125,27.75,2
-0.4132186770439148,-0.8261736035346985,0.1159653663635253,-101.30506134033205,1.5560098886489868,80.92999267578125,27.75,2
-0.4275154173374176,-0.826872706413269,0.1359954178333282,-86.99443817138672,1.5509463548660278,80.94074249267578,27.75,2
-0.4310924708843231,-0.8049302697181702,0.1656428724527359,-71.80631256103516,1.547696828842163,80.94763946533203,27.75,2
-0.4445835649967193,-0.8300333023071289,0.1958644539117813,-57.34477615356445,1.5456115007400513,80.95206451416016,27.75,2
-0.4644369184970855,-0.8741318583488464,0.2040633708238601,-42.80497360229492,1.5442732572555542,80.95491027832031,27.75,2
-0.4883732199668884,-0.9528117179870604,0.1925316452980041,-28.40123748779297,1.5434143543243408,80.95673370361328,27.75,2
-0.4925386011600494,-1.0144994258880615,0.1851312518119812,-15.47844409942627,1.5428632497787476,80.95790100097656,27.75,2
-0.4672228395938873,-1.037293791770935,0.1915776431560516,-4.233296871185303,1.5425095558166504,80.95865631103516,27.75,2
-0.4789654910564422,-1.1694751977920532,0.212507888674736,6.68040943145752,1.5422825813293457,80.95913696289062,27.75,2
-0.531283438205719,-1.2263126373291016,0.2315374910831451,17.925968170166016,1.5476454496383667,80.95944213867188,27.71,2
-0.5256736874580383,-1.1116477251052856,0.1765763014554977,28.546167373657227,1.5510871410369873,80.95964050292969,27.71,2
-0.488487035036087,-1.077246904373169,0.1245120540261268,37.64728164672852,1.5532957315444946,80.95977020263672,27.71,2
-0.4590249955654144,-1.1335391998291016,0.1526757329702377,45.51559066772461,1.5547131299972534,80.95985412597656,27.71,2
-0.3841402232646942,-1.1024911403656006,0.1483584642410278,53.01549911499024,1.555622696876526,80.95990753173828,27.71,2
-0.3192901611328125,-1.0321862697601318,0.1287945657968521,61.05641174316406,1.556206464767456,80.9599380493164,27.71,2
-0.2832708954811096,-0.9870686531066896,0.0882507115602493,69.87083435058594,1.5565810203552246,80.9599609375,27.71,2
-0.2713513374328613,-0.963712513446808,0.0398409031331539,77.5444107055664,1.5568214654922483,80.95997619628906,27.71,2
-0.2916909456253052,-0.9487239122390748,-0.0248123724013566,80.8423843383789,1.5615663528442385,80.9599838256836,27.71,2
-0.3159392774105072,-0.9167140126228333,-0.0774986743927002,78.67048645019531,1.5646114349365234,80.95999145507812,27.71,2
-0.3259026706218719,-0.9129651784896852,-0.1169074848294258,72.64800262451172,1.5665655136108398,80.95999145507812,27.71,2
-0.3211010694503784,-0.9105594158172609,-0.1645888835191726,63.87857055664063,1.567819595336914,80.95999145507812,27.71,2
-0.3180196583271026,-0.9090155363082886,-0.1895902901887893,51.94194030761719,1.5686243772506714,80.95999145507812,27.71,2
-0.3216399848461151,-0.9248180985450744,-0.1720481067895889,37.00548553466797,1.5691407918930054,80.95999145507812,27.71,2
-0.3183655142784118,-0.9685459136962892,-0.1551927626132965,20.122425079345703,1.5694721937179563,80.95999145507812,27.71,2
-0.3162641525268554,-1.0525856018066406,-0.1331804245710373,2.169269323348999,1.5696848630905151,80.95999145507812,27.71,2
-0.3149156272411346,-1.0225508213043213,-0.091065302491188,-15.395837783813477,1.5689032077789309,80.95999145507812,27.71,2
-0.3028546571731567,-0.9640918374061584,-0.036049373447895,-30.472806930541992,1.568401575088501,80.95999145507812,27.71,2
-0.3287012577056885,-0.9881517291069032,0.0272455550730228,-42.60956573486328,1.5680795907974243,80.95999145507812,27.71,2
-0.367679238319397,-0.9700053930282592,0.0566690526902675,-53.83393096923828,1.5678730010986328,80.95999145507812,27.71,2
-0.3926930427551269,-0.9359689950942992,0.0699535831809043,-66.00253295898438,1.5677404403686523,80.95999145507812,27.71,2
-0.3471699655056,-0.9029308557510376,0.0952721536159515,-77.4802017211914,1.567655324935913,80.95999145507812,27.71,2
-0.2955647706985473,-0.892924427986145,0.1171179264783859,-83.1119384765625,1.5676007270812988,80.95999145507812,27.71,2
-0.2568497359752655,-0.8921006321907043,0.1815172582864761,-78.64019012451172,1.567565679550171,80.95999145507812,27.71,2
-0.2767868638038635,-0.902767539024353,0.2340405881404876,-65.244873046875,1.5611164569854736,80.91342163085938,27.71,2
-0.3007768988609314,-0.8984173536300659,0.2565515041351318,-48.2402229309082,1.5569777488708496,80.88353729248047,27.71,2
-0.3385634422302246,-0.9068212509155272,0.2598021626472473,-32.000328063964844,1.5543217658996582,80.8643569946289,27.71,2
-0.3628126680850982,-0.923409938812256,0.256290465593338,-18.07473945617676,1.5526173114776611,80.85205078125,27.71,2
-0.3615810871124267,-0.9452511072158812,0.2428413033485412,-6.7198591232299805,1.5515234470367432,80.84415435791016,27.71,2
-0.3775840699672699,-0.9704630970954896,0.1782326698303222,2.5267183780670166,1.5508214235305786,80.83908081054688,27.71,2
-0.415842741727829,-1.0090337991714478,0.136770561337471,10.9791898727417,1.5503709316253662,80.83583068847656,27.71,2
-0.4627860486507416,-1.0057973861694336,0.0989670231938362,19.81769371032715,1.5500818490982056,80.833740234375,27.71,2
-0.4761182367801666,-0.9981226325035096,0.0355224683880806,29.416240692138672,1.5471420288085938,80.8323974609375,27.73,2
-0.4958696067333221,-1.0827618837356567,0.0116007262840867,39.67449951171875,1.545255422592163,80.83154296875,27.73,2
-0.5869137644767761,-1.0027318000793457,-0.0093486448749899,49.95846176147461,1.5440447330474854,80.83099365234375,27.73,2
-0.6285473108291626,-0.9849597811698914,-0.039586067199707,58.940528869628906,1.5432677268981934,80.83063507080078,27.73,2
-0.6384720206260681,-1.0239347219467163,-0.0589907057583332,65.43913269042969,1.5427690744400024,80.83040618896484,27.73,2
-0.6224499940872192,-1.0489466190338137,-0.0602479353547096,69.20831298828125,1.542449116706848,80.83026123046875,27.73,2
-0.5505924820899963,-0.997824490070343,-0.0386636555194854,70.78883361816406,1.542243719100952,80.83016967773438,27.73,2
-0.4485007226467132,-0.948223888874054,-0.0360076576471328,70.9361343383789,1.5421119928359983,80.83010864257812,27.73,2
-0.3829841017723083,-0.9163931012153624,-0.0510965138673782,69.9917221069336,1.55120849609375,80.83007049560547,27.73,2
-0.3633304238319397,-0.8791726231575012,-0.0719752237200737,67.7878189086914,1.5570461750030518,80.83004760742188,27.73,2
-0.3563155829906463,-0.8496888875961304,-0.0965695232152938,63.90509033203125,1.5607924461364746,80.83003234863281,27.73,2
-0.357411652803421,-0.8419634699821472,-0.1123527288436889,57.74123764038086,1.5631965398788452,80.83002471923828,27.73,2
-0.369310587644577,-0.8817879557609558,-0.1392748057842254,49.096038818359375,1.5647393465042114,80.83001708984375,27.73,2
-0.3825443983078003,-0.9185405373573304,-0.1565518528223037,38.485870361328125,1.5657293796539309,80.83000946044922,27.73,2
-0.3854393362998962,-0.9757128953933716,-0.1228570640087127,25.736963272094727,1.5663647651672363,80.83000946044922,27.73,2
-0.3705038130283355,-1.0124027729034424,-0.0956359133124351,9.483905792236328,1.5667725801467896,80.83000946044922,27.73,2
-0.3497235178947449,-1.0639371871948242,-0.0669713988900184,-10.40078830718994,1.561066746711731,80.83000946044922,27.73,2
-0.313996821641922,-1.0858134031295776,-0.0317828394472599,-31.813560485839844,1.5574051141738892,80.83000946044922,27.73,2
-0.2966672480106354,-1.0494723320007324,-0.0036030749324709,-52.61629867553711,1.5550552606582642,80.83000946044922,27.73,2
-0.3135350048542022,-1.042944073677063,0.0424699485301971,-71.40106964111328,1.5535472631454468,80.83000946044922,27.73,2
-0.3467508554458618,-1.0331567525863647,0.0720369666814804,-86.4869155883789,1.5525795221328735,80.83000946044922,27.73,2
-0.3736646473407745,-0.976495921611786,0.0910113751888275,-96.71985626220705,1.551958441734314,80.83000946044922,27.73,2
-0.3293608427047729,-0.9009498357772828,0.1143836081027984,-102.18333435058594,1.5515599250793457,80.83000946044922,27.73,2
-0.2785381376743316,-0.8580664396286011,0.1237847879528999,-102.43292236328124,1.5513041019439695,80.83000946044922,27.73,2
-0.2571185827255249,-0.8529374599456787,0.1690023392438888,-95.85426330566406,1.55343496799469,80.73686218261719,27.73,2
-0.2657638490200043,-0.8608415126800537,0.20921590924263,-82.2138671875,1.554802417755127,80.67708587646484,27.73,2
-0.2993007600307464,-0.871511697769165,0.2294248938560485,-64.06315612792969,1.5556800365447998,80.63871765136719,27.73,2
-0.3320183455944061,-0.8895547389984131,0.2311983108520507,-44.701786041259766,1.5562431812286377,80.61409759521484,27.73,2
-0.3418190777301788,-0.9011337161064148,0.2435319274663925,-26.31178474426269,1.5566046237945557,80.59829711914062,27.73,2
-0.3257175087928772,-0.9141622185707092,0.2570447027683258,-10.099990844726562,1.5568366050720217,80.5881576538086,27.73,2
-0.3265800178050995,-0.9337186813354492,0.2489231079816818,3.7000865936279297,1.5569854974746704,80.58164978027344,27.73,2
-0.360720157623291,-0.9798555374145508,0.2213200479745865,16.063522338867188,1.5570809841156006,80.57747650146484,27.73,2
-0.4162159860134125,-1.0094635486602783,0.1756171137094497,28.17853164672852,1.55943763256073,80.57479858398438,27.73,2
-0.4406344592571258,-1.1068331003189087,0.1071031838655471,40.33473587036133,1.5609499216079712,80.57308197021484,27.73,2
-0.5346736907958984,-1.1637214422225952,0.0967215299606323,51.90475845336914,1.561920404434204,80.57197570800781,27.73,2
-0.5782293081283569,-1.071480393409729,0.0956569537520408,61.50077438354492,1.562543272972107,80.5712661743164,27.73,2
-0.5278119444847107,-1.0066875219345093,0.0557893514633178,67.49414825439453,1.5629429817199707,80.57081604003906,27.73,2
-0.5178481340408325,-1.0098894834518433,0.0358023941516876,69.22663116455078,1.563199520111084,80.57052612304688,27.73,2
-0.5338450074195862,-1.01194429397583,0.0453670136630535,66.91707611083984,1.5633641481399536,80.5703353881836,27.73,2
-0.4937309026718139,-0.9740785360336304,0.0291139371693134,60.233036041259766,1.5634697675704956,80.5702133178711,27.73,2
-0.4455968737602234,-0.9385828971862792,0.0130858747288584,49.13671112060547,1.5621604919433594,80.57013702392578,27.73,2
-0.4035116732120514,-0.9269993901252748,-0.0083955619484186,36.24778366088867,1.561320185661316,80.5700912475586,27.73,2
-0.3821015954017639,-0.9139679670333862,-0.0333766601979732,25.40412139892578,1.5607810020446775,80.57006072998047,27.73,2
-0.3795574009418487,-0.9056051969528198,-0.0717991888523101,17.915061950683594,1.5604349374771118,80.57003784179688,27.73,2
-0.3667291402816772,-0.9058362245559692,-0.1076521053910255,12.843904495239258,1.5602128505706787,80.57002258300781,27.73,2
-0.3584966957569122,-0.9059844613075256,-0.1250626742839813,9.575197219848633,1.560070276260376,80.57001495361328,27.73,2
-0.3588113486766815,-0.9228729009628296,-0.1250402182340622,7.430954933166504,1.5599788427352903,80.57000732421875,27.73,2
-0.3534155189990997,-0.94490647315979,-0.1138302609324455,4.636203765869141,1.5599201917648315,80.57000732421875,27.73,2
-0.321963906288147,-0.9814374446868896,-0.1122341305017471,-0.1344270408153534,1.5575871467590332,80.57000732421875,27.73,2
-0.3073778450489044,-1.032869815826416,-0.0944164991378784,-6.710450172424316,1.556089997291565,80.57000732421875,27.73,2
-0.2924195826053619,-0.9931051135063172,-0.0661888495087623,-14.728093147277832,1.5551291704177856,80.57000732421875,27.73,2
-0.3108091056346893,-1.0011730194091797,-0.0312806442379951,-24.26559257507324,1.5545125007629397,80.57000732421875,27.73,2
-0.3450015187263489,-1.0175460577011108,0.0023169806227087,-34.66022109985352,1.5541168451309204,80.57000732421875,27.73,2
-0.3781397938728332,-1.0112600326538086,0.0294757764786481,-44.2220344543457,1.5538629293441772,80.57000732421875,27.73,2
-0.3602216243743896,-0.9680415987968444,0.0748936012387275,-52.00624084472656,1.553699970245361,80.57000732421875,27.73,2
-0.3263316750526428,-0.917915403842926,0.1040401458740234,-58.58161544799805,1.5535954236984253,80.57000732421875,27.73,2
-0.2765941917896271,-0.8801495432853699,0.1283424943685531,-64.05162811279297,1.5558236837387085,80.46969604492188,27.73,2
-0.2726643979549408,-0.878304660320282,0.1663294434547424,-66.51585388183594,1.55725359916687,80.40531921386719,27.73,2
-0.2757402658462524,-0.8827185034751892,0.2019028216600418,-64.04536437988281,1.558171272277832,80.36400604248047,27.73,2
-0.2777141630649566,-0.8967466354370117,0.2135362178087234,-56.99651718139648,1.558760166168213,80.33749389648438,27.73,2
-0.2845786809921264,-0.9113468527793884,0.2154040932655334,-47.31048202514648,1.5591380596160889,80.32048034667969,27.73,2
-0.2833861410617828,-0.9151186347007751,0.2222005575895309,-36.86709976196289,1.5593806505203247,80.30956268310547,27.73,2
-0.2658275365829468,-0.9175391793251038,0.2153666019439697,-26.87991714477539,1.5595362186431885,80.30255126953125,27.73,2
-0.2657549679279327,-0.9358858466148376,0.1997854113578796,-17.353878021240234,1.559636116027832,80.29805755615234,27.73,2
-0.299295037984848,-0.9868441224098206,0.1617974191904068,-7.246042728424072,1.556486964225769,80.29517364501953,27.73,2
-0.3376124501228332,-1.0195461511611938,0.1150278225541114,3.937340259552002,1.5544660091400146,80.29331970214844,27.73,2
-0.3845934569835663,-1.1077057123184204,0.0514271408319473,15.613906860351562,1.5531691312789917,80.29212951660156,27.73,2
-0.442732036113739,-1.2258570194244385,0.0218074303120374,27.377685546875,1.552336812019348,80.29136657714844,27.73,2
-0.5192264318466187,-1.1225509643554688,-0.0083963451907038,39.03621673583984,1.5518027544021606,80.29087829589844,27.73,2
-0.5403273105621338,-1.078646183013916,-0.0053882910870015,49.48794555664063,1.551460027694702,80.29056549072266,27.73,2
-0.5650641918182373,-1.0840572118759155,0.0133354272693395,56.98701095581055,1.551240086555481,80.29035949707031,27.73,2
-0.5529500246047974,-1.0763341188430786,0.0029601352289319,60.15149688720703,1.5510989427566528,80.29022979736328,27.73,2
-0.5059913992881775,-1.0377912521362305,-0.0036981296725571,58.642696380615234,1.5523854494094849,80.29014587402344,27.73,2
-0.4142805337905884,-0.9682745337486268,0.0256156269460916,54.21725082397461,1.5532110929489136,80.29009246826172,27.73,2
-0.3274369239807129,-0.9236626625061036,0.0276341829448938,50.32039260864258,1.5537409782409668,80.2900619506836,27.73,2
-0.2884989976882934,-0.8894355893135071,0.0121362544596195,48.87289047241211,1.5540809631347656,80.2900390625,27.73,2
-0.2803042232990265,-0.8786661624908447,-0.0034071991685777,48.69272613525391,1.5542991161346436,80.29002380371094,27.73,2
-0.2750452756881714,-0.8773527145385742,-0.0189798679202795,48.10420608520508,1.5544391870498655,80.2900161743164,27.73,2
-0.2660726308822632,-0.8541187644004822,-0.0233757346868515,46.75923156738281,1.554529070854187,80.29000854492188,27.73,2
-0.265912264585495,-0.8839907050132751,-0.0261967498809099,44.09048843383789,1.5545867681503296,80.29000854492188,27.73,2
-0.2546137869358063,-0.903160810470581,-0.0336048901081085,38.54806900024414,1.5537055730819702,80.29000854492188,27.73,2
-0.2417653203010559,-0.9826363921165466,-0.0047723609022796,29.21256828308105,1.5531400442123413,80.29000854492188,27.73,2
-0.239117681980133,-1.0616281032562256,0.0137306964024901,16.407522201538086,1.5527771711349487,80.29000854492188,27.73,2
-0.2206252515316009,-1.1459070444107056,0.0256048943847417,0.8313705325126648,1.5525442361831665,80.29000854492188,27.73,2
-0.264735609292984,-1.0824391841888428,0.0724094957113266,-16.38339614868164,1.5523947477340698,80.29000854492188,27.73,2
-0.270652025938034,-1.0249158143997192,0.1304348558187484,-33.15221405029297,1.5522987842559814,80.29000854492188,27.73,2
-0.2800466120243072,-1.0663695335388184,0.1564766466617584,-47.646522521972656,1.5522372722625732,80.29000854492188,27.73,2
-0.2972710728645324,-1.0873743295669556,0.1843843162059784,-59.75329208374024,1.552197813987732,80.29000854492188,27.73,2
-0.3083247244358063,-1.0168874263763428,0.2078916281461715,-69.700927734375,1.5530906915664673,80.19686126708984,27.73,2
-0.3210161030292511,-0.9100774526596068,0.2061839401721954,-76.08832550048828,1.5536636114120483,80.1370849609375,27.73,2
-0.3235629200935364,-0.8415329456329346,0.2050880491733551,-77.12786865234375,1.5540313720703125,80.09871673583984,27.73,2
-0.3699795007705688,-0.8143383264541626,0.1931892186403274,-72.98001098632812,1.5542672872543335,80.0740966796875,27.73,2
-0.4109625518321991,-0.8080819845199585,0.1743576824665069,-65.12342071533203,1.554418683052063,80.05829620361328,27.73,2
-0.4260675609111786,-0.7928714752197266,0.1286860406398773,-54.73630905151367,1.5545158386230469,80.04815673828125,27.73,2
-0.4301633238792419,-0.788707971572876,0.1217677146196365,-43.00111389160156,1.554578185081482,80.0416488647461,27.73,2
-0.4383895099163055,-0.8084272146224976,0.1285234838724136,-31.24270248413086,1.554618239402771,80.0374755859375,27.73,2
-0.4380708336830139,-0.8714618682861328,0.1328589469194412,-19.50163459777832,1.5560210943222046,80.03479766845703,27.73,2
-0.4378663301467895,-0.9175116419792176,0.1300434172153473,-6.908295631408691,1.556921362876892,80.0330810546875,27.73,2
-0.4265395402908325,-0.997443675994873,0.1394321173429489,6.045686721801758,1.5574991703033447,80.03197479248047,27.73,2
-0.4416617453098297,-1.1327060461044312,0.1734461188316345,17.6046199798584,1.5578699111938477,80.03126525878906,27.73,2
-0.4569641053676605,-1.1299452781677246,0.1784810274839401,27.16485977172852,1.558107852935791,80.03081512451172,27.73,2
-0.4331976175308227,-1.1337714195251465,0.153723269701004,35.46036529541016,1.5582605600357056,80.03052520751953,27.73,2
-0.4123478829860687,-1.2089978456497192,0.149030715227127,42.25996398925781,1.5583585500717163,80.03033447265625,27.73,2
-0.382174402475357,-1.201296091079712,0.1348237544298172,45.80314636230469,1.5584213733673096,80.03021240234375,27.73,2
-0.3348219096660614,-1.1011914014816284,0.1313043236732483,44.99235916137695,1.558002471923828,80.03013610839844,27.73,2
-0.2876404821872711,-1.025754451751709,0.1346435248851776,40.8751335144043,1.5577336549758911,80.03009033203125,27.73,2
-0.2685577273368835,-0.9717455506324768,0.114395335316658,35.55316925048828,1.5575611591339111,80.03005981445312,27.73,2
-0.2619092762470245,-0.9426835179328918,0.0846078917384147,31.03082275390625,1.5574504137039185,80.03003692626953,27.73,2
-0.2464471459388733,-0.8904464840888977,0.0542964749038219,29.189083099365234,1.5573793649673462,80.03002166748047,27.73,2
-0.2253288924694061,-0.828934907913208,0.0348443537950515,30.525711059570312,1.5573337078094482,80.03001403808594,27.73,2
-0.2117764055728912,-0.7782647609710693,0.0223610997200012,33.06371307373047,1.5573045015335083,80.0300064086914,27.73,2
-0.2198725193738937,-0.7793342471122742,0.0031545178499072,34.60647201538086,1.5572856664657593,80.0300064086914,27.73,2
-0.2362636923789978,-0.7912161350250244,-0.0147689348086714,34.84418487548828,1.556814670562744,80.0300064086914,27.73,2
