acc_x,acc_y,acc_z,bvp,eda,hr,temp,label
0.0,0.0,0.0,0.0,0.0,0.0,29.75,0
-0.0442708320915699,-0.0859374925494194,0.1380208283662796,-50.91999435424805,0.0337416641414165,10.528332710266112,29.75,0
-0.1078506112098693,-0.1970274299383163,0.3357469737529754,-96.20780181884766,0.0790048763155937,24.65170669555664,29.75,0
-0.1681374609470367,-0.2936565577983856,0.5077346563339233,-100.31640625,0.1183760836720466,36.93661117553711,29.75,0
-0.2067817747592926,-0.364152729511261,0.6812527775764465,-72.19001770019531,0.147099494934082,45.899112701416016,29.75,0
-0.2000072747468948,-0.4118815958499908,0.7383449077606201,-21.621335983276367,0.1665464639663696,51.96710205078125,29.75,0
-0.2344337552785873,-0.4209862947463989,0.764699399471283,50.89786911010742,0.1793064773082733,55.948577880859375,29.75,0
-0.2511507868766784,-0.4324623048305511,0.7706092596054077,139.88943481445312,0.1875705122947693,58.52718353271485,29.75,0
-0.2619194090366363,-0.4398548305034637,0.7800064086914062,227.80831909179688,0.2057300806045532,60.18824768066406,29.75,0
-0.3024087250232696,-0.439011663198471,0.7804517149925232,292.7748107910156,0.2174019962549209,61.25588607788086,29.75,0
-0.3116196393966675,-0.4552596807479858,0.7807376384735107,323.1212463378906,0.2248971611261367,61.94147491455078,29.75,0
-0.3119350075721741,-0.4712867140769958,0.7921156883239746,322.4652404785156,0.2297084033489227,62.38156127929688,29.75,0
-0.3121374249458313,-0.4703779518604278,0.7994182109832764,301.7532958984375,0.232796311378479,62.66401290893555,29.75,0
-0.3234626948833465,-0.464197039604187,0.809702455997467,270.1650695800781,0.2347780466079712,62.84528350830078,29.75,0
-0.3251329958438873,-0.4658281505107879,0.8219001889228821,233.35610961914065,0.2360498309135437,62.961612701416016,29.75,0
-0.3206071555614471,-0.4612771570682525,0.8241302967071533,196.8260803222656,0.2368659973144531,63.0362663269043,29.75,0
-0.3288982510566711,-0.4527588188648224,0.8311591744422913,167.228271484375,0.2341762036085128,63.08417510986328,29.75,0
-0.3342190086841583,-0.4472922384738922,0.8356699347496033,148.60667419433594,0.2324500530958175,63.11492156982422,29.75,0
-0.3320357799530029,-0.4549796283245086,0.8329669237136841,140.04908752441406,0.2313423007726669,63.1346549987793,29.75,0
-0.3306347131729126,-0.454315185546875,0.8312322497367859,138.756103515625,0.230631411075592,63.14731597900391,29.75,0
-0.335333377122879,-0.448291003704071,0.8301190733909607,141.723876953125,0.2301751971244812,63.15544128417969,29.75,0
-0.3439464569091797,-0.4444250464439392,0.8294046521186829,143.947265625,0.2298824340105056,63.1606559753418,29.75,0
-0.3270827531814575,-0.4587374329566955,0.8345440030097961,140.5555419921875,0.2296945452690124,63.16400146484375,29.75,0
-0.3330539166927337,-0.4623245000839233,0.832244336605072,131.6150360107422,0.229573979973793,63.1661491394043,29.75,0
-0.3368858695030212,-0.4646264910697937,0.8363663554191589,120.95507049560548,0.2175616174936294,63.16752624511719,29.87,0
-0.3393450081348419,-0.4549082219600677,0.83341383934021,110.48497009277344,0.2098527699708938,63.16841125488281,29.87,0
-0.3353253602981567,-0.4542693793773651,0.8315190672874451,99.09418487548828,0.2049056738615036,63.16897964477539,29.87,0
-0.3383435606956482,-0.4482616186141968,0.8303031325340271,86.32080078125,0.2017309069633484,63.16934585571289,29.87,0
-0.3402804732322693,-0.4444061815738678,0.8239250183105469,73.29068756103516,0.1996935307979583,63.169578552246094,29.87,0
-0.3359256684780121,-0.4419319927692413,0.8254296779632568,60.46840286254883,0.1983860582113266,63.16972732543945,29.87,0
-0.3443265557289123,-0.4403441846370697,0.8207975029945374,47.54662322998047,0.1975470036268234,63.16982269287109,29.87,0
-0.3385222256183624,-0.4393252432346344,0.8234226107597351,35.1700325012207,0.1970085352659225,63.169883728027344,29.87,0
-0.3459928929805755,-0.4330735504627228,0.8195095062255859,24.71964836120605,0.1975808441638946,63.03736877441406,29.87,0
-0.3451893627643585,-0.4346593618392944,0.8225960731506348,16.94200325012207,0.1979481130838394,62.95232772827149,29.87,0
-0.3446736931800842,-0.4356770515441894,0.8189790844917297,12.323346138000488,0.1981838047504425,62.89775466918945,29.87,0
-0.3443427681922912,-0.4363301396369934,0.8222556710243225,11.852829933166504,0.1983350664377212,62.86273193359375,29.87,0
-0.3441303968429565,-0.4311514794826507,0.8187606334686279,14.986570358276367,0.1984321326017379,62.84025573730469,29.87,0
-0.3383963406085968,-0.4334258735179901,0.81651771068573,16.97612953186035,0.1984944194555282,62.82583236694336,29.87,0
-0.3459120988845825,-0.4348854720592499,0.8094805479049683,10.776078224182127,0.1985343992710113,62.81657791137695,29.87,0
-0.3395397365093231,-0.4302243590354919,0.8105623126029968,-6.533522129058838,0.1985600441694259,62.810638427734375,29.87,0
-0.3466458618640899,-0.4272331297397613,0.8112565279006958,-30.90452003479004,0.1985765099525451,62.806827545166016,29.87,0
-0.3624017238616943,-0.4309113025665283,0.8117020130157471,-57.57517623901367,0.1985870748758316,62.80438232421875,29.87,0
-0.3445240557193756,-0.4276739656925201,0.8119878768920898,-87.80309295654297,0.1985938549041748,62.80281066894531,29.87,0
-0.3442467451095581,-0.4311942160129547,0.8121713399887085,-123.14051055908205,0.1985982060432434,62.80180358886719,29.87,0
-0.3720576465129852,-0.4334533214569092,0.8010935187339783,-153.84658813476562,0.1986009925603866,62.8011589050293,29.87,0
-0.3563184440135956,-0.4293053150177002,0.7995821833610535,-163.96142578125,0.1986027806997299,62.800743103027344,29.87,0
-0.3630112409591675,-0.4322411119937897,0.7986122965812683,-151.7729949951172,0.1986039280891418,62.80047607421875,29.87,0
-0.4008929431438446,-0.4285273849964142,0.7811965942382812,-135.59658813476562,0.1986046731472015,62.8003044128418,29.87,0
-0.3916166126728058,-0.4205463528633117,0.786813497543335,-135.66946411132812,0.1976872980594635,62.80019378662109,29.87,0
-0.4080546796321869,-0.4154245853424072,0.7848203182220459,-154.660888671875,0.1970985680818557,62.80012512207031,29.87,0
-0.4297992289066314,-0.4065399467945099,0.7891389727592468,-175.07766723632812,0.1967207640409469,62.800079345703125,29.87,0
-0.4213625490665436,-0.4064360857009887,0.7975082397460938,-173.4627685546875,0.1964783072471618,62.800048828125,29.87,0
-0.4439372420310974,-0.4119671881198883,0.8028791546821594,-139.3664093017578,0.1963227093219757,62.80002975463867,29.87,0
-0.452826589345932,-0.4099189639091491,0.8007281422615051,-81.82794952392578,0.1962228566408157,62.80001831054688,29.87,0
-0.4585312604904175,-0.4142023026943207,0.7825543880462646,-18.789684295654297,0.1961587816476822,62.80001068115234,29.87,0
-0.4789855182170868,-0.4113533198833465,0.7764893174171448,36.11675643920898,0.1961176544427871,62.80000686645508,29.87,0
-0.47531858086586,-0.4095250070095062,0.7669993042945862,76.67625427246094,0.1970091164112091,62.80000305175781,29.99,0
-0.4617697894573211,-0.408351719379425,0.7329202890396118,99.65265655517578,0.1975812166929245,62.80000305175781,29.99,0
-0.4642705023288727,-0.4020009934902191,0.6998547911643982,104.40936279296876,0.1979483515024185,62.80000305175781,29.99,0
-0.4714730978012085,-0.4203165471553802,0.6674396991729736,100.2072296142578,0.1981839537620544,62.80000305175781,29.99,0
-0.4257153272628784,-0.4320704340934753,0.6242464780807495,102.2502899169922,0.1983351558446884,62.80000305175781,29.99,0
-0.4523283839225769,-0.4676022529602051,0.6077231168746948,111.57205200195312,0.1984321922063827,62.80000305175781,29.99,0
-0.5029937624931335,-0.5239911675453186,0.57472825050354,111.30261993408205,0.1984944641590118,62.80000305175781,29.99,0
-0.4907256662845611,-0.5489827990531921,0.5535540580749512,88.1259994506836,0.1985344290733337,62.80000305175781,29.99,0
-0.398886114358902,-0.5874120593070984,0.5511612296104431,41.45722198486328,0.1976422071456909,62.73551559448242,29.99,0
-0.46869757771492,-0.6792470812797546,0.5160390138626099,-26.46024703979492,0.1970696300268173,62.694129943847656,29.99,0
-0.5134985446929932,-0.738181471824646,0.4879018068313598,-106.93555450439452,0.1967021822929382,62.667572021484375,29.99,0
-0.4470870792865753,-0.8039910793304443,0.4978338479995727,-176.09519958496094,0.1964663863182068,62.65052795410156,29.99,0
-0.3820769190788269,-0.863017201423645,0.5154032111167908,-211.9728240966797,0.1963150650262832,62.639591217041016,29.99,0
-0.3795415461063385,-1.0072544813156128,0.4874937832355499,-215.13522338867188,0.1962179541587829,62.632572174072266,29.99,0
-0.4003055989742279,-1.0494377613067627,0.4527898132801056,-199.35926818847656,0.1961556375026703,62.62806701660156,29.99,0
-0.4136307835578918,-1.0205308198928833,0.4193232357501983,-172.25376892089844,0.196115642786026,62.62517547607422,29.99,0
-0.4109865725040436,-1.0075777769088743,0.3866507709026336,-135.40562438964844,0.1979260444641113,62.623321533203125,29.99,0
-0.426082968711853,-1.0048630237579346,0.371281236410141,-92.54883575439452,0.1990878582000732,62.62213134765625,29.99,0
-0.4861509501934051,-0.941545307636261,0.3166357576847076,-46.36268615722656,0.1998334378004074,62.621368408203125,29.99,0
-0.5023080110549927,-0.8729227781295776,0.2815674543380737,6.054938793182373,0.2003119140863418,62.62087631225586,29.99,0
-0.4958833754062652,-0.8344825506210327,0.2534648478031158,66.634521484375,0.2006189674139022,62.62056350708008,29.99,0
-0.5197492837905884,-0.8098137974739075,0.2410279959440231,130.08389282226562,0.2008160203695297,62.620361328125,29.99,0
-0.5294672846794128,-0.8107761740684509,0.255437821149826,186.1068115234375,0.2009424716234207,62.62023162841797,29.99,0
-0.5468992590904236,-0.833784818649292,0.2366963624954223,224.3985137939453,0.2010236233472824,62.620147705078125,29.99,0
-0.558086097240448,-0.8205615878105164,0.2414624840021133,243.37594604492188,0.2019939124584198,62.620094299316406,29.99,0
-0.5540696382522583,-0.8008801341056824,0.2669122219085693,253.9746551513672,0.2026166021823883,62.620059967041016,29.99,0
-0.5179054737091064,-0.7714564204216003,0.2776466012001037,263.0118408203125,0.2030162066221237,62.62003707885742,29.99,0
-0.5058929324150085,-0.7581717371940613,0.2677420079708099,260.084228515625,0.2032726407051086,62.62002182006836,29.99,0
-0.4925861954689026,-0.7720374464988708,0.2613857984542846,235.45608520507807,0.2034372091293335,62.62001419067383,29.99,0
-0.5008400082588196,-0.8369134068489075,0.2685022950172424,195.0460357666016,0.2035428136587143,62.62001037597656,29.99,0
-0.573310136795044,-0.9009382128715516,0.261873722076416,144.5832977294922,0.2036105841398239,62.6200065612793,29.99,0
-0.6310128569602966,-0.9868078231811525,0.2240332216024398,81.23860168457031,0.2036540806293487,62.62000274658203,29.99,0
-0.6232609152793884,-1.0810984373092651,0.1997493654489517,9.867033004760742,0.203222706913948,62.62000274658203,29.95,0
-0.5623084306716919,-1.152804255485535,0.2065564841032028,-56.542110443115234,0.2029458880424499,62.62000274658203,29.95,0
-0.4952037632465362,-1.114854335784912,0.2053271234035492,-119.11820220947266,0.2027682363986969,62.62000274658203,29.95,0
-0.4465420842170715,-1.0457180738449097,0.1877448707818985,-191.5800323486328,0.2026542276144027,62.62000274658203,29.95,0
-0.4041182696819305,-0.9509704113006592,0.1764615923166275,-271.725830078125,0.2025810629129409,62.62000274658203,29.95,0
-0.3768931031227112,-0.8901668190956116,0.1692206412553787,-340.02197265625,0.2025341093540191,62.62000274658203,29.95,0
-0.3706171214580536,-0.8399509787559509,0.147780492901802,-383.9579772949219,0.2025039792060852,62.62000274658203,29.95,0
-0.3777850866317749,-0.8021275997161865,0.1396192163228988,-398.9195251464844,0.2024846374988556,62.62000274658203,29.95,0
-0.3823850750923157,-0.7722569704055786,0.1343817710876464,-382.5437316894531,0.2029315084218979,62.47669982910156,29.95,0
-0.3965326249599457,-0.7586854696273804,0.1310206800699234,-351.1339416503906,0.2032182961702346,62.38473510742188,29.95,0
-0.4112094938755035,-0.7499760389328003,0.1232659518718719,-329.5260314941406,0.2034023404121399,62.32571792602539,29.95,0
-0.4598127007484436,-0.749984622001648,0.1182894110679626,-316.33282470703125,0.2035204470157623,62.287845611572266,29.95,0
-0.4966011941432953,-0.7555879354476929,0.1094979792833328,-302.069580078125,0.2035962343215942,62.2635383605957,29.95,0
-0.5258077383041382,-0.7871726751327515,0.1094539240002632,-306.5730285644531,0.2036448717117309,62.24794006347656,29.95,0
-0.5389530062675476,-0.846626341342926,0.0982301011681556,-343.0533142089844,0.203676089644432,62.23793029785156,29.95,0
-0.5417911410331726,-0.8791825175285339,0.0798317492008209,-377.42333984375,0.2036961168050766,62.23150634765625,29.95,0
-0.5324169397354126,-0.9784440398216248,0.0848180651664733,-381.2519226074219,0.2046268284320831,62.22738265991211,29.95,0
-0.5208033323287964,-1.008557677268982,0.0936157703399658,-381.0398559570313,0.2052241116762161,62.22473907470703,29.95,0
-0.5021548271179199,-0.9831007122993468,0.0880660861730575,-403.2984619140625,0.2056074142456054,62.22304153442383,29.95,0
-0.473393976688385,-0.9779594540596008,0.0901023894548416,-421.9391479492188,0.2058533877134323,62.22195053100586,29.95,0
-0.4717302322387695,-0.9578667879104614,0.0914091765880584,-404.5245361328125,0.2060112357139587,62.22125244140625,29.95,0
-0.4930536448955536,-0.8722013831138611,0.0866500213742256,-360.5002136230469,0.2061125338077545,62.220802307128906,29.95,0
-0.4787489175796509,-0.7724440693855286,0.0891936421394348,-311.0785217285156,0.2061775475740432,62.220516204833984,29.95,0
-0.4583733975887298,-0.7252188920974731,0.1132170930504798,-256.2333984375,0.206219270825386,62.220333099365234,29.95,0
-0.4564931094646454,-0.7452924847602844,0.15662282705307,-194.21780395507807,0.2053281813859939,62.22021484375,29.95,0
-0.4608842432498932,-0.780565619468689,0.1844781339168548,-138.50953674316406,0.2047563344240188,62.22013854980469,29.95,0
-0.4748977720737457,-0.8311907649040222,0.2247451543807983,-98.80401611328124,0.2043893635272979,62.22008895874024,29.95,0
-0.4838908314704895,-0.8300924301147461,0.2673795521259308,-67.41204833984375,0.2041538506746292,62.22005844116211,29.95,0
-0.5120531320571899,-0.8237898349761963,0.3003376126289367,-31.037425994873047,0.2040027230978012,62.22003936767578,29.95,0
-0.5469194054603577,-0.8813206553459167,0.3214882016181946,11.927482604980469,0.2039057314395904,62.22002410888672,29.95,0
-0.5804901719093323,-0.9518272876739502,0.3238658905029297,54.99810791015625,0.2038434892892837,62.22001647949219,29.95,0
-0.5740450620651245,-1.0362588167190552,0.3309895098209381,96.4276885986328,0.2038035541772842,62.22001266479492,29.95,0
-0.5811045169830322,-1.068050980567932,0.3355610370635986,142.33206176757812,0.204695776104927,62.220008850097656,29.91,0
-0.6136237382888794,-1.105246663093567,0.3328970074653625,198.8464508056641,0.2052683532238006,62.22000503540039,29.91,0
-0.6512860059738159,-1.117921233177185,0.2920029759407043,266.1464233398437,0.2056358009576797,62.22000503540039,29.91,0
-0.6418688297271729,-1.0980662107467651,0.2545639872550964,341.3782043457031,0.2058716118335724,62.22000503540039,29.91,0
-0.6078365445137024,-1.102117657661438,0.2305378019809723,411.06353759765625,0.2060229331254959,62.22000503540039,29.91,0
-0.5356166362762451,-1.093522071838379,0.1983258575201034,453.3044128417969,0.2061200439929962,62.22000503540039,29.91,0
-0.4612811803817749,-1.0600171089172363,0.1888496428728103,449.0144958496094,0.2061823606491089,62.22000503540039,29.91,0
-0.402381420135498,-0.9769400358200072,0.1603772491216659,394.2962036132813,0.2062223553657531,62.22000503540039,29.91,0
-0.3701807260513305,-0.9180281758308412,0.1309097558259964,295.6728515625,0.2048708796501159,62.10177612304688,29.91,0
-0.3663094937801361,-0.8690263628959656,0.0896081179380416,169.2964630126953,0.2040035873651504,62.02590560913086,29.91,0
-0.3806184828281402,-0.8543731570243835,0.040712010115385,48.30698776245117,0.2034469991922378,61.97721481323242,29.91,0
-0.3842034041881561,-0.8225784301757812,0.0093333004042506,-35.431053161621094,0.2030898183584213,61.94596862792969,29.91,0
-0.3809062242507934,-0.8133699893951416,-0.0108037488535046,-50.92173385620117,0.2028605937957763,61.92591857910156,29.91,0
-0.3843880593776703,-0.8242538571357727,-0.0181287731975317,-5.382991790771484,0.2027135044336319,61.91305160522461,29.91,0
-0.3978180289268493,-0.8424340486526489,-0.0284273270517587,52.96749114990234,0.2026191055774688,61.90479278564453,29.91,0
-0.4064366221427917,-0.8429055213928223,-0.0126452483236789,104.14189910888672,0.2025585174560547,61.89949417114258,29.91,0
-0.4119675457477569,-0.8711969256401062,0.0142761040478944,150.70037841796875,0.2038967758417129,61.89609146118164,29.91,0
-0.4099192023277282,-0.9341349005699158,0.0427482277154922,187.7404937744141,0.2047556042671203,61.8939094543457,29.91,0
-0.403006911277771,-0.9913182258605956,0.0778133198618888,205.28060913085935,0.2053067535161972,61.89250946044922,29.91,0
-0.381777673959732,-0.8992663621902466,0.1450982689857483,203.48193359375,0.2056604474782943,61.89160919189453,29.91,0
-0.4017406105995178,-0.890572726726532,0.1882778853178024,188.0152587890625,0.205887421965599,61.89103317260742,29.91,0
-0.4201494455337524,-0.8849936723709106,0.2215858548879623,162.9353485107422,0.2060330808162689,61.890663146972656,29.91,0
-0.4207676351070404,-0.8534244894981384,0.248558759689331,128.01048278808594,0.2061265558004379,61.89042663574219,29.91,0
-0.3931754827499389,-0.8219696879386902,0.2714661955833435,91.34622955322266,0.2061865478754043,61.89027404785156,29.91,0
-0.369870662689209,-0.8241748809814453,0.2805691063404083,63.11330032348633,0.206225037574768,61.890174865722656,29.91,0
-0.3885016143321991,-0.8423833847045898,0.2976063787937164,43.70172500610352,0.2062497437000274,61.890113830566406,29.91,0
-0.4172511994838714,-0.8596662878990173,0.3085398972034454,31.50960350036621,0.2062655985355377,61.89007186889648,29.91,0
-0.4692876935005188,-0.8931486010551453,0.29876309633255,35.5508918762207,0.2062757760286331,61.890045166015625,29.91,0
-0.4914861619472503,-0.9146355986595154,0.2924889028072357,64.2505874633789,0.206282302737236,61.89002990722656,29.91,0
-0.4609496593475342,-0.9228269457817078,0.3052558004856109,106.37429809570312,0.2062864899635315,61.890018463134766,29.91,0
-0.4693419635295868,-0.922485888004303,0.296655535697937,143.0941619873047,0.2062891870737075,61.89001083374024,29.91,0
-0.4803254306316376,-0.9334625601768494,0.2799408435821533,165.5410919189453,0.206290915608406,61.89000701904297,29.91,0
-0.4985695481300354,-0.951702356338501,0.2412254363298416,173.21099853515625,0.2062920182943344,61.8900032043457,29.81,0
-0.5214731097221375,-0.9690053462982178,0.1995867937803268,165.8018798828125,0.2062927335500717,61.8900032043457,29.81,0
-0.5753557085990906,-1.0304893255233765,0.1336810886859893,146.85296630859375,0.2062931805849075,61.8900032043457,29.81,0
-0.6435211300849915,-1.120326280593872,0.1081799268722534,125.1056671142578,0.2062934786081314,61.8900032043457,29.81,0
-0.6760702133178711,-1.066022872924805,0.0862169712781906,104.37126922607422,0.2062936723232269,61.8900032043457,29.81,0
-0.6857628226280212,-1.053565263748169,0.0385357663035392,77.96006774902344,0.2062937915325164,61.8900032043457,29.81,0
-0.6975807547569275,-1.0623639822006226,0.0135344881564378,38.526634216308594,0.2062938660383224,61.8900032043457,29.81,0
-0.6659803986549377,-1.034423828125,0.0030878810212016,-9.4500093460083,0.206293910741806,61.8900032043457,29.81,0
-0.5953211188316345,-0.96611350774765,0.0019816244021058,-54.84482192993164,0.2072121500968933,61.74311447143555,29.81,0
-0.5443782806396484,-0.9278736114501952,-0.0099238557741045,-92.95811462402344,0.2078014314174652,61.64885330200195,29.81,0
-0.4892950057983398,-0.8809423446655273,-0.0343574322760105,-123.92657470703124,0.2081795930862426,61.58835983276367,29.81,0
-0.4483479559421539,-0.8340312838554382,-0.050037495791912,-145.20114135742188,0.2084222733974456,61.549537658691406,29.81,0
-0.4500593543052673,-0.8207197785377502,-0.0824911519885063,-155.56153869628906,0.2085780203342437,61.52462387084961,29.81,0
-0.4455598592758178,-0.8233727812767029,-0.0977202653884887,-158.69573974609375,0.2086779624223709,61.508636474609375,29.81,0
-0.4426723420619964,-0.858661949634552,-0.101895660161972,-154.41250610351562,0.2087420970201492,61.49837875366211,29.81,0
-0.4296237528324127,-0.9372862577438354,-0.0765863209962844,-134.21304321289062,0.2087832689285278,61.49179458618164,29.81,0
-0.4212499260902405,-0.9877427816390992,-0.0547464676201343,-93.65003204345705,0.2083507627248764,61.48756790161133,29.81,0
-0.4102783203125,-1.0369162559509275,-0.0127420350909233,-42.90283966064453,0.2080731987953186,61.48485565185547,29.81,0
-0.3976396024227142,-1.0908640623092651,0.0422028675675392,2.539567708969116,0.2078950703144073,61.48311614990234,29.81,0
-0.3783332407474518,-1.0471158027648926,0.0886588916182518,36.584938049316406,0.2077807635068893,61.48199844360352,29.81,0
-0.3659435212612152,-0.929476261138916,0.1296672374010086,60.21742248535156,0.207707405090332,61.48128128051758,29.81,0
-0.3691880702972412,-0.8875686526298523,0.155984029173851,72.39910125732422,0.2076603323221206,61.4808235168457,29.81,0
-0.3880635499954223,-0.8774680495262146,0.1840681880712509,74.2408676147461,0.2076301276683807,61.48052978515625,29.81,0
-0.3777856528759002,-0.8318016529083252,0.2132865339517593,73.67092895507812,0.2076107412576675,61.48033905029297,29.81,0
-0.3487988114356994,-0.7857022881507874,0.2320371866226196,76.2357177734375,0.2085161507129669,61.48021697998047,29.81,0
-0.3301967084407806,-0.7785094380378723,0.2552658319473266,78.3473892211914,0.2090971916913986,61.48014068603516,29.81,0
-0.3574433624744415,-0.8018823862075806,0.2757703959941864,72.21137237548828,0.2094700634479522,61.4800910949707,29.81,0
-0.4141131341457367,-0.8392728567123413,0.2777335047721863,52.47447204589844,0.2097093611955642,61.48005676269531,29.81,0
-0.456078290939331,-0.8688657283782959,0.2845910787582397,22.970359802246094,0.2098629176616668,61.48003768920898,29.81,0
-0.4886068999767303,-0.8934544920921326,0.2945896685123443,-0.8109046220779419,0.2099614590406417,61.48002243041992,29.81,0
-0.4926885664463043,-0.8980385661125183,0.2898106276988983,-5.378364562988281,0.2100246995687484,61.48001480102539,29.81,0
-0.4841123819351196,-0.8897848129272461,0.2811459302902221,6.386227607727051,0.2100652903318405,61.480010986328125,29.81,0
-0.4898042380809784,-0.9012813568115234,0.2755854427814483,22.996400833129883,0.2096324115991592,61.48000717163086,29.77,0
-0.5438368916511536,-0.9142569303512572,0.2272348403930664,36.833595275878906,0.2093546092510223,61.4800033569336,29.77,0
-0.5673164129257202,-0.9225839376449584,0.1794128865003585,40.67999267578125,0.2091763317584991,61.4800033569336,29.77,0
-0.6047753095626831,-1.0062965154647827,0.1375279575586319,26.181310653686523,0.2090619355440139,61.4800033569336,29.77,0
-0.6735965013504028,-1.1271917819976809,0.1330397278070449,-6.4528422355651855,0.2089885175228119,61.4800033569336,29.77,0
-0.7065663933753967,-1.0312443971633911,0.0965727865695953,-45.483985900878906,0.2089414000511169,61.4800033569336,29.77,0
-0.6941379308700562,-1.0480396747589111,0.07876817882061,-75.30033874511719,0.2089111655950546,61.4800033569336,29.77,0
-0.6861620545387268,-1.058817982673645,0.0617444328963756,-85.27769470214844,0.2088917642831802,61.4800033569336,29.77,0
-0.619468092918396,-1.0041593313217163,0.0676128938794136,-77.3574447631836,0.2079610973596573,61.37969207763672,29.77,0
-0.5542766451835632,-0.9298981428146362,0.0769767090678215,-64.4360122680664,0.2073638439178466,61.31531524658203,29.77,0
-0.5292338728904724,-0.8990349173545837,0.0549969971179962,-56.416053771972656,0.2069805711507797,61.27400207519531,29.77,0
-0.518760621547699,-0.8848264813423157,0.0240983590483665,-53.80218505859375,0.2067345976829528,61.24748992919922,29.77,0
-0.5120394825935364,-0.8645127415657043,0.0042693908326327,-55.06963348388672,0.2065767496824264,61.23047637939453,29.77,0
-0.5021284818649292,-0.8794654011726379,-0.0140534741804003,-58.8386344909668,0.2064754515886306,61.21955871582031,29.77,0
-0.5013659596443176,-0.8834633827209473,-0.0370075851678848,-60.37604904174805,0.2064104378223419,61.21255111694336,29.77,0
-0.5008766055107117,-0.9140179753303528,-0.0293471124023199,-55.73444747924805,0.2063687294721603,61.20805358886719,29.77,0
-0.4893670082092285,-0.9280283451080322,-0.0188332870602607,-45.20724868774414,0.207260176539421,61.205169677734375,29.77,0
-0.4651874899864197,-0.9258238673210144,-0.0064883450977504,-27.99037742614746,0.2078322470188141,61.20331954956055,29.77,0
-0.4440726935863495,-0.9523980021476746,0.0238250251859426,-2.6148598194122314,0.2081993669271469,61.20212936401367,29.77,0
-0.4305224418640136,-0.986245095729828,0.0544739514589309,24.148719787597656,0.2084349691867828,61.20136642456055,29.77,0
-0.4162288904190063,-0.9575862288475036,0.0965337678790092,39.36079406738281,0.2085861712694168,61.20087814331055,29.77,0
-0.3902627825736999,-0.8776191473007202,0.1235253363847732,37.46891021728516,0.2086831927299499,61.200565338134766,29.77,0
-0.3791970014572143,-0.8486919403076172,0.1464447379112243,24.238849639892575,0.208745464682579,61.20036315917969,29.77,0
-0.3776933848857879,-0.8525192141532898,0.1779464185237884,6.534173011779785,0.2087854295969009,61.200233459472656,29.77,0
-0.3823262453079223,-0.8381820321083069,0.1981623917818069,-14.138782501220703,0.2092700004577636,61.20014953613281,29.77,0
-0.3685060143470764,-0.812187910079956,0.2223313748836517,-35.66691589355469,0.209580972790718,61.20009613037109,29.77,0
-0.3372458815574646,-0.8178974986076355,0.2546349763870239,-50.15595626831055,0.2097805291414261,61.2000617980957,29.77,0
-0.3283804953098297,-0.8383548855781555,0.2753655612468719,-48.59898376464844,0.209908589720726,61.20003890991211,29.77,0
-0.3450822830200195,-0.8682765960693359,0.2774737179279327,-26.258405685424805,0.20999076962471,61.20002365112305,29.77,0
-0.3446049690246582,-0.8986741900444031,0.2900221347808838,16.55280113220215,0.2100435197353363,61.20001602172852,29.77,0
-0.3387008905410766,-0.9181815981864928,0.3036727607250213,71.4476089477539,0.2100773602724075,61.20001220703125,29.77,0
-0.3517053127288818,-0.9195047616958618,0.3068351745605469,121.2032699584961,0.2100990861654281,61.200008392333984,29.77,0
-0.3600507974624634,-0.9147561192512512,0.3088646531105041,151.3817138671875,0.2087358832359314,61.20000457763672,29.73,0
-0.3821997940540313,-0.928502082824707,0.2765803933143616,161.61651611328125,0.207861065864563,61.20000457763672,29.73,0
-0.402011513710022,-0.9485189914703368,0.250264436006546,160.13816833496094,0.2072996497154235,61.20000457763672,29.73,0
-0.4203233122825622,-0.9725602269172668,0.2165830582380294,150.8671112060547,0.2069393694400787,61.20000457763672,29.73,0
-0.4376725256443023,-1.0215752124786377,0.1725771874189376,127.87875366210938,0.206708163022995,61.20000457763672,29.73,0
-0.4655995965003967,-1.092214584350586,0.1443367451429367,82.56678771972656,0.2065597921609878,61.20000457763672,29.73,0
-0.5394993424415588,-1.120753526687622,0.1374092102050781,20.137975692749023,0.2064645737409591,61.20000457763672,29.73,0
-0.5701305866241455,-1.05510151386261,0.1273657381534576,-37.46194839477539,0.2064034640789032,61.20000457763672,29.73,0
-0.5617991089820862,-1.018567681312561,0.1041270941495895,-72.55615997314453,0.2082006782293319,61.10685729980469,29.73,0
-0.5564524531364441,-1.0511001348495483,0.1116049736738205,-86.2608871459961,0.2093540281057357,61.04707717895508,29.73,0
-0.5306301712989807,-1.0663797855377195,0.1164038404822349,-87.38191223144531,0.2100941836833953,61.00871658325195,29.73,0
-0.4580811560153961,-0.9978165030479432,0.1138857081532478,-82.6020736694336,0.2105691730976104,60.98409652709961,29.73,0
-0.4115233719348907,-0.9370232224464417,0.1010741665959358,-80.0075454711914,0.2108739912509918,60.968299865722656,29.73,0
-0.3816452622413635,-0.9092051386833192,0.0760591328144073,-84.88072967529297,0.2110695987939834,60.95816040039063,29.73,0
-0.3624712228775024,-0.8689619898796082,0.0488103739917278,-91.56197357177734,0.2111951261758804,60.95165252685547,29.73,0
-0.3501664400100708,-0.837538480758667,0.0201281383633613,-91.6615753173828,0.2112756818532943,60.94747924804688,29.73,0
-0.3366721570491791,-0.8341660499572754,-0.0038762425538152,-86.17608642578125,0.2099502384662628,60.94479751586914,29.73,0
-0.3224145174026489,-0.8152084946632385,-0.0192808732390403,-80.88960266113281,0.2090996503829956,60.94307708740234,29.73,0
-0.3188625574111938,-0.8534225821495056,-0.0067755803465843,-75.03582000732422,0.2085537910461425,60.94197463989258,29.73,0
-0.3165831267833709,-0.8947395086288452,-0.0099459514021873,-63.143165588378906,0.2082034945487976,60.94126510620117,29.73,0
-0.3151203095912933,-0.9268521070480348,-0.0007849647081457,-46.09613800048828,0.2079786956310272,60.94081115722656,29.73,0
-0.2973882257938385,-1.0258289575576782,0.0218873526901006,-32.77750396728516,0.2078344225883484,60.940521240234375,29.73,0
-0.2916065752506256,-1.0949443578720093,0.0308393668383359,-29.410776138305664,0.207741841673851,60.94033432006836,29.73,0
-0.3102873563766479,-1.1169075965881348,0.0533775761723518,-32.71004867553711,0.2076824307441711,60.94021224975586,29.73,0
-0.3390689194202423,-1.002253532409668,0.0790368542075157,-35.53310012817383,0.2085621505975723,60.94013595581055,29.73,0
-0.3631370365619659,-0.9510661959648132,0.1011012718081474,-33.54365921020508,0.2091267108917236,60.940086364746094,29.73,0
-0.3729847967624664,-0.9685971140861512,0.12085872143507,-24.829524993896484,0.2094890177249908,60.94005584716797,29.73,0
-0.3793045282363891,-0.9462608098983764,0.1391356885433197,-9.88677215576172,0.2097215205430984,60.94003677368164,29.73,0
-0.3665668368339538,-0.881546676158905,0.1564625650644302,6.677900791168213,0.2098707258701324,60.94002151489258,29.73,0
-0.363990306854248,-0.8344190716743469,0.1787775158882141,21.01253700256348,0.2099664807319641,60.94001388549805,29.73,0
-0.3679346144199371,-0.8209686279296875,0.1986957341432571,35.85065841674805,0.2100279331207275,60.94001007080078,29.73,0
-0.3816613852977752,-0.829130232334137,0.2058803290128708,54.98854064941406,0.2100673615932464,60.94000625610352,29.73,0
-0.3904704451560974,-0.8399656414985657,0.2104909867048263,74.57858276367188,0.2105519473552703,60.94000244140625,29.71,0
-0.4073191285133362,-0.86371248960495,0.2246453911066055,86.66670227050781,0.210862934589386,60.94000244140625,29.71,0
-0.4013383388519287,-0.8677563071250916,0.2449244260787964,88.40543365478516,0.2110625058412552,60.94000244140625,29.71,0
-0.4086957573890686,-0.8815469741821289,0.25234055519104,82.88632202148438,0.2111905813217163,60.94000244140625,29.71,0
-0.407819539308548,-0.9183858633041382,0.2570998072624206,74.65846252441406,0.2112727761268615,60.94000244140625,29.71,0
-0.4016594588756561,-0.9420269727706908,0.2545562386512756,67.46520233154297,0.2113255262374878,60.94000244140625,29.71,0
-0.3865107297897339,-0.9516006708145142,0.2305328398942947,63.14275360107422,0.211359366774559,60.94000244140625,29.71,0
-0.3935824632644653,-1.064102292060852,0.2151159942150116,60.66620635986328,0.2113810926675796,60.94000244140625,29.71,0
-0.4205118119716644,-1.153092622756958,0.210820123553276,58.16692733764648,0.2100178897380828,60.8826789855957,29.71,0
-0.437793493270874,-1.1262348890304563,0.1688788682222366,55.685302734375,0.2091430723667144,60.84589385986328,29.71,0
-0.4264928102493286,-1.1481835842132568,0.1419633775949478,53.35114669799805,0.208581656217575,60.82228469848633,29.71,0
-0.3856540322303772,-1.190257906913757,0.1358861178159713,47.46814727783203,0.2082213759422302,60.80713653564453,29.71,0
-0.3594460487365722,-1.1109009981155396,0.1263883113861084,32.73725891113281,0.2079901695251464,60.79741287231445,29.71,0
-0.3314317166805267,-1.0319854021072388,0.1090976148843765,9.23296356201172,0.2078417986631393,60.79117584228516,29.71,0
-0.3190515041351318,-0.9589508771896362,0.098001442849636,-17.780717849731445,0.2077465802431106,60.78717041015625,29.71,0
-0.3167043924331665,-0.9232770800590516,0.0908805578947067,-44.6282844543457,0.2076854705810547,60.78459930419922,29.71,0
-0.304002583026886,-0.877992570400238,0.0807130113244056,-70.5918197631836,0.2085641026496887,60.78295135498047,29.71,0
-0.284655749797821,-0.8377360105514526,0.0685902908444404,-94.37230682373048,0.2091279625892639,60.78189468383789,29.71,0
-0.266642302274704,-0.8063039183616638,0.0608106218278408,-113.34480285644533,0.2094898074865341,60.78121566772461,29.71,0
-0.2718756198883056,-0.7917304039001465,0.0558180809020996,-122.96588134765624,0.209722027182579,60.78078079223633,29.71,0
-0.286429613828659,-0.8047690391540527,0.0582119300961494,-115.75921630859376,0.2098710536956787,60.78050231933594,29.71,0
-0.2957695126533508,-0.8355275988578796,0.0597481653094291,-87.56820678710938,0.2099666893482208,60.78032302856445,29.71,0
-0.2961655557155609,-0.8496688604354858,0.0607340298593044,-45.770938873291016,0.2100280672311782,60.78020858764648,29.71,0
-0.302017480134964,-0.9259172081947328,0.0613667033612728,-4.871921062469482,0.2100674510002136,60.78013229370117,29.71,0
-0.2945773601531982,-1.0644134283065796,0.0281860679388046,25.838603973388672,0.2096337974071502,60.78008270263672,29.71,0
-0.2954005002975464,-1.2316612005233765,0.0124904215335845,45.86212158203125,0.2093555033206939,60.780052185058594,29.71,0
-0.3295153975486755,-1.1822534799575806,0.0192111823707819,58.08152770996094,0.2091769129037857,60.780033111572266,29.71,0
-0.3346150517463684,-1.1113619804382324,0.0067308573052287,65.62229919433594,0.2090623080730438,60.78002166748047,29.71,0
-0.34908327460289,-1.0938568115234375,-0.0068760723806917,71.10639953613281,0.208988755941391,60.78001403808594,29.71,0
-0.3807592391967773,-1.0210474729537964,-0.0212059896439313,74.44664764404297,0.2089415490627288,60.78001022338867,29.71,0
-0.389891505241394,-0.93513822555542,-0.0304021071642637,73.16170501708984,0.2089112550020218,60.780006408691406,29.71,0
-0.3789587318897247,-0.8352243900299072,-0.0251080971211195,66.37569427490234,0.208891823887825,60.78000259399414,29.71,0
-0.3887360394001007,-0.7823010087013245,-0.0161129310727119,56.37826919555664,0.2097975611686706,60.78000259399414,29.71,0
-0.4341949820518493,-0.7763267159461975,-0.0215359013527631,46.15421676635742,0.210378810763359,60.78000259399414,29.71,0
-0.4465745687484741,-0.7892860770225525,-0.0082227271050214,37.22492599487305,0.2107518315315246,60.78000259399414,29.71,0
-0.4545190930366516,-0.797602653503418,0.0115164509043097,29.34507751464844,0.2109912037849426,60.78000259399414,29.71,0
-0.4596174359321594,-0.7973419427871704,0.0353794656693935,22.131532669067383,0.21114481985569,60.78000259399414,29.71,0
-0.4740847945213318,-0.7915768623352051,0.0562911517918109,16.911170959472656,0.2112434059381485,60.78000259399414,29.71,0
-0.4889668822288513,-0.8326593637466431,0.0921021699905395,14.9224214553833,0.2113066762685775,60.78000259399414,29.71,0
-0.4873217940330505,-0.9150015115737916,0.1150836125016212,14.16204833984375,0.2113472819328308,60.78000259399414,29.71,0
-0.5030593872070312,-1.0294194221496582,0.1522228866815567,11.245098114013672,0.2113733291625976,60.7298469543457,29.71,0
-0.541147768497467,-1.0524663925170898,0.1760567277669906,5.855077743530273,0.2113900482654571,60.69765853881836,29.71,0
-0.5543951392173767,-1.056061029434204,0.1801563650369644,0.8985567092895508,0.2114007771015167,60.677001953125,29.71,0
-0.5461032390594482,-1.1535300016403198,0.1883850544691085,-1.236141324043274,0.2114076614379882,60.66374588012695,29.71,0
-0.4792064428329468,-1.1768956184387207,0.1936657577753067,-1.0583949089050293,0.2114120870828628,60.65523910522461,29.71,0
-0.4194825887680053,-1.135912537574768,0.2026523798704147,-0.6613040566444397,0.2114149183034896,60.6497802734375,29.71,0
-0.3867530524730682,-1.0480364561080933,0.1860283762216568,-0.5175338387489319,0.2114167362451553,60.64627456665039,29.71,0
-0.3769446611404419,-0.9916425943374634,0.158566728234291,0.6745802760124207,0.2114178985357284,60.64402770996094,29.71,0
-0.3706502020359039,-0.9442567229270936,0.1409434229135513,2.4678096771240234,0.2100415080785751,60.64258575439453,29.71,0
-0.333024114370346,-0.9026516675949096,0.1240360215306282,2.5868194103240967,0.2091582268476486,60.64165878295898,29.71,0
-0.2976823151111603,-0.8647564053535461,0.1131858229637146,1.0474512577056885,0.2085913866758346,60.64106369018555,29.71,0
-0.2805997729301452,-0.8348395824432373,0.1062227934598922,-0.3918310403823852,0.2082276195287704,60.64068222045898,29.71,0
-0.2696371674537658,-0.7932496070861816,0.0905587747693061,-2.107228755950928,0.2079941779375076,60.640438079833984,29.71,0
-0.2737975418567657,-0.777755081653595,0.0805065035820007,-4.698423862457275,0.2078443616628646,60.640281677246094,29.71,0
-0.2876629829406738,-0.8237893581390381,0.0684577599167823,-5.66270112991333,0.2077482193708419,60.64017868041992,29.71,0
-0.2909632623195648,-0.8589292764663696,0.0551277995109558,-3.275738000869751,0.2076865285634994,60.640113830566406,29.71,0
-0.2986789643764496,-0.9150667190551758,0.0409756228327751,-0.3574658930301666,0.2081058621406555,60.64007186889648,29.71,0
-0.3036304414272308,-0.9958747029304504,0.0206980220973491,-0.111176036298275,0.2083749622106552,60.640045166015625,29.71,0
-0.3236013650894165,-1.16528582572937,-0.0147060742601752,-1.5366199016571045,0.2085476517677307,60.64002990722656,29.71,0
-0.364406406879425,-1.1396576166152954,-0.0318286083638668,-1.8459323644638064,0.2086584717035293,60.640018463134766,29.71,0
-0.3737994134426117,-1.0728309154510498,-0.0372190922498703,-0.1456661224365234,0.2087295949459076,60.64001083374024,29.71,0
-0.3798273205757141,-1.1195096969604492,-0.0238850712776184,3.3601229190826416,0.2087752372026443,60.64000701904297,29.71,0
-0.3948912322521209,-1.0934877395629885,-0.0209258385002613,8.221633911132812,0.2088045328855514,60.6400032043457,29.71,0
-0.3877650499343872,-0.9816262125968932,-0.0246245469897985,12.165464401245115,0.2088233232498169,60.6400032043457,29.71,0
-0.3496052324771881,-0.8426666259765625,0.0009907070780172,12.460860252380373,0.2088353931903839,60.6400032043457,29.71,0
-0.3419097661972046,-0.7590881586074829,0.0174291022121906,8.960375785827637,0.2088431268930435,60.6400032043457,29.71,0
-0.3649601340293884,-0.733441174030304,0.022380543872714,3.389336109161377,0.2088481038808822,60.6400032043457,29.71,0
-0.3741547763347626,-0.7281779646873474,0.0255580935627222,-2.25656533241272,0.2088512927293777,60.6400032043457,29.71,0
-0.3800553679466247,-0.7527891993522644,0.0555861331522464,-5.765137672424316,0.2088533341884613,60.6400032043457,29.71,0
-0.4006353318691253,-0.7797788381576538,0.0804541781544685,-6.490560054779053,0.2088546454906463,60.6400032043457,29.71,0
-0.4250379204750061,-0.8026970028877258,0.1020108312368393,-6.074780464172363,0.2088554948568344,60.6400032043457,29.71,0
-0.4518936574459076,-0.8565889596939087,0.1326379776000976,-5.026955604553223,0.2088560312986374,60.6400032043457,29.71,0
-0.4691281318664551,-0.8967714905738831,0.1578904837369918,-2.176316022872925,0.2079381644725799,60.60059356689453,29.71,0
-0.4633948802947998,-0.9617427587509156,0.1852916330099105,1.5124170780181885,0.2073491364717483,60.57530212402344,29.71,0
-0.4765089452266693,-1.059415340423584,0.2308649867773056,3.345829963684082,0.2069711238145828,60.5590705871582,29.71,0
-0.490522563457489,-1.1388893127441406,0.2489157915115356,3.275672435760498,0.2067285329103469,60.54865646362305,29.71,0
-0.4715268313884735,-1.2178800106048584,0.2101197987794876,3.918503999710083,0.2065728604793548,60.54197311401367,29.71,0
-0.436945378780365,-1.2741694450378418,0.1796249896287918,6.186810493469238,0.2064729630947113,60.53768157958984,29.71,0
-0.3923618793487549,-1.2207283973693848,0.1712507158517837,8.015067100524902,0.2064088433980941,60.53492736816406,29.71,0
-0.3693485260009765,-1.1080641746520996,0.1490832716226577,7.708732604980469,0.2063677012920379,60.53316116333008,29.71,0
-0.354579895734787,-1.0245671272277832,0.1236619353294372,5.6599531173706055,0.2077184319496154,60.53202819824219,29.71,0
-0.3395044505596161,-0.9541902542114258,0.1017502099275589,2.0164904594421387,0.2085852622985839,60.53129959106445,29.71,0
-0.3186343610286712,-0.8978309035301208,0.0876885280013084,-4.889458179473877,0.2091415375471115,60.53083419799805,29.71,0
-0.2828500270843506,-0.8448693752288818,0.0898600965738296,-15.984889030456545,0.2094985246658325,60.53053665161133,29.71,0
-0.2598856985569,-0.8108817338943481,0.0856559127569198,-28.43617057800293,0.2097276151180267,60.53034210205078,29.71,0
-0.2451485246419906,-0.7778748273849487,0.0829579085111618,-36.810020446777344,0.2098746299743652,60.53022003173828,29.71,0
-0.2580821514129638,-0.7734862565994263,0.0868242532014846,-37.36172866821289,0.2099689841270446,60.5301399230957,29.71,0
-0.2719799876213074,-0.7930610179901123,0.0893054530024528,-30.77633476257324,0.2100295275449752,60.53009033203125,29.71,0
-0.2808988094329834,-0.828014075756073,0.0964955165982246,-21.01512908935547,0.2086912393569946,60.53005599975586,29.71,0
-0.2922201752662658,-0.9120204448699952,0.0899141430854797,-12.364953994750977,0.2078324109315872,60.53003692626953,29.71,0
-0.2994855642318725,-0.9939197301864624,0.0632994994521141,-7.2723388671875,0.2072812616825103,60.53002166748047,29.71,0
-0.3265391886234283,-1.158433437347412,0.0238286517560482,-5.408561706542969,0.2069275677204132,60.53001403808594,29.71,0
-0.3550961911678314,-1.2975956201553345,0.0096940826624631,-4.50985050201416,0.2067005932331085,60.53001022338867,29.71,0
-0.3454335629940033,-1.202175259590149,-0.0049744453281164,-2.7974328994750977,0.2065549343824386,60.530006408691406,29.71,0
-0.3448304235935211,-1.1857222318649292,-0.0255834087729454,-0.3586184978485107,0.2064614593982696,60.53000259399414,29.71,0
-0.3612366914749145,-1.135979175567627,-0.0388090573251247,1.8585009574890137,0.2064014673233032,60.53000259399414,29.71,0
-0.3773630559444427,-1.0144925117492676,-0.0640898421406745,3.184591054916382,0.2077401131391525,60.53000259399414,29.71,0
-0.3821142613887787,-0.8973449468612671,-0.0747158154845237,3.136372804641724,0.2085991650819778,60.53000259399414,29.71,0
-0.3851633071899414,-0.7885797619819641,-0.0647416338324546,1.575669288635254,0.2091504633426666,60.53000259399414,29.71,0
-0.4207066595554352,-0.7523671984672546,-0.0471452288329601,-0.6332284212112427,0.2095042467117309,60.53000259399414,29.71,0
-0.4547118842601776,-0.7515191435813904,-0.0302550941705703,-2.380368947982788,0.2097312957048416,60.53000259399414,29.71,0
-0.4765344560146332,-0.7677682042121887,0.0029751197434961,-3.523078441619873,0.209876999258995,60.53000259399414,29.71,0
-0.4905389249324798,-0.7893914580345154,0.0354959070682525,-3.8014166355133057,0.2099705040454864,60.53000259399414,29.71,0
-0.5163195133209229,-0.8144636154174805,0.0731592029333114,-1.579712152481079,0.210030511021614,60.53000259399414,29.71,0
-0.5440595746040344,-0.8361512422561646,0.1029271110892295,3.944516181945801,0.2100690156221389,60.6052360534668,29.71,0
-0.5618615746498108,-0.8780579566955566,0.133225992321968,10.466768264770508,0.2100937217473983,60.65351867675781,29.71,0
-0.5732858180999756,-0.9665268063545228,0.1694633960723877,15.175430297851562,0.2101095765829086,60.68450164794922,29.71,0
-0.6030083894729614,-1.0512899160385132,0.2039140164852142,17.910572052001953,0.210119754076004,60.704383850097656,29.71,0
-0.644473671913147,-1.0665016174316406,0.2260224372148513,19.64791679382324,0.2101262956857681,60.71714401245117,29.71,0
-0.6263015270233154,-1.08186137676239,0.2514058947563171,20.332935333251957,0.2101304829120636,60.72533416748047,29.71,0
-0.5978463888168335,-1.1197072267532349,0.2788910865783691,19.41116142272949,0.2101331800222396,60.7305908203125,29.71,0
-0.5459988713264465,-1.1272011995315552,0.279736191034317,16.41213035583496,0.2101349085569381,60.73396301269531,29.71,0
-0.495932787656784,-1.1096192598342896,0.2690829634666443,11.299032211303713,0.2087588757276535,60.73612594604492,29.71,0
-0.4470099210739136,-1.0423585176467896,0.2342574745416641,4.9403076171875,0.2078758180141449,60.73751449584961,29.71,0
-0.410016268491745,-0.9712055325508118,0.1895173788070678,-2.5760464668273926,0.2073091268539428,60.738407135009766,29.71,0
-0.3806780874729156,-0.9143480658531188,0.1552079916000366,-12.569266319274902,0.2069454491138458,60.73897933959961,29.71,0
-0.3618505597114563,-0.8834580183029175,0.1163968816399574,-23.96570205688477,0.2067120671272277,60.73934555053711,29.71,0
-0.3385725617408752,-0.8636345267295837,0.0858923643827438,-32.020870208740234,0.2065622955560684,60.73958206176758,29.71,0
-0.3180363178253174,-0.8229240775108337,0.0663163214921951,-33.40701675415039,0.2064661830663681,60.73973083496094,29.71,0
-0.3216506540775299,-0.8023962378501892,0.0537535473704338,-29.32036590576172,0.2064044922590255,60.73982620239258,29.71,0
-0.3295679092407226,-0.7948204278945923,0.0512892566621303,-22.362873077392575,0.2077420502901077,60.73988723754883,29.71,0
-0.3346487581729889,-0.8011542558670044,0.0497078150510787,-13.96428680419922,0.2086004167795181,60.73992919921875,29.71,0
-0.3379093408584595,-0.8220123052597046,0.0654862597584724,-5.626097202301025,0.2091512680053711,60.73995590209961,29.71,0
-0.3344040215015411,-0.8745821714401245,0.0756119564175605,0.5846909284591675,0.2095047682523727,60.73997116088867,29.71,0
-0.3377522826194763,-0.964296281337738,0.082110047340393,3.990039825439453,0.2097316235303878,60.73998260498047,29.71,0
-0.3566943407058716,-1.0722495317459106,0.0974757000803947,6.107327461242676,0.2098772078752517,60.739990234375,29.71,0
-0.3688502609729767,-1.0295722484588623,0.11293426156044,8.694904327392578,0.2099706381559372,60.739994049072266,29.71,0
-0.3766512274742126,-0.9462066888809204,0.1228546798229217,12.11808967590332,0.2100306004285812,60.73999786376953,29.71,0
-0.4208418726921081,-0.9990652203559875,0.1404165774583816,15.658358573913574,0.2086919397115707,60.73999786376953,29.69,0
-0.4547986388206482,-0.9938023090362548,0.1460890173912048,17.851482391357422,0.207832857966423,60.73999786376953,29.69,0
-0.4541990458965301,-0.9568382501602172,0.1553270369768142,16.76184844970703,0.207281544804573,60.73999786376953,29.69,0
-0.4370209276676178,-0.8939324021339417,0.1780487895011901,11.226106643676758,0.2069277465343475,60.73999786376953,29.69,0
-0.4483880996704101,-0.8647586107254028,0.1926303058862686,1.8232402801513672,0.2067006975412368,60.73999786376953,29.69,0
-0.4668784439563751,-0.8292432427406311,0.1963901072740554,-8.560224533081055,0.2065549939870834,60.73999786376953,29.69,0
-0.4619511663913727,-0.8232448697090149,0.2044007033109665,-15.173579216003418,0.206461489200592,60.73999786376953,29.69,0
-0.453191339969635,-0.8193954229354858,0.2207369953393936,-15.226035118103027,0.2064014822244644,60.73999786376953,29.69,0
-0.4587653577327728,-0.811327338218689,0.2368184626102447,-11.053754806518556,0.2072811871767044,60.91196441650391,29.69,0
-0.4679402112960815,-0.8173452019691467,0.2415408492088318,-6.434469699859619,0.2078457325696945,61.02231979370117,29.69,0
-0.490621417760849,-0.8491960167884827,0.2277780771255493,-1.9582314491271973,0.2082080245018005,61.0931396484375,29.69,0
-0.5163724422454834,-0.8976249098777771,0.2021526098251342,3.020915031433105,0.2084405273199081,61.13858795166016,29.69,0
-0.5217024683952332,-0.9343015551567078,0.168914332985878,7.889307498931885,0.2085897326469421,61.167755126953125,29.69,0
-0.5419162511825562,-1.0250117778778076,0.13638836145401,12.446592330932615,0.2086854875087738,61.18647384643555,29.69,0
-0.5884749293327332,-1.1336044073104858,0.1211128458380699,17.219804763793945,0.2087469398975372,61.198486328125,29.69,0
-0.6127558350563049,-1.102532982826233,0.0889188051223754,21.712425231933597,0.2087863683700561,61.20619583129883,29.69,0
-0.589153528213501,-1.127375245094299,0.0514651946723461,25.2368106842041,0.2092705965042114,61.21114349365234,29.69,0
-0.5628113746643066,-1.1545131206512451,0.0274296235293149,28.1756649017334,0.2095813453197479,61.214317321777344,29.69,0
-0.5403087139129639,-1.0935598611831665,0.0120049780234694,29.771465301513672,0.2097807675600052,61.21635437011719,29.69,0
-0.4978789389133453,-1.0152591466903689,-0.0090892193838953,26.33883285522461,0.2099087536334991,61.21765899658203,29.69,0
-0.4538566172122955,-0.953814685344696,-0.0394195839762687,14.240893363952637,0.2099908739328384,61.21849822998047,29.69,0
-0.4200078547000885,-0.90318763256073,-0.0700794160366058,-5.753781318664551,0.210043579339981,61.21903610229492,29.69,0
-0.3926878869533539,-0.8651003241539001,-0.095352903008461,-28.13636016845703,0.2100774049758911,61.219383239746094,29.69,0
-0.3919488489627838,-0.8462558388710022,-0.1339630782604217,-46.36580657958984,0.2100991159677505,61.2196044921875,29.69,0
-0.391474574804306,-0.8509559035301208,-0.1643386334180832,-55.99010848999024,0.2096541225910186,61.21974563598633,29.69,0
-0.3911702036857605,-0.8595699071884155,-0.1670385897159576,-55.0908432006836,0.2093685418367386,61.2198371887207,29.69,0
-0.3909748792648315,-0.90428227186203,-0.1407824009656906,-44.71181869506836,0.2091852724552154,61.21989440917969,29.69,0
-0.3908495306968689,-0.921780526638031,-0.1239326894283294,-29.79332160949707,0.2090676724910736,61.21993255615234,29.69,0
-0.3907690942287445,-0.9721943140029908,-0.0851306393742561,-16.765886306762695,0.2089921981096267,61.21995544433594,29.69,0
-0.3963152468204498,-1.0605247020721436,-0.0434363968670368,-8.556097030639648,0.2089437693357467,61.219970703125,29.69,0
-0.3998744487762451,-1.0444390773773191,0.0057116658426821,-3.6063756942749023,0.2089126855134964,61.2199821472168,29.69,0
-0.3909629881381988,-0.955747365951538,0.042849838733673,0.0608833469450473,0.2088927328586578,61.21998977661133,29.69,0
-0.3964396715164184,-0.938014566898346,0.0610852055251598,2.8908016681671143,0.2093388587236404,61.219993591308594,29.71,0
-0.4167476296424866,-0.9434279799461364,0.0895809382200241,5.455638885498047,0.2096251547336578,61.21999740600586,29.71,0
-0.4297800958156585,-0.924510896205902,0.1134656369686126,8.548964500427246,0.2098088860511779,61.21999740600586,29.71,0
-0.3989591598510742,-0.8619910478591919,0.1399890035390854,12.10683250427246,0.2099267840385437,61.21999740600586,29.71,0
-0.3735822737216949,-0.8386627435684204,0.1682057231664657,15.199729919433594,0.210002452135086,61.21999740600586,29.71,0
-0.3684924244880676,-0.8292897343635559,0.191911369562149,15.57957935333252,0.2100510150194168,61.21999740600586,29.71,0
-0.3820193707942962,-0.862459123134613,0.2071242928504943,10.754000663757324,0.2100821733474731,61.21999740600586,29.71,0
-0.3851023912429809,-0.878147542476654,0.2168870717287063,1.7101469039916992,0.2101021707057953,61.21999740600586,29.71,0
-0.3870809078216553,-0.8938132524490356,0.2175544798374176,-6.920329570770264,0.2091971486806869,61.33464050292969,29.71,0
-0.3939483761787414,-0.8982688188552856,0.2123850136995315,-11.301701545715332,0.2086163610219955,61.40821075439453,29.71,0
-0.3983555138111114,-0.8843348026275635,0.1922742277383804,-10.821026802062988,0.208243653178215,61.45542526245117,29.71,0
-0.4179770946502685,-0.9089794158935548,0.1681727319955825,-7.460202693939209,0.2080044597387313,61.48572540283203,29.71,0
-0.4473624229431152,-0.94718599319458,0.1471080034971237,-4.128334999084473,0.2078509628772735,61.50516891479492,29.71,0
-0.4998068809509277,-0.9940958619117736,0.0888076722621917,-1.4957382678985596,0.207752451300621,61.51764678955078,29.71,0
-0.5110716223716736,-1.0297976732254028,0.0401983298361301,2.504471778869629,0.2076892405748367,61.52565383911133,29.71,0
-0.5238984823226929,-1.0639046430587769,0.0090036522597074,8.338886260986328,0.207648679614067,61.530792236328125,29.71,0
-0.5881077647209167,-1.063401460647583,0.0113757997751235,13.31190013885498,0.2089997828006744,61.53409194946289,29.71,0
-0.6349113583564758,-1.0015029907226562,-0.009492989629507,15.055933952331545,0.2098668366670608,61.53620910644531,29.71,0
-0.6537516117095947,-1.045746684074402,-0.0228853784501552,13.183703422546388,0.2104232758283615,61.53756713867188,29.71,0
-0.6210600137710571,-1.040553092956543,-0.0146865183487534,8.399638175964355,0.2107803523540496,61.5384407043457,29.71,0
-0.5608960390090942,-1.0036334991455078,0.007368360646069,2.818115234375,0.2110095173120498,61.53900146484375,29.71,0
-0.4831018149852752,-0.923962950706482,0.0327174589037895,-1.100547194480896,0.2111565768718719,61.53936004638672,29.71,0
-0.4387757480144501,-0.8728349804878235,0.0265939570963382,-4.202861785888672,0.2112509459257125,61.539588928222656,29.71,0
-0.4159276187419891,-0.8344261646270752,0.0114686964079737,-9.722585678100586,0.2113115042448043,61.539737701416016,29.71,0
-0.4012649953365326,-0.8097776174545288,-0.0150311477482318,-17.69647216796875,0.2108910828828811,61.539833068847656,29.71,0
-0.3918553590774536,-0.7995573878288269,-0.0432327724993228,-24.51537704467773,0.2106212824583053,61.53989410400391,29.71,0
-0.3914145827293396,-0.8265852928161621,-0.0557331778109073,-27.65895271301269,0.210448145866394,61.53993225097656,29.71,0
-0.4023272693157196,-0.8943101763725281,-0.0637552142143249,-26.666954040527344,0.2103370279073715,61.53995513916016,29.71,0
-0.4093303978443146,-0.9321743845939636,-0.0689032971858978,-21.226112365722656,0.2102657258510589,61.53997039794922,29.71,0
-0.413824588060379,-0.9956578612327576,-0.0386203937232494,-12.804869651794434,0.2102199643850326,61.539981842041016,29.71,0
-0.4111109375953674,-1.0475934743881226,-0.0135887954384088,-6.118039131164551,0.2101905941963195,61.53998947143555,29.71,0
-0.403771698474884,-1.0977160930633545,0.0248661395162343,-4.67854642868042,0.2101717442274093,61.53999328613281,29.71,0
-0.3934640288352966,-1.0795018672943115,0.0719354003667831,-6.24823522567749,0.2092418074607849,61.53999710083008,29.71,0
-0.3868491649627685,-0.978248655796051,0.1021417453885078,-6.0948166847229,0.2086450159549713,61.53999710083008,29.71,0
-0.388201892375946,-0.9412590265274048,0.1271242052316665,-2.585749387741089,0.2082620412111282,61.53999710083008,29.71,0
-0.394667774438858,-0.9063256978988647,0.154352068901062,3.3275599479675293,0.2080162614583969,61.53999710083008,29.71,0
-0.3932194113731384,-0.8559185862541199,0.1774231195449829,10.561654090881348,0.20785853266716,61.53999710083008,29.71,0
-0.3754966259002685,-0.8067768812179565,0.1922287940979004,16.45798110961914,0.2077573090791702,61.53999710083008,29.71,0
-0.3585253953933716,-0.8032294511795044,0.2129257619380951,17.744848251342773,0.2076923549175262,61.53999710083008,29.71,0
-0.3812208771705627,-0.8177462220191956,0.2262078821659088,16.034223556518555,0.207650676369667,61.53999710083008,29.71,0
-0.4013833105564117,-0.8326600193977356,0.2403293699026107,17.053743362426758,0.2085417807102203,61.66538619995117,29.71,0
-0.4199201762676239,-0.8814153075218201,0.2661850452423095,22.26146697998047,0.2091136425733566,61.74585723876953,29.71,0
-0.4486093819141388,-0.9127036333084106,0.2715821862220764,27.25505256652832,0.2094806283712387,61.7974967956543,29.71,0
-0.4390316009521484,-0.915989339351654,0.2638502120971679,29.642820358276367,0.2097161412239074,61.83063507080078,29.71,0
-0.4160917997360229,-0.9236956834793092,0.2644860446453094,32.23200988769531,0.2098672688007354,61.85190200805664,29.71,0
-0.4237614572048187,-0.9286412000656128,0.2536985278129577,36.74175262451172,0.2099642604589462,61.86555099487305,29.71,0
-0.4790633618831634,-0.937412679195404,0.1907979846000671,39.75048828125,0.2100265026092529,61.87430953979492,29.71,0
-0.508955180644989,-0.9486395120620728,0.133638709783554,36.80902099609375,0.2100664377212524,61.87993240356445,29.71,0
-0.5393335819244385,-1.0230175256729126,0.091359406709671,27.036104202270508,0.2096331417560577,61.88353729248047,29.71,0
-0.6204041838645935,-1.0427602529525757,0.0642269849777221,13.291157722473145,0.2093550860881805,61.8858528137207,29.71,0
-0.6556373238563538,-0.982658863067627,0.0188260842114686,0.5296083092689514,0.2091766446828842,61.88733673095703,29.71,0
-0.6558568477630615,-1.0560446977615356,-0.0047118254005908,-7.36624813079834,0.2090621292591095,61.88829040527344,29.71,0
-0.6559976935386658,-1.0863462686538696,-0.0142193268984556,-11.437397956848145,0.2089886367321014,61.88890075683594,29.71,0
-0.6001103520393372,-1.0554120540618896,-0.00352737121284,-15.841315269470217,0.2089414745569229,61.8892936706543,29.71,0
-0.5194628834724426,-0.996375858783722,-0.0134592121466994,-21.6589469909668,0.2089112102985382,61.88954544067383,29.71,0
-0.4509146511554718,-0.9528920650482178,-0.0366262197494506,-27.00094413757324,0.2088917940855026,61.88970947265625,29.71,0
-0.418119877576828,-0.9249866604804992,-0.0626890212297439,-32.295650482177734,0.2102564722299575,61.88981246948242,29.71,0
-0.4082696437835693,-0.9070785641670228,-0.0962079465389251,-40.02840805053711,0.2111322432756424,61.8898811340332,29.71,0
-0.4019483029842376,-0.8787928819656372,-0.1457073390483856,-50.65131378173828,0.2116942554712295,61.889923095703125,29.71,0
-0.3755005598068237,-0.8886296153068542,-0.1718754172325134,-62.49842071533203,0.2120549231767654,61.889949798583984,29.71,0
-0.3529301285743713,-0.8893444538116455,-0.1774730384349823,-72.5982666015625,0.2122863829135894,61.88996887207031,29.71,0
-0.355239063501358,-0.9177920818328856,-0.1698697209358215,-75.27865600585938,0.2124349176883697,61.88998031616211,29.71,0
-0.3623185753822326,-0.9752325415611268,-0.1481970250606537,-64.93982696533203,0.2125302404165268,61.88998794555664,29.71,0
-0.3556662499904632,-1.0344856977462769,-0.1174954175949096,-42.72075271606445,0.2125914096832275,61.88999176025391,29.71,0
-0.3402016162872314,-1.1004997491836548,-0.0530106984078884,-16.88294792175293,0.2130896002054214,61.88999557495117,29.71,0
-0.341472864151001,-1.0924838781356812,0.0051652071997523,4.237391948699951,0.2134093046188354,61.88999557495117,29.71,0
-0.3478864431381225,-1.008970856666565,0.0536947026848793,16.89914894104004,0.2136144787073135,61.88999557495117,29.71,0
-0.3631978631019592,-0.9665725827217102,0.0848381370306015,21.406333923339844,0.2137461453676223,61.88999557495117,29.71,0
-0.3786216080188751,-0.978548228740692,0.1272152960300445,21.45780372619629,0.2138306498527526,61.88999557495117,29.71,0
-0.360530823469162,-0.9358535408973694,0.1656060665845871,22.859378814697266,0.2138848751783371,61.88999557495117,29.71,0
-0.3321278691291809,-0.874867856502533,0.1846452802419662,28.405427932739254,0.2139196693897247,61.88999557495117,29.71,0
-0.3083027005195617,-0.835730791091919,0.21365687251091,34.597755432128906,0.2139420062303543,61.88999557495117,29.71,0
-0.3042086362838745,-0.8218104243278503,0.2322748452425003,36.63704681396485,0.2125791907310485,62.022552490234375,29.71,0
-0.3183746337890625,-0.8128771185874939,0.2274294644594192,35.244483947753906,0.2117046117782592,62.10762023925781,29.71,0
-0.3162699937820434,-0.8295353651046753,0.2411133050918579,34.967018127441406,0.211143359541893,62.16221237182617,29.71,0
-0.3149193525314331,-0.8514211773872375,0.2498947978019714,37.368412017822266,0.2107831835746765,62.19724655151367,29.71,0
-0.3140526115894317,-0.8766617774963379,0.2443347126245498,40.120399475097656,0.2105520367622375,62.2197265625,29.71,0
-0.3246919214725494,-0.8928597569465637,0.2351687997579574,41.81123352050781,0.2104036957025528,62.234153747558594,29.71,0
-0.3539107143878937,-0.914450228214264,0.2068955451250076,43.49102020263672,0.2103085070848465,62.243412017822266,29.71,0
-0.3894549906253814,-0.9730879664421082,0.1719580739736557,46.0450325012207,0.2102474123239517,62.24935531616211,29.71,0
-0.401069700717926,-1.0051205158233645,0.1383416652679443,47.58731842041016,0.2106675058603286,62.25317001342773,29.71,0
-0.4085233509540558,-1.02567720413208,0.1111708134412765,42.67656707763672,0.2109370976686477,62.255615234375,29.71,0
-0.4245022237300873,-1.0444669723510742,0.0937341228127479,26.918046951293945,0.2111101001501083,62.25718688964844,29.71,0
-0.5019298195838928,-1.106905221939087,0.0881420373916626,4.162227630615234,0.2112211287021637,62.25819396972656,29.71,0
-0.5236295461654663,-1.0294212102890017,0.0677600353956222,-15.883081436157228,0.2112923711538314,62.25883865356445,29.71,0
-0.5207618474960327,-1.0132830142974854,0.0546800382435321,-27.89793586730957,0.2113380879163742,62.259254455566406,29.71,0
-0.5189215540885925,-1.0589042901992798,0.0798726975917816,-33.27970504760742,0.2113674283027649,62.259521484375,29.71,0
-0.5009472370147705,-1.0769858360290527,0.0960398912429809,-35.003028869628906,0.2113862633705139,62.25969314575195,29.71,0
-0.4334345757961273,-1.015818476676941,0.1008172929286956,-36.64634704589844,0.2109390646219253,62.259803771972656,29.71,0
-0.3845110833644867,-0.937380313873291,0.1038831546902656,-42.39052581787109,0.2106520682573318,62.25987243652344,29.71,0
-0.3531147837638855,-0.892641007900238,0.1058506518602371,-52.46812057495117,0.2104678899049759,62.25991821289063,29.71,0
-0.327368676662445,-0.8695276379585266,0.0847221761941909,-62.564491271972656,0.2103497087955474,62.25994873046875,29.71,0
-0.3164440989494324,-0.8434993028640747,0.0655653625726699,-69.62772369384766,0.2102738618850708,62.25996780395508,29.71,0
-0.3038355410099029,-0.8379913568496704,0.0588693991303443,-72.69522857666016,0.2102251797914505,62.25997924804688,29.71,0
-0.2901463210582733,-0.8344566822052002,0.0545723140239715,-68.21155548095703,0.2101939469575882,62.259986877441406,29.71,0
-0.2925569117069244,-0.8489816188812256,0.0630102455615997,-52.31510925292969,0.2101739048957824,62.25999069213867,29.71,0
-0.2885061204433441,-0.9086828827857972,0.0684252232313156,-29.05519676208496,0.211079254746437,62.25999450683594,29.71,0
-0.2803087830543518,-0.924604594707489,0.0663024708628654,-9.349169731140137,0.2116602510213852,62.25999450683594,29.71,0
-0.2806459665298462,-0.9628111124038696,0.0929290801286697,0.1121144965291023,0.2120331078767776,62.25999450683594,29.71,0
-0.286460131406784,-1.0936875343322754,0.0820276290178299,2.131929636001587,0.2122723758220672,62.25999450683594,29.71,0
-0.2957891225814819,-1.2168610095977783,0.0974228084087371,3.3027405738830566,0.2124259322881698,62.25999450683594,29.71,0
-0.3073737025260925,-1.1223756074905396,0.1184980943799018,7.539945602416992,0.2125244736671447,62.25999450683594,29.71,0
-0.3092102408409118,-1.0393491983413696,0.1432185471057891,14.977392196655272,0.2125877141952514,62.25999450683594,29.71,0
-0.3439754545688629,-1.0476431846618652,0.1310938447713852,23.615917205810547,0.2126282900571823,62.25999450683594,29.71,0
-0.3662857711315155,-1.0081835985183716,0.1177151277661323,30.77178382873535,0.2131132632493972,62.3638916015625,29.71,0
-0.3638099431991577,-0.915687382221222,0.1035316661000251,34.056365966796875,0.2134244889020919,62.43056488037109,29.71,0
-0.3566233217716217,-0.8227419853210449,0.094429537653923,33.11186981201172,0.2136242240667343,62.47335433959961,29.71,0
-0.3800002336502075,-0.7742905020713806,0.0829905420541763,30.904333114624023,0.2137524038553238,62.50081253051758,29.71,0
-0.4397843778133392,-0.7599904537200928,0.0700518786907196,30.777389526367188,0.2138346582651138,62.5184326171875,29.71,0
-0.4781503975391388,-0.7676068544387817,0.0729441344738006,31.95340919494629,0.2138874381780624,62.52974319458008,29.71,0
-0.474782645702362,-0.7668968439102173,0.0859957709908485,31.35389709472656,0.2139213234186172,62.5369987487793,29.71,0
-0.4838169515132904,-0.7664412260055542,0.1111648827791214,28.669151306152344,0.213943064212799,62.54165649414063,29.71,0
-0.5064079761505127,-0.7773443460464478,0.1273169666528701,26.115079879760746,0.2125798612833023,62.54464721679688,29.71,0
-0.5265033841133118,-0.8235257863998413,0.1432802230119705,24.830698013305664,0.2117050439119339,62.54656600952149,29.71,0
-0.517008364200592,-0.8419668078422546,0.1591222882270813,24.275148391723636,0.2111436426639557,62.547794342041016,29.71,0
-0.5165127515792847,-0.9377678036689758,0.1748865991830825,23.64993667602539,0.2107833623886108,62.548583984375,29.71,0
-0.5665746927261353,-0.9992473721504213,0.2073943167924881,22.392475128173828,0.2105521559715271,62.54909133911133,29.71,0
-0.5875059962272644,-1.0442992448806765,0.233853667974472,20.066495895385746,0.2104037851095199,62.549415588378906,29.71,0
-0.5337651968002319,-1.1683731079101562,0.2116493433713913,16.202152252197266,0.2103085666894912,62.54962539672852,29.71,0
-0.4432997107505798,-1.1976165771484375,0.2253887504339218,10.530163764953612,0.2102474570274353,62.54975891113281,29.71,0
-0.3852441906929016,-1.1548078060150146,0.2286081463098526,4.081469058990479,0.210667535662651,62.54984664916992,29.71,0
-0.3591830432415008,-1.0769556760787964,0.1914897412061691,-0.6014833450317383,0.2109371125698089,62.54990005493164,29.71,0
-0.3480562567710876,-1.015799045562744,0.1564737409353256,-2.188033103942871,0.2111101150512695,62.54993438720703,29.71,0
-0.3409157395362854,-0.9765522480010986,0.1284047067165374,-3.274258136749268,0.2112211287021637,62.54995727539063,29.71,0
-0.3139422535896301,-0.917779266834259,0.1047938466072082,-7.786777496337891,0.2112923711538314,62.54997253417969,29.71,0
-0.2798389196395874,-0.8744643926620483,0.0896417573094368,-16.18190574645996,0.2113380879163742,62.54998397827149,29.71,0
-0.2523555755615234,-0.8298740983009338,0.0743202418088913,-25.786108016967773,0.2113674283027649,62.54998779296875,29.71,0
-0.2403161227703094,-0.7900630235671997,0.0644877776503562,-34.06683349609375,0.2113862633705139,62.549991607666016,29.71,0
-0.2493832260370254,-0.7757101655006409,0.0525800921022892,-38.40646743774414,0.2109390646219253,62.54999542236328,29.71,0
-0.2663975059986114,-0.7888904213905334,0.0281451027840375,-35.54525375366211,0.2106520682573318,62.54999542236328,29.71,0
-0.2885118424892425,-0.8085442781448364,0.0124641321599483,-24.935365676879883,0.2104678899049759,62.54999542236328,29.71,0
-0.3027035593986511,-0.8715369701385498,-0.0087945610284805,-10.62463665008545,0.2103497087955474,62.54999542236328,29.71,0
-0.3062132000923157,-0.967939794063568,-0.0392304882407188,2.324453353881836,0.2102738618850708,62.54999542236328,29.71,0
-0.3812365531921386,-1.1753476858139038,-0.0475669652223587,11.89908218383789,0.2102251797914505,62.54999542236328,29.71,0
-0.4069911241531372,-1.1405168771743774,-0.0137324165552854,18.767208099365234,0.2101939469575882,62.54999542236328,29.71,0
-0.3675411939620971,-1.1181645393371582,0.0135784242302179,23.486459732055664,0.2101739048957824,62.54999542236328,29.71,0
-0.3534200489521026,-1.1038200855255127,0.0087138507515192,26.31796264648437,0.2106203287839889,62.63956069946289,29.71,0
-0.3667490184307098,-1.0554301738739014,-5.726578820031136e-06,28.586463928222656,0.2109068185091018,62.69704055786133,29.71,0
-0.3864983320236206,-0.9404097199440002,-0.022394772619009,31.271080017089844,0.2110906690359115,62.733924865722656,29.71,0
-0.387976735830307,-0.8274118304252625,-0.0199694503098726,32.61057662963867,0.2112086564302444,62.75759506225586,29.71,0
-0.3945232629776001,-0.7604940533638,-0.0184130184352397,29.278573989868164,0.2112843692302703,62.77278518676758,29.71,0
-0.4155177772045135,-0.7455389499664307,-0.006218641065061,19.982301712036133,0.2113329619169235,62.78253555297852,29.71,0
-0.4233930706977844,-0.7415393590927124,0.0072047831490635,7.331402778625488,0.2113641500473022,62.78879165649414,29.71,0
-0.4284469783306122,-0.7501682043075562,0.0326124876737594,-3.5637125968933105,0.2113841623067855,62.79280853271485,29.71,0
-0.4428858458995819,-0.7724990248680115,0.0601132400333881,-9.058053016662598,0.2123148590326309,62.79538345336914,29.71,0
-0.4745429754257202,-0.8204163312911987,0.0945549607276916,-10.008132934570312,0.2129121273756027,62.79703521728516,29.71,0
-0.4892609119415283,-0.8903512954711914,0.1334509998559951,-9.79384708404541,0.2132954150438308,62.798095703125,29.71,0
-0.4931082725524902,-0.968818187713623,0.1640100181102752,-9.996675491333008,0.2135413885116577,62.79877853393555,29.71,0
-0.5179683566093445,-1.103140354156494,0.2284032255411148,-9.88680648803711,0.2136992365121841,62.79921722412109,29.71,0
-0.573106586933136,-1.1837427616119385,0.2809226214885711,-9.250251770019531,0.2138005346059799,62.79949569702149,29.71,0
-0.5693066716194153,-1.162697672843933,0.2866376936435699,-8.906234741210938,0.2138655483722686,62.79967498779297,29.71,0
-0.4829015135765075,-1.205169916152954,0.2847075164318084,-8.513500213623047,0.2139072716236114,62.79978942871094,29.71,0
-0.4106583297252655,-1.2436217069625854,0.2890666127204895,-6.799775123596191,0.2125568985939026,62.79986572265625,29.71,0
-0.3698945939540863,-1.21232008934021,0.2582773864269256,-4.016194343566895,0.2116903066635131,62.7999153137207,29.71,0
-0.3325392305850982,-1.1530481576919556,0.2273230850696563,-1.2518094778060913,0.2111341804265976,62.79994583129883,29.71,0
-0.308566689491272,-1.0646308660507202,0.1794695109128952,1.3891969919204712,0.2107772827148437,62.79996490478516,29.71,0
-0.3043780624866485,-1.0190852880477903,0.1375643014907837,1.6151869297027588,0.2105482518672943,62.79997634887695,29.71,0
-0.3016900420188904,-0.9786611795425416,0.1050741747021675,-6.830801486968994,0.2104012668132782,62.79998397827149,29.71,0
-0.2775739133358001,-0.9303282499313354,0.0786261036992073,-26.330472946166992,0.2103069424629211,62.79998779296875,29.71,0
-0.2453042566776275,-0.9049087166786194,0.0672510340809822,-48.13385772705078,0.2102464139461517,62.799991607666016,29.71,0
-0.2133999019861221,-0.8326181769371033,0.0599511675536632,-58.60076141357422,0.2102075666189193,62.79999542236328,29.71,0
-0.2209143936634063,-0.8030195832252502,0.0552665330469608,-51.29561614990234,0.210182636976242,62.79999542236328,29.71,0
-0.2313345372676849,-0.8064160346984863,0.0522602014243602,-30.7188720703125,0.210166648030281,62.79999542236328,29.71,0
-0.2268260270357132,-0.8085956573486328,0.0447331368923187,-7.274900913238525,0.2101563811302185,62.79999542236328,29.71,0
-0.2239327281713485,-0.8211899399757385,0.0399027019739151,10.002035140991213,0.2101497948169708,62.79999542236328,29.71,0
-0.233271524310112,-0.902043342590332,0.0088139344006776,18.47051429748535,0.2101455628871917,62.79999542236328,29.71,0
-0.272851288318634,-1.110668063163757,-0.0279303696006536,21.465362548828125,0.2101428508758545,62.79999542236328,29.71,0
-0.331837922334671,-1.1997692584991455,-0.0403151996433734,23.441022872924805,0.2101411074399948,62.79999542236328,29.71,0
-0.3361055254936218,-1.1729825735092163,-0.0258719753473997,26.245813369750977,0.2096810638904571,62.89672470092773,29.71,0
-0.3388442099094391,-1.1837812662124634,-0.0222009196877479,29.779733657836918,0.2093858420848846,62.95880126953125,29.71,0
-0.3965795040130615,-1.1347335577011108,-0.0534316934645175,34.08250427246094,0.2091963738203048,62.99863815307617,29.71,0
-0.4392284452915191,-1.0136932134628296,-0.0958649069070816,38.30546188354492,0.2090747952461242,63.02420425415039,29.71,0
-0.4442069828510284,-0.9024298191070556,-0.1007049977779388,37.37919998168945,0.2089967727661132,63.04061126708984,29.71,0
-0.4641952514648437,-0.8142340183258057,-0.0870177671313285,23.32504272460937,0.2089467048645019,63.05113983154297,29.71,0
-0.4882181286811828,-0.7632328271865845,-0.0838318690657615,-5.641887187957764,0.2089145630598068,63.05789566040039,29.71,0
-0.5372212529182434,-0.7584920525550842,-0.0761895626783371,-37.966793060302734,0.2088939398527145,63.062232971191406,29.71,0
-0.5518753528594971,-0.7666452527046204,-0.0265029780566692,-56.15309524536133,0.2084217816591262,63.06501388549805,29.71,0
-0.5556817054748535,-0.7830730676651001,0.0165785625576972,-53.013648986816406,0.2081187814474105,63.06679916381836,29.71,0
-0.5581244230270386,-0.8383976817131042,0.0722146853804588,-36.42501449584961,0.2079243212938308,63.06794738769531,29.71,0
-0.5652897953987122,-0.8962929248809814,0.1135165244340896,-18.1735782623291,0.2077995389699936,63.06868362426758,29.71,0
-0.57548588514328,-1.0286089181900024,0.1624127626419067,-4.243243217468262,0.2077194601297378,63.06915664672852,29.71,0
-0.5988224744796753,-1.1023261547088623,0.2217804193496704,4.359683036804199,0.2076680660247802,63.0694580078125,29.71,0
-0.5858096480369568,-1.110449194908142,0.2598791718482971,8.701878547668457,0.2076350897550583,63.06965255737305,29.71,0
-0.5214810371398926,-1.1604443788528442,0.3067198395729065,11.391719818115234,0.207613930106163,63.06977844238281,29.71,0
-0.4634053111076355,-1.2093217372894287,0.3255839347839355,14.715733528137209,0.2089774906635284,63.06985855102539,29.71,0
-0.4205378890037536,-1.21269953250885,0.298505425453186,18.450305938720703,0.2098525315523147,63.06990814208984,29.71,0
-0.3874302804470062,-1.130900502204895,0.2531391084194183,20.99024200439453,0.2104140818119049,63.069942474365234,29.71,0
-0.3605859279632568,-1.0504177808761597,0.2184278517961502,21.36990737915039,0.2107744663953781,63.06996154785156,29.71,0
-0.3489565551280975,-0.9707797169685364,0.1737610697746276,18.428646087646484,0.2110057324171066,63.06997680664063,29.71,0
-0.3470912575721741,-0.9140748381614684,0.1394987255334854,9.594499588012695,0.2111541479825973,63.06998443603516,29.71,0
-0.3346986770629883,-0.860891580581665,0.1119133532047271,-5.78352689743042,0.2112493962049484,63.06998825073242,29.71,0
-0.2931591868400574,-0.8211638331413269,0.0998084172606468,-22.03640937805176,0.2113105207681656,63.06999206542969,29.71,0
-0.2665015459060669,-0.7900710701942444,0.0920401662588119,-30.5212345123291,0.2104315310716629,63.06999588012695,29.71,0
-0.2661875188350677,-0.7813130617141724,0.0758594051003456,-28.077476501464844,0.2098674476146698,63.06999588012695,29.71,0
-0.2771815359592438,-0.7644971609115601,0.0654755234718322,-18.35885238647461,0.2095054537057876,63.06999588012695,29.71,0
-0.2954324185848236,-0.7704989910125732,0.0644095167517662,-5.959969520568848,0.2092731446027755,63.06999588012695,29.71,0
-0.3071447908878326,-0.802339494228363,0.07492096722126,6.152708053588867,0.2091240584850311,63.06999588012695,29.71,0
-0.3258566558361053,-0.8395662307739258,0.0816666111350059,15.323131561279297,0.2090283781290054,63.06999588012695,29.71,0
-0.3378648459911346,-0.9362272620201112,0.0692022517323494,19.825307846069336,0.2089669853448867,63.06999588012695,29.71,0
-0.3399732410907745,-1.0878231525421145,0.0668011158704757,20.238985061645508,0.2089275866746902,63.06999588012695,29.71,0
-0.3693151772022247,-1.168315291404724,0.0820535346865654,18.72391891479492,0.2098205089569091,63.18822479248047,29.71,0
-0.3937429189682007,-1.0576350688934326,0.1086349785327911,17.622663497924805,0.2103935331106186,63.26409530639648,29.71,0
-0.3982236683368683,-1.059377908706665,0.108900099992752,18.775299072265625,0.2107612788677215,63.31278610229492,29.71,0
-0.4234902560710907,-1.0548986196517944,0.0754835903644561,22.717817306518555,0.2109972685575485,63.344032287597656,29.71,0
-0.4509004652500152,-1.0240352153778076,0.0652343481779098,27.451181411743164,0.2111487090587616,63.36408233642578,29.71,0
-0.4181107878684997,-0.9146645069122314,0.0754502937197685,28.392974853515625,0.2112458944320678,63.376949310302734,29.71,0
-0.4138615727424621,-0.8220855593681335,0.0764085277915,21.484703063964844,0.2113082706928253,63.38520812988281,29.71,0
-0.4279280006885528,-0.7682715058326721,0.0770234689116478,7.593372344970703,0.211348295211792,63.390506744384766,29.71,0
-0.4649438858032226,-0.7505300641059875,0.0718203261494636,-7.630200386047363,0.2113739848136901,63.3939094543457,29.71,0
-0.4886985421180725,-0.7503401637077332,0.0796767994761467,-19.026302337646484,0.2113904654979705,63.39609146118164,29.71,0
-0.4871495962142944,-0.7782071828842163,0.1295008212327957,-25.49059295654297,0.2114010453224182,63.397491455078125,29.71,0
-0.5029488801956177,-0.8072861433029175,0.1782683432102203,-27.890705108642575,0.2114078402519226,63.39839172363281,29.71,0
-0.5242835283279419,-0.8483384847640991,0.20956452190876,-25.726577758789062,0.2114121913909912,63.39896774291992,29.71,0
-0.5491704344749451,-0.947454571723938,0.2128552943468094,-17.692087173461914,0.2114149928092956,63.39933776855469,29.71,0
-0.548348069190979,-1.016659379005432,0.209369346499443,-4.765407562255859,0.2114167809486389,63.39957427978516,29.71,0
-0.5422225594520569,-1.117048740386963,0.2239255905151367,9.36620807647705,0.2114179283380508,63.39972686767578,29.71,0
-0.5886715054512024,-1.215059518814087,0.2388647198677063,21.47308921813965,0.2109593749046325,63.39982604980469,29.71,0
-0.596088707447052,-1.1995882987976074,0.231658473610878,30.77593040466309,0.2106651067733764,63.39988708496094,29.71,0
-0.5392730832099915,-1.1280843019485474,0.1934472620487213,36.90359115600586,0.2104762643575668,63.39992904663086,29.71,0
-0.5140076279640198,-1.110185980796814,0.1521321833133697,37.45760345458984,0.2103550732135772,63.39995574951172,29.71,0
-0.4865981936454773,-1.098699927330017,0.1088252291083335,29.4621524810791,0.2102773040533065,63.39997100830078,29.71,0
-0.4018351137638092,-1.02975332736969,0.097826637327671,12.583868026733398,0.2102274000644683,63.39998245239258,29.71,0
-0.3306457102298736,-0.9631162285804749,0.085170604288578,-9.919673919677734,0.2101953625679016,63.39999008178711,29.71,0
-0.3185470998287201,-0.9203523993492126,0.0322664976119995,-32.49001693725586,0.2101748138666153,63.399993896484375,29.71,0
-0.3163806796073913,-0.8873112201690674,-0.0128798652440309,-49.277957916259766,0.2110798358917236,63.39999771118164,29.71,0
-0.3485770523548126,-0.8605095148086548,-0.0530477538704872,-56.49757766723633,0.211660623550415,63.39999771118164,29.71,0
-0.3636410534381866,-0.843309760093689,-0.1068140640854835,-53.86167144775391,0.2120333462953567,63.39999771118164,29.71,0
-0.3565149307250976,-0.832271933555603,-0.1357204169034958,-43.80478286743164,0.2122725397348404,63.39999771118164,29.71,0
-0.3463440239429474,-0.8475795984268188,-0.1318797469139099,-29.952831268310547,0.2124260365962982,63.39999771118164,29.71,0
-0.3566102385520935,-0.874196469783783,-0.1294150203466415,-16.234134674072266,0.2125245481729507,63.39999771118164,29.71,0
-0.3687962889671325,-0.8856799006462097,-0.1054422110319137,-6.040225505828857,0.212587758898735,63.39999771118164,29.71,0
-0.3710188269615173,-0.9658203721046448,-0.0844600647687912,-1.0281217098236084,0.2126283198595047,63.39999771118164,29.71,0
-0.3780428767204284,-1.0620321035385132,-0.0653971582651138,-0.5379817485809326,0.2112772166728973,63.66510772705078,29.71,0
-0.3881482779979706,-1.0342108011245728,-0.019577033817768,-2.369400978088379,0.2104101628065109,63.83523941040039,29.71,0
-0.3946333527565002,-0.9547812342643738,0.0266210045665502,-4.178816318511963,0.2098537236452102,63.94442367553711,29.71,0
-0.4211862087249756,-0.948590099811554,0.0618660226464271,-4.644975185394287,0.2094966471195221,64.01448822021484,29.71,0
-0.4550196230411529,-0.9278236627578736,0.0788864716887474,-4.306430816650391,0.2092674821615219,64.05945587158203,29.71,0
-0.4543408453464508,-0.8921058773994446,0.1066025421023368,-5.378899574279785,0.2091204226016998,64.08831024169922,29.71,0
-0.3979275226593017,-0.857988715171814,0.1355846673250198,-9.68554973602295,0.2090260535478592,64.10682678222656,29.71,0
-0.3561269044876098,-0.8360942602157593,0.1597815006971359,-16.651670455932617,0.2089654952287674,64.11871337890625,29.71,0
-0.3684861063957214,-0.8444347381591797,0.1977007389068603,-24.031177520751957,0.2098448425531387,64.1263427734375,29.71,0
-0.4044063985347748,-0.8441894054412842,0.2164373397827148,-29.36162757873535,0.2104091495275497,64.13123321533203,29.71,0
-0.4218602180480957,-0.855227530002594,0.2284614145755767,-30.2387752532959,0.2107712924480438,64.1343765258789,29.71,0
-0.4218655228614807,-0.8735067248344421,0.2305800020694732,-25.89713287353516,0.211003690958023,64.13639068603516,29.71,0
-0.4106733798980713,-0.8796394467353821,0.2319395840167999,-19.177248001098636,0.2111528366804123,64.13768005371094,29.71,0
-0.4034909009933471,-0.8947706818580627,0.2272143214941024,-13.231158256530762,0.2112485468387603,64.13851165771484,29.71,0
-0.4436637759208679,-0.9156765341758728,0.190595269203186,-6.67821216583252,0.2113099694252014,64.13904571533203,29.71,0
-0.4862377643585205,-0.9290927052497864,0.1391063928604126,3.929153442382813,0.2113493829965591,64.13938903808594,29.71,0
-0.5191570520401001,-0.9880824089050292,0.0668793767690658,18.07704734802246,0.2113746851682663,64.13961029052734,29.71,0
-0.5458805561065674,-1.0651230812072754,0.0149304624646902,31.34438133239746,0.2113909125328064,64.1397476196289,29.71,0
-0.6022145748138428,-1.0977699756622314,-0.0072118123061954,40.001895904541016,0.2114013284444809,64.13983917236328,29.71,0
-0.6271709203720093,-1.057145357131958,-0.038214772939682,42.97833633422852,0.2114080190658569,64.13990020751953,29.71,0
-0.6487842798233032,-1.0702592134475708,-0.0637084618210792,41.22705459594727,0.2114123106002807,64.13993835449219,29.71,0
-0.6514589190483093,-1.0842727422714231,-0.068873293697834,37.04366302490234,0.2114150673151016,64.13996124267578,29.71,0
-0.6195887327194214,-1.05967915058136,-0.0665900111198425,32.46381759643555,0.2114168405532837,64.13997650146484,29.71,0
-0.537560760974884,-0.993516445159912,-0.0539291836321353,27.17098617553711,0.2114179730415344,64.13998413085938,29.71,0
-0.4681265950202942,-0.9342637062072754,-0.0681952908635139,19.79769325256348,0.2105004787445068,64.1399917602539,29.69,0
-0.4403610527515411,-0.8850431442260742,-0.0885460078716278,11.547847747802734,0.2099116891622543,64.1399917602539,29.69,0
-0.4449338316917419,-0.8478584885597229,-0.1239970251917839,5.368675708770752,0.2095338404178619,64.1399917602539,29.69,0
-0.4366728365421295,-0.8295932412147522,-0.1523452252149582,1.5931155681610107,0.2092913538217544,64.1399917602539,29.69,0
-0.4257736206054687,-0.840262770652771,-0.1649396866559982,-1.7433784008026123,0.2091357409954071,64.1399917602539,29.69,0
-0.424376904964447,-0.8806965351104736,-0.1562287658452987,-4.730035781860352,0.2090358734130859,64.1399917602539,29.69,0
-0.4178828001022339,-0.9290356636047364,-0.1394430547952652,-5.278157234191895,0.2089717835187912,64.1399917602539,29.69,0
-0.3969219326972961,-0.993643581867218,-0.1062798500061035,-2.212132692337036,0.2089306563138961,64.1399917602539,29.69,0
-0.3722749054431915,-1.0742896795272827,-0.0738020613789558,2.7003424167633057,0.2098224759101867,64.42301940917969,29.69,0
-0.3676534295082092,-1.120445966720581,-0.0025797223206609,4.88559103012085,0.21039479970932,64.60465240478516,29.69,0
-0.3758831620216369,-0.9989264607429504,0.0599200017750263,0.7636262774467468,0.210762083530426,64.7212142944336,29.69,0
-0.3755667507648468,-0.9153444766998292,0.1056265011429786,-7.198155403137207,0.2109977900981903,64.79601287841797,29.69,0
-0.3641681671142578,-0.9288796186447144,0.1237627491354942,-11.81675624847412,0.211149051785469,64.8440170288086,29.69,0
-0.3624509871006012,-0.9263701438903807,0.1409993320703506,-8.392975807189941,0.2112461179494857,64.87482452392578,29.69,0
-0.3557512164115906,-0.8855752944946289,0.1688541024923324,1.474503755569458,0.2113084197044372,64.89459228515625,29.69,0
-0.3514516949653625,-0.8370044231414795,0.1699363589286804,12.374667167663574,0.2113483995199203,64.90727996826172,29.69,0
-0.3542902767658233,-0.8170299530029297,0.1762286722660064,19.29811286926269,0.21045583486557,64.91542053222656,29.69,0
-0.3673074543476105,-0.8322004079818726,0.174668937921524,20.423717498779297,0.2098830342292785,64.92064666748047,29.69,0
-0.3756611347198486,-0.8363381624221802,0.1736679822206497,17.717540740966797,0.2095154523849487,64.92399597167969,29.69,0
-0.3866198360919952,-0.8557868599891663,0.1898189634084701,15.12463665008545,0.2092795521020889,64.9261474609375,29.69,0
-0.4216413497924804,-0.8738656640052795,0.2001837193965912,15.162384033203123,0.2091281712055206,64.92752838134766,29.69,0
-0.4497139155864715,-0.879869818687439,0.1956396847963333,16.619638442993164,0.2090310156345367,64.92841339111328,29.69,0
-0.4453381896018982,-0.8557340502738953,0.1871258020401001,16.637680053710938,0.2089686691761016,64.92898559570312,29.69,0
-0.4369323253631592,-0.8402451276779175,0.1872598677873611,15.033516883850098,0.2089286595582962,64.92935180664062,29.69,0
-0.4875156581401825,-0.8806852102279663,0.1593570262193679,14.34798526763916,0.2098211944103241,64.92958068847656,29.69,0
-0.5423682332038879,-0.9570173025131226,0.1022661700844764,15.015066146850586,0.2103939801454544,64.92973327636719,29.69,0
-0.5775694847106934,-1.039589524269104,0.0600307658314704,13.232710838317873,0.2107615619897842,64.9298324584961,29.69,0
-0.6225507259368896,-1.0757862329483032,0.0385242886841297,5.776400089263916,0.2109974473714828,64.92989349365234,29.69,0
-0.6458193063735962,-1.0430374145507812,0.0079293493181467,-5.063183784484863,0.2111488282680511,64.929931640625,29.69,0
-0.6607517004013062,-1.0668033361434937,-0.0284980461001396,-14.036396026611328,0.211245983839035,64.9299545288086,29.69,0
-0.647943377494812,-1.0820549726486206,-0.0462772771716117,-18.77743530273437,0.2113083302974701,64.92996978759766,29.69,0
-0.6061370968818665,-1.058255910873413,-0.0520891919732093,-19.860292434692383,0.2113483399152755,64.92997741699219,29.69,0
-0.5457215905189514,-1.0149941444396973,-0.0614167153835296,-17.922014236450195,0.2118329405784607,64.92998504638672,29.69,0
-0.5013526082038879,-0.9872312545776368,-0.0841959044337272,-14.811616897583008,0.2121439278125763,64.92999267578125,29.69,0
-0.4616836011409759,-0.9470235705375672,-0.1156076043844223,-14.373963356018066,0.2123434990644455,64.92999267578125,29.69,0
-0.4418241083621979,-0.9156228303909302,-0.152559146285057,-18.463844299316406,0.2124715745449066,64.92999267578125,29.69,0
-0.4234816431999206,-0.901069402694702,-0.1762725263833999,-25.06157112121582,0.2125537693500518,64.92999267578125,29.69,0
-0.3949171900749206,-0.880534291267395,-0.1970881819725036,-31.34126281738281,0.2126065194606781,64.92999267578125,29.69,0
-0.3765861690044403,-0.8785516023635864,-0.1992509216070175,-35.05594253540039,0.2126403599977493,64.92999267578125,29.69,0
-0.3648223578929901,-0.9220613837242126,-0.1838455200195312,-34.27281188964844,0.2126620858907699,64.92999267578125,29.69,0
-0.3516752421855926,-0.9499834775924684,-0.1403725743293762,-29.06632232666016,0.2112988829612732,65.19510650634766,29.69,0
-0.3432382047176361,-0.9846956133842468,-0.08448526263237,-21.58005714416504,0.2104240655899047,65.36524200439453,29.69,0
-0.3378237783908844,-1.0461562871932983,-0.059815552085638,-13.196809768676758,0.2098626494407653,65.47442626953125,29.69,0
-0.3287513554096222,-1.1415759325027466,-0.0439839512109756,-4.481546401977539,0.2095023691654205,65.54449462890625,29.69,0
-0.322929173707962,-1.040475368499756,0.0109580531716346,2.770140647888184,0.2092711627483368,65.5894546508789,29.69,0
-0.3527794778347015,-1.0147792100906372,0.0574122183024883,7.040520191192627,0.2091227918863296,65.6183090209961,29.69,0
-0.3831312358379364,-0.998288869857788,0.0816260501742363,9.716517448425291,0.2090275734663009,65.63682556152344,29.69,0
-0.4194025695323944,-0.9541196823120116,0.1083606481552124,13.343331336975098,0.208966463804245,65.64871215820312,29.69,0
-0.4090927839279175,-0.8977856040000916,0.142310693860054,17.053686141967773,0.2089272439479828,65.65634155273438,29.69,0
-0.3464988172054291,-0.8560358285903931,0.175293430685997,16.167469024658203,0.2089020758867263,65.6612319946289,29.69,0
-0.3119273781776428,-0.8348410129547119,0.2132531702518463,8.36552619934082,0.2088859230279922,65.66437530517578,29.69,0
-0.3177303075790405,-0.8268371820449829,0.2376135438680648,-0.965480625629425,0.2088755667209625,65.66638946533203,29.69,0
-0.3494431674480438,-0.8496896624565125,0.2476488649845123,-3.102314710617065,0.20886892080307,65.66767883300781,29.69,0
-0.3585990965366363,-0.8587572574615479,0.2540889382362366,3.837963342666626,0.2088646441698074,65.66851043701172,29.69,0
-0.3532792925834656,-0.8813696503639221,0.2638196051120758,13.042329788208008,0.2088619023561477,65.6690444946289,29.69,0
-0.3498653471469879,-0.9070765376091005,0.2644664049148559,18.089344024658203,0.2088601440191269,65.66938781738281,29.69,0
-0.342076689004898,-0.9235737323760986,0.2480881512165069,19.43304443359375,0.2102361619472503,65.66960906982422,29.69,0
-0.3538717031478882,-0.9397584795951844,0.2151864320039749,20.8649845123291,0.2111192047595977,65.66974639892578,29.69,0
-0.3782343864440918,-0.95014488697052,0.1772786825895309,23.675519943237305,0.2116858959197998,65.66983795166016,29.69,0
-0.410662293434143,-0.9512125253677368,0.1305605769157409,25.160310745239254,0.2120495587587356,65.6698989868164,29.69,0
-0.4314726591110229,-0.9742887616157532,0.09498181194067,20.9614200592041,0.2122829407453537,65.66993713378906,29.69,0
-0.4672186374664306,-1.011488914489746,0.0665516331791877,10.238263130187988,0.212432712316513,65.66996002197266,29.69,0
-0.5405383110046387,-1.0465573072433472,0.0706978812813758,-1.7663253545761108,0.2125288248062133,65.66997528076172,29.69,0
-0.570797324180603,-0.9906933903694152,0.0621631555259227,-9.695881843566896,0.2125905007123947,65.66998291015625,29.69,0
-0.5734224915504456,-1.016418695449829,0.0622838325798511,-14.250810623168944,0.2121711671352386,65.66999053955078,29.71,0
-0.5583139061927795,-1.060916543006897,0.0735568255186081,-18.632009506225582,0.2119020521640777,65.66999053955078,29.71,0
-0.5094336271286011,-1.0726794004440308,0.0751934051513671,-23.53225326538086,0.211729347705841,65.66999053955078,29.71,0
-0.4332828819751739,-1.0074570178985596,0.0930369943380355,-28.604372024536133,0.2116185277700424,65.66999053955078,29.71,0
-0.3844137191772461,-0.9544054865837096,0.0932924374938011,-33.790374755859375,0.2115474045276641,65.66999053955078,29.71,0
-0.3586500883102417,-0.9315556287765504,0.0710652619600296,-37.79914093017578,0.2115017622709274,65.66999053955078,29.71,0
-0.3533120155334472,-0.9056963920593262,0.0400078184902668,-39.42593765258789,0.2114724665880203,65.66999053955078,29.71,0
-0.3498863577842712,-0.8891013860702515,0.0312724895775318,-39.4990463256836,0.2114536762237548,65.66999053955078,29.71,0
-0.3364924192428589,-0.8728539347648621,0.0144711090251803,-38.08427047729492,0.2123594731092453,66.0461654663086,29.71,0
-0.3167014122009277,-0.8568294644355774,0.0036889500916004,-32.515419006347656,0.2129407525062561,66.2875747680664,29.71,0
-0.3040006756782532,-0.8689369559288025,0.030356228351593,-21.755002975463867,0.2133137881755828,66.44249725341797,29.71,0
-0.2846545279026031,-0.8935002088546753,0.0418719761073589,-10.005945205688477,0.213553175330162,66.54191589355469,29.71,0
-0.2666414976119995,-0.9036657214164734,0.0548598952591419,-2.79567289352417,0.2137068063020706,66.605712890625,29.71,0
-0.260679543018341,-0.9269826412200928,0.0743903443217277,-1.0381784439086914,0.2138053923845291,66.64665985107422,29.71,0
-0.2624512910842895,-0.9531416893005372,0.0813260897994041,-1.088987112045288,0.2138686627149582,66.67293548583984,29.71,0
-0.2859793901443481,-1.0371023416519165,0.091374821960926,0.8846492767333984,0.2139092683792114,66.6897964477539,29.71,0
-0.3178716897964477,-1.0070167779922483,0.1090190708637237,5.694382667541504,0.2125581800937652,66.70061492919922,29.71,0
-0.3383383452892303,-0.9653185606002808,0.1147443577647209,11.450011253356934,0.2116911262273788,66.70755767822266,29.71,0
-0.3402771055698395,-1.0057322978973389,0.1240162923932075,16.519351959228516,0.2111347019672393,66.7120132446289,29.71,0
-0.3527168333530426,-1.0316675901412964,0.1299664825201034,21.173349380493164,0.2107776254415512,66.71487426757812,29.71,0
-0.3774932622909546,-0.9699424505233764,0.1393827497959137,25.596630096435547,0.2105484753847122,66.71671295166016,29.71,0
-0.3821977972984314,-0.8855486512184143,0.1454255729913711,28.61436653137207,0.2104014158248901,66.71788787841797,29.71,0
-0.3908146917819977,-0.8425850868225098,0.1549012809991836,29.938356399536133,0.2103070467710495,66.71864318847656,29.71,0
-0.4075400531291961,-0.8374046683311462,0.1609822511672973,30.56947898864746,0.2102464884519577,66.71913146972656,29.71,0
-0.4182734191417694,-0.8452757000923157,0.1760802119970321,30.15050506591797,0.2115847617387771,66.71944427490234,29.71,0
-0.4139659404754638,-0.8503268957138062,0.1913669854402542,27.277097702026367,0.2124435901641845,66.71964263916016,29.71,0
-0.4223971962928772,-0.8479706645011902,0.2067749351263046,22.37000846862793,0.2129947394132614,66.71977233886719,29.71,0
-0.439003437757492,-0.8632519245147705,0.2222606390714645,17.85237693786621,0.2133484333753585,66.71985626220703,29.71,0
-0.4328670501708984,-0.90104740858078,0.2321984767913818,15.85244846343994,0.2135754078626632,66.71990966796875,29.71,0
-0.4233312904834747,-0.9253023862838744,0.2329782396554947,16.328054428100586,0.2137210667133331,66.71994018554688,29.71,0
-0.4060162305831909,-0.9352700710296632,0.2222830951213836,17.04884910583496,0.2138145416975021,66.71996307373047,29.71,0
-0.4116977453231811,-1.031231164932251,0.2154195606708526,16.210939407348633,0.2138745337724685,66.71997833251953,29.71,0
-0.443332701921463,-1.126400113105774,0.2110149413347244,14.548287391662598,0.2134540975093841,66.71998596191406,29.67,0
-0.463634192943573,-1.1203007698059082,0.1969927549362182,13.230512619018556,0.2131842970848083,66.7199935913086,29.67,0
-0.4486736357212066,-1.1331799030303955,0.1823963522911071,11.59309196472168,0.2130111455917358,66.7199935913086,29.67,0
-0.3998883962631225,-1.1918249130249023,0.1730292290449142,8.836983680725098,0.2129000276327133,66.7199935913086,29.67,0
-0.3797763884067535,-1.1566888093948364,0.1670179367065429,5.216080665588379,0.2128287255764007,66.7199935913086,29.67,0
-0.3612718880176544,-1.0893583297729492,0.1463669240474701,-0.0094929905608296,0.2127829641103744,66.7199935913086,29.67,0
-0.3326034545898437,-1.0069650411605835,0.1219187378883361,-8.718915939331055,0.2127535939216613,66.7199935913086,29.67,0
-0.3142056763172149,-0.9484919905662536,0.1062292978167533,-21.07918930053711,0.2127347439527511,66.7199935913086,29.67,0
-0.302399069070816,-0.9165651798248292,0.0961607173085212,-35.10884475708008,0.2118044346570968,67.08184051513672,29.67,0
-0.2836267054080963,-0.8736852407455444,0.0785037353634834,-48.90217590332031,0.2112074196338653,67.31404876708984,29.67,0
-0.2603841423988342,-0.8405696153640747,0.0671725049614906,-60.22949981689453,0.2108242958784103,67.46306610107422,29.67,0
-0.2510661780834198,-0.8025245666503906,0.0654985457658767,-64.56817626953125,0.2105784267187118,67.55870056152344,29.67,0
-0.2506842017173767,-0.7725117206573486,0.0700220689177513,-57.57564163208008,0.2104206383228302,67.62007141113281,29.67,0
-0.2616346180438995,-0.7812400460243225,0.0673272311687469,-40.1479721069336,0.210319384932518,67.65945434570312,29.67,0
-0.2630642056465149,-0.8148302435874939,0.0655978396534919,-18.67832374572754,0.2102544009685516,67.68473052978516,29.67,0
-0.2695794105529785,-0.8475820422172546,0.0644880160689354,-0.0352012179791927,0.21021269261837,67.7009506225586,29.67,0
-0.2849560379981994,-0.9133824706077576,0.0469824708998203,12.871100425720217,0.2115630805492401,67.71135711669922,29.67,0
-0.30042165517807,-1.0171849727630615,0.018955098465085,21.07838630676269,0.2124296724796295,67.7180404663086,29.67,0
-0.3383354544639587,-1.2069504261016846,0.0177620649337768,26.45999336242676,0.2129857987165451,67.72232818603516,29.67,0
-0.3682641386985779,-1.1160155534744265,0.0225942190736532,29.95300674438477,0.2133426964282989,67.7250747680664,29.67,0
-0.3594817519187927,-1.0464632511138916,0.0256952177733182,32.345088958740234,0.2135717272758484,67.72683715820312,29.67,0
-0.3762368261814117,-1.0801974534988403,0.0164897125214338,34.31010055541992,0.2137187123298645,67.72797393798828,29.67,0
-0.3981848359107971,-1.0514661073684692,0.0105821480974555,35.18779373168945,0.2138130366802215,67.72869873046875,29.67,0
-0.3954764604568481,-0.9546591639518738,0.0123887881636619,33.15009689331055,0.2138735651969909,67.72916412353516,29.67,0
-0.3713472783565521,-0.8533496260643005,0.0191459599882364,27.02385711669922,0.2134534865617752,67.72946166992188,29.67,0
-0.3782536685466766,-0.7939327359199524,0.0178845487534999,17.944229125976562,0.2131838947534561,67.72965240478516,29.67,0
-0.4050768911838531,-0.778193473815918,0.0170750487595796,8.993439674377441,0.2130108922719955,67.72977447509766,29.67,0
-0.42788827419281,-0.7904840707778931,0.0165555570274591,2.5973100662231445,0.2128998637199401,67.7298583984375,29.67,0
-0.4313317537307739,-0.8039692044258118,0.0330155007541179,-1.0738664865493774,0.2128286212682724,67.72991180419922,29.67,0
-0.4447371363639831,-0.835014283657074,0.0603718683123588,-2.716883420944214,0.2127829045057296,67.72994232177734,29.67,0
-0.4645354747772217,-0.8605350255966187,0.0835253819823265,-2.6821742057800293,0.212753564119339,67.72996520996094,29.67,0
-0.4828386902809143,-0.8881083130836487,0.1039817482233047,-1.7140998840332031,0.2127347290515899,67.72998046875,29.67,0
-0.4833890795707702,-0.9225965738296508,0.1227072477340698,-1.114340901374817,0.2140997946262359,67.72998809814453,29.71,0
-0.4949378371238708,-1.0454890727996826,0.1571152955293655,-1.69674551486969,0.2149758040904998,67.72999572753906,29.71,0
-0.5303380489349365,-1.085170030593872,0.2071852684020996,-3.0521249771118164,0.2155379801988601,67.72999572753906,29.71,0
-0.5362625122070312,-1.0602550506591797,0.2225239723920822,-3.800122022628784,0.2158987522125244,67.72999572753906,29.71,0
-0.4896845519542694,-1.1002436876296997,0.2211719155311584,-2.786209344863892,0.2161302715539932,67.72999572753906,29.71,0
-0.4430001676082611,-1.165090560913086,0.2259020209312439,-0.1866174638271331,0.216278851032257,67.72999572753906,29.71,0
-0.4018452763557434,-1.1787166595458984,0.2177419811487198,2.89318585395813,0.2163742035627365,67.72999572753906,29.71,0
-0.3754344284534454,-1.1314834356307983,0.201309785246849,5.070250511169434,0.2164353877305984,67.72999572753906,29.71,0
-0.3528876900672912,-1.0451940298080444,0.1795690059661865,4.72265100479126,0.2164746522903442,68.06675720214844,29.71,0
-0.3496140539646148,-0.9842207431793212,0.1432259231805801,1.0316485166549685,0.216499850153923,68.28287506103516,29.71,0
-0.347513198852539,-0.9338960647583008,0.1255007982254028,-4.34638786315918,0.2165160328149795,68.42156219482422,29.71,0
-0.3125783503055572,-0.9071983098983764,0.1197236105799675,-8.381662368774414,0.2165264040231704,68.51056671142578,29.71,0
-0.27336585521698,-0.8732719421386719,0.1104183718562126,-9.914408683776855,0.2165330648422241,68.56768798828125,29.71,0
-0.2537993192672729,-0.8235110640525818,0.0932512506842613,-9.76236057281494,0.2165373414754867,68.60433959960938,29.71,0
-0.2580359578132629,-0.7971751689910889,0.0878321602940559,-8.01321792602539,0.2165400832891464,68.62786102294922,29.71,0
-0.2663525640964508,-0.7858721017837524,0.0731589496135711,-4.160796165466309,0.2165418416261673,68.64295959472656,29.71,0
-0.2772874534130096,-0.8066073060035706,0.0693403035402298,0.4538465738296509,0.2156247645616531,68.65264892578125,29.71,0
-0.2787070572376251,-0.8255117535591125,0.0668897107243537,3.400928258895874,0.2150362282991409,68.65886688232422,29.71,0
-0.2796180844306946,-0.8768279552459717,0.0597192905843257,4.152936458587647,0.2146585434675216,68.66285705566406,29.71,0
-0.2858005166053772,-1.0161174535751345,0.0215310789644718,4.148301601409912,0.2144161611795425,68.66541290283203,29.71,0
-0.2953658103942871,-1.183874249458313,-0.0141714634373784,4.449846267700195,0.2142606228590011,68.66705322265625,29.71,0
-0.3518842458724975,-1.1683799028396606,-0.0090944292023777,5.105512619018555,0.2141607999801635,68.66810607910156,29.71,0
-0.3713611960411072,-1.1024587154388428,0.0053592673502862,6.085163593292236,0.2140967398881912,68.66878509521484,29.71,0
-0.3726648390293121,-1.1385232210159302,0.0034392692614346,7.236903190612793,0.2140556275844574,68.66921997070312,29.71,0
-0.3902947604656219,-1.0665050745010376,-0.0089884242042899,7.599852561950684,0.215865671634674,68.66950225830078,29.71,0
-0.3792175352573395,-0.9699080586433412,-0.0113660274073481,5.776374340057373,0.217027261853218,68.669677734375,29.71,0
-0.3441199362277984,-0.8631354570388794,-0.0016962874215096,1.145402908325195,0.2177727073431015,68.66979217529297,29.71,0
-0.366378515958786,-0.8058105111122131,-0.0010885796509683,-5.1439528465271,0.2182510793209076,68.66986846923828,29.71,0
-0.3862605392932892,-0.7802181839942932,-0.0062963617965579,-10.208298683166504,0.2185580730438232,68.66991424560547,29.71,0
-0.4046174585819244,-0.7749900817871094,0.0015571321127936,-11.477140426635742,0.2187550812959671,68.6699447631836,29.71,0
-0.4108000993728637,-0.7716349959373474,0.0289881490170955,-9.160238265991213,0.2188815176486969,68.66996765136719,29.71,0
-0.4203655421733856,-0.79747074842453,0.0577873438596725,-5.706550121307373,0.2189626544713974,68.66997528076172,29.71,0
-0.4265041053295135,-0.8196483850479126,0.0762690082192421,-2.8703861236572266,0.2176375836133957,68.66998291015625,29.69,0
-0.4472367763519287,-0.8674674034118652,0.1049228012561798,-0.5272433161735535,0.2167872339487075,68.66999053955078,29.69,0
-0.4437485039234161,-0.9205459952354432,0.1289089322090149,1.922250747680664,0.2162415236234665,68.66999053955078,29.69,0
-0.4415099322795868,-0.971402108669281,0.1498996317386627,4.479403495788574,0.2158913165330886,68.66999053955078,29.69,0
-0.4792577624320984,-1.093603014945984,0.1969568878412246,6.679318428039551,0.215666577219963,68.66999053955078,29.69,0
-0.5202754735946655,-1.1496334075927734,0.2159599810838699,7.883307933807373,0.2155223488807678,68.66999053955078,29.69,0
-0.513011634349823,-1.1296128034591677,0.2001662105321884,7.882122993469238,0.2154297977685928,68.66999053955078,29.69,0
-0.4579701423645019,-1.1895357370376587,0.2068239897489547,7.641329765319824,0.2153704017400741,68.66999053955078,29.69,0
-0.4058543741703033,-1.2279908657073977,0.2166943401098251,8.199734687805176,0.2162501364946365,68.99600982666016,29.69,0
-0.3668116927146911,-1.179898023605347,0.1950397044420242,8.42911434173584,0.2168146967887878,69.20523071289062,29.69,0
-0.3361585736274719,-1.115448236465454,0.1755452305078506,5.7245869636535645,0.217177003622055,69.33949279785156,29.69,0
-0.3108893930912018,-1.040501356124878,0.1574370265007019,-0.4319214522838592,0.2174095064401626,69.4256591796875,29.69,0
-0.3002708554267883,-0.9924048185348512,0.1346206665039062,-7.445916175842285,0.2175587117671966,69.48095703125,29.69,0
-0.2878587245941162,-0.9391481280326844,0.1087828949093818,-12.928719520568848,0.2176544666290283,69.51644134521484,29.69,0
-0.2575022280216217,-0.8769821524620056,0.0922016948461532,-16.8485164642334,0.2177159190177917,69.53921508789062,29.69,0
-0.2324233949184417,-0.8314898610115051,0.0871586129069328,-19.32818984985352,0.2177553474903106,69.55382537841797,29.69,0
-0.2275248020887375,-0.8022955060005188,0.0839222520589828,-18.830860137939453,0.2186988741159439,69.56320190429688,29.69,0
-0.2467722594738006,-0.7835602164268494,0.0818453431129455,-14.348750114440918,0.2193043678998947,69.56922149658203,29.69,0
-0.2591241598129272,-0.7939280867576599,0.0749147310853004,-7.710685729980469,0.2196929454803466,69.57308197021484,29.69,0
-0.2670509219169616,-0.8285704851150513,0.0648692846298217,-2.214769124984741,0.2199423164129257,69.5755615234375,29.69,0
-0.2889311611652374,-0.8619975447654724,0.0416293740272522,0.2947424650192261,0.2201023399829864,69.57715606689453,29.69,0
-0.3197659850120544,-0.989806830883026,0.0099220126867294,0.5689017176628113,0.2202050387859344,69.57817840576172,29.69,0
-0.36194509267807,-1.083022952079773,0.0119651509448885,0.5907906293869019,0.2202709466218948,69.5788345336914,29.69,0
-0.3722198903560638,-1.0700726509094238,0.0188740938901901,1.5076466798782349,0.2203132361173629,69.57925415039062,29.69,0
-0.3564225733280182,-1.0897507667541504,0.0121123073622584,3.274699687957764,0.2189632356166839,69.57952117919922,29.69,0
-0.3798713982105255,-1.1023790836334229,0.0021752070169895,5.533621311187744,0.2180968821048736,69.57969665527344,29.69,0
-0.4397017061710357,-1.0321143865585327,-0.0209951736032962,7.5385661125183105,0.21754090487957,69.57980346679688,29.69,0
-0.4389129281044006,-0.9198492169380188,-0.0134734939783811,7.994067192077637,0.2171841114759445,69.57987213134766,29.69,0
-0.4328089654445648,-0.8422061204910278,0.0081468112766742,6.201322078704834,0.2169551402330398,69.57991790771484,29.69,0
-0.4512828886508941,-0.7979770302772522,0.0164237041026353,2.63618540763855,0.2168081998825073,69.57994842529297,29.69,0
-0.4687361717224121,-0.7863866686820984,0.0273331105709075,-1.5361487865447998,0.2167139053344726,69.57997131347656,29.69,0
-0.4743388891220093,-0.7957419753074646,0.0511274635791778,-4.604213237762451,0.2166533917188644,69.5799789428711,29.69,0
-0.4891299605369568,-0.8129411935806274,0.0999839529395103,-4.907222747802734,0.2170734852552414,69.57998657226562,29.69,0
-0.5042197704315186,-0.8407720327377319,0.1369350105524063,-2.407580137252808,0.2173430770635604,69.57999420166016,29.69,0
-0.5306968688964844,-0.8754255771636963,0.1662458479404449,1.206371545791626,0.217516079545021,69.57999420166016,29.69,0
-0.5532861351966858,-0.9256531000137328,0.1850558519363403,4.206287384033203,0.2176271080970764,69.57999420166016,29.69,0
-0.5621848702430725,-1.0306572914123535,0.2195181399583816,5.866350173950195,0.2176983654499054,69.57999420166016,29.69,0
-0.5846888422966003,-1.126031756401062,0.2640251517295837,6.150681018829346,0.2177440822124481,69.57999420166016,29.69,0
-0.5935328602790833,-1.1312599182128906,0.2813916206359863,5.3945136070251465,0.2177734225988388,69.57999420166016,29.69,0
-0.5656217932701111,-1.0842350721359253,0.2813408970832824,4.379027843475342,0.2177922576665878,69.57999420166016,29.69,0
-0.5477100610733032,-1.0652527809143066,0.2701127827167511,4.196664810180664,0.2173454165458679,69.88451385498047,29.69,0
-0.5026286840438843,-1.0698643922805786,0.246113896369934,5.505499839782715,0.2170586585998535,70.07994079589844,29.69,0
-0.473698079586029,-1.0504326820373535,0.2027239203453064,7.878777027130127,0.2168746441602707,70.20535278320312,29.69,0
-0.4327409863471985,-1.00437593460083,0.1748787313699722,9.846049308776855,0.2167565524578094,70.28583526611328,29.69,0
-0.4008592963218689,-0.9580260515213012,0.1346182078123092,9.456963539123535,0.2166807651519775,70.33748626708984,29.69,0
-0.3748016953468323,-0.9170857667922974,0.0975857675075531,5.585287094116211,0.2166321277618408,70.3706283569336,29.69,0
-0.3580794036388397,-0.8684215545654297,0.0626249313354492,-0.4675770699977875,0.2166009098291397,70.39189910888672,29.69,0
-0.347348004579544,-0.8371917009353638,0.0289935264736413,-5.7384138107299805,0.2165808826684951,70.40554809570312,29.69,0
-0.3460589945316314,-0.8171501755714417,0.0074108280241489,-8.66952896118164,0.2174862474203109,70.414306640625,29.69,0
-0.3396340012550354,-0.8042886853218079,-0.0064397058449685,-9.608332633972168,0.2180672585964203,70.41992950439453,29.69,0
-0.3411085903644562,-0.8072304725646973,-0.0097304070368409,-8.254715919494629,0.2184401154518127,70.42353820800781,29.69,0
-0.3420549035072326,-0.8371071815490723,-0.0062444149516522,-3.6816599369049072,0.2186793833971023,70.42584991455078,29.69,0
-0.3482599556446075,-0.8842692375183105,0.0127860167995095,3.10791563987732,0.2188329398632049,70.42733764648438,29.69,0
-0.3466442227363586,-0.9257306456565856,0.0305964276194572,9.424742698669434,0.2189314812421798,70.42829132080078,29.69,0
-0.3456073403358459,-1.0139137506484983,0.0420261248946189,13.482101440429688,0.2189947217702865,70.42890167236328,29.69,0
-0.3617352545261383,-1.1152867078781128,0.0605565942823886,15.089924812316896,0.2190352976322174,70.4292984008789,29.69,0
-0.3776829838752746,-1.05159330368042,0.1004372537136077,15.415966033935549,0.2190613448619842,70.42955017089844,29.69,0
-0.3767217993736267,-0.9547407627105712,0.1204325929284095,16.821781158447266,0.2190780639648437,70.4297103881836,29.69,0
-0.3873004913330078,-0.9541618824005128,0.1276666820049286,20.375057220458984,0.2190887928009033,70.42981719970703,29.69,0
-0.4164803922176361,-0.964985966682434,0.143504649400711,22.93836975097656,0.2190956771373748,70.42988586425781,29.69,0
-0.4128152728080749,-0.9327478408813475,0.1704618632793426,18.639862060546875,0.2191000878810882,70.42992401123047,29.69,0
-0.3824743330478668,-0.8504837155342102,0.1821636855602264,3.911942720413208,0.2191029191017151,70.4299545288086,29.69,0
-0.4077854752540588,-0.8312779664993286,0.2008687853813171,-18.86318588256836,0.2191047370433807,70.42996978759766,29.69,0
-0.440822035074234,-0.8133550882339478,0.212872639298439,-41.50392150878906,0.2191058993339538,70.42997741699219,29.69,0
-0.4508274495601654,-0.8130487203598022,0.2205760180950164,-54.861942291259766,0.2177295088768005,70.42998504638672,29.69,0
-0.4516505599021911,-0.8184499144554138,0.231117382645607,-55.79271697998047,0.216846227645874,70.42999267578125,29.69,0
-0.4521787762641907,-0.8219161033630371,0.2490777671337127,-48.7412338256836,0.21627938747406,70.42999267578125,29.69,0
-0.4805066287517547,-0.8577271103858948,0.2494081705808639,-39.680458068847656,0.2159156203269958,70.42999267578125,29.69,0
-0.504283607006073,-0.8975018858909607,0.2384246438741684,-30.935226440429688,0.215682178735733,70.42999267578125,29.69,0
-0.5139445066452026,-0.9230270385742188,0.2089849561452865,-22.53221321105957,0.2155323624610901,70.42999267578125,29.69,0
-0.5033510327339172,-0.9450054168701172,0.1844944804906845,-14.596014976501465,0.2154362201690673,70.42999267578125,29.69,0
-0.5133460760116577,-0.964707612991333,0.1463868170976638,-6.54381275177002,0.2153745293617248,70.42999267578125,29.69,0
-0.5477491617202759,-1.0277312994003296,0.1163337305188179,2.8976399898529053,0.2167120724916458,70.72377014160156,29.69,0
-0.6034137010574341,-1.1017630100250244,0.1026451662182807,13.345276832580566,0.2175704389810562,70.91229248046875,29.69,0
-0.6223427057266235,-1.0429145097732544,0.0434806644916534,22.48253631591797,0.2181212753057479,71.03327941894531,29.69,0
-0.6065014004707336,-1.061126708984375,0.0167078394442796,28.29256629943848,0.2184747755527496,71.11092376708984,29.69,0
-0.5795420408248901,-1.0784120559692385,0.0051243556663393,29.728260040283203,0.2187016308307647,71.16075134277344,29.69,0
-0.5230566263198853,-1.022331476211548,-0.0023092583287507,26.153472900390625,0.2188472151756286,71.1927261352539,29.69,0
-0.4644164443016052,-0.9695488810539246,-0.0070797237567603,18.711219787597656,0.2189406454563141,71.21324157714844,29.69,0
-0.4435778856277466,-0.9356760382652284,-0.0381300076842308,11.298434257507324,0.2190006077289581,71.22640991210938,29.69,0
-0.4302048981189728,-0.902742862701416,-0.0636540651321411,7.333083629608154,0.2181208729743957,71.23486328125,29.69,0
-0.4272206425666809,-0.881608247756958,-0.0968272611498832,6.135398864746094,0.2175562977790832,71.24028778076172,29.69,0
-0.4141099750995636,-0.8736430406570435,-0.1237136796116828,4.524888038635254,0.217193990945816,71.24376678466797,29.69,0
-0.405696302652359,-0.8685314059257507,-0.1297722905874252,1.2056719064712524,0.2169614881277084,71.24600219726562,29.69,0
-0.4114924371242523,-0.8932399153709412,-0.1224648058414459,-2.3108668327331543,0.2168122828006744,71.2474365234375,29.69,0
-0.4152120649814605,-0.9090964198112488,-0.1177752837538719,-4.2415642738342285,0.2167165279388427,71.24835205078125,29.69,0
-0.4064035713672638,-0.9696521759033204,-0.0643858462572097,-4.524027347564697,0.2166550755500793,71.24893951416016,29.69,0
-0.3895552158355713,-1.0253067016601562,-0.0301235802471637,-4.33270788192749,0.2166156470775604,71.24932098388672,29.69,0
-0.3675473630428314,-1.1058048009872437,-0.0025382579769939,-4.267251491546631,0.2175085544586181,71.24956512451172,29.69,0
-0.3646195530891418,-1.0790950059890747,0.0711421594023704,-3.820414304733277,0.2180815637111663,71.24971771240234,29.69,0
-0.3739362061023712,-0.97798752784729,0.1240237802267074,-2.4839651584625244,0.2184492945671081,71.24981689453125,29.69,0
-0.3799150884151459,-0.8907114863395691,0.1467646211385727,-0.3079212307929992,0.2186852842569351,71.24988555908203,29.69,0
-0.3837519884109497,-0.8794849514961243,0.1501628309488296,2.589637756347656,0.2188367247581482,71.24992370605469,29.69,0
-0.3862142860889435,-0.8778781890869141,0.1635391563177108,6.111439228057861,0.2189339101314544,71.24995422363281,29.69,0
-0.3598055839538574,-0.8432604074478149,0.1945144087076187,9.317328453063965,0.2189962863922119,71.24996948242188,29.69,0
-0.3428579866886139,-0.8042513728141785,0.2031969875097274,9.998974800109863,0.2190363109111786,71.2499771118164,29.69,0
-0.3543730974197387,-0.8072065114974976,0.2087689787149429,6.585147380828857,0.2195209264755249,71.24998474121094,29.69,0
-0.3729583919048309,-0.8258962631225586,0.2067469805479049,1.0697194337844849,0.2198319137096405,71.24999237060547,29.69,0
-0.3792876005172729,-0.8378902673721313,0.2054493725299835,-1.832066535949707,0.2200314849615097,71.24999237060547,29.69,0
-0.388947069644928,-0.8567829132080078,0.2158121913671493,0.3576276004314422,0.2201595604419708,71.24999237060547,29.69,0
-0.4007437527179718,-0.8745048642158508,0.222462460398674,5.4063262939453125,0.2202417552471161,71.24999237060547,29.69,0
-0.436303049325943,-0.885877788066864,0.2099369019269943,9.36997127532959,0.2202945053577423,71.24999237060547,29.69,0
-0.4591229557991028,-0.8987740874290466,0.1963009387254715,10.491327285766602,0.2203283607959747,71.24999237060547,29.69,0
-0.4681696891784668,-0.9126479625701904,0.1875501573085785,9.817327499389648,0.2203500866889953,71.24999237060547,29.69,0
-0.479573130607605,-0.9215514063835144,0.1763366460800171,8.69335651397705,0.2189868837594986,71.5258560180664,29.69,0
-0.5036845207214355,-0.938460648059845,0.1579449027776718,6.245254993438721,0.2181120663881302,71.70288848876953,29.69,0
-0.5359511375427246,-0.9828987121582032,0.1237510442733764,0.1314986199140548,0.2175506502389907,71.81649780273438,29.69,0
-0.5902446508407593,-1.039405345916748,0.1130029410123825,-10.25850772857666,0.2171903699636459,71.889404296875,29.69,0
-0.619489312171936,-1.002897024154663,0.0837143287062645,-22.317991256713867,0.2169591635465622,71.93618774414062,29.69,0
-0.6326590776443481,-1.0354458093643188,0.0537230372428894,-31.945091247558597,0.216810792684555,71.9662094116211,29.69,0
-0.6411107182502747,-1.0619314908981323,0.0400741286575794,-35.436279296875,0.2167155742645263,71.98548126220703,29.69,0
-0.596154510974884,-1.0285484790802002,0.0425105914473533,-30.64412498474121,0.2166544646024704,71.99784851074219,29.69,0
-0.5225220322608948,-0.9623430371284484,0.0384764000773429,-19.260805130004883,0.2175334692001342,72.00578308105469,29.69,0
-0.4808667004108429,-0.9198561906814576,0.0190941635519266,-6.936456203460693,0.2180975526571273,72.01087188720703,29.69,0
-0.4485369324684143,-0.8813950419425964,-0.0045397873036563,1.4956575632095337,0.2184595465660095,72.0141372680664,29.69,0
-0.4277895390987396,-0.8623106479644775,-0.0197066981345415,5.079788684844971,0.2186918556690216,72.0162353515625,29.69,0
-0.4312683939933777,-0.8388678431510925,-0.0574288219213485,4.728772163391113,0.218840941786766,72.01758575439453,29.69,0
-0.4223053753376007,-0.851812481880188,-0.076038934290409,2.4578590393066406,0.2189366221427917,72.01844787597656,29.69,0
-0.4165534079074859,-0.8769128918647766,-0.0767862796783447,2.150524616241455,0.2189980149269104,72.01900482177734,29.69,0
-0.4296554625034332,-0.9154120087623596,-0.0772658884525299,5.815311431884766,0.2190374135971069,72.01936340332031,29.69,0
-0.4324658215045929,-0.951314091682434,-0.0607803501188755,10.434930801391602,0.2190627008676529,72.01959228515625,29.69,0
-0.4118782579898834,-1.007940649986267,-0.0334075577557086,12.450154304504396,0.219078928232193,72.01973724365234,29.69,0
-0.3930685818195343,-1.0778669118881226,0.0121475979685783,12.364117622375488,0.2190893441438675,72.01982879638672,29.69,0
-0.3865953683853149,-1.0667638778686523,0.0581755973398685,12.18709659576416,0.2190960347652435,72.01988983154297,29.69,0
-0.3712456822395324,-0.9756719470024108,0.0821159482002258,12.385178565979004,0.2191003262996673,72.01992797851562,29.69,0
-0.3669929206371307,-0.9619965553283693,0.0918817073106765,12.773823738098145,0.2191030830144882,72.01995086669922,29.69,0
-0.3810570538043976,-0.9700137972831726,0.1093443632125854,12.854852676391602,0.2191048413515091,72.01996612548828,29.69,0
-0.3844848573207855,-0.9247788190841676,0.1429419815540313,11.355597496032717,0.2191059738397598,72.01997375488281,29.69,0
-0.3642935156822204,-0.8677607774734497,0.1589052230119705,7.487993240356445,0.2177295535802841,72.01998138427734,29.69,0
-0.3401403129100799,-0.8255720734596252,0.1803450733423233,1.315934419631958,0.2168462574481964,72.01998901367188,29.69,0
-0.34703129529953,-0.8152911067008972,0.1997016966342926,-6.53919792175293,0.2162794023752212,72.01998901367188,29.69,0
-0.368246853351593,-0.8030956387519836,0.2121236771345138,-12.862730979919434,0.215915635228157,72.01998901367188,29.69,0
-0.3762640058994293,-0.8400514721870422,0.2312909364700317,-12.403182983398438,0.215682178735733,72.01998901367188,29.69,0
-0.3870067298412323,-0.8749631643295288,0.2491891533136367,-4.609940528869629,0.2155323624610901,72.01998901367188,29.69,0
-0.3994985520839691,-0.8917697072029114,0.2550774216651916,3.995384454727173,0.2154362201690673,72.01998901367188,29.69,0
-0.4131128489971161,-0.9025551676750184,0.2532584071159363,7.81606388092041,0.2153745293617248,72.01998901367188,29.69,0
-0.4106541872024536,-0.9206721782684326,0.2408955097198486,8.401433944702148,0.2167120724916458,72.28510284423828,29.69,0
-0.4314674437046051,-0.9490919709205629,0.2217661589384079,10.310432434082031,0.2175704389810562,72.45523834228516,29.69,0
-0.4560197591781616,-0.9729279279708862,0.1926967203617096,14.770584106445312,0.2181212753057479,72.56442260742188,29.69,0
-0.4829715490341186,-1.0050177574157717,0.1460527628660202,19.205602645874023,0.2184747755527496,72.63449096679688,29.69,0
-0.5058654546737671,-1.0424045324325562,0.1161193549633026,19.626338958740234,0.2187016308307647,72.67945861816406,29.69,0
-0.5653396248817444,-1.0552016496658323,0.0969098135828971,12.663124084472656,0.2188472151756286,72.70831298828125,29.69,0
-0.5923112034797668,-0.9962407946586608,0.0509955883026123,-1.3207887411117554,0.2189406454563141,72.7268295288086,29.69,0
-0.6096199750900269,-1.0031853914260864,0.0271282587200403,-16.922622680664062,0.2190006077289581,72.73871612548828,29.69,0
-0.6151300072669983,-1.02443528175354,0.0230071283876895,-28.117231369018555,0.2181208729743957,72.74634552001953,29.69,0
-0.5906771421432495,-1.02687668800354,0.0315579734742641,-33.39177322387695,0.2175562977790832,72.75123596191406,29.69,0
-0.5134091973304749,-0.9836612939834596,0.0370454154908657,-35.21108627319336,0.217193990945816,72.75437927246094,29.69,0
-0.4638230502605438,-0.927939236164093,0.0181758403778076,-36.41444396972656,0.2169614881277084,72.75639343261719,29.69,0
-0.432001531124115,-0.8921800255775452,0.0004686593019869,-38.41193008422852,0.2168122828006744,72.75768280029297,29.69,0
-0.4227758646011352,-0.8580362796783447,-0.0276881121098995,-40.95486831665039,0.2167165279388427,72.75851440429688,29.69,0
-0.4168553352355957,-0.8417225480079651,-0.0625508278608322,-42.60827255249024,0.2166550755500793,72.75904846191406,29.69,0
-0.4074581265449524,-0.8648399710655212,-0.0905214920639991,-42.15390396118164,0.2166156470775604,72.75939178466797,29.69,0
-0.3958297669887543,-0.9076642990112304,-0.0972759053111076,-38.70965194702149,0.2170492559671402,72.75961303710938,29.69,0
-0.3827695846557617,-0.9463420510292052,-0.0904149487614631,-30.39820098876953,0.2173275351524353,72.75975036621094,29.69,0
-0.3743883073329925,-0.9991520643234252,-0.0692186579108238,-16.19751739501953,0.2175061106681823,72.75984191894531,29.69,0
-0.3634119033813476,-1.0610313415527344,-0.0556160993874073,0.3101006746292114,0.2176207154989242,72.75990295410156,29.69,0
-0.3451723158359527,-1.1231330633163452,-0.0244956631213426,12.70577621459961,0.2176942527294159,72.75994110107422,29.69,0
