acc_x,acc_y,acc_z,bvp,eda,hr,temp,label
0.0,0.0,0.0,0.0,0.0,0.0,24.07,0
-0.0156249990686774,-0.1249999925494194,0.1015624925494194,14.354998588562012,0.0893104895949363,11.528332710266112,24.07,0
-0.0407774373888969,-0.2801066935062408,0.2461890280246734,29.278779983520508,0.2091172635555267,26.99317169189453,24.07,0
-0.0726225078105926,-0.4249896109104156,0.3819559812545776,38.61764144897461,0.3133285343647003,40.444915771484375,24.07,0
-0.0851788073778152,-0.536027729511261,0.4970199167728424,42.892425537109375,0.389356255531311,50.25868988037109,24.07,0
-0.0827005058526992,-0.6166949272155762,0.5419847369194031,42.38915252685547,0.4408302307128906,56.90303039550781,24.07,0
-0.1254989951848983,-0.6640711426734924,0.5825942754745483,36.155792236328125,0.4746045768260956,61.262672424316406,24.07,0
-0.1253208220005035,-0.7114923596382141,0.5865777134895325,25.780628204345703,0.4964785575866699,64.08619689941406,24.07,0
-0.1196158677339553,-0.7532201409339905,0.5723732113838196,14.54281234741211,0.5091938972473145,65.90503692626953,24.07,0
-0.1383276283740997,-0.7576618194580078,0.5520541071891785,3.291649341583252,0.5173665881156921,67.07408142089844,24.07,0
-0.1335540115833282,-0.754917562007904,0.5390061140060425,-7.880420684814453,0.5226147174835205,67.82478332519531,24.07,0
-0.1248925179243087,-0.7531559467315674,0.5306304693222046,-14.672188758850098,0.5259835720062256,68.30667114257812,24.07,0
-0.1137359142303466,-0.7520253658294678,0.5308524370193481,-11.622751235961914,0.5281457304954529,68.61595153808594,24.07,0
-0.1121736094355583,-0.7624951601028442,0.5309948921203613,-0.3439993262290954,0.529533326625824,68.81443786621094,24.07,0
-0.0999755188822746,-0.8028005957603455,0.5422817468643188,11.393872261047363,0.5304238200187683,68.94181823730469,24.07,0
-0.1425272524356842,-0.8230687379837036,0.538329541683197,18.5791130065918,0.5309953093528748,69.02356719970703,24.07,0
-0.1474435180425644,-0.8136846423149109,0.5413910150527954,22.394868850708008,0.5286077857017517,69.0760269165039,24.07,0
-0.1561962813138961,-0.8020647168159485,0.5489534735679626,25.95062065124512,0.5270755887031555,69.10969543457031,24.07,0
-0.1506177484989166,-0.7890099287033081,0.5594043731689453,30.33547019958496,0.5260922908782959,69.13130187988281,24.07,0
-0.1470377743244171,-0.7862298488616943,0.5549156069755554,34.42839431762695,0.5254612565040588,69.1451644897461,24.07,0
-0.150338128209114,-0.7788479924201965,0.5352416634559631,36.66091537475586,0.5250563025474548,69.15406036376953,24.07,0
-0.1468583196401596,-0.774110734462738,0.5170183181762695,36.449214935302734,0.5247964262962341,69.1597671508789,24.07,0
-0.1334296315908432,-0.771070659160614,0.4997258186340332,34.19963836669922,0.5246296525001526,69.1634292602539,24.07,0
-0.1192141026258468,-0.7691197395324707,0.4830307364463806,30.864389419555664,0.5245226621627808,69.16577911376953,24.07,0
-0.110091395676136,-0.7734655141830444,0.4555234611034393,27.5919246673584,0.5556693077087402,69.16728973388672,24.07,0
-0.1042369678616523,-0.7762543559074402,0.4378708600997925,24.96879005432129,0.5756574869155884,69.16825866699219,24.07,0
-0.1060777083039283,-0.7780441045761108,0.4321402311325073,22.859086990356445,0.5884847044944763,69.16888427734375,24.07,0
-0.1296500861644745,-0.7847903966903687,0.4340603947639465,21.25800323486328,0.5967164635658264,69.16928100585938,24.07,0
-0.1559730321168899,-0.79471755027771,0.4352926611900329,20.492048263549805,0.6019991636276245,69.16954040527344,24.07,0
-0.2064522206783294,-0.8290771245956421,0.4472790062427521,20.67044258117676,0.6053892970085144,69.1697006225586,24.07,0
-0.2500424087047577,-0.867920458316803,0.4661667048931122,21.777299880981445,0.6075648665428162,69.16980743408203,24.07,0
-0.2780160903930664,-0.9040433764457704,0.4838855266571045,23.72718811035156,0.6089610457420349,69.16987609863281,24.07,0
-0.3295546472072601,-0.9104316830635072,0.4672675728797912,26.02104377746582,0.6204149127006531,68.18829345703125,24.07,0
-0.3738246560096741,-0.9145313501358032,0.4342120289802551,28.35651016235352,0.6277652978897095,67.5583724975586,24.07,0
-0.4246256947517395,-0.9227600693702698,0.3850100040435791,31.61073875427246,0.6324823498725891,67.15412139892578,24.07,0
-0.4348357915878296,-0.916845202445984,0.3478372097015381,37.17421340942383,0.6355094909667969,66.89469909667969,24.07,0
-0.3966058492660522,-0.907451629638672,0.3071885108947754,45.2979850769043,0.6374521255493164,66.72821807861328,24.07,0
-0.3440831899642944,-0.9238144755363464,0.2811025083065033,55.12213134765625,0.6386988162994385,66.62137603759766,24.07,0
-0.3159749507904053,-0.9511085152626038,0.269959807395935,66.36348724365234,0.6394988894462585,66.55281066894531,24.07,0
-0.2979367077350616,-0.9742220044136048,0.2516134977340698,79.89720916748047,0.6400123238563538,66.5088119506836,24.07,0
-0.2751652598381042,-0.972261607646942,0.2342421263456344,95.97322082519533,0.6435553431510925,66.48057556152344,24.07,0
-0.2661496102809906,-0.9318191409111024,0.2398875057697296,112.32652282714844,0.6458290815353394,66.46245574951172,24.07,0
-0.2715594470500946,-0.8834744095802307,0.254705935716629,125.66569519042967,0.6472882032394409,66.4508285522461,24.07,0
-0.263835608959198,-0.8524495363235474,0.2754110991954803,136.081787109375,0.6482245922088623,66.44336700439453,24.07,0
-0.2532811164855957,-0.8437350988388062,0.2942962646484375,147.8498992919922,0.6488255262374878,66.4385757446289,24.07,0
-0.2521056234836578,-0.8493382334709167,0.2952201068401336,161.75390625,0.6492111682891846,66.43550109863281,24.07,0
-0.2793401479721069,-0.8641295433044434,0.2846174240112304,167.74256896972656,0.649458646774292,66.43353271484375,24.07,0
-0.2968176901340484,-0.8904150724411011,0.2834110260009765,150.6348419189453,0.6496174931526184,66.43226623535156,24.07,0
-0.313631534576416,-0.9128813743591307,0.2770390510559082,104.2315902709961,0.6570640802383423,66.43145751953125,24.07,0
-0.3188239336013794,-0.9384945034980774,0.2561565637588501,39.1141242980957,0.6618428230285645,66.43093872070312,24.07,0
-0.3165583312511444,-0.9885181784629822,0.2427553832530975,-22.998462677001957,0.6649096012115479,66.43060302734375,24.07,0
-0.292713314294815,-1.0710004568099976,0.2173619568347931,-65.32714080810547,0.6668776273727417,66.43038940429688,24.07,0
-0.2886064946651459,-1.0903462171554563,0.1954681426286697,-88.71163940429688,0.6681406497955322,66.43025207519531,24.07,0
-0.3027642965316772,-1.0691745281219482,0.1926134973764419,-105.16940307617188,0.668951153755188,66.43016052246094,24.07,0
-0.3230455219745636,-0.9828166961669922,0.1795859932899475,-120.45646667480467,0.669471263885498,66.43009948730469,24.07,0
-0.3360608220100403,-0.9050061106681824,0.1600301414728164,-130.41012573242188,0.6698050498962402,66.43006134033203,24.07,0
-0.3276199698448181,-0.8494740128517151,0.1362847834825515,-131.24839782714844,0.6764460206031799,66.43003845214844,24.07,0
-0.2886164784431457,-0.864216685295105,0.1322419196367263,-124.18771362304688,0.6807078123092651,66.43002319335938,24.07,0
-0.2579885125160217,-0.901666522026062,0.1296474486589431,-111.8752212524414,0.6834428310394287,66.43001556396484,24.07,0
-0.2383332401514053,-0.9145041108131408,0.1335802376270294,-96.88743591308594,0.6851980090141296,66.43000793457031,24.07,0
-0.231317400932312,-0.917144775390625,0.1361040771007537,-82.27144622802734,0.6863243579864502,66.43000793457031,24.07,0
-0.2492061257362365,-0.918839395046234,0.1657126098871231,-69.87163543701172,0.6870471835136414,66.43000793457031,24.07,0
-0.2662838697433471,-0.8975358009338379,0.1791158765554428,-59.34185791015625,0.6875110268592834,66.43000793457031,24.07,0
-0.2716456055641174,-0.8782666325569153,0.1877173334360122,-50.09814834594727,0.6878086924552917,66.43000793457031,24.07,0
-0.2582931220531463,-0.8659008145332336,0.204432800412178,-42.46076202392578,0.6879997253417969,65.6955795288086,24.07,0
-0.2553220391273498,-0.8523673415184021,0.2151598185300827,-36.50624847412109,0.6881223320960999,65.22425842285156,24.07,0
-0.2478176057338714,-0.8660734295845032,0.2332393527030944,-31.24478912353516,0.6882010102272034,64.92179870605469,24.07,0
-0.231806144118309,-0.8748692274093628,0.2504395246505737,-25.26017189025879,0.6882514953613281,64.72769165039062,24.07,0
-0.2159331291913986,-0.8805138468742371,0.2558798491954803,-17.858509063720703,0.6882839202880859,64.6031265258789,24.07,0
-0.2281378358602523,-0.90652734041214,0.2481755763292312,-9.6262845993042,0.6883047223091125,64.52318572998047,24.07,0
-0.2695567607879638,-0.9344168305397034,0.2152425497770309,-1.5345773696899414,0.6883180737495422,64.47188568115234,24.07,0
-0.2849414944648742,-1.0362813472747805,0.1437280476093292,5.653709888458252,0.6883266568183899,64.43896484375,24.07,0
-0.2948145270347595,-1.1296409368515017,0.0978341624140739,9.582467079162598,0.6864957213401794,64.41783905029297,24.07,0
-0.3067482411861419,-1.1447715759277344,0.0627843365073204,6.697609901428223,0.6853207349777222,64.40428161621094,24.07,0
-0.320004403591156,-1.09290611743927,0.0067047239281237,-2.6986303329467773,0.6845666766166687,64.39558410644531,24.07,0
-0.3453047573566437,-1.0484262704849243,-0.0404794886708259,-13.074259757995604,0.6840828061103821,64.38999938964844,24.07,0
-0.3559432923793793,-1.0310771465301514,-0.0539662763476371,-19.643177032470703,0.6837722659111023,64.38641357421875,24.07,0
-0.3627704977989197,-1.0255413055419922,-0.0794146433472633,-22.264484405517575,0.6835729479789734,64.38411712646484,24.07,0
-0.3559562563896179,-1.0275864601135254,-0.0957459434866905,-22.64621353149414,0.6834450364112854,64.38264465332031,24.07,0
-0.317996621131897,-1.0009100437164309,-0.1006286591291427,-21.691022872924805,0.6833629608154297,64.38169860839844,24.07,0
-0.2936363220214844,-0.9837906956672668,-0.098164327442646,-20.01401138305664,0.683310329914093,64.38108825683594,24.07,0
-0.2724055051803589,-0.9672067165374756,-0.0909850895404815,-18.189043045043945,0.6832765340805054,64.38069915771484,24.07,0
-0.2643785774707794,-0.9565640687942504,-0.0807800889015197,-16.261960983276367,0.6832548379898071,64.38044738769531,24.07,0
-0.2648251056671142,-0.9609297513961792,-0.0686333328485488,-14.129626274108888,0.6832408905029297,64.38028717041016,24.07,0
-0.2595138847827911,-0.9637314081192015,-0.0496426969766616,-12.173673629760742,0.6832319498062134,64.38018035888672,24.07,0
-0.2561054527759552,-0.971127152442932,-0.0374555997550487,-10.875465393066406,0.6832262277603149,64.38011169433594,24.07,0
-0.2371248006820678,-0.9870688319206238,-0.0352323949337005,-9.92770767211914,0.6832225322723389,64.38007354736328,24.07,0
-0.2081507891416549,-1.002897024154663,-0.0282078981399536,-8.567150115966797,0.6832202076911926,64.38004302978516,24.07,0
-0.1895569413900375,-1.0130547285079956,-0.018102204427123,-6.83420467376709,0.6809237003326416,64.3800277709961,24.07,0
-0.1776244789361953,-1.0139755010604858,-0.0004214033251628,-5.582379341125488,0.6794499158859253,64.38002014160156,24.07,0
-0.1699669063091278,-1.008968710899353,0.0109251169487833,-5.097879409790039,0.6785041689872742,64.38001251220703,24.07,0
-0.1706504970788955,-1.0225489139556885,0.0238044336438179,-4.679477691650391,0.6778972148895264,64.3800048828125,24.07,0
-0.1654914170503616,-1.0368616580963137,0.0544607378542423,-3.7625253200531006,0.6775076985359192,64.3800048828125,24.07,0
-0.1453872919082641,-1.0292534828186035,0.0909275114536285,-2.643857002258301,0.677257776260376,64.3800048828125,24.07,0
-0.1156922951340675,-0.9571976661682128,0.1199275627732276,-1.8507260084152224,0.6770973801612854,64.3800048828125,24.07,0
-0.0966357514262199,-0.87736976146698,0.1273425817489624,-1.481460690498352,0.6769944429397583,64.3800048828125,24.07,0
-0.106797456741333,-0.8373363614082336,0.1321011036634445,-1.3340518474578855,0.6787644624710083,63.8856086730957,24.07,0
-0.1077208817005157,-0.8508296608924866,0.1575459539890289,-1.185714602470398,0.6799003481864929,63.56833267211914,24.07,0
-0.1027157083153724,-0.8706844449043274,0.1738749891519546,-0.9006438255310059,0.6806292533874512,63.364723205566406,24.07,0
-0.1218947768211364,-0.8890238404273987,0.1787562519311905,-0.4382609128952026,0.6810970306396484,63.23405838012695,24.07,0
-0.1509961187839508,-0.9007930159568788,0.1874865442514419,0.2023970931768417,0.6813972592353821,63.150203704833984,24.07,0
-0.1920627802610397,-0.9027480483055116,0.1818935871124267,0.8392367959022522,0.6815899014472961,63.09639358520508,24.07,0
-0.2128192335367202,-0.8816115260124207,0.1727065742015838,1.0437170267105105,0.6817135214805603,63.061859130859375,24.07,0
-0.2205417454242706,-0.8680473566055298,0.1724086552858352,0.7163709998130798,0.6817928552627563,63.039695739746094,24.07,0
-0.2143020629882812,-0.8537448644638062,0.1834130138158798,0.3020923435688019,0.682302713394165,63.02547454833984,24.07,0
-0.2158955633640289,-0.8389685750007629,0.1904749870300293,0.0792230516672134,0.6826298832893372,63.01634979248047,24.07,0
-0.2281137406826019,-0.8350837826728821,0.1950069516897201,-0.0458887554705143,0.6828398704528809,63.01049423217773,24.07,0
-0.2303568869829177,-0.849384069442749,0.2035130709409713,0.0780285075306892,0.682974636554718,63.00673294067383,24.07,0
-0.2261986285448074,-0.8641589283943176,0.2033740431070327,0.6304514408111572,0.6830611228942871,63.00432205200195,24.07,0
-0.21793232858181,-0.8960316777229309,0.1976870447397232,1.1676760911941528,0.683116614818573,63.00277328491211,24.07,0
-0.2126274853944778,-0.92768132686615,0.1828419119119644,1.1935867071151731,0.6831521987915039,63.00178146362305,24.07,0
-0.214820921421051,-1.020763278007507,0.1397285163402557,0.9056956768035888,0.6831750273704529,63.00114440917969,24.07,0
-0.2498151957988739,-1.136475682258606,0.1064630448818206,0.6170490980148315,0.6804354190826416,63.000736236572266,24.07,0
-0.2778702676296234,-1.205135464668274,0.0851151794195175,0.2777615785598755,0.6786773204803467,63.00047302246094,24.07,0
-0.2958744168281555,-1.1988173723220823,0.0602197982370853,0.0707741230726242,0.6775490641593933,63.00030517578125,24.07,0
-0.2962328791618347,-1.1499806642532349,0.0386455990374088,0.4215891659259796,0.6768249869346619,63.00019454956055,24.07,0
-0.2852673828601837,-1.045868992805481,0.0136049734428524,1.1518652439117432,0.6763603091239929,63.000125885009766,24.07,0
-0.2726325690746307,-1.0014472007751465,-0.0080624343827366,1.509454607963562,0.6760621070861816,63.00008010864258,24.07,0
-0.2645242810249328,-1.00092875957489,-0.0219673290848732,1.201548457145691,0.6758707761764526,63.00004959106445,24.07,0
-0.2369297444820404,-1.0397804975509644,-0.0252929162234067,0.6600247621536255,0.6757479906082153,63.000030517578125,24.07,0
-0.2080256193876266,-1.0647132396697998,-0.033024862408638,0.2910105884075165,0.6770462989807129,63.00001907348633,24.05,0
-0.1838788390159607,-1.0639203786849976,-0.0379867777228355,0.0506159625947475,0.6778795123100281,63.0000114440918,24.05,0
-0.1795783787965774,-1.041020393371582,-0.0467688255012035,-0.2541236579418182,0.6784142255783081,63.00000762939453,24.05,0
-0.1824163645505905,-1.0095312595367432,-0.0524046383798122,-0.6897205710411072,0.67875736951828,63.00000381469727,24.05,0
-0.1954331696033477,-0.9557366371154784,-0.0504236035048961,-1.1770509481430054,0.6789775490760803,63.00000381469727,24.05,0
-0.1981888264417648,-0.9156165719032288,-0.037956740707159,-1.582938551902771,0.6791188716888428,63.00000381469727,24.05,0
-0.1887616962194442,-0.8898698091506958,-0.0075651267543435,-1.8684918880462649,0.6792095899581909,63.00000381469727,24.05,0
-0.1603208184242248,-0.8677492737770081,0.0175362341105937,-2.1054821014404297,0.6792677640914917,63.00000381469727,24.05,0
-0.1308735460042953,-0.8591513633728027,0.0392426177859306,-2.2898120880126958,0.6793051362037659,63.35826110839844,24.05,0
-0.1119759827852249,-0.8760247826576233,0.0587702989578247,-2.3257052898406982,0.6793290972709656,63.58816909790039,24.05,0
-0.105446383357048,-0.9148420691490172,0.0657042637467384,-2.183940887451172,0.6793444752693176,63.73571014404297,24.05,0
-0.1068538427352905,-0.939752757549286,0.0645563155412674,-1.8600971698760984,0.6793543696403503,63.83039474487305,24.05,0
-0.124550387263298,-0.9837278723716736,0.0414285287261009,-1.3513365983963013,0.6793606877326965,63.89115524291992,24.05,0
-0.1471025645732879,-1.0455352067947388,0.0209886711090803,-0.8421319723129272,0.6793647408485413,63.93014907836914,24.05,0
-0.1783685684204101,-1.1299817562103271,0.0022737714461982,-0.5977530479431152,0.6793673634529114,63.95517349243164,24.05,0
-0.2096288502216339,-1.1505881547927856,0.0070569496601819,-0.5555671453475952,0.6793690323829651,63.97123336791992,24.05,0
-0.2464832216501236,-1.0686498880386353,0.01572429202497,-0.3744438886642456,0.6789111495018005,63.98154067993164,24.05,0
-0.2645364701747894,-1.0160666704177856,0.0212864950299263,0.1645345091819763,0.6786172986030579,63.98815536499024,24.05,0
-0.2537308931350708,-0.9991151094436646,0.0192582216113805,1.0298932790756226,0.6784287691116333,63.99239730834961,24.05,0
-0.2132098525762558,-1.0050299167633057,0.023554366081953,1.9936443567276,0.6783077716827393,63.99512100219727,24.05,0
-0.1816080063581466,-1.003227949142456,0.0319091603159904,2.637202262878418,0.6782301068305969,63.99686813354492,24.05,0
-0.1893166303634643,-0.9628871083259584,0.0372707843780517,2.6919431686401367,0.6781802773475647,63.997989654541016,24.05,0
-0.2110569030046463,-0.914607584476471,0.0575048886239528,2.358067512512207,0.6781482696533203,63.99871063232422,24.05,0
-0.2194107919931411,-0.8836245536804199,0.0872832983732223,1.9790067672729488,0.6781277656555176,63.99917221069336,24.05,0
-0.19678296148777,-0.8581436276435852,0.1231866925954818,1.6497656106948853,0.6790328025817871,63.99946975708008,24.05,0
-0.1766639500856399,-0.8473892211914062,0.1518251895904541,1.3811564445495603,0.6796135902404785,63.99966049194336,24.05,0
-0.1637527197599411,-0.857280969619751,0.1813992857933044,1.2517694234848022,0.679986298084259,63.99978256225586,24.05,0
-0.1554670333862304,-0.8748245239257812,0.2059760093688964,1.2117271423339844,0.6802254915237427,63.99985885620117,24.05,0
-0.1501497626304626,-0.8860829472541809,0.216150164604187,1.0964659452438354,0.6803790330886841,63.999908447265625,24.05,0
-0.1579329967498779,-0.8877101540565491,0.2114838063716888,0.8147085905075073,0.6804775595664978,63.999942779541016,24.05,0
-0.162927821278572,-0.8943521976470947,0.2028914242982864,0.3938603401184082,0.6805407404899597,63.999961853027344,24.05,0
-0.1605354398488998,-0.9377990961074828,0.1861817836761474,0.0449675135314464,0.6805813312530518,63.999977111816406,24.05,0
-0.1534023731946945,-1.0216585397720337,0.1586651653051376,0.1184219494462013,0.6829023361206055,63.99998474121094,24.09,0
-0.1600203365087509,-1.0978658199310305,0.1354088187217712,0.5990524291992188,0.6843918561935425,63.9999885559082,24.09,0
-0.203451782464981,-1.1971511840820312,0.1092886850237846,0.9469017386436462,0.6853477358818054,63.99999237060547,24.09,0
-0.2537146806716919,-1.2552690505981443,0.0925262868404388,0.7903783917427063,0.6859611868858337,63.999996185302734,24.09,0
-0.2579816281795501,-1.1918058395385742,0.092964693903923,0.3424208760261535,0.6863548159599304,63.999996185302734,24.09,0
-0.2383288294076919,-1.089503288269043,0.0988438129425048,-0.0453645698726177,0.6866074800491333,63.999996185302734,24.09,0
-0.2145212441682815,-1.001460313796997,0.1082144677639007,-0.4088653326034546,0.6867696046829224,63.999996185302734,24.09,0
-0.1712540388107299,-0.9393616318702698,0.0974346920847892,-0.9789013862609864,0.6868736147880554,63.999996185302734,24.09,0
-0.1322920769453048,-0.91630357503891,0.079321302473545,-1.6635669469833374,0.6860225200653076,64.29376983642578,24.09,0
-0.101690761744976,-0.9630817770957948,0.050903845578432,-2.06712007522583,0.6854763627052307,64.48229217529297,24.09,0
-0.0988459214568138,-0.9763079881668092,0.0158738363534212,-2.021578311920166,0.6851258873939514,64.60327911376953,24.09,0
-0.1082158163189888,-0.962404727935791,-0.0122041823342442,-1.6949985027313232,0.6849009394645691,64.68092346191406,24.09,0
-0.1478155255317688,-0.9142979979515076,-0.0302230399101972,-1.281211495399475,0.6847565770149231,64.73075103759766,24.09,0
-0.184423878788948,-0.8666325211524963,-0.0361887291073799,-0.9726759791374208,0.6846639513969421,64.76272583007812,24.09,0
-0.1799281537532806,-0.8584346771240234,-0.0288216173648834,-1.0182907581329346,0.6846045255661011,64.78324127197266,24.09,0
-0.1658474951982498,-0.858771562576294,-0.0184960551559925,-1.3950735330581665,0.6845663785934448,64.7964096069336,24.09,0
-0.1512135714292526,-0.8701832890510559,-0.0118697034195065,-1.7049399614334106,0.6877551078796387,64.80486297607422,24.09,0
-0.153017908334732,-0.8887022137641907,-0.0132150668650865,-1.663761854171753,0.6898014545440674,64.81028747558594,24.09,0
-0.1597736030817031,-0.9061843752861024,-0.0196762178093194,-1.4187990427017212,0.6911146640777588,64.81376647949219,24.09,0
-0.1809023469686508,-0.9621856212615968,-0.0294203869998455,-1.283091425895691,0.691957414150238,64.81600189208984,24.09,0
-0.2056571096181869,-1.009319543838501,-0.0300758592784404,-1.3787133693695068,0.6924982666969299,64.81743621826172,24.09,0
-0.2159455120563507,-1.0451651811599731,-0.0472898259758949,-1.4221652746200562,0.692845344543457,64.81835174560547,24.09,0
-0.216950237751007,-1.0625710487365725,-0.0639345347881317,-0.909081220626831,0.6930680871009827,64.81893920898438,24.09,0
-0.2343883365392685,-1.0961322784423828,-0.0802139267325401,0.2226835191249847,0.693211019039154,64.81932067871094,24.09,0
-0.2567746639251709,-1.123267650604248,-0.0682700052857399,1.264251708984375,0.691925585269928,64.81956481933594,24.09,0
-0.2263587117195129,-1.079106092453003,-0.0606050826609134,1.3845360279083252,0.6911006569862366,64.81971740722656,24.09,0
-0.1956439614295959,-1.0451679229736328,-0.0500884018838405,0.455023854970932,0.6905712485313416,64.81981658935547,24.09,0
-0.1703352332115173,-1.0009973049163818,-0.0209483038634061,-0.9547281861305236,0.6902315020561218,64.81988525390625,24.09,0
-0.1540935486555099,-0.9614555835723876,0.003349908394739,-2.08154559135437,0.6900135278701782,64.8199234008789,24.09,0
-0.1380727887153625,-0.913688898086548,0.0133453272283077,-2.256538152694702,0.6898736357688904,64.81995391845703,24.09,0
-0.1389871388673782,-0.8774372339248657,0.0197598114609718,-1.2869004011154177,0.6897838711738586,64.8199691772461,24.09,0
-0.1563672423362732,-0.8485751748085022,0.0406695827841758,0.1951754540205001,0.6897262334823608,64.81997680664062,24.09,0
-0.1675207912921905,-0.8580420613288879,0.059686042368412,1.2860069274902344,0.6887710094451904,64.81998443603516,24.09,0
-0.1690807193517685,-0.8753129243850708,0.0774874836206436,1.8069109916687007,0.6881580352783203,64.81999206542969,24.09,0
-0.1700817942619323,-0.8752008080482483,0.1113025248050689,2.284500360488892,0.6877646446228027,64.81999206542969,24.09,0
-0.1819197684526443,-0.8695310950279236,0.1441986262798309,3.024481296539306,0.687512218952179,64.81999206542969,24.09,0
-0.1951144784688949,-0.8658925890922546,0.1709072142839431,3.764469146728516,0.6873502135276794,64.81999206542969,24.09,0
-0.1979843080043792,-0.9027420282363892,0.193645030260086,4.1211256980896,0.6872462630271912,64.81999206542969,24.09,0
-0.1886304467916488,-0.9543787837028505,0.1970413029193878,3.9093503952026367,0.6871795058250427,64.81999206542969,24.09,0
-0.1882254630327224,-0.9763206839561462,0.1768297404050827,3.1178338527679443,0.687136709690094,64.81999206542969,24.09,0
-0.1879655569791793,-1.001597285270691,0.1526635736227035,2.033089399337769,0.6880274415016174,65.09226989746094,24.09,0
-0.1989943236112594,-1.0961872339248655,0.1091662421822547,1.225903034210205,0.6885990500450134,65.26700592041016,24.09,0
-0.2284630388021469,-1.1960740089416504,0.0812521576881408,0.922851860523224,0.688965916633606,65.37914276123047,24.09,0
-0.2361788153648376,-1.1930023431777954,0.063338503241539,0.8465960621833801,0.689201295375824,65.45110321044922,24.09,0
-0.2355325818061828,-1.0678800344467163,0.0574403293430805,0.8513981103897095,0.6893523931503296,65.49728393554688,24.09,0
-0.2351178675889969,-0.998779296875,0.081644095480442,1.1088427305221558,0.6894493103027344,65.52691650390625,24.09,0
-0.1956673115491867,-0.9544344544410706,0.0971766784787178,1.424523949623108,0.6895115375518799,65.54593658447266,24.09,0
-0.1255680173635482,-0.9875519871711732,0.0959490463137626,1.1506274938583374,0.6895514726638794,65.55814361572266,24.09,0
-0.0581912286579608,-1.0479893684387207,0.0895634442567825,0.0792125687003135,0.6881999373435974,65.56597137451172,24.09,0
-0.0149526847526431,-1.0699812173843384,0.0518788881599903,-1.278301477432251,0.6873326301574707,65.57099914550781,24.09,0
-0.0207913201302289,-1.0561054944992063,0.0164995621889829,-2.310691595077514,0.6867760419845581,65.57422637939453,24.09,0
-0.1029070615768432,-1.0080163478851318,-0.0118026286363601,-2.700944662094116,0.6864188313484192,65.5762939453125,24.09,0
-0.155604213476181,-0.954764485359192,-0.018769796937704,-2.4713213443756104,0.686189591884613,65.57762145996094,24.09,0
-0.1614333391189575,-0.9149926900863647,-0.0064476006664335,-2.058851718902588,0.6860424876213074,65.57847595214844,24.09,0
-0.1371852755546569,-0.9006649851799011,0.0182533971965312,-1.9410381317138672,0.6859480738639832,65.57902526855469,24.09,0
-0.1160264834761619,-0.8914703130722046,0.0341050773859024,-2.0588912963867188,0.6858875155448914,65.57937622070312,24.09,0
-0.1248390898108482,-0.8911674618721008,0.0386799983680248,-2.001967191696167,0.6858486533164978,65.57959747314453,24.09,0
-0.1416900604963302,-0.8909730911254883,0.036018144339323,-1.6465874910354614,0.6858236789703369,65.57974243164062,24.09,0
-0.1469062715768814,-0.896446168422699,0.0343099199235439,-1.1677449941635132,0.6858076453208923,65.579833984375,24.09,0
-0.1614492833614349,-0.9167518019676208,0.0276159066706895,-0.6956529021263123,0.685797393321991,65.57989501953125,24.09,0
-0.181977704167366,-0.9353805780410768,0.0177222993224859,-0.2601360380649566,0.6857907772064209,65.5799331665039,24.09,0
-0.2007494270801544,-0.9417376518249512,0.0113731520250439,0.1447437405586242,0.6857865452766418,65.5799560546875,24.09,0
-0.2071982622146606,-1.0017950534820557,0.0072986343875527,0.5299624800682068,0.685783863067627,65.57997131347656,24.09,0
-0.2001412063837051,-1.1019119024276731,0.0046838433481752,0.8595728874206543,0.6857821345329285,65.5799789428711,24.09,0
-0.1676235198974609,-1.210943341255188,-0.0025919531472027,1.0030288696289062,0.6862399578094482,65.57998657226562,24.07,0
-0.1635488718748092,-1.230533480644226,-0.0072611407376825,0.8263975381851196,0.6865337491035461,65.57999420166016,24.07,0
-0.2057161927223205,-1.1087586879730225,0.0233290903270244,0.3404578864574432,0.6867222785949707,65.57999420166016,24.07,0
-0.210385650396347,-0.985828459262848,0.048557911068201,-0.3332303762435913,0.6868432760238647,65.57999420166016,24.07,0
-0.1741978228092193,-0.906938910484314,0.059150543063879,-1.10232675075531,0.6869209408760071,65.57999420166016,24.07,0
-0.1229856833815574,-0.8843010067939758,0.0771438330411911,-1.7750173807144165,0.6869707703590393,65.57999420166016,24.07,0
-0.1013162285089492,-0.8977621793746948,0.0886908918619155,-2.0454955101013184,0.6870027184486389,65.57999420166016,24.07,0
-0.120996668934822,-0.928791880607605,0.079307809472084,-1.910971403121948,0.6870232224464417,65.57999420166016,24.07,0
-0.1616153120994568,-0.920716106891632,0.0676885098218917,-1.6204347610473633,0.6861185431480408,66.19978332519531,24.07,0
-0.1988775730133056,-0.9043379426002502,0.065829686820507,-1.1079707145690918,0.6855379939079285,66.59752655029297,24.07,0
-0.2227903455495834,-0.8882296085357666,0.0870278999209404,-0.1199068129062652,0.6851654052734375,66.85277557373047,24.07,0
-0.2213428616523742,-0.877892255783081,0.1118272393941879,1.1375439167022705,0.6849263310432434,67.0165786743164,24.07,0
-0.1924250721931457,-0.8488672375679016,0.1389375776052475,2.1272146701812744,0.6847729086875916,67.12169647216797,24.07,0
-0.1850628554821014,-0.8302406072616577,0.1731287539005279,2.6046950817108154,0.6846744418144226,67.18915557861328,24.07,0
-0.1859359741210937,-0.8294826745986938,0.206266239285469,2.7713940143585205,0.6846112608909607,67.2324447631836,24.07,0
-0.180898517370224,-0.8457896113395691,0.2275319695472717,2.838963508605957,0.6845706701278687,67.2602310180664,24.07,0
-0.1776657700538635,-0.8730477690696716,0.2579724192619324,2.713944673538208,0.6859217882156372,67.27806091308594,24.07,0
-0.1979822814464569,-0.8905404806137085,0.2551162540912628,2.2467966079711914,0.6867888569831848,67.28950500488281,24.07,0
-0.1942269206047058,-0.952146291732788,0.2308922260999679,1.6998101472854614,0.6873452663421631,67.29684448242188,24.07,0
-0.1750236302614212,-1.0252679586410522,0.2097488641738891,1.5100016593933103,0.6877023577690125,67.30155944824219,24.07,0
-0.1794933825731277,-1.1281709671020508,0.1737891733646392,1.5494093894958496,0.687931478023529,67.30458068847656,24.07,0
-0.2047529071569442,-1.1998059749603271,0.1395167559385299,1.184198260307312,0.6880785226821899,67.3065185546875,24.07,0
-0.2433541119098663,-1.1897995471954346,0.0951315984129905,0.0720957741141319,0.6881728768348694,67.3077621459961,24.07,0
-0.2737239301204681,-1.0994113683700562,0.0890388563275337,-1.447667121887207,0.6882334351539612,67.30856323242188,24.07,0
-0.2820179760456085,-1.0134165287017822,0.0907266587018966,-2.64508318901062,0.686435878276825,67.30907440185547,24.07,0
-0.2537539601325989,-0.9694255590438844,0.0974075645208358,-2.9764416217803955,0.6852823495864868,67.30940246582031,24.07,0
-0.2188224345445633,-0.9635857343673706,0.0960972160100936,-2.540642261505127,0.6845420598983765,67.30961608886719,24.07,0
-0.1796120703220367,-0.9822291731834412,0.089658536016941,-1.899131178855896,0.6840669512748718,67.30975341796875,24.07,0
-0.1712424308061599,-0.988595724105835,0.0743310078978538,-1.519689440727234,0.6837620735168457,67.3098373413086,24.07,0
-0.177066832780838,-0.9926813840866088,0.0644946843385696,-1.5448787212371826,0.6835664510726929,67.30989837646484,24.07,0
-0.1752068251371383,-0.9897055625915528,0.0525845251977443,-1.811824083328247,0.6834408640861511,67.3099365234375,24.07,0
-0.1740131676197052,-0.9766002893447876,0.0449412688612937,-1.9222303628921509,0.6833602786064148,67.3099594116211,24.07,0
-0.1732471585273742,-0.9457989931106568,0.0456340424716472,-1.6276601552963257,0.682849645614624,67.30997467041016,24.07,0
-0.1727555692195892,-0.9204347133636476,0.0516764000058174,-1.1412681341171265,0.6825219988822937,67.30998229980469,24.07,0
-0.1724400967359542,-0.8985596299171448,0.0555540360510349,-0.7252350449562073,0.6823117136955261,67.30998992919922,24.07,0
-0.1610420942306518,-0.8733258843421936,0.0636402517557144,-0.3185285031795501,0.6821767687797546,67.30998992919922,24.07,0
-0.1537275165319442,-0.8515345454216003,0.068829521536827,0.1466791629791259,0.682090163230896,67.30998992919922,24.07,0
-0.1602289825677871,-0.8487456440925598,0.0665619224309921,0.4595529437065124,0.6820345520973206,67.30998992919922,24.07,0
-0.1811945736408233,-0.9085314273834229,0.0651067048311233,0.427469938993454,0.6819989085197449,67.30998992919922,24.07,0
-0.1834535449743271,-0.9636918306350708,0.0641728341579437,0.2814907431602478,0.6819760203361511,67.30998992919922,24.07,0
-0.1793054491281509,-1.0606660842895508,0.0579757541418075,0.5639801621437073,0.6828795671463013,67.89037322998047,24.07,0
-0.1878389865159988,-1.1340941190719604,0.0484010502696037,1.440285325050354,0.6834594011306763,68.26282501220703,24.07,0
-0.226901963353157,-1.18121600151062,0.0534521043300628,2.1423680782318115,0.683831512928009,68.50184631347656,24.07,0
-0.2687636613845825,-1.13868510723114,0.0734869018197059,1.6865326166152954,0.6840702891349792,68.65523529052734,24.07,0
-0.2844325304031372,-1.0554134845733645,0.0863440856337547,0.1508499681949615,0.6842235326766968,68.75366973876953,24.07,0
-0.2720968127250671,-0.9627901315689088,0.0889973118901252,-1.3075628280639648,0.6843218803405762,68.81684112548828,24.07,0
-0.2585826814174652,-0.9145453572273254,0.0962977707386016,-1.7992488145828247,0.6843850016593933,68.85738372802734,24.07,0
-0.2163234502077102,-0.9003779292106628,0.1009827852249145,-1.3911043405532837,0.6844254732131958,68.8833999633789,24.07,0
-0.2003994584083557,-0.8912860751152039,0.0871960371732711,-0.5882117748260498,0.683533251285553,68.90009307861328,24.07,0
-0.2069736719131469,-0.8798536658287048,0.0783484950661659,0.0560112036764621,0.6829606890678406,68.91080474853516,24.07,0
-0.2279859483242035,-0.8669192790985107,0.0838662013411521,0.0861008241772651,0.6825932264328003,68.91767883300781,24.07,0
-0.2358726561069488,-0.8530209064483643,0.087407149374485,-0.3925673961639404,0.6823574304580688,68.9220962524414,24.07,0
-0.2353361099958419,-0.8385039567947388,0.1008750721812248,-0.656758189201355,0.6822060942649841,68.9249267578125,24.07,0
-0.2405895590782165,-0.8291878700256348,0.1207135617733001,-0.2065150588750839,0.682108998298645,68.92674255371094,24.07,0
-0.2383631467819214,-0.8288071155548096,0.1446403115987777,0.7022106051445007,0.68204665184021,68.92790985107422,24.07,0
-0.2369343638420105,-0.8397582769393921,0.1711906641721725,1.550489068031311,0.6820066571235657,68.92865753173828,24.07,0
-0.2416152209043502,-0.8579816818237305,0.1994246989488601,2.1020305156707764,0.682439923286438,68.92913818359375,24.07,0
-0.2502169013023376,-0.8808719515800476,0.2287392318248748,2.276849269866944,0.6827179789543152,68.929443359375,24.07,0
-0.2445414215326309,-0.9179527163505554,0.2363560646772384,2.0164499282836914,0.6828963756561279,68.92964172363281,24.07,0
-0.2464970052242279,-0.9697378873825072,0.2356463372707367,1.5054134130477903,0.6830108761787415,68.92977142333984,24.07,0
-0.2421542108058929,-1.0365573167800903,0.2183975428342819,1.1022255420684814,0.6830843687057495,68.92985534667969,24.07,0
-0.2449650168418884,-1.1130248308181765,0.1961327195167541,0.976038098335266,0.6831315159797668,68.9299087524414,24.07,0
-0.2803554832935333,-1.1900861263275146,0.153855562210083,1.1135953664779663,0.6831617951393127,68.92993927001953,24.07,0
-0.3142625987529754,-1.1667685508728027,0.1099311932921409,1.416826248168945,0.6831812262535095,68.92996215820312,24.07,0
-0.3304244577884674,-1.0902291536331177,0.0761452838778495,1.5397708415985107,0.684570848941803,68.92997741699219,24.09,0
-0.3296006619930267,-0.9851328134536744,0.037670113146305,1.088448405265808,0.6854625940322876,68.92998504638672,24.09,0
-0.3234742283821106,-0.9232857823371888,0.0017834126483649,0.1324565708637237,0.6860348582267761,68.92999267578125,24.09,0
-0.308347076177597,-0.8947914838790894,-0.0604310296475887,-0.8500491976737976,0.6864021420478821,68.92999267578125,24.09,0
-0.220270499587059,-0.9324832558631896,-0.0835633501410484,-1.498477816581726,0.686637818813324,68.92999267578125,24.09,0
-0.1749435812234878,-0.984660506248474,-0.0984083414077758,-1.7354731559753418,0.6867890954017639,68.92999267578125,24.09,0
-0.241017535328865,-1.02374267578125,-0.1191305518150329,-1.629617691040039,0.6868861317634583,68.92999267578125,24.09,0
-0.2834199965000152,-1.0376278162002563,-0.1380266547203064,-1.3825569152832031,0.6869484186172485,68.92999267578125,24.09,0
-0.277044802904129,-1.0073540210723877,-0.138957530260086,-1.2096772193908691,0.6865294575691223,69.43155670166016,24.09,0
-0.289746880531311,-0.971132755279541,-0.1227615922689437,-1.1847147941589355,0.6862605810165405,69.75343322753906,24.09,0
-0.2923005819320678,-0.9478880167007446,-0.1123679727315902,-1.2439295053482056,0.6860880255699158,69.95999145507812,24.09,0
-0.2771460711956024,-0.9329708814620972,-0.0945023968815803,-1.274764895439148,0.6859772801399231,70.0925521850586,24.09,0
-0.2618229985237121,-0.9178001284599304,-0.0718417465686798,-1.172745704650879,0.6859062314033508,70.17761993408203,24.09,0
-0.2295984476804733,-0.9192599654197692,-0.0517016723752021,-0.935312032699585,0.6858606338500977,70.23220825195312,24.09,0
-0.2033208161592483,-0.9313923716545104,-0.0331791564822196,-0.7256195545196533,0.6858313679695129,70.26724243164062,24.09,0
-0.1808595657348632,-0.9503738284111024,-0.015694698318839,-0.6268767714500427,0.6858125925064087,70.28972625732422,24.09,0
-0.155249685049057,-0.9961416721343994,-0.0044741788879036,-0.3951282799243927,0.6876366138458252,70.30415344238281,24.09,0
-0.1332169622182846,-1.0255128145217896,0.0083242775872349,0.323224127292633,0.6888071894645691,70.31341552734375,24.09,0
-0.135870948433876,-1.0387637615203855,0.0333309136331081,1.4649107456207275,0.6895583868026733,70.3193588256836,24.09,0
-0.1599652171134948,-1.0472674369812012,0.0549765080213546,2.4376120567321777,0.6900404691696167,70.32317352294922,24.09,0
-0.1810253113508224,-1.0527245998382568,0.0688674077391624,2.6570045948028564,0.690349817276001,70.32562255859375,24.09,0
-0.1889426857233047,-1.000248908996582,0.1001728847622871,2.0347096920013428,0.6905483603477478,70.32719421386719,24.09,0
-0.1772302836179733,-0.921790897846222,0.1258607059717178,0.9080936908721924,0.6906757950782776,70.32820129394531,24.09,0
-0.1865072548389434,-0.8378543853759766,0.1367478966712951,-0.1588308662176132,0.6907575726509094,70.32884979248047,24.09,0
-0.2036562412977218,-0.8287709951400757,0.1269413530826568,-0.6823057532310486,0.6935642957687378,70.32926177978516,24.09,0
-0.203465923666954,-0.8677240014076233,0.1150503009557724,-0.7280532121658325,0.6953654885292053,70.32952880859375,24.09,0
-0.1809526830911636,-0.9263084530830384,0.107419304549694,-0.7896544337272644,0.6965214014053345,70.32969665527344,24.09,0
-0.1721027642488479,-0.9527090191841124,0.1025221720337867,-1.0226457118988037,0.697263240814209,70.32980346679688,24.09,0
-0.2279989123344421,-0.9304669499397278,0.1049772500991821,-1.100514531135559,0.69773930311203,70.32987213134766,24.09,0
-0.2862609326839447,-0.8993999361991882,0.1121505498886108,-0.8782105445861816,0.6980447769165039,70.32991790771484,24.09,0
-0.2956612706184387,-0.885060727596283,0.122351735830307,-0.52059406042099,0.6982408165931702,70.32994842529297,24.09,0
-0.2625094652175903,-0.8814563751220703,0.1400938183069229,-0.0546463914215564,0.698366641998291,70.32997131347656,24.09,0
-0.2412345260381698,-0.8791433572769165,0.1570774465799331,0.6348727345466614,0.69615238904953,70.3299789428711,24.07,0
-0.2443748265504837,-0.8944522738456726,0.1735743284225464,1.4105459451675415,0.6947314143180847,70.32998657226562,24.07,0
-0.2575856447219848,-0.9154722094535828,0.1897588521242141,1.947736740112305,0.693819522857666,70.32999420166016,24.07,0
-0.2660635709762573,-0.9289616346359252,0.1945473700761795,2.1025984287261963,0.6932343244552612,70.32999420166016,24.07,0
-0.2659064531326294,-0.9488139152526855,0.1920225918292999,2.019268274307251,0.6928587555885315,70.32999420166016,24.07,0
-0.2658056318759918,-0.9727494716644288,0.1904023438692093,1.9156357049942017,0.6926177144050598,70.32999420166016,24.07,0
-0.2657409310340881,-0.9993054866790771,0.1837647855281829,1.9709378480911253,0.6924630403518677,70.32999420166016,24.07,0
-0.2824927270412445,-1.044336438179016,0.1571140885353088,2.2249648571014404,0.6923637986183167,70.32999420166016,24.07,0
-0.2988408207893371,-1.0676369667053225,0.1288156509399414,2.348576307296753,0.6913818717002869,70.7706527709961,24.07,0
-0.3205276429653168,-1.0881876945495603,0.0882642418146133,1.8116999864578247,0.6907517313957214,71.0534439086914,24.07,0
-0.3288472294807434,-1.1069737672805786,0.0510451346635818,0.5715197920799255,0.6903473734855652,71.23492431640625,24.07,0
-0.311795175075531,-1.0910407304763794,0.0271600540727376,-0.8333942890167236,0.6900878548622131,71.35138702392578,24.07,0
-0.2952543497085571,-1.0304358005523682,0.0006364354630932,-1.8711252212524412,0.6899213194847107,71.4261245727539,24.07,0
-0.2846394181251526,-0.9803475141525269,-0.0275804437696933,-2.325709342956543,0.6898144483566284,71.47408294677734,24.07,0
-0.2722295820713043,-0.9593992829322816,-0.0568839646875858,-2.21260404586792,0.6897458434104919,71.5048599243164,24.07,0
-0.2586678862571716,-0.957151472568512,-0.0868848264217376,-1.7996748685836792,0.6897018551826477,71.52461242675781,24.07,0
-0.2667581140995025,-0.9613067507743835,-0.111735425889492,-1.5096027851104736,0.6938050389289856,71.53729248046875,24.07,0
-0.2495588511228561,-0.9583755731582642,-0.1220853328704834,-1.5312405824661257,0.696438193321228,71.54542541503906,24.07,0
-0.2329235672950744,-0.9508967399597168,-0.1231295317411422,-1.7135075330734253,0.6981280446052551,71.55064392089844,24.07,0
-0.2278457731008529,-0.9349017143249512,-0.1070063188672065,-1.877049446105957,0.6992124915122986,71.55399322509766,24.07,0
-0.2301849126815796,-0.919039249420166,-0.0966593697667121,-2.1253042221069336,0.699908435344696,71.55614471435547,24.07,0
-0.2372838109731674,-0.914457380771637,-0.0788237452507019,-2.6106343269348145,0.700355052947998,71.55752563476562,24.07,0
-0.2362417131662368,-0.9115170240402222,-0.0617800913751125,-3.1048026084899902,0.7006416320800781,71.55841064453125,24.07,0
-0.235572949051857,-0.9152278304100036,-0.0508424565196037,-3.2356374263763428,0.700825572013855,71.5589828491211,24.07,0
-0.2295459955930709,-0.9400003552436828,-0.0382255353033542,-2.982837438583374,0.7009435892105103,71.5593490600586,24.07,0
-0.220080479979515,-0.9558979272842408,-0.0301287230104208,-2.566242218017578,0.7010193467140198,71.55957794189453,24.07,0
-0.2084082812070846,-0.9661000370979308,-0.0249326545745134,-2.1197664737701416,0.7010679244995117,71.55973052978516,24.07,0
-0.2233088314533233,-1.000636100769043,-0.0160003416240215,-1.6756107807159424,0.7010990977287292,71.55982971191406,24.07,0
-0.2440667003393173,-1.0227992534637451,-0.0102680986747145,-1.1648749113082886,0.7011191248893738,71.55989074707031,24.07,0
-0.2182034850120544,-1.0202289819717407,0.0269971713423728,-0.4466133117675781,0.7011319994926453,71.55992889404297,24.07,0
-0.1792148500680923,-1.0129817724227903,0.0677051991224289,0.4478172659873962,0.7011402249336243,71.55995178222656,24.07,0
-0.1597919762134552,-1.0251243114471436,0.1162203699350357,1.1758620738983154,0.7011455297470093,71.55996704101562,24.07,0
-0.1585230380296707,-1.0665032863616943,0.1529523879289627,1.4173771142959597,0.7020671367645264,71.55997467041016,24.09,0
-0.1577087044715881,-1.0650690793991089,0.1765248775482177,1.3215872049331665,0.7026585936546326,71.55998229980469,24.09,0
-0.1851749867200851,-0.9801820516586304,0.1804568022489547,1.4822344779968262,0.7030381560325623,71.55998992919922,24.09,0
-0.2251923680305481,-0.892119824886322,0.1717845350503921,2.2051141262054443,0.7032817006111145,71.55998992919922,24.09,0
-0.2508732080459595,-0.8412043452262878,0.1606213897466659,3.063100099563598,0.7034379839897156,71.55998992919922,24.09,0
-0.244962602853775,-0.8309208154678345,0.1590553075075149,3.377256155014038,0.7035382986068726,71.55998992919922,24.09,0
-0.2131806463003158,-0.8802991509437561,0.1524525135755539,2.873095989227295,0.70360267162323,71.55998992919922,24.09,0
-0.2263714522123336,-0.9175851345062256,0.1538129895925521,1.904691457748413,0.7036439776420593,71.55998992919922,24.09,0
-0.2628254294395447,-0.9303175806999208,0.1490882933139801,1.2079910039901731,0.7032111883163452,71.95049285888672,24.09,0
-0.3198061287403106,-0.9216951727867126,0.1404584795236587,1.1764675378799438,0.7029334902763367,72.20109558105469,24.09,0
-0.3451775312423706,-0.9105640649795532,0.1293225884437561,1.4141830205917358,0.7027552723884583,72.36192321777344,24.09,0
-0.3222750127315521,-0.9090185165405272,0.1333717554807663,1.401936650276184,0.7026408910751343,72.46512603759766,24.09,0
-0.2907841801643371,-0.902428925037384,0.147165834903717,1.1970360279083252,0.702567458152771,72.53135681152344,24.09,0
-0.2705751657485962,-0.8982000946998596,0.1560180783271789,1.0583775043487549,0.7025203704833984,72.57386016845703,24.09,0
-0.2799972891807556,-0.8954862356185913,0.144905611872673,1.0517935752868652,0.7024901509284973,72.60113525390625,24.09,0
-0.2916416227817535,-0.8937446475028992,0.1265787333250045,1.2517752647399902,0.7024707198143005,72.61864471435547,24.09,0
-0.2823209762573242,-0.8982247710227966,0.114817589521408,1.645222544670105,0.6987861394882202,72.62987518310547,24.09,0
-0.2651439607143402,-0.8899043202400208,0.1016721948981285,1.9084621667861936,0.6964215636253357,72.6370849609375,24.09,0
-0.2485229671001434,-0.8901625275611877,0.0932362377643585,1.8516918420791624,0.6949041485786438,72.64171600341797,24.09,0
-0.2434543520212173,-0.9071215391159058,0.0766269713640213,1.6218008995056152,0.6939303278923035,72.64468383789062,24.09,0
-0.2402016073465347,-0.9292004108428956,0.0547725521028041,1.2521504163742063,0.6933054327964783,72.64659118652344,24.09,0
-0.2549075186252594,-1.0385315418243408,0.035149872303009,0.5957686305046082,0.6929044127464294,72.64781188964844,24.09,0
-0.2755404710769653,-1.0974984169006348,0.0225571654736995,-0.2267078757286071,0.6926470398902893,72.64859771728516,24.09,0
-0.2831837236881256,-1.0905576944351196,0.0088781155645847,-0.904994010925293,0.6924818754196167,72.64910125732422,24.09,0
-0.2824909389019012,-1.0357235670089722,9.968912490876392e-05,-1.3796874284744265,0.6937530040740967,72.64942169189453,24.09,0
-0.2372641712427139,-0.9669475555419922,-0.0335226729512214,-1.7488046884536743,0.6945687532424927,72.64962768554688,24.09,0
-0.1690558046102523,-0.9452021718025208,-0.0215129218995571,-2.0895776748657227,0.6950922608375549,72.64976501464844,24.09,0
-0.226043552160263,-0.9760294556617736,-0.0529901757836341,-2.49097752571106,0.695428192615509,72.64984893798828,24.09,0
-0.3241905272006988,-1.0070081949234009,-0.101179338991642,-2.992187976837158,0.6956437826156616,72.64990234375,24.09,0
-0.3088067471981048,-1.0324863195419312,-0.1321043670177459,-3.414148092269897,0.6957821846008301,72.64994049072266,24.09,0
-0.2877388000488281,-1.0488367080688477,-0.1463524997234344,-3.5738778114318848,0.6958709955215454,72.64996337890625,24.09,0
-0.2742185890674591,-1.0425361394882202,-0.1387028098106384,-3.5509932041168213,0.6959279775619507,72.64997863769531,24.09,0
-0.2599443197250366,-1.010503888130188,-0.1225981265306472,-3.586463212966919,0.6941280961036682,72.64998626708984,24.07,0
-0.2563816905021667,-0.9787518978118896,-0.1066652908921241,-3.7704415321350098,0.6929730176925659,72.64999389648438,24.07,0
-0.2484976202249527,-0.9527775645256042,-0.0796471908688545,-3.9207515716552734,0.6922317743301392,72.64999389648438,24.07,0
-0.2434380799531936,-0.9361087083816528,-0.0567107573151588,-3.7986748218536377,0.6917560696601868,72.64999389648438,24.07,0
-0.2233978360891342,-0.925411581993103,-0.0307959243655204,-3.372822999954224,0.691450834274292,72.64999389648438,24.07,0
-0.1937438398599624,-0.9297423362731934,-0.0029697283171117,-2.7269480228424072,0.6912549138069153,72.64999389648438,24.07,0
-0.1635180711746215,-0.9325215816497804,0.0260830707848072,-1.8323974609375,0.691129207611084,72.64999389648438,24.07,0
-0.138523131608963,-0.9343051314353944,0.0447274856269359,-0.6349583268165588,0.6910485625267029,72.64999389648438,24.07,0
-0.1392761468887329,-0.9410474896430968,0.056692399084568,0.7926830649375916,0.6909967660903931,72.99392700195312,24.07,0
-0.150954931974411,-0.9677654504776,0.0587730146944522,2.3644723892211914,0.6909635663032532,73.21463775634766,24.07,0
-0.1696452498435974,-1.0129003524780271,0.0657060071825981,3.9427859783172607,0.6909422278404236,73.35627746582031,24.07,0
-0.1816396266222,-1.0586587190628052,0.0813507512211799,5.0165605545043945,0.6909285187721252,73.44717407226562,24.07,0
-0.1781413704156875,-1.1104148626327517,0.1137817502021789,4.989132404327393,0.6909197568893433,73.50550842285156,24.07,0
-0.170298621058464,-1.1156400442123413,0.1289963275194168,4.104547023773193,0.6909140944480896,73.5429458618164,24.07,0
-0.2044500112533569,-1.0294289588928225,0.1331623941659927,3.375655174255371,0.6909104585647583,73.56697082519531,24.07,0
-0.2543552815914154,-0.918125867843628,0.113444834947586,3.3628814220428467,0.6909081339836121,73.58238983154297,24.07,0
-0.2863816022872925,-0.8578935265541077,0.0951934605836868,3.702193737030029,0.6922838091850281,73.59228515625,24.07,0
-0.2677498459815979,-0.875217616558075,0.0890785530209541,3.859040975570679,0.6931666135787964,73.5986328125,24.07,0
-0.2334019541740417,-0.9143240451812744,0.0851543620228767,3.6014392375946045,0.6937331557273865,73.60270690917969,24.07,0
-0.216957226395607,-0.9394203424453736,0.0938315913081169,2.8772435188293457,0.6940967440605164,73.60531616210938,24.07,0
-0.2623817026615143,-0.9219390153884888,0.0882045850157737,1.8751097917556765,0.6943300366401672,73.60699462890625,24.07,0
-0.3027280569076538,-0.9051227569580078,0.0789957195520401,1.0385390520095823,0.694479763507843,73.60807037353516,24.07,0
-0.2950333952903747,-0.8943310379981995,0.0786837786436081,0.6628919839859009,0.694575846195221,73.6087646484375,24.07,0
-0.2733020782470703,-0.8874055743217468,0.0952769145369529,0.5507960915565491,0.6946375370025635,73.60920715332031,24.07,0
-0.2481606155633926,-0.8941567540168762,0.1171209812164306,0.2567396759986877,0.6928410530090332,73.60948944091797,24.07,0
-0.2432218194007873,-0.8928914666175842,0.1311392486095428,-0.3726255893707275,0.6916881799697876,73.60967254638672,24.07,0
-0.2456501573324203,-0.8976772427558899,0.1401353627443313,-1.0416265726089478,0.6909483075141907,73.60978698730469,24.07,0
-0.2528063058853149,-0.9063462615013124,0.1459085494279861,-1.3383976221084597,0.6904734969139099,73.60986328125,24.07,0
-0.251800924539566,-0.911909520626068,0.1496134549379348,-1.0810261964797974,0.6901687979698181,73.60990905761719,24.07,0
-0.2455579489469528,-0.9154797196388244,0.14079549908638,-0.4107168912887573,0.6899732351303101,73.60993957519531,24.07,0
-0.2359537929296493,-0.9289664030075072,0.1351366490125656,0.3096376359462738,0.6898477673530579,73.6099624633789,24.07,0
-0.2297904044389724,-0.9488169550895692,0.1259073466062545,0.728928804397583,0.6897672414779663,73.60997772216797,24.07,0
-0.2426284253597259,-1.056718111038208,0.1031911820173263,0.6755739450454712,0.6906337738037109,73.6099853515625,24.05,0
-0.262062668800354,-1.1651471853256226,0.0830154865980148,0.2687459886074066,0.6911898851394653,73.60999298095703,24.05,0
-0.2745344638824463,-1.1507641077041626,0.0532745607197284,-0.1213054805994033,0.6915467381477356,73.60999298095703,24.05,0
-0.2993314564228058,-1.035176157951355,0.0229929983615875,-0.2533930838108063,0.6917757391929626,73.60999298095703,24.05,0
-0.3208425045013428,-0.9721940755844116,-0.0020377403125166,-0.2844206690788269,0.6919227242469788,73.60999298095703,24.05,0
-0.3010604083538055,-0.9541668891906738,-0.0572854503989219,-0.4333051145076751,0.6920170187950134,73.60999298095703,24.05,0
-0.2379854321479797,-0.9761847257614136,-0.0703491494059562,-0.6864838600158691,0.6920775771141052,73.60999298095703,24.05,0
-0.1695186793804168,-1.0294989347457886,-0.0507438108325004,-0.9850972890853882,0.6921164393424988,73.60999298095703,24.05,0
-0.2151450514793396,-1.046919584274292,-0.0717488750815391,-1.3379461765289309,0.6916821002960205,73.824951171875,24.05,0
-0.2276321053504943,-1.0357080698013306,-0.085228718817234,-1.6396183967590332,0.691403329372406,73.96289825439453,24.05,0
-0.2188522517681121,-0.9949265122413636,-0.0882815346121788,-1.7329020500183103,0.6912244558334351,74.05142211914062,24.05,0
-0.2188156247138977,-0.9631574749946594,-0.0902406573295593,-1.6208025217056274,0.6911096572875977,74.10823059082031,24.05,0
-0.2187921106815338,-0.9315744042396544,-0.0914979055523872,-1.5130378007888794,0.6910359859466553,74.14469146728516,24.05,0
-0.201983705163002,-0.9225017428398132,-0.075511410832405,-1.6230093240737915,0.6909887194633484,74.1680908203125,24.05,0
-0.1911970376968383,-0.9222772121429444,-0.0596544258296489,-1.8368858098983765,0.6909583806991577,74.18310546875,24.05,0
-0.1842747777700424,-0.9221330881118774,-0.0494783259928226,-1.802175760269165,0.6909388899803162,74.19274139404297,24.05,0
-0.1742346882820129,-0.9220406413078308,-0.0429478920996189,-1.4431387186050415,0.6909263730049133,74.19892120361328,24.05,0
-0.1621937602758407,-0.9275790452957152,-0.0219637099653482,-1.0873392820358276,0.6909183859825134,74.20288848876953,24.05,0
-0.1600643694400787,-0.9199377298355104,-0.002899496583268,-0.9270765781402588,0.6909132599830627,74.20543670654297,24.05,0
-0.1642956137657165,-0.9094362258911132,0.0093348193913698,-0.7418299913406372,0.6909099221229553,74.20706939697266,24.05,0
-0.1726087629795074,-0.9362835884094238,0.028381647542119,-0.2109531909227371,0.6909078359603882,74.20812225341797,24.05,0
-0.1723458915948867,-0.9870993494987488,0.0462025813758373,0.7172754406929016,0.6909064650535583,74.20879364013672,24.05,0
-0.1609816402196884,-1.0476988554000854,0.0688345730304718,1.6676340103149414,0.6909055709838867,74.209228515625,24.05,0
-0.1536887139081955,-1.0921858549118042,0.1001518070697784,2.048234701156616,0.6909050345420837,74.20950317382812,24.05,0
-0.1602040827274322,-1.0927462577819824,0.120249405503273,1.6261231899261477,0.6899868249893188,74.20967864990234,24.05,0
-0.1699830442667007,-1.025932550430298,0.1331468969583511,0.8035196661949158,0.6893975734710693,74.20979309082031,24.05,0
-0.1706608533859253,-0.9550665020942688,0.135825976729393,0.2075511813163757,0.6890193819999695,74.20986938476562,24.05,0
-0.1487047374248504,-0.926382064819336,0.1431430429220199,0.1726027280092239,0.6887766718864441,74.20991516113281,24.05,0
-0.1066256910562515,-0.941560685634613,0.1422409415245056,0.5765013098716736,0.688620924949646,74.20994567871094,24.05,0
-0.0796217769384384,-0.968094766139984,0.1416620165109634,0.9288471341133118,0.6885209679603577,74.20996856689453,24.05,0
-0.0958788692951202,-0.9739272594451904,0.1300949454307556,0.8325306177139282,0.6884568333625793,74.20997619628906,24.05,0
-0.1175072863698005,-0.966474711894989,0.122671864926815,0.416045218706131,0.6884157061576843,74.2099838256836,24.05,0
-0.1537782549858093,-0.9281054139137268,0.1235059350728988,0.0986128225922584,0.6879299879074097,74.20999145507812,24.05,0
-0.1602615565061569,-0.8922866582870483,0.1352367401123047,0.0632840320467948,0.6876183152198792,74.20999145507812,24.05,0
-0.153226613998413,-0.8637024760246277,0.1483626663684845,0.2233234047889709,0.6874182820320129,74.20999145507812,24.05,0
-0.1487119942903518,-0.8453587889671326,0.1511883586645126,0.4406698644161224,0.6872899532318115,74.20999145507812,24.05,0
-0.1570103168487548,-0.8335868716239929,0.1530017256736755,0.5479071736335754,0.6872075796127319,74.20999145507812,24.05,0
-0.1735312491655349,-0.8428256511688232,0.1485676765441894,0.444762259721756,0.6871547102928162,74.20999145507812,24.05,0
-0.1841334402561187,-0.8655478954315186,0.1457221508026123,0.2961705327033996,0.687120795249939,74.20999145507812,24.05,0
-0.1853395402431488,-0.8857275247573853,0.1494938284158706,0.369193971157074,0.687099039554596,74.20999145507812,24.05,0
-0.1917113214731216,-0.9098731875419616,0.1519142836332321,0.6596713662147522,0.6870850324630737,74.4213638305664,24.05,0
-0.2013981342315673,-0.9309662580490112,0.1478698104619979,1.000133752822876,0.6870760917663574,74.55701446533203,24.05,0
-0.1964190155267715,-0.9780892133712769,0.1340787559747696,1.3726736307144165,0.6870703101158142,74.6440658569336,24.05,0
-0.1876259297132492,-1.0475144386291504,0.1028373539447784,1.7693816423416138,0.6870666146278381,74.6999282836914,24.05,0
-0.198776364326477,-1.120056390762329,0.0827884152531623,1.869915246963501,0.6870642304420471,74.73577880859375,24.05,0
-0.2171276211738586,-1.1442185640335083,0.0867154821753501,1.3182289600372314,0.6870627403259277,74.7587890625,24.05,0
-0.2289043962955474,-1.1317355632781982,0.0948334261775016,0.2405081689357757,0.6870617866516113,74.77355194091797,24.05,0
-0.2140709608793258,-1.062149167060852,0.1112386062741279,-0.7627950310707092,0.6870611310005188,74.78302764892578,24.05,0
-0.1821606159210205,-1.0062971115112305,0.1161687299609184,-1.245441436767578,0.6870607137680054,74.78910827636719,24.05,0
-0.1448890715837478,-1.0096389055252075,0.1193325966596603,-1.2542396783828735,0.6870604753494263,74.79301452636719,24.05,0
-0.0817859172821044,-1.0565656423568726,0.098971888422966,-1.1237480640411377,0.6870602965354919,74.79551696777344,24.05,0
-0.0356921702623367,-1.081082820892334,0.0691122338175773,-1.1403181552886963,0.6870601773262024,74.79712677001953,24.05,0
-0.0508940517902374,-1.0520342588424685,0.0331567041575908,-1.373071551322937,0.6870601177215576,74.79815673828125,24.05,0
-0.111029714345932,-0.9998059272766112,0.0100825140252709,-1.6263339519500732,0.6870600581169128,74.79882049560547,24.05,0
-0.155219092965126,-0.955093264579773,-0.0103229461237788,-1.7207943201065063,0.6870600581169128,74.79924774169922,24.05,0
-0.1779795140028,-0.9152036905288696,-0.0178202204406261,-1.7742483615875244,0.6870600581169128,74.79951477050781,24.05,0
-0.1925858557224273,-0.89520263671875,-0.0114359920844435,-1.951855182647705,0.6866011023521423,74.79969024658203,24.05,0
-0.1963615864515304,-0.8879649043083191,0.0094543620944023,-2.098076105117798,0.6863065958023071,74.7998046875,24.05,0
-0.1875890791416168,-0.883320152759552,0.0284583624452352,-1.9303842782974243,0.6861175894737244,74.79987335205078,24.05,0
-0.1875571608543396,-0.8859371542930603,0.0406540371477603,-1.3928602933883667,0.6859962940216064,74.79991912841797,24.05,0
-0.1987322270870208,-0.9044099450111388,0.0540782921016216,-0.6215818524360657,0.6859184503555298,74.7999496459961,24.05,0
-0.2003059685230255,-0.9330580234527588,0.0682909786701202,0.1205780059099197,0.685868501663208,74.79997253417969,24.05,0
-0.1957181394100189,-0.9570404887199402,0.0774118676781654,0.5574451684951782,0.6858364343643188,74.79998016357422,24.05,0
-0.2039694786071777,-0.9836266040802002,0.0776673555374145,0.7518195509910583,0.6858158707618713,74.79998779296875,24.05,0
-0.2092647105455398,-1.000688076019287,0.072233535349369,1.1022601127624512,0.6858026385307312,74.79999542236328,24.09,0
-0.2126628905534744,-1.0396260023117063,0.057550873607397,1.6065936088562012,0.6857941746711731,74.79999542236328,24.09,0
-0.2148436456918716,-1.0870052576065063,0.0481283850967884,1.6758829355239868,0.6857887506484985,74.79999542236328,24.09,0
-0.227438673377037,-1.1230082511901855,0.0364838019013404,1.0217465162277222,0.6857852339744568,74.79999542236328,24.09,0
-0.2467169910669326,-1.0789395570755005,0.0402065254747867,0.1362246572971344,0.6857829689979553,74.79999542236328,24.09,0
-0.2590886950492859,-1.0114744901657104,0.0425955578684806,-0.3854788541793823,0.6857815384864807,74.79999542236328,24.09,0
-0.2558326125144958,-0.9793747663497924,0.0385309271514415,-0.4229243397712707,0.6857806444168091,74.79999542236328,24.09,0
-0.2313519418239593,-0.981166124343872,0.0359224788844585,-0.1388531923294067,0.6857800483703613,74.79999542236328,24.09,0
-0.1540661305189132,-0.9879134893417358,0.0342485271394252,0.2619844377040863,0.6857796907424927,75.02569580078125,24.09,0
-0.1044685468077659,-0.9698524475097656,0.027576508000493,0.5299666523933411,0.6857794523239136,75.17053985595703,24.09,0
-0.0950307697057724,-0.947066366672516,0.0288925636559724,0.5263960361480713,0.6857792735099792,75.26349639892578,24.09,0
-0.1113652437925338,-0.910052478313446,0.0353349074721336,0.3700538575649261,0.6857791543006897,75.32315063476562,24.09,0
-0.1218477711081504,-0.8751035928726196,0.0450670085847377,0.2661398649215698,0.6857790946960449,75.3614273071289,24.09,0
-0.1285748481750488,-0.8526753783226013,0.0625080615282058,0.285435676574707,0.6857790350914001,75.38599395751953,24.09,0
-0.1440874487161636,-0.8214889168739319,0.0737007185816764,0.3515572547912597,0.6857790350914001,75.4017562866211,24.09,0
-0.1596403270959854,-0.7902796864509583,0.0808835253119468,0.3724948167800903,0.6857790350914001,75.41187286376953,24.09,0
-0.1920123696327209,-0.7926425337791443,0.0854930356144905,0.2999495267868042,0.686697244644165,75.41836547851562,24.09,0
-0.2127868831157684,-0.8165499567985535,0.0940489321947097,0.1387517005205154,0.6872864961624146,75.42253112792969,24.09,0
-0.2261187583208084,-0.8486856818199158,0.1051373854279518,-0.054260179400444,0.6876646280288696,75.42520904541016,24.09,0
-0.2402721643447876,-0.8916996121406555,0.1234488636255264,-0.1172202974557876,0.6879072785377502,75.42692565917969,24.09,0
-0.2549527883529663,-0.9137057065963744,0.1352001130580902,0.1361467093229293,0.6880630254745483,75.42802429199219,24.09,0
-0.2531784176826477,-0.9502190351486206,0.1315458416938781,0.6677483916282654,0.6881629824638367,75.4287338256836,24.09,0
-0.2464419454336166,-1.0016400814056396,0.1236029714345932,1.184445858001709,0.688227117061615,75.42918395996094,24.09,0
-0.2309233248233795,-1.101812481880188,0.1017123684287071,1.3727296590805054,0.68826824426651,75.42947387695312,24.09,0
-0.2321599125862121,-1.171695113182068,0.0820664688944816,1.0672328472137451,0.6864582300186157,75.4296646118164,24.09,0
-0.2385512590408325,-1.1717596054077148,0.069458857178688,0.2334840893745422,0.6852966547012329,75.4297866821289,24.09,0
-0.2426528632640838,-1.093432068824768,0.0613680183887481,-0.8819451332092285,0.6845512390136719,75.42986297607422,24.09,0
-0.2396872490644455,-1.0207749605178833,0.0561757832765579,-1.7553967237472534,0.6840728521347046,75.4299087524414,24.09,0
-0.1874041259288787,-0.962952196598053,0.0640392526984214,-2.061564683914185,0.6837658882141113,75.42993927001953,24.09,0
-0.0922763049602508,-0.9930181503295898,0.0690855756402015,-1.978604912757873,0.6835688948631287,75.42996215820312,24.09,0
-0.0368265248835086,-1.0291061401367188,0.0667262449860572,-1.817888855934143,0.6834424734115601,75.42997741699219,24.09,0
-0.0236331447958946,-1.0970474481582642,0.0092344190925359,-1.5929429531097412,0.6833613514900208,75.42998504638672,24.09,0
-0.0151663916185498,-1.1126594543457031,-0.0276605281978845,-1.2193007469177246,0.6846864223480225,75.42999267578125,24.09,0
-0.0489173382520675,-1.0555050373077393,-0.051337581127882,-0.8612937331199646,0.685536801815033,75.42999267578125,24.09,0
-0.0817723050713539,-1.018826603889465,-0.0497388280928134,-0.728274941444397,0.6860824823379517,75.42999267578125,24.09,0
-0.080465629696846,-0.9896907210350036,-0.0431150645017623,-0.6894846558570862,0.6864326596260071,75.42999267578125,24.09,0
-0.0796270817518234,-0.9597974419593812,-0.0276687666773796,-0.4782973229885101,0.6866574287414551,75.42999267578125,24.09,0
-0.095882274210453,-0.9350159168243408,-0.01215844694525,-0.1099020391702652,0.6868016719818115,75.42999267578125,24.09,0
-0.1231072396039962,-0.9135147333145142,-0.0078025911934673,0.2160772532224655,0.6868942379951477,75.42999267578125,24.09,0
-0.1461764276027679,-0.9109120965003968,0.0005905203288421,0.4969235062599182,0.686953604221344,75.42999267578125,24.09,0
-0.1609809100627899,-0.9092418551445008,0.0003789619659073,0.8240400552749634,0.6846967339515686,75.61628723144531,24.09,0
-0.1816771179437637,-0.9081699848175048,-0.0053545786067843,1.1199464797973633,0.6832484006881714,75.73583984375,24.09,0
-0.2061543017625808,-0.9242754578590392,-0.0090340347960591,1.3349201679229736,0.682318925857544,75.81256103515625,24.09,0
-0.2274601310491562,-0.9402087926864624,-0.0169930718839168,1.6985801458358765,0.6817224621772766,75.86180114746094,24.09,0
-0.2411329895257949,-0.9672272205352784,-0.0221007242798805,2.2866311073303223,0.681339681148529,75.89339447021484,24.09,0
-0.2499074339866638,-1.0069571733474731,-0.0365740694105625,2.6496782302856445,0.6810940504074097,75.9136734008789,24.09,0
-0.2667339146137237,-1.066040277481079,-0.0570577792823314,2.2521276473999023,0.6809363961219788,75.92668914794922,24.09,0
-0.2551410794258117,-1.1095541715621948,-0.0702030435204505,1.1156889200210571,0.6808352470397949,75.9350357055664,24.09,0
-0.236505925655365,-1.120685577392578,-0.0562478229403495,-0.1832415908575058,0.6807703375816345,75.94039916992188,24.09,0
-0.2077536284923553,-1.0382646322250366,-0.0304988399147987,-1.0562286376953125,0.6807286739349365,75.94384002685547,24.09,0
-0.1669109612703323,-0.9349916577339172,-0.0139746256172657,-1.4552457332611084,0.6807019114494324,75.946044921875,24.09,0
-0.1127116233110427,-0.8743147850036621,0.0078252125531435,-1.7077293395996094,0.6806847453117371,75.94746398925781,24.09,0
-0.0779296085238456,-0.8577669262886047,0.0218150950968265,-1.7981072664260864,0.6806737184524536,75.94837188720703,24.09,0
-0.0724018365144729,-0.908722996711731,0.0251952204853296,-1.4082845449447632,0.6806666254997253,75.9489517211914,24.09,0
-0.0576588809490203,-0.9638147950172424,0.0217666160315275,-0.6350627541542053,0.6806620955467224,75.94932556152344,24.09,0
-0.0705887973308563,-0.982376217842102,0.0083707859739661,-0.0707846134901046,0.6806591749191284,75.94956970214844,24.09,0
-0.1068753451108932,-0.9439078569412231,0.0109696630388498,-0.0597557909786701,0.6811162829399109,75.94972229003906,24.09,0
-0.1301619559526443,-0.9024277925491332,0.0182352475821971,-0.2891281247138977,0.6814095973968506,75.94982147216797,24.09,0
-0.1507037431001663,-0.8646126985549927,0.0340934284031391,-0.1819632202386856,0.6815978288650513,75.94988250732422,24.09,0
-0.1526907384395599,-0.8459429144859314,0.0498680733144283,0.4815165996551513,0.681718647480011,75.94992065429688,24.09,0
-0.1651614159345626,-0.8563528060913086,0.0655891075730323,1.3909474611282349,0.681796133518219,75.949951171875,24.09,0
-0.2011532485485077,-0.874228835105896,0.0812757313251495,2.024724006652832,0.6818459033966064,75.94996643066406,24.09,0
-0.2354462891817093,-0.8912984132766724,0.096940279006958,2.1197612285614014,0.681877851486206,75.9499740600586,24.09,0
-0.2630513608455658,-0.9134482741355896,0.1069928854703903,1.818910360336304,0.6818983554840088,75.94998168945312,24.09,0
-0.2807666957378387,-0.9220649600028992,0.1190418452024459,1.4861211776733398,0.6796161532402039,75.94998931884766,24.05,0
-0.2921353876590729,-0.9499858021736144,0.126774176955223,1.4230244159698486,0.678151547908783,75.94998931884766,24.05,0
-0.2938333749771118,-1.0350770950317385,0.1205407902598381,1.5759916305541992,0.6772116422653198,75.94998931884766,24.05,0
-0.2893252968788147,-1.112074851989746,0.1165405586361885,1.484280705451965,0.6766084432601929,75.94998931884766,24.05,0
-0.2752367258071899,-1.1279009580612185,0.1083756685256958,0.7554842233657837,0.6762213706970215,75.94998931884766,24.05,0
-0.2773910164833069,-1.115666151046753,0.0975381359457969,-0.3893221318721771,0.6759729385375977,75.94998931884766,24.05,0
-0.2899690866470337,-1.0630322694778442,0.0961810052394867,-1.3676080703735352,0.6758135557174683,75.94998931884766,24.05,0
-0.2756498456001282,-0.9844727516174316,0.1009078547358512,-1.8306173086166384,0.6757112741470337,75.94998931884766,24.05,0
-0.2496672719717025,-0.9396555423736572,0.1039412766695022,-1.8339787721633911,0.6765637993812561,76.1398696899414,24.05,0
-0.1882109493017196,-0.9556766152381896,0.1058879494667053,-1.689250349998474,0.6771109104156494,76.26172637939453,24.05,0
-0.1263807266950607,-1.0107402801513672,0.1015394404530525,-1.7611703872680664,0.6774620413780212,76.33992767333984,24.05,0
-0.053115002810955,-1.0740658044815063,0.0651621669530868,-1.982870817184448,0.6776873469352722,76.3901138305664,24.05,0
-0.0452817007899284,-1.0755200386047363,0.019426230341196,-1.9281036853790283,0.6778319478034973,76.42231750488281,24.05,0
-0.0738413855433464,-1.042866587638855,-0.0155222341418266,-1.5669429302215576,0.6779247522354126,76.44298553466797,24.05,0
-0.1369515359401703,-0.9995204210281372,-0.0379501469433307,-1.3495010137557983,0.6779842972755432,76.45624542236328,24.05,0
-0.1774519979953766,-0.9605078101158142,-0.0467453189194202,-1.4105836153030396,0.6780225038528442,76.46475982666016,24.05,0
-0.1754539906978607,-0.9242762327194214,-0.0355962291359901,-1.4103745222091677,0.6798831224441528,76.47022247314453,24.05,0
-0.15737846493721,-0.8954271078109741,-0.0116480616852641,-1.1379646062850952,0.6810771226882935,76.47372436523438,24.05,0
-0.1569741815328598,-0.8769133687019348,0.0093182679265737,-0.7087847590446472,0.6818434000015259,76.4759750366211,24.05,0
-0.1735080629587173,-0.870630145072937,0.011577702127397,-0.2936413586139679,0.6823351383209229,76.4774169921875,24.05,0
-0.1897163242101669,-0.8721956610679626,0.0130276773124933,-0.045139092952013,0.6826506853103638,76.47834014892578,24.05,0
-0.1945200860500335,-0.9067869782447816,0.0139581877738237,0.0498489961028099,0.6828532218933105,76.47893524169922,24.05,0
-0.2032006382942199,-0.9513767957687378,0.0089575611054897,0.3436743021011352,0.6829831600189209,76.47931671142578,24.05,0
-0.219966858625412,-0.9855897426605223,0.0113462219014763,1.1412723064422607,0.6830665469169617,76.47956085205078,24.05,0
-0.2307264655828476,-1.0131434202194214,0.0184769015759229,2.1511027812957764,0.6808251142501831,76.47972106933594,24.05,0
-0.2376313507556915,-1.0756080150604248,0.0118574118241667,2.691676616668701,0.6793866753578186,76.47982025146484,24.05,0
-0.2308669686317443,-1.1324875354766846,0.0132071785628795,2.4510433673858643,0.6784635782241821,76.47988891601562,24.05,0
-0.2265259772539138,-1.1465983390808103,0.0252689309418201,1.6768332719802856,0.6778711676597595,76.47992706298828,24.05,0
-0.2349357306957245,-1.11087167263031,0.0386072434484958,0.6927594542503357,0.6774910092353821,76.4799575805664,24.05,0
-0.2459303885698318,-0.9815866947174072,0.0359714552760124,-0.3615064024925232,0.6772470474243164,76.47997283935547,24.05,0
-0.2473883628845214,-0.8986189961433411,0.0286821834743022,-1.2530280351638794,0.6770904660224915,76.47998046875,24.05,0
-0.2147373557090759,-0.901352882385254,0.0296021234244108,-1.613783359527588,0.6769899725914001,76.47998809814453,24.05,0
-0.1434038430452346,-0.9143028855323792,0.0357902608811855,-1.4655423164367676,0.6778433322906494,76.47999572753906,24.07,0
-0.0976261049509048,-0.9394067525863647,0.0341636799275875,-1.3059234619140625,0.6783909797668457,76.47999572753906,24.07,0
-0.1186285614967346,-0.9443213939666748,0.0331198312342166,-1.4041134119033811,0.6787424683570862,76.47999572753906,24.07,0
-0.1433022767305374,-0.936279833316803,0.0324499495327472,-1.399057149887085,0.6789680123329163,76.47999572753906,24.07,0
-0.1591364443302154,-0.903130292892456,0.0376178324222564,-0.8440957069396973,0.6791127324104309,76.47999572753906,24.07,0
-0.158102348446846,-0.8762590885162354,0.0577276051044464,0.1819882243871688,0.679205596446991,76.47999572753906,24.07,0
-0.157438725233078,-0.853416919708252,0.0706328973174095,1.2309705018997192,0.6792652010917664,76.47999572753906,24.07,0
-0.1682084053754806,-0.838758111000061,0.0845125466585159,1.9686334133148196,0.6793034672737122,76.47999572753906,24.07,0
-0.1807175427675247,-0.8405464887619019,0.1046152561902999,2.330963134765625,0.6779508590698242,76.66629028320312,24.07,0
-0.1719518601894378,-0.8640852570533752,0.1399071216583252,2.3771915435791016,0.6770828366279602,76.78584289550781,24.07,0
-0.1663265526294708,-0.8791911005973816,0.1625554114580154,2.2528076171875,0.6765257716178894,76.86256408691406,24.07,0
-0.1739120930433273,-0.8944829106330872,0.1714919954538345,2.147907018661499,0.6761683225631714,76.91180419921875,24.07,0
-0.2011711597442627,-0.9210896492004396,0.1772269904613495,2.102083444595337,0.6759389042854309,76.94339752197266,24.07,0
-0.2242622375488281,-0.9437621235847472,0.1809073686599731,1.950868844985962,0.6757916808128357,76.96367645263672,24.07,0
-0.2334829866886139,-0.975105345249176,0.1720736771821975,1.5743870735168457,0.6756972074508667,76.97669219970703,24.07,0
-0.2394003272056579,-1.0567951202392578,0.1496113985776901,1.0569244623184204,0.6756365895271301,76.98503875732422,24.07,0
-0.2599910497665405,-1.1316100358963013,0.1351964026689529,0.5063096284866333,0.6755976676940918,76.99040222167969,24.07,0
-0.2844005525112152,-1.129241943359375,0.1147501394152641,-0.1587273478507995,0.6755726933479309,76.99384307861328,24.07,0
-0.3056629300117492,-1.0997333526611328,0.0960311293601989,-0.9760105013847352,0.6755566596984863,76.99604797363281,24.07,0
-0.3081123530864715,-1.019220948219299,0.0896161198616027,-1.7620238065719604,0.675546407699585,76.99746704101562,24.07,0
-0.2760976254940033,-0.9787482619285583,0.0799015685915947,-2.28435492515564,0.6755397915840149,76.99837493896484,24.07,0
-0.2443568557500839,-0.9695685505867004,0.0680695474147796,-2.426097869873047,0.6755355596542358,76.99895477294922,24.07,0
-0.2015963643789291,-1.03644859790802,0.0604764409363269,-2.1982109546661377,0.675532877445221,76.99932861328125,24.07,0
-0.1629595905542373,-1.096161723136902,0.0444080717861652,-1.801185965538025,0.6755311489105225,76.99957275390625,24.07,0
-0.1437624990940094,-1.0952976942062378,0.0117052225396037,-1.50698983669281,0.6764482259750366,76.99972534179688,24.07,0
-0.1706273406744003,-1.0331677198410034,-0.0148793589323759,-1.3468523025512695,0.6770367622375488,76.99982452392578,24.07,0
-0.2046609669923782,-0.9765029549598694,-0.026342038065195,-1.2118421792984009,0.6774144768714905,76.99988555908203,24.07,0
-0.2097084671258926,-0.9233454465866088,-0.0169048029929399,-1.0642966032028198,0.6776568293571472,76.99992370605469,24.07,0
-0.1961543411016464,-0.8836342096328735,0.0003470186493359,-0.7940641641616821,0.677812397480011,76.99995422363281,24.07,0
-0.1650649905204773,-0.8581498265266418,0.0338093414902687,-0.2982127070426941,0.677912175655365,76.99996948242188,24.07,0
-0.1451136320829391,-0.8417954444885254,0.0608813092112541,0.2492810785770416,0.6779762506484985,76.9999771118164,24.07,0
-0.1491033136844635,-0.8313001394271851,0.0782545432448387,0.625709056854248,0.6780173778533936,76.99998474121094,24.07,0
-0.18525031208992,-0.8525537252426147,0.0838059112429618,0.8493660092353821,0.6766666173934937,76.99999237060547,24.09,0
-0.2196429222822189,-0.877388596534729,0.0873684585094451,1.0287219285964966,0.6757997870445251,76.99999237060547,24.09,0
-0.2641052305698395,-0.9157173037528992,0.0952524691820144,1.2226389646530151,0.6752434968948364,76.99999237060547,24.09,0
-0.2870407998561859,-0.9627055525779724,0.1059097498655319,1.4868041276931765,0.6748865246772766,76.99999237060547,24.09,0
-0.2905639708042145,-1.0096532106399536,0.1183467507362365,1.7745550870895386,0.67465740442276,76.99999237060547,24.09,0
-0.2816293835639953,-1.0789659023284912,0.1207303255796432,1.801583766937256,0.6745103597640991,76.99999237060547,24.09,0
-0.2814934551715851,-1.1290446519851685,0.1222599670290947,1.2063088417053225,0.6744160056114197,76.99999237060547,24.09,0
-0.3037973344326019,-1.1387912034988403,0.1120460554957389,-0.0319399386644363,0.6743554472923279,76.99999237060547,24.09,0
-0.3349040150642395,-1.0666770935058594,0.1166869029402732,-1.3460501432418823,0.6743165850639343,77.17195892333984,24.09,0
-0.3492687046527862,-0.975616216659546,0.1140673607587814,-2.010241746902466,0.6742916703224182,77.28231811523438,24.09,0
-0.3416938185691833,-0.8891897201538086,0.1067885160446167,-1.9134255647659304,0.6742756962776184,77.35314178466797,24.09,0
-0.3200393617153168,-0.8449217081069946,0.1021173670887947,-1.60051429271698,0.674265444278717,77.39859008789062,24.09,0
-0.2669583559036255,-0.8724908232688904,0.0991196930408477,-1.5215133428573608,0.674258828163147,77.4277572631836,24.09,0
-0.2272962480783462,-0.92376971244812,0.080402635037899,-1.68935227394104,0.6742545962333679,77.44647216796875,24.09,0
-0.2242344915866851,-0.9398842453956604,0.05719555914402,-1.9403645992279053,0.674251914024353,77.45848846435547,24.09,0
-0.2614540457725525,-0.916638970375061,0.0479003675282001,-1.990390062332153,0.6742501854896545,77.46619415283203,24.09,0
-0.2965349555015564,-0.8905259370803833,0.041935246437788,-1.474359393119812,0.6760851144790649,77.47113800048828,24.09,0
-0.2798634469509125,-0.8737680912017822,0.0493027232587337,-0.3586165904998779,0.6772626638412476,77.47431182861328,24.09,0
-0.2467735409736633,-0.8742094039916992,0.0708240717649459,0.8338854908943176,0.67801833152771,77.47634887695312,24.09,0
-0.2255383431911468,-0.8688948750495911,0.0902330055832862,1.520348072052002,0.6785032749176025,77.4776611328125,24.09,0
-0.2287041395902633,-0.8654842972755432,0.102688543498516,1.5954574346542358,0.6788145303726196,77.47850036621094,24.09,0
-0.2307357639074325,-0.8744911551475525,0.1162795647978782,1.4072083234786987,0.679014265537262,77.47904205322266,24.09,0
-0.2320395410060882,-0.8970645666122437,0.1361970454454422,1.2720705270767212,0.679142415523529,77.47938537597656,24.09,0
-0.2272784560918808,-0.9171486496925354,0.1433811634778976,1.1853469610214231,0.6792246699333191,77.47960662841797,24.09,0
-0.2242230772972107,-0.9356352090835572,0.1423937529325485,1.093866944313049,0.6783596277236938,77.47975158691406,24.09,0
-0.2334578484296798,-0.9642921686172484,0.1361623108386993,1.1927937269210815,0.6778044700622559,77.47984313964844,24.09,0
-0.2393842041492462,-0.977084755897522,0.13216333091259,1.575128436088562,0.6774482131004333,77.47990417480469,24.09,0
-0.2375896126031875,-1.0076854228973389,0.1128036901354789,1.9172183275222776,0.677219569683075,77.47994232177734,24.09,0
-0.2476335018873214,-1.0665075778961182,0.08358646184206,1.8859716653823853,0.6770728230476379,77.47996520996094,24.09,0
-0.2596768736839294,-1.1210495233535769,0.0592387542128562,1.4897489547729492,0.6769786477088928,77.47998046875,24.09,0
-0.2786011695861816,-1.1224647760391235,0.0380160212516784,0.8055669665336609,0.6769182085990906,77.47998809814453,24.09,0
-0.2907456755638122,-1.0785908699035645,0.0132009452208876,-0.1422273963689804,0.6768794655799866,77.47999572753906,24.09,0
-0.2985393404960632,-1.0000550746917725,-0.0139194913208484,-1.0764816999435425,0.6768546104431152,77.47999572753906,24.11,0
-0.2979430854320526,-0.9664487242698668,-0.0425193756818771,-1.618710994720459,0.6768386363983154,77.47999572753906,24.11,0
-0.286364883184433,-0.972870945930481,-0.0664709061384201,-1.8269622325897217,0.6768283843994141,77.47999572753906,24.11,0
-0.2509457767009735,-0.9993834495544434,-0.0762438476085662,-1.9749361276626587,0.6768218278884888,77.47999572753906,24.11,0
-0.2170203030109405,-1.0219954252243042,-0.0881133303046226,-2.0197410583496094,0.6768175959587097,77.47999572753906,24.11,0
-0.2008466571569442,-1.0365065336227417,-0.1013282611966133,-1.8980262279510496,0.6768149137496948,77.47999572753906,24.11,0
-0.2072606682777404,-1.0066344738006592,-0.1098088398575782,-1.8629075288772583,0.6768131852149963,77.47999572753906,24.11,0
-0.2169745862483978,-0.970670998096466,-0.120848961174488,-1.9120219945907595,0.6768120527267456,77.47999572753906,24.11,0
-0.2344039678573608,-0.925200581550598,-0.1223361045122146,-1.5387097597122192,0.6768113374710083,77.65196228027344,24.11,0
-0.2455891370773315,-0.8960202932357788,-0.1120949164032936,-0.5826243162155151,0.6768108606338501,77.76232147216797,24.11,0
-0.2359738200902938,-0.882891833782196,-0.0831316113471984,0.4500975906848907,0.6768105626106262,77.83313751220703,24.11,0
-0.2130099385976791,-0.9024556279182434,-0.0477513074874877,1.0698482990264893,0.6768103837966919,77.87858581542969,24.11,0
-0.1870774924755096,-0.9206083416938782,-0.0250462666153907,1.2741094827651978,0.6768102645874023,77.90775299072266,24.11,0
-0.1760333031415939,-0.949051022529602,0.0007200710242614,1.3693667650222778,0.6768102049827576,77.92646789550781,24.11,0
-0.174543559551239,-0.9729016423225404,0.0172554235905408,1.6561996936798096,0.6768101453781128,77.93848419189453,24.11,0
-0.1847830712795257,-0.999403178691864,0.0278668608516454,2.173452138900757,0.676810085773468,77.9461898803711,24.11,0
-0.185756430029869,-1.0220080614089966,0.0514699928462505,2.6128721237182617,0.6763507723808289,77.95113372802734,24.11,0
-0.1807833015918731,-1.0421123504638672,0.0666171237826347,2.5903477668762207,0.6760560274124146,77.95430755615234,24.11,0
-0.1887873858213424,-1.0606119632720947,0.0819354578852653,1.9489420652389529,0.6758668422698975,77.95634460449219,24.11,0
-0.1883261650800705,-1.078081727027893,0.0973636582493782,0.8172271251678467,0.67574542760849,77.95765686035156,24.11,0
-0.1992257386445999,-1.0557061433792114,0.1128623634576797,-0.3031256198883056,0.6756675243377686,77.95849609375,24.11,0
-0.2174160033464431,-0.9741734862327576,0.1284063160419464,-0.7677406668663025,0.675617516040802,77.95903778076172,24.11,0
-0.2234916985034942,-0.8938616514205933,0.132783755660057,-0.5177698135375977,0.6755854487419128,77.95938110351562,24.11,0
-0.2105973958969116,-0.8479198813438416,0.1299951672554016,-0.2068847119808197,0.6755648851394653,77.95960235595703,24.11,0
-0.1911270320415496,-0.8408282399177551,0.1282056123018264,-0.3262257874011993,0.6760109663009644,77.95974731445312,24.11,0
-0.1674365252256393,-0.8810594081878662,0.1158616319298744,-0.7037484049797058,0.6762972474098206,77.9598388671875,24.11,0
-0.1802221983671188,-0.9124752283096312,0.0967444255948066,-0.9675161242485046,0.6764809489250183,77.95989990234375,24.11,0
-0.2108183950185775,-0.9214405417442322,0.0844760984182357,-0.9934840202331544,0.676598846912384,77.9599380493164,24.11,0
-0.252844363451004,-0.9048028588294984,0.0654074475169181,-0.7951942086219788,0.676674485206604,77.9599609375,24.11,0
-0.2686186730861664,-0.894125759601593,0.058768056333065,-0.4207454919815063,0.676723062992096,77.95997619628906,24.11,0
-0.2563506066799164,-0.8872737884521484,0.0657028257846832,0.0524215586483478,0.6767542362213135,77.9599838256836,24.11,0
-0.2428799122571945,-0.8884744048118591,0.0757509395480156,0.4957933723926544,0.6767742037773132,77.95999145507812,24.11,0
-0.2398329675197601,-0.8892448544502258,0.076601468026638,0.8197322487831116,0.6781641840934753,77.95999145507812,24.07,0
-0.2434753775596618,-0.8953371047973633,0.0827450603246688,1.0240349769592283,0.6790561676025391,77.95999145507812,24.07,0
-0.2402150928974151,-0.9104422926902772,0.0922854393720626,1.108571171760559,0.6796286106109619,77.95999145507812,24.07,0
-0.2269272804260254,-0.9201359152793884,0.0984079018235206,1.0983353853225708,0.6799959540367126,77.95999145507812,24.07,0
-0.2072043865919113,-0.9263567328453064,0.1023369506001472,1.1598355770111084,0.6802316904067993,77.95999145507812,24.07,0
-0.1945473700761795,-0.9247511029243468,0.099260613322258,1.396344542503357,0.6803829669952393,77.95999145507812,24.07,0
-0.1920225918292999,-0.9349162578582764,0.0860908478498458,1.616191267967224,0.6804800629615784,77.95999145507812,24.07,0
-0.1960001140832901,-0.9470374584197998,0.0776392444968223,1.556651949882507,0.6805423498153687,77.95999145507812,24.07,0
-0.1985526531934738,-0.9940005540847778,0.0498243980109691,1.1852635145187378,0.6805823445320129,78.12120819091797,24.07,0
-0.2225818336009979,-1.074518799781799,0.0207788813859224,0.6101657152175903,0.6806080341339111,78.22467041015625,24.07,0
-0.2491979151964187,-1.1093974113464355,0.0021391417831182,-0.1099913418292999,0.6806244850158691,78.29106903076172,24.07,0
-0.2774741351604461,-1.0758026838302612,-0.0210183206945657,-0.8659179210662842,0.6806350350379944,78.33367919921875,24.07,0
-0.2900224030017853,-1.0374501943588257,-0.035879448056221,-1.4298447370529177,0.6806418299674988,78.36102294921875,24.07,0
-0.292477399110794,-0.9960445165634156,-0.0454164631664752,-1.7308367490768433,0.6806461811065674,78.37857055664062,24.07,0
-0.2436729073524475,-0.9862660765647888,-0.068330094218254,-1.9347437620162964,0.6806489825248718,78.38983154296875,24.07,0
-0.1843641251325607,-1.0079796314239502,-0.0774369686841964,-2.026191234588623,0.6806507706642151,78.39705657958984,24.07,0
-0.1742920279502868,-1.061098575592041,-0.0664879158139228,-1.762445092201233,0.6820290684700012,78.40169525146484,24.07,0
-0.223806083202362,-1.0895894765853882,-0.0818525403738021,-1.231347918510437,0.682913601398468,78.40467071533203,24.07,0
-0.2275924831628799,-1.0630911588668823,-0.1029082164168357,-0.8869377374649048,0.6834812164306641,78.40657806396484,24.07,0
-0.2244246006011963,-1.0069016218185425,-0.1108227670192718,-0.9059476852416992,0.6838455200195312,78.40780639648438,24.07,0
-0.2335871756076812,-0.9540491104125975,-0.1214996427297592,-1.0686153173446655,0.6840792894363403,78.4085922241211,24.07,0
-0.2618582844734192,-0.9257291555404664,-0.1283514499664306,-1.1264326572418213,0.68422931432724,78.40909576416016,24.07,0
-0.2800010740756988,-0.9243483543395996,-0.1271507740020752,-0.9664947986602784,0.6843255758285522,78.409423828125,24.07,0
-0.2468618601560592,-0.9178645014762878,-0.1095869168639183,-0.6023278832435608,0.6843873262405396,78.40962982177734,24.07,0
-0.2255950272083282,-0.9360946416854858,-0.092717669904232,-0.1178462132811546,0.6839677095413208,78.4097671508789,24.07,0
-0.2175449728965759,-0.9589892029762268,-0.0762941837310791,0.3865253329277038,0.6836984157562256,78.40985107421875,24.07,0
-0.212378904223442,-0.9624860882759094,-0.0657545402646064,0.7603580355644226,0.683525562286377,78.40990447998047,24.07,0
-0.2090636193752288,-0.9703279733657836,-0.0533930286765098,0.8927850723266602,0.68341463804245,78.40994262695312,24.07,0
-0.195740520954132,-1.0033493041992188,-0.0286667980253696,0.9311956167221068,0.6833434700965881,78.40996551513672,24.07,0
-0.1759949624538421,-1.0077471733093262,-0.0016033790307119,1.0740703344345093,0.6832978129386902,78.40998077392578,24.07,0
-0.1745189577341079,-1.027362823486328,0.0213621407747268,1.1944196224212646,0.6832684874534607,78.40998840332031,24.07,0
-0.1735717356204986,-1.0567443370819092,0.0528934113681316,0.949221134185791,0.6832496523857117,78.40999603271484,24.07,0
-0.172963872551918,-1.058806300163269,0.084323912858963,0.2652282118797302,0.6823197603225708,78.40999603271484,24.07,0
-0.1837693303823471,-1.0153473615646362,0.1044942066073417,-0.4782379865646362,0.6817229986190796,78.40999603271484,24.07,0
-0.2242902964353561,-0.942675769329071,0.1230361089110374,-0.779805600643158,0.6813400387763977,78.40999603271484,24.07,0
-0.2446965426206588,-0.8792459964752197,0.1293374598026275,-0.5935813188552856,0.681094229221344,78.40999603271484,24.07,0
-0.2465965449810028,-0.8553337454795837,0.1277835369110107,-0.3056922554969787,0.6809365153312683,78.40999603271484,24.07,0
-0.2366203069686889,-0.8623793125152588,0.1323840916156768,-0.1316893249750137,0.6808353066444397,78.40999603271484,24.07,0
-0.219022586941719,-0.9284762740135192,0.1241409108042717,0.0158014949411153,0.6807703375816345,78.40999603271484,24.07,0
-0.2245227098464965,-0.9764912724494934,0.1132531389594078,0.1606086641550064,0.6807286739349365,78.40999603271484,24.07,0
-0.2672367990016937,-0.9737179279327391,0.0838748961687088,0.2392072677612304,0.680242657661438,78.54613494873047,24.07,0
-0.2890504598617553,-0.9551448225975036,0.0594238564372062,0.3039776384830475,0.6799307465553284,78.63349914550781,24.07,0
-0.2974514365196228,-0.9264323115348816,0.0493303574621677,0.417195051908493,0.6797305941581726,78.68956756591797,24.07,0
-0.2748538255691528,-0.9024085402488708,0.0540484823286533,0.5292598009109497,0.6796021461486816,78.72554779052734,24.07,0
-0.2547542154788971,-0.898186981678009,0.0626740753650665,0.5689333081245422,0.6795197129249573,78.74864196777344,24.07,0
-0.2418554276227951,-0.9010756015777588,0.0794050320982933,0.472585916519165,0.6794667840003967,78.76345825195312,24.07,0
-0.2391755133867263,-0.9029293656349182,0.084544226527214,0.1993837654590606,0.6794328093528748,78.77296447753906,24.07,0
-0.2374556958675384,-0.909716784954071,0.0878422632813453,-0.1156621351838111,0.6794110536575317,78.77906799316406,24.07,0
-0.2083631455898285,-0.919670343399048,0.1011543050408363,-0.1136336326599121,0.6798563599586487,78.7829818725586,24.07,0
-0.1728998869657516,-0.9204601645469666,0.1152949780225753,0.3641507029533386,0.6801421046257019,78.7854995727539,24.07,0
-0.1501416116952896,-0.9153692722320556,0.1187718734145164,0.9537886381149292,0.6803255081176758,78.787109375,24.07,0
-0.1803188621997833,-0.9344933032989502,0.1042098253965377,1.2641154527664185,0.6804431676864624,78.78814697265625,24.07,0
-0.2052826583385467,-0.9747548699378968,0.0780714154243469,1.3951963186264038,0.6805186867713928,78.78881072998047,24.07,0
-0.2269007563591003,-1.0789612531661987,0.0501017421483993,1.4828990697860718,0.6805671453475952,78.78923797607422,24.07,0
-0.2519695460796356,-1.1626282930374146,0.0377501882612705,1.2884013652801514,0.680598258972168,78.78951263427734,24.07,0
-0.2736550271511078,-1.1379520893096924,0.0298236720263957,0.7050142288208008,0.6806182265281677,78.78968811035156,24.07,0
-0.2819737493991852,-1.026954174041748,0.0079435668885707,-0.020462492480874,0.6801717877388,78.78980255126953,24.07,0
-0.2929100096225738,-0.9389287829399108,-0.0340866968035697,-0.6902384161949158,0.6798852682113647,78.78987121582031,24.07,0
-0.2495483011007309,-0.8992325067520142,-0.0274726543575525,-1.2024612426757812,0.6797013878822327,78.7899169921875,24.07,0
-0.2385145723819732,-0.912942111492157,-0.0176303684711456,-1.4451946020126345,0.6795833706855774,78.78994750976562,24.07,0
-0.2874115109443664,-0.9721201062202454,-0.0393030270934104,-1.5436457395553589,0.6795076727867126,78.78997039794922,24.07,0
-0.2516174614429474,-1.032488226890564,-0.0644068419933319,-1.7178858518600464,0.6794590950012207,78.78997802734375,24.07,0
-0.2230491191148758,-1.0600334405899048,-0.0693214759230613,-1.879859209060669,0.6794279217720032,78.78998565673828,24.07,0
-0.2271067053079605,-1.0441237688064575,-0.0780731812119484,-1.844083905220032,0.6794078946113586,78.78999328613281,24.07,0
-0.2353083938360214,-1.0115227699279783,-0.0892872959375381,-1.7602216005325315,0.6826086044311523,78.78999328613281,24.09,0
-0.2517673075199127,-0.968210220336914,-0.0964838713407516,-1.77447247505188,0.6846626400947571,78.78999328613281,24.09,0
-0.2567319273948669,-0.9404147267341614,-0.089906670153141,-1.7298792600631714,0.6859807968139648,78.78999328613281,24.09,0
-0.2487223893404007,-0.9337727427482604,-0.0744902491569519,-1.4934725761413574,0.6868267059326172,78.78999328613281,24.09,0
-0.2267890125513076,-0.9295102953910828,-0.0534013286232948,-1.105310320854187,0.6873695850372314,78.78999328613281,24.09,0
-0.2071156501770019,-0.9323726892471312,-0.0398676730692386,-0.6054298877716064,0.6877179741859436,78.78999328613281,24.09,0
-0.1944904178380966,-0.945405125617981,-0.0199870038777589,-0.166410356760025,0.6879415512084961,78.78999328613281,24.09,0
-0.1863882690668106,-0.9593663811683656,-0.0072287349030375,-0.0028978982008993,0.6880850195884705,78.78999328613281,24.09,0
-0.1867865622043609,-0.9683259129524232,0.0065565630793571,0.1378607302904129,0.6895542144775391,78.90105438232422,24.09,0
-0.187042161822319,-0.9740756154060364,0.0210009478032588,0.661683201789856,0.690497100353241,78.97232818603516,24.09,0
-0.1872061789035797,-0.972167670726776,0.0358682982623577,1.2951960563659668,0.691102147102356,79.01806640625,24.09,0
-0.1817136704921722,-0.998932123184204,0.051007080823183,1.3936467170715332,0.6914904713630676,79.04741668701172,24.09,0
-0.1725911200046539,-1.0496946573257446,0.0719178318977356,0.9230228662490844,0.6917396783828735,79.06625366210938,24.09,0
-0.1779323369264602,-1.0654778480529783,0.0909349173307418,0.4347096383571625,0.6918995976448059,79.0783462524414,24.09,0
-0.2037511169910431,-1.0140310525894165,0.1087367683649063,0.3971966207027435,0.6920021772384644,79.08610534667969,24.09,0
-0.2203201353549957,-0.9418310523033142,0.1201609671115875,0.7994493842124939,0.6920680403709412,79.09107971191406,24.09,0
-0.2309531718492508,-0.8843016624450684,0.1106990352272987,1.1829822063446045,0.6976189017295837,79.09427642822266,24.09,0
-0.2153857499361038,-0.8865670561790466,0.1102246865630149,1.0457758903503418,0.7011811137199402,79.09632873535156,24.09,0
-0.1997976899147033,-0.9104119539260864,0.1099202781915664,0.4239210188388824,0.7034671306610107,79.09764099121094,24.09,0
-0.2009897232055664,-0.9481053352355956,0.1153227016329765,-0.1399480700492859,0.7049341797828674,79.0984878540039,24.09,0
-0.2185480296611786,-0.9555014371871948,0.113191895186901,-0.27252197265625,0.7058756351470947,79.09902954101562,24.09,0
-0.2745981216430664,-0.9266611933708192,0.1062266901135444,-0.0996548384428024,0.7064797878265381,79.09937286376953,24.09,0
-0.265785664319992,-0.9025554060935974,0.118550144135952,0.0900980234146118,0.706867516040802,79.09959411621094,24.09,0
-0.2489347755908966,-0.8870856761932373,0.1320564001798629,0.1832098662853241,0.7071163058280945,79.09973907470703,24.09,0
-0.2325230836868286,-0.8883536458015442,0.1463217139244079,0.1748947501182556,0.71094810962677,79.0998306274414,24.09,0
-0.2275887727737426,-0.9003629088401794,0.155476376414299,0.0943245068192482,0.7134071588516235,79.09989166259766,24.09,0
-0.230019986629486,-0.9024720191955566,0.1613513082265854,0.071279764175415,0.7149852514266968,79.09992980957031,24.09,0
-0.2371779829263687,-0.8982277512550354,0.1539259552955627,0.2212894558906555,0.7159979343414307,79.0999526977539,24.09,0
-0.2361737936735153,-0.8899062275886536,0.1491607874631881,0.5074335336685181,0.7166478633880615,79.09996795654297,24.09,0
-0.2187360376119613,-0.9069570302963256,0.1405050009489059,0.7985416054725647,0.7170649170875549,79.0999755859375,24.09,0
-0.2075454890727996,-0.9346926212310792,0.1349502205848693,1.0176011323928833,0.7173325419425964,79.09998321533203,24.09,0
-0.2003640383481979,-0.9748827815055848,0.1201899275183677,1.2298325300216677,0.7175043225288391,79.09999084472656,24.09,0
-0.2125487178564071,-1.0398589372634888,0.0995220765471458,1.5523244142532349,0.7194509506225586,79.09999084472656,24.11,0
-0.2203681468963623,-1.087154746055603,0.0862586349248886,1.8703409433364868,0.720700204372406,79.09999084472656,24.11,0
-0.2253862023353576,-1.1063108444213867,0.0665513724088668,1.8666362762451167,0.721501886844635,79.09999084472656,24.11,0
-0.2230087369680404,-1.0626263618469238,0.0483066141605377,1.3447853326797483,0.7220163941383362,79.09999084472656,24.11,0
-0.2214830070734024,-1.0066033601760864,0.0365981794893741,0.4474270641803741,0.7223465442657471,79.09999084472656,24.11,0
-0.2093083411455154,-0.9538576602935792,0.017888830974698,-0.4580427706241607,0.7225584387779236,79.09999084472656,24.11,0
-0.195897564291954,-0.931204080581665,0.0114800222218036,-1.082112193107605,0.7226943969726562,79.09999084472656,24.11,0
-0.1928890794515609,-0.9614484906196594,-0.003828331362456,-1.3966221809387207,0.7227816581726074,79.09999084472656,24.11,0
-0.1909583956003189,-0.997650980949402,-0.0080545768141746,-1.4587360620498655,0.7255919575691223,79.1823959350586,24.11,0
-0.1617305278778076,-1.015285849571228,-0.0163645129650831,-1.3123033046722412,0.7273954153060913,79.23527526855469,24.11,0
-0.1597670912742614,-1.0098096132278442,-0.0216973517090082,-1.139514446258545,0.7285528182983398,79.26921081542969,24.11,0
-0.1753003895282745,-0.9950997233390808,-0.0251196604222059,-1.1611838340759275,0.729295551776886,79.2909927368164,24.11,0
-0.185268759727478,-0.9632686376571656,-0.0217181257903575,-1.296897530555725,0.7297722101211548,79.30496978759766,24.11,0
-0.1916658878326416,-0.9372435212135316,-0.0139374425634741,-1.3015915155410769,0.7300781011581421,79.31393432617188,24.11,0
-0.1901734322309494,-0.9149442911148072,0.0078490749001502,-1.172048568725586,0.7302743792533875,79.31968688964844,24.11,0
-0.1836178749799728,-0.906231701374054,0.0274281818419694,-1.056672215461731,0.7304003238677979,79.32337951660156,24.11,0
-0.1738131195306778,-0.9062382578849792,0.0399929247796535,-0.9539697170257568,0.7300218939781189,79.32575225830078,24.11,0
-0.1675209999084472,-0.91743803024292,0.0480562560260295,-0.8235747814178467,0.729779064655304,79.32727813720703,24.11,0
-0.1578852981328964,-0.9302231669425964,0.0532308369874954,-0.707651674747467,0.7296231985092163,79.32825469970703,24.11,0
-0.1628972142934799,-0.9552212357521056,0.0453560352325439,-0.532946765422821,0.7295231819152832,79.3288803100586,24.11,0
-0.1605158001184463,-0.9768613576889038,0.0403024405241012,-0.0948168411850929,0.7294589877128601,79.32928466796875,24.11,0
-0.1533897668123245,-0.9907487034797668,0.037059336900711,0.627006471157074,0.7294178009033203,79.32954406738281,24.11,0
-0.1488166898488998,-1.0444430112838743,0.040575873106718,1.3230985403060913,0.72939133644104,79.32970428466797,24.11,0
-0.1402841806411743,-1.0844987630844116,0.0484303571283817,1.5870990753173828,0.7293744087219238,79.3298110961914,24.11,0
-0.123612955212593,-1.0990086793899536,0.0702642351388931,1.2513762712478638,0.7302817106246948,79.32987976074219,24.11,0
-0.1465009748935699,-1.0243536233901978,0.0786781907081604,0.6525930762290955,0.7308639883995056,79.32992553710938,24.11,0
-0.1723847389221191,-0.9484554529190063,0.0784800052642822,0.3829708993434906,0.7312376499176025,79.3299560546875,24.11,0
-0.1833976656198501,-0.8997483849525452,0.0783528238534927,0.700755774974823,0.7314774394035339,79.32997131347656,24.11,0
-0.1736718118190765,-0.8852843046188354,0.0838689804077148,1.3346009254455566,0.731631338596344,79.3299789428711,24.11,0
-0.1394414454698562,-0.9207842946052552,0.0874089300632476,1.8022700548172,0.7317301034927368,79.32998657226562,24.11,0
-0.1230721399188041,-0.9771527647972108,0.0840828940272331,1.7584658861160278,0.7317934632301331,79.32999420166016,24.11,0
-0.123762808740139,-0.9965335130691528,0.0819484367966651,1.2072988748550415,0.7318341135978699,79.32999420166016,24.11,0
-0.1577926874160766,-0.969786524772644,0.0861764326691627,0.4845862686634063,0.7327784299850464,79.32999420166016,24.07,0
-0.1796310991048813,-0.9358285069465636,0.0944874957203865,-0.0293651167303323,0.7333844304084778,79.32999420166016,24.07,0
-0.1824501901865005,-0.9028406739234924,0.111016608774662,-0.1943910419940948,0.7337733507156372,79.32999420166016,24.07,0
-0.1898570954799652,-0.8760732412338257,0.1216240376234054,-0.1104186847805976,0.7340229153633118,79.32999420166016,24.07,0
-0.2002082020044326,-0.8588954210281372,0.1340290457010269,0.0007911601569503,0.7341830730438232,79.32999420166016,24.07,0
-0.223644271492958,-0.8534694314002991,0.1363921016454696,-0.0209877323359251,0.7342858910560608,79.32999420166016,24.07,0
-0.2498797327280044,-0.8555851578712463,0.1435063481330871,-0.1281111389398574,0.7343518733978271,79.32999420166016,24.07,0
-0.2667161524295807,-0.8681384325027466,0.1592674106359481,-0.1502832919359207,0.7343941926956177,79.32999420166016,24.07,0
-0.2607274651527405,-0.8929877281188965,0.1749797165393829,0.0361121296882629,0.7316671013832092,79.39806365966797,24.07,0
-0.251286506652832,-0.9201301336288452,0.1794652044773101,0.3921799659729004,0.7299169898033142,79.4417495727539,24.07,0
-0.2396300584077835,-0.9991241097450256,0.1711481809616089,0.7030830383300781,0.7287938594818115,79.46977996826172,24.07,0
-0.2153562903404235,-1.0778067111968994,0.1602130234241485,0.7592997550964355,0.7280731201171875,79.4877700805664,24.07,0
-0.1941810101270675,-1.128300666809082,0.1364021450281143,0.5840044021606445,0.7276105880737305,79.49931335449219,24.07,0
-0.214178591966629,-1.1719003915786743,0.1099261417984962,0.299546331167221,0.727313756942749,79.50672149658203,24.07,0
-0.2326096594333648,-1.1718913316726685,0.0817398205399513,-0.0657138749957084,0.7271232604980469,79.511474609375,24.07,0
-0.2220465540885925,-1.076723337173462,0.0580536872148513,-0.4684979021549225,0.7270010113716125,79.5145263671875,24.07,0
-0.2152677625417709,-0.9876611232757568,0.0484510622918605,-0.8344587683677673,0.7260043621063232,79.51648712158203,24.07,0
-0.2053197473287582,-0.9417016506195068,0.0478864274919033,-1.1624583005905151,0.7253647446632385,79.51774597167969,24.07,0
-0.1653490364551544,-0.9793807864189148,0.0419263020157814,-1.3514541387557983,0.7249543070793152,79.5185546875,24.07,0
-0.1229048147797584,-0.9979633092880248,0.0269058868288993,-1.236290693283081,0.7246909141540527,79.51907348632812,24.07,0
-0.1124598830938339,-0.9986929893493652,0.0060711004771292,-0.9617612957954408,0.7245218753814697,79.51940155029297,24.07,0
-0.1225502490997314,-1.0047589540481567,-0.0072994665242731,-0.8178272843360901,0.7244133949279785,79.51961517333984,24.07,0
-0.1458189934492111,-0.9750651717185974,-0.0214776992797851,-0.7218761444091797,0.7243437767028809,79.5197525024414,24.07,0
-0.1663493067026138,-0.9448138475418092,-0.0193809252232313,-0.4919191598892212,0.7242990732192993,79.51983642578125,24.07,0
-0.1739266961812973,-0.9309980869293212,-0.0068397871218621,-0.2941899597644806,0.7265657186508179,79.5198974609375,24.07,0
-0.1731916666030883,-0.9109363555908204,0.0012083929032087,-0.3141843378543854,0.7280203700065613,79.51993560791016,24.07,0
-0.1783177405595779,-0.8980618715286255,0.0063732513226568,-0.4201625287532806,0.7289538383483887,79.51995849609375,24.07,0
-0.1872051358222961,-0.8897997736930847,-0.0015077884308993,-0.4666777849197387,0.7295529246330261,79.51997375488281,24.07,0
-0.1929085403680801,-0.8900954127311707,-0.0065653859637677,-0.4499551057815552,0.7299373745918274,79.51998138427734,24.07,0
-0.2077642083168029,-0.8902851343154907,-0.0098110614344477,-0.2923378646373749,0.7301840782165527,79.51998901367188,24.07,0
-0.23409104347229,-0.9072002172470092,-0.0006983997300267,0.0452618040144443,0.7303423881530762,79.51998901367188,24.07,0
-0.2397905439138412,-0.9348486661911012,0.0163451302796602,0.3693911135196686,0.7304440140724182,79.51998901367188,24.07,0
-0.2210570573806762,-1.0253629684448242,0.0104893641546368,0.4914168119430542,0.7286728024482727,79.51998901367188,24.11,0
-0.2090349942445755,-1.1282320022583008,0.0179270189255476,0.4837440848350525,0.727536141872406,79.51998901367188,24.11,0
-0.1901243776082992,-1.177454113960266,0.0171023029834032,0.4573247134685516,0.7268067002296448,79.51998901367188,24.11,0
-0.1779886186122894,-1.11947762966156,0.0221708230674266,0.2684066295623779,0.7263385653495789,79.51998901367188,24.11,0
-0.1702006012201309,-1.031891703605652,0.0366190560162067,-0.2433308362960815,0.7260381579399109,79.51998901367188,24.11,0
-0.1316160410642624,-0.9364996552467346,0.0514888726174831,-0.8440102338790894,0.7258453369140625,79.51998901367188,24.11,0
-0.0676702782511711,-0.9088691473007202,0.0666292384266853,-1.068275809288025,0.7257215976715088,79.51998901367188,24.11,0
-0.0266335662454366,-0.9135286211967468,0.0707476809620857,-0.8252783417701721,0.725642204284668,79.51998901367188,24.11,0
-0.0450807623565197,-0.9389098882675172,0.0565973371267318,-0.4472168982028961,0.725591242313385,79.58089447021484,24.11,0
-0.084907978773117,-0.949600338935852,0.0419186875224113,-0.1616079211235046,0.7255585789680481,79.61997985839844,24.11,0
-0.1216623485088348,-0.9340697526931764,0.0492920987308025,0.018096899613738,0.7255375981330872,79.64506530761719,24.11,0
-0.1396514177322387,-0.9129075407981871,0.0596217028796672,0.108343094587326,0.7255241274833679,79.66116333007812,24.11,0
-0.1511957645416259,-0.8937290906906128,0.0662506520748138,0.2558223009109497,0.7255154848098755,79.67149353027344,24.11,0
-0.1697998046875,-0.8590303659439087,0.076102502644062,0.6908106803894043,0.7255099415779114,79.6781234741211,24.11,0
-0.187336578965187,-0.8367627263069153,0.0880226269364357,1.2852277755737305,0.7255063652992249,79.68238067626953,24.11,0
-0.2153839915990829,-0.8224726319313049,0.0900745019316673,1.6631078720092771,0.7255041003227234,79.68511199951172,24.11,0
-0.2501765489578247,-0.8412909507751465,0.1025868281722068,1.7873846292495728,0.725502610206604,79.6868667602539,24.11,0
-0.2669066190719604,-0.8701608180999756,0.1106165200471878,1.9781980514526367,0.7255016565322876,79.68798828125,24.11,0
-0.2664474546909332,-0.9222744703292848,0.1213672831654548,2.286945104598999,0.7255010604858398,79.68871307373047,24.11,0
-0.2549572587013244,-0.972511351108551,0.1226687282323837,2.2987873554229736,0.7255007028579712,79.68917846679688,24.11,0
-0.2531812787055969,-1.032739281654358,0.1123083755373954,1.726009726524353,0.7255004644393921,79.6894760131836,24.11,0
-0.2576393485069275,-1.104976773262024,0.1000619232654571,0.9106119871139526,0.7255002856254578,79.68966674804688,24.11,0
-0.2549024820327759,-1.1513346433639526,0.0922028571367263,0.3658412396907806,0.7255001664161682,79.68978881835938,24.11,0
-0.2475483566522598,-1.1419000625610352,0.0871593579649925,0.1272985935211181,0.7255001068115234,79.68986511230469,24.11,0
-0.2484266757965088,-1.1134543418884275,0.083922728896141,-0.1010184437036514,0.7227457761764526,79.68991088867188,24.11,0
-0.2601858675479889,-1.0392217636108398,0.0874434262514114,-0.5628058314323425,0.7209782004356384,79.68994140625,24.11,0
-0.2453411519527435,-0.980388045310974,0.1008983552455902,-1.3499672412872314,0.719843864440918,79.6899642944336,24.11,0
-0.2078257948160171,-0.9762186408042908,0.120728500187397,-2.227710008621216,0.7191159129142761,79.68997955322266,24.11,0
-0.0997839942574501,-1.046314001083374,0.1166610196232795,-2.7050130367279053,0.7186487913131714,79.68998718261719,24.11,0
-0.0136556569486856,-1.0801016092300415,0.102855198085308,-2.638730764389038,0.7183489799499512,79.68999481201172,24.11,0
0.0080299079418182,-1.084991216659546,0.0604087710380554,-2.3848226070404053,0.7181565761566162,79.68999481201172,24.11,0
-0.0284335128962993,-1.037749171257019,0.0107779996469616,-2.221879005432129,0.7180331349372864,79.68999481201172,24.11,0
-0.0686269626021385,-0.9906386137008668,-0.0210721734911203,-2.102980852127075,0.7179539203643799,79.68999481201172,24.09,0
-0.072029709815979,-0.9436124563217164,-0.0191206820309162,-1.8582978248596191,0.7179030776023865,79.68999481201172,24.09,0
-0.06861562281847,-0.9134337306022644,-0.0178683269768953,-1.38242506980896,0.7178704738616943,79.68999481201172,24.09,0
-0.0776202008128166,-0.8940668106079102,-0.0114668635651469,-0.8047615885734558,0.7178495526313782,79.68999481201172,24.09,0
-0.0945943742990493,-0.8928337693214417,-0.0017609982751309,-0.3229905664920807,0.7178360819816589,79.68999481201172,24.09,0
-0.1110851913690567,-0.8864446878433228,0.0044676670804619,0.0793293118476867,0.7178274393081665,79.68999481201172,24.09,0
-0.1216680482029914,-0.8823445439338684,0.0084648663178086,0.4199142754077911,0.7178218960762024,79.68999481201172,24.09,0
-0.1284595131874084,-0.8909088373184204,0.011030038818717,0.6420646905899048,0.7178183794021606,79.68999481201172,24.09,0
-0.1104267910122871,-0.9411871433258056,-0.0041171056218445,0.8956878781318665,0.715980052947998,79.75806427001953,24.09,0
-0.1492343991994857,-0.9678550958633424,-0.0306309927254915,1.38446307182312,0.7148002982139587,79.80175018310547,24.09,0
-0.1741388887166977,-0.9849690198898317,-0.0476460792124271,1.870094418525696,0.7140432000160217,79.82978057861328,24.09,0
-0.201316699385643,-1.0519294738769531,-0.0585653819143772,1.9273817539215088,0.7135573625564575,79.84777069091797,24.09,0
-0.2075623124837875,-1.0837053060531616,-0.0655727609992027,1.4410895109176636,0.7132455706596375,79.85931396484375,24.09,0
-0.2283637076616287,-1.087303876876831,-0.0588741451501846,0.5307249426841736,0.7130454778671265,79.8667221069336,24.09,0
-0.2361150681972503,-1.0728199481964111,-0.0433798134326934,-0.5514726638793945,0.7129170298576355,79.87147521972656,24.09,0
-0.2186983525753021,-1.0299383401870728,-0.0334364399313926,-1.3749374151229858,0.7128345966339111,79.87452697753906,24.09,0
-0.1907279789447784,-0.9856260418891908,-0.0270553566515445,-1.5845404863357544,0.7123227715492249,79.8764877319336,24.09,0
-0.1727782040834427,-0.9571889638900756,-0.0061670215800404,-1.253316879272461,0.7119943499565125,79.87774658203125,24.09,0
-0.144465759396553,-0.9277441501617432,0.0072379088960587,-0.7792285680770874,0.7117835879325867,79.87855529785156,24.09,0
-0.1542853266000747,-0.9312392473220824,0.0158404223620891,-0.4534905552864074,0.7116482853889465,79.87907409667969,24.09,0
-0.1661847382783889,-0.939079999923706,0.021361019462347,-0.2551983594894409,0.7115615010261536,79.87940216064453,24.09,0
-0.1738210916519165,-0.9273183941841124,0.0305015966296196,-0.099285252392292,0.7115057706832886,79.8796157836914,24.09,0
-0.1899172067642212,-0.9141727089881896,0.041965264827013,0.0760048851370811,0.7114700078964233,79.87975311279297,24.09,0
-0.2114423215389251,-0.9057365655899048,0.0605175383388996,0.4177808463573456,0.7114470601081848,79.87983703613281,24.09,0
-0.2140603512525558,-0.8835294246673584,0.0948144197463989,0.9702925086021424,0.7091370224952698,79.87989807128906,24.09,0
-0.2157404571771621,-0.863680362701416,0.1280197352170944,1.4968262910842896,0.7076545357704163,79.87993621826172,24.09,0
-0.2392097413539886,-0.8621379137039185,0.1605245321989059,1.80606472492218,0.7067031860351562,79.87995910644531,24.09,0
-0.2542709708213806,-0.8667458295822144,0.1869820207357406,1.961525321006775,0.7060926556587219,79.87997436523438,24.09,0
-0.2527408599853515,-0.8864962458610535,0.1983631402254104,1.989639401435852,0.7057008743286133,79.8799819946289,24.09,0
-0.2461611479520797,-0.9159642457962036,0.1944713443517685,1.760483741760254,0.7054494619369507,79.87998962402344,24.09,0
-0.2419386655092239,-0.9404729008674622,0.1863760352134704,1.290993094444275,0.7052881121635437,79.87998962402344,24.09,0
-0.2168378233909607,-0.9785922765731812,0.1699853837490081,0.8463979363441467,0.7051845192909241,79.87998962402344,24.09,0
-0.1839362233877182,-1.014250636100769,0.159466803073883,0.6757248044013977,0.7069541215896606,79.87998962402344,24.11,0
-0.1684196442365646,-1.0763185024261477,0.1527165919542312,0.7560730576515198,0.7080897688865662,79.87998962402344,24.11,0
-0.1584620028734207,-1.1105523109436035,0.1315913647413253,0.786140501499176,0.7088185548782349,79.87998962402344,24.11,0
-0.1688650846481323,-1.132521629333496,0.1012410894036293,0.4937520027160644,0.7092862725257874,79.87998962402344,24.11,0
-0.1923345029354095,-1.0850447416305542,0.0817640274763107,-0.0772217139601707,0.7095863819122314,79.87998962402344,24.11,0
-0.2017980515956878,-1.0153924226760864,0.0748625472187995,-0.6944200396537781,0.7097789645195007,79.87998962402344,24.11,0
-0.1798823475837707,-0.9427046775817872,0.0648357942700386,-1.2158925533294678,0.7099025845527649,79.87998962402344,24.11,0
-0.1490247845649719,-0.9296445250511168,0.0584012046456337,-1.5827867984771729,0.7099819183349609,79.87998962402344,24.11,0
-0.1124288514256477,-0.9996321201324464,0.037478532642126,-1.7250914573669434,0.7077378034591675,79.9552230834961,24.11,0
-0.0889436900615692,-1.044546127319336,-0.0039373086765408,-1.651615858078003,0.7062976956367493,80.00350952148438,24.11,0
-0.096263363957405,-1.050978183746338,-0.0305156093090772,-1.5113165378570557,0.7053735256195068,80.03449249267578,24.11,0
-0.1233518049120903,-1.0551059246063232,-0.0419742576777935,-1.4714365005493164,0.7047803997993469,80.05437469482422,24.11,0
-0.1351378262042999,-1.0409616231918335,-0.0493277609348297,-1.513912796974182,0.7043997645378113,80.067138671875,24.11,0
-0.1315058767795562,-0.9871023893356324,-0.0428512655198574,-1.4659374952316284,0.7041555047035217,80.07532501220703,24.11,0
-0.145968422293663,-0.9357452988624572,-0.0163039248436689,-1.2882641553878784,0.7039987444877625,80.08058166503906,24.11,0
-0.1552496552467346,-0.9027872681617736,0.0063304034993052,-1.188573956489563,0.7038981914520264,80.08395385742188,24.11,0
-0.1556080430746078,-0.8872345089912415,0.0320513620972633,-1.1926674842834473,0.7029154300689697,80.08612060546875,24.11,0
-0.1670335829257965,-0.8884491920471191,0.0485575906932354,-0.966009557247162,0.7022847533226013,80.08750915527344,24.11,0
-0.1967569291591644,-0.8892287015914917,0.0535525642335414,-0.3906445205211639,0.7018800377845764,80.0884017944336,24.11,0
-0.2326249778270721,-0.9009245038032532,0.0511602759361267,0.168468177318573,0.7016202807426453,80.08897399902344,24.11,0
-0.2668385803699493,-0.9140279293060304,0.0496250428259372,0.563100278377533,0.7014535665512085,80.08934020996094,24.11,0
-0.2775993645191192,-0.9448280930519104,0.0598353669047355,1.0599676370620728,0.7013465762138367,80.0895767211914,24.11,0
-0.2733094692230224,-0.9757893681526184,0.0607899911701679,1.5328792333602903,0.7012779712677002,80.08972930908203,24.11,0
-0.2481653541326522,-1.023647427558899,0.0334137454628944,1.37779700756073,0.7012339234352112,80.08982849121094,24.11,0
-0.2432248592376709,-1.0655555725097656,-0.0009480791632086,0.4901074767112732,0.6998285055160522,80.08988952636719,24.11,0
-0.2456521093845367,-1.0924497842788696,-0.0285972952842712,-0.513052225112915,0.698926568031311,80.08992767333984,24.11,0
-0.2472097724676132,-1.0705244541168213,-0.0295476466417312,-1.131744384765625,0.6983477473258972,80.08995056152344,24.11,0
-0.2482093870639801,-1.0284652709960938,-0.0133642042055726,-1.3245785236358645,0.697976291179657,80.0899658203125,24.11,0
-0.2376553416252136,-0.9622896313667296,0.0250102691352367,-1.1832177639007568,0.6977379322052002,80.08997344970703,24.11,0
-0.2028934806585312,-0.9422129988670348,0.0496367961168289,-0.8596331477165222,0.6975849866867065,80.08998107910156,24.11,0
-0.1861830949783325,-0.9405245184898376,0.065440684556961,-0.5731585025787354,0.6974868178367615,80.0899887084961,24.11,0
-0.1754593402147293,-0.9394409656524658,0.0755827128887176,-0.3821504414081573,0.6974238157272339,80.0899887084961,24.11,0
-0.1741752177476883,-0.938745617866516,0.0764935091137886,-0.1198520138859748,0.6978422999382019,80.0899887084961,24.09,0
-0.1901444643735885,-0.9494948983192444,0.0770779997110366,0.4067336022853851,0.6981108784675598,80.0899887084961,24.09,0
-0.1947948336601257,-0.9340021014213562,0.0718553215265274,1.2247310876846311,0.6982832551002502,80.0899887084961,24.09,0
-0.1977791786193847,-0.9128641486167908,0.0741014778614044,2.179583787918091,0.6983938813209534,80.0899887084961,24.09,0
-0.1996943652629852,-0.8937012553215027,0.081140711903572,2.9858124256134038,0.6984648704528809,80.0899887084961,24.09,0
-0.2009234130382537,-0.8758058547973633,0.0856580883264541,3.334822416305542,0.6985104084014893,80.0899887084961,24.09,0
-0.1961143761873245,-0.8643215894699097,0.0941548496484756,3.0106630325317383,0.6985396146774292,80.0899887084961,24.09,0
-0.2042237669229507,-0.8681471943855286,0.1108031347393989,2.0968687534332275,0.6985583901405334,80.0899887084961,24.09,0
-0.2094278931617736,-0.8817977905273438,0.1270848214626312,1.0160527229309082,0.6990296840667725,80.16880798339844,24.09,0
-0.1959742903709411,-0.8961557745933533,0.1543267965316772,0.3009517192840576,0.6993321776390076,80.21939086914062,24.09,0
-0.1761449873447418,-0.9053698778152466,0.171809121966362,0.1895509213209152,0.699526309967041,80.2518539428711,24.09,0
-0.1410285830497741,-0.9280762672424316,0.1998215913772583,0.4906481504440307,0.6996508836746216,80.2726821899414,24.09,0
-0.1352862268686294,-0.9538434743881226,0.2010050565004348,0.8271780610084534,0.6997308135032654,80.28604888916016,24.09,0
-0.1427966505289077,-0.9759771823883056,0.1961667686700821,0.93566632270813,0.699782133102417,80.29463195800781,24.09,0
-0.1532141864299774,-0.99018132686615,0.1874640583992004,0.7150992155075073,0.699815034866333,80.30014038085938,24.09,0
-0.1710951179265976,-1.0160900354385376,0.1818791627883911,0.1400602906942367,0.6998361349105835,80.30367279052734,24.09,0
-0.2049611657857895,-1.0830967426300049,0.1670995503664016,-0.5621461272239685,0.697554349899292,80.30593872070312,24.09,0
-0.2210966646671295,-1.1204999685287476,0.1408215165138244,-0.94113028049469,0.696090042591095,80.3073959350586,24.09,0
-0.2426470518112182,-1.099721074104309,0.1071644648909568,-0.9228124618530272,0.6951503157615662,80.3083267211914,24.09,0
-0.2732701599597931,-1.019213080406189,0.0855653062462806,-0.9289700388908386,0.6945472359657288,80.30892181396484,24.09,0
-0.2985200881958008,-0.9563521146774292,0.0661064386367797,-1.1442935466766355,0.6941602230072021,80.30931091308594,24.09,0
-0.2979307174682617,-0.9160115718841552,0.0424233078956604,-1.303971290588379,0.6939118504524231,80.30955505371094,24.09,0
-0.2919547259807586,-0.929307758808136,0.0216270629316568,-1.3885303735733032,0.6937524676322937,80.3097152709961,24.09,0
-0.282521903514862,-0.9602315425872804,0.008281229995191,-1.5538554191589355,0.6936501860618591,80.309814453125,24.09,0
-0.2652729153633117,-1.0080655813217163,0.0053144167177379,-1.545309066772461,0.7000113129615784,80.30988311767578,24.09,0
-0.2430079579353332,-1.0331648588180542,0.0090082613751292,-1.0490115880966189,0.7040935158729553,80.30992126464844,24.09,0
-0.2231218069791793,-1.0324788093566897,0.0113787576556205,-0.2576164901256561,0.7067132592201233,80.30995178222656,24.09,0
-0.2271533459424972,-1.0040496587753296,0.0184977799654006,0.4652098715305328,0.708394467830658,80.30996704101562,24.09,0
-0.229740560054779,-0.9690122008323668,0.0286641344428062,0.9326608180999756,0.7094733715057373,80.30997467041016,24.09,0
-0.2146075665950775,-0.9185382723808287,0.0575794130563735,0.9675332903862,0.7101657390594482,80.30998229980469,24.09,0
-0.1937005221843719,-0.8805492520332336,0.087331123650074,0.5385079383850098,0.7106100916862488,80.30998992919922,24.09,0
-0.1634902656078338,-0.8673656582832336,0.1176196038722992,0.0267341714352369,0.7108952403068542,80.30998992919922,24.09,0
-0.1497008353471756,-0.8645029664039612,0.1426547914743423,-0.2228761166334152,0.7069467902183533,80.30998992919922,24.11,0
-0.1464493423700332,-0.8682636022567749,0.1531231552362442,-0.2469237595796585,0.7044128775596619,80.30998992919922,24.11,0
-0.1611560583114624,-0.8986658453941345,0.1542433649301529,-0.1871220618486404,0.7027868032455444,80.30998992919922,24.11,0
-0.1705939769744873,-0.923774003982544,0.149364486336708,-0.0950061380863189,0.7017432451248169,80.30998992919922,24.11,0
-0.1878462433815002,-0.9846692085266112,0.1518312692642212,-0.1075429543852806,0.7010735869407654,80.30998992919922,24.11,0
-0.2045155167579651,-1.0629326105117798,0.1534143090248108,-0.337708055973053,0.7006438374519348,80.30998992919922,24.11,0
-0.2152128964662552,-1.1075598001480105,0.1488324403762817,-0.6609609723091125,0.7003680467605591,80.30998992919922,24.11,0
-0.2444689571857452,-1.097014546394348,0.1346965134143829,-0.8719886541366577,0.7001910209655762,80.30998992919922,24.11,0
-0.2744393646717071,-1.056660532951355,0.131222665309906,-0.8856065273284912,0.6991592049598694,80.3995590209961,24.11,0
-0.293672651052475,-0.935601532459259,0.1177977994084358,-0.7331297993659973,0.6984970569610596,80.45703887939453,24.11,0
-0.3004176914691925,-0.8467172980308533,0.0979869440197944,-0.5779577493667603,0.6980721354484558,80.49392700195312,24.11,0
-0.2935507297515869,-0.8120675683021545,0.0908712521195411,-0.653923511505127,0.6977994441986084,80.5176010131836,24.11,0
-0.2723505795001983,-0.8514069318771362,0.0919025838375091,-0.971367120742798,0.6976244449615479,80.53279113769531,24.11,0
-0.2587455511093139,-0.8934459686279297,0.0813688859343528,-1.282561421394348,0.697512149810791,80.54254150390625,24.11,0
-0.289199024438858,-0.9148264527320862,0.0690111890435218,-1.399868726730347,0.6974400877952576,80.54879760742188,24.11,0
-0.3255356550216675,-0.9173516631126404,0.077874056994915,-1.2996035814285278,0.6973938345909119,80.55281066894531,24.11,0
-0.3320610821247101,-0.9133744239807128,0.0947572812438011,-0.9773138165473938,0.696905255317688,80.55538177490234,24.11,0
-0.3138576149940491,-0.9108220338821412,0.1167875155806541,-0.4444724321365356,0.6965916752815247,80.55703735351562,24.11,0
-0.2909801304340362,-0.9035862684249878,0.1365230232477188,0.2628972232341766,0.6963904500007629,80.55809783935547,24.11,0
-0.2707009017467499,-0.898942768573761,0.1547859162092209,0.9998698234558104,0.6962613463401794,80.55877685546875,24.11,0
-0.2744801938533783,-0.9015606641769408,0.1609082072973251,1.4692338705062866,0.6961784958839417,80.55921173095703,24.11,0
-0.2825033068656921,-0.9088384509086608,0.1592393666505813,1.5411598682403564,0.696125328540802,80.55949401855469,24.11,0
-0.2708587646484375,-0.919106662273407,0.1525706350803375,1.4619276523590088,0.6960911750793457,80.55967712402344,24.11,0
-0.2577881813049316,-0.9256961941719056,0.1482910215854644,1.4827325344085691,0.6960692405700684,80.5597915649414,24.11,0
-0.2494002282619476,-0.9411205649375916,0.1287512928247451,1.5856482982635498,0.6969730257987976,80.55986785888672,24.11,0
-0.2440173327922821,-0.9566168189048768,0.1050162687897682,1.7376755475997925,0.6975530385971069,80.5599136352539,24.11,0
