acc_x,acc_y,acc_z,bvp,eda,hr,temp,label
0.0,0.0,0.0,0.0,0.0,0.0,24.45,0
0.0052083330228924,-0.0572916641831398,0.1536458283662796,0.0,0.0,17.333332061767578,24.45,0
0.0121951224282383,-0.1341463476419448,0.3597561120986938,0.0,0.0,40.58536529541016,24.45,0
0.0232558157294988,-0.1910299062728881,0.5390365719795227,0.0,0.0,60.81063079833984,24.45,0
0.0206487867981195,-0.2378677278757095,0.6698313355445862,0.0,0.0,75.56605529785156,24.45,0
0.0133939981460571,-0.2695789039134979,0.7583848834037781,0.0035134213976562,0.0,85.55609893798828,24.45,0
0.0141868889331817,-0.2903859913349151,0.8164887428283691,0.0022647625301033,0.0,92.11100006103516,24.45,0
0.0202797390520572,-0.2982824146747589,0.8541197776794434,-0.0163977984338998,0.0,96.35629272460938,24.45,0
0.0242045819759368,-0.3089592158794403,0.8783606290817261,-0.0105311395600438,0.2063030004501342,99.09098815917967,24.45,0
0.0267272442579269,-0.3158216476440429,0.8939412832260132,0.1221401914954185,0.3389026522636413,100.84869384765624,24.45,0
0.0227506980299949,-0.3202283978462219,0.9039464592933656,0.4401494264602661,0.4240520894527435,101.97740936279295,24.45,0
0.0201981049031019,-0.3230571448802948,0.904771625995636,0.8950398564338684,0.4787105321884155,102.7019500732422,24.45,0
0.0185598190873861,-0.3248726725578308,0.90530127286911,1.430599808692932,0.5137909650802612,103.1669692993164,24.45,0
0.0231060981750488,-0.3260378241539001,0.9112388491630554,2.0895681381225586,0.5363045930862427,103.46540069580078,24.45,0
0.02602369338274,-0.3323833048343658,0.9206470251083374,2.949535131454468,0.5507528185844421,103.65692138671876,24.45,0
0.0222982931882143,-0.3364554941654205,0.9266847372055054,3.902664184570313,0.5600249171257019,103.7798309326172,24.45,0
0.025505306199193,-0.3390688002109527,0.9249616265296936,4.754362106323242,0.5962741374969482,103.85871124267578,24.45,0
0.0219656135886907,-0.3407458662986755,0.9294536113739014,5.540965557098389,0.619536817073822,103.90933227539062,24.45,0
0.0196940414607524,-0.3418221175670624,0.9267385005950928,6.5652360916137695,0.6344654560089111,103.94181823730467,24.45,0
0.0182362776249647,-0.3425127863883972,0.9249961376190186,7.978477478027344,0.6440458297729492,103.96266174316406,24.45,0
0.0228985417634248,-0.3373582661151886,0.9238779544830322,9.498035430908203,0.6501939296722412,103.97603607177734,24.45,0
0.02589051425457,-0.3396481573581695,0.9175626039505004,10.967595100402832,0.6541394591331482,103.984619140625,24.45,0
0.0278105903416872,-0.3411176800727844,0.9135097861289978,12.870804786682127,0.6566714644432068,103.99012756347656,24.45,0
0.0290427841246128,-0.3364629447460174,0.9165067076683044,15.922870635986328,0.6582963466644287,103.99366760253906,24.45,0
0.0242357607930898,-0.3502691388130188,0.9184299111366272,19.87700462341309,0.6662251949310303,103.99593353271484,24.45,0
0.0099553409963846,-0.3479336202144623,0.925261914730072,23.90847587585449,0.671313464641571,103.99739074707033,24.45,0
0.0287798624485731,-0.3464348018169403,0.9296463131904602,28.247520446777344,0.674578845500946,103.99832916259766,24.45,0
0.0464581288397312,-0.3566685020923614,0.9380577206611632,34.32445526123047,0.6766743659973145,103.9989242553711,24.45,0
0.0689985752105712,-0.3688336610794067,0.9378579258918762,42.7454948425293,0.6780191659927368,103.9993133544922,24.45,0
0.0778659582138061,-0.371042788028717,0.9321319460868835,51.97582626342773,0.6788821816444397,103.9995574951172,24.45,0
0.0779587626457214,-0.3836560249328613,0.9172617793083192,60.87285614013672,0.6794359683990479,103.99971771240234,24.45,0
0.0724205449223518,-0.3861527144908905,0.9077189564704896,70.97827911376953,0.6797913908958435,103.99981689453124,24.45,0
0.1024530827999115,-0.3597660660743713,0.9071927070617676,84.59984588623047,0.768257200717926,103.99988555908205,24.45,0
0.0657484903931617,-0.3540281951427459,0.8900616765022278,100.69283294677734,0.8250294923782349,103.99992370605467,24.45,0
0.064584694802761,-0.3615415096282959,0.8902634978294373,116.22228240966795,0.8614626526832581,103.9999542236328,24.45,0
0.0582400634884834,-0.3663631081581116,0.8847952485084534,131.3793487548828,0.8848433494567871,103.99996948242188,24.45,0
0.0709617659449577,-0.369457334280014,0.8924815654754639,148.58670043945312,0.8998477458953857,103.9999771118164,24.45,0
0.0735280513763427,-0.3714430332183838,0.8918164372444153,171.19393920898438,0.9094766974449158,103.99998474121094,24.45,0
0.0807727202773094,-0.3727173507213592,0.8969873785972595,197.5172882080078,0.91565603017807,103.99999237060548,24.45,0
0.0798241570591926,-0.3735351264476776,0.8947080373764038,216.82476806640625,0.9196215867996216,103.99999237060548,24.45,0
0.0792154222726821,-0.3796577155590057,0.893245279788971,213.856689453125,0.8073979020118713,103.99999237060548,24.45,0
0.0788247734308242,-0.3779890537261963,0.8867087960243225,181.45706176757807,0.7353792190551758,110.33040618896484,24.45,0
0.0841718465089798,-0.3769181966781616,0.8825140595436096,124.30170440673828,0.6891617774963379,114.39289855957033,24.45,0
0.0764077454805374,-0.3818287551403045,0.8798220753669739,49.63305282592773,0.6595020890235901,116.9999771118164,24.45,0
0.0770229622721672,-0.3849800825119018,0.8836923241615295,-37.86170196533203,0.640468180179596,118.6730499267578,24.45,0
0.0830155536532402,-0.3870024085044861,0.8917737603187561,-127.99869537353516,0.6282533407211304,119.7467269897461,24.45,0
0.0812634751200676,-0.3827024400234222,0.891362190246582,-201.8432159423828,0.6204145550727844,120.43575286865234,24.45,0
0.085736870765686,-0.3855407536029815,0.8966958522796631,-244.9691162109375,0.615384042263031,120.8779296875,24.45,0
0.0886076316237449,-0.3873622119426727,0.9057164788246156,-258.2392883300781,0.6176646947860718,121.16169738769533,24.45,0
0.0792543739080429,-0.3885311186313629,0.9059076309204102,-251.0170745849609,0.6191282868385315,121.34380340576172,24.45,0
0.0788497701287269,-0.3892812728881836,0.9116280674934388,-230.48280334472656,0.6200675368309021,121.46066284179688,24.45,0
0.0729923397302627,-0.389762669801712,0.9041035771369934,-202.60220336914065,0.6206703186035156,121.53565979003906,24.45,0
0.0804289281368255,-0.3900716006755829,0.8992747664451599,-173.85482788085938,0.6210570931434631,121.5837860107422,24.45,0
0.0852013006806373,-0.3902698457241058,0.8961759209632874,-146.50013732910156,0.6213053464889526,121.61466979980467,24.45,0
0.0938617140054702,-0.3847993016242981,0.8941872715950012,-117.8000717163086,0.6214646697044373,121.63449096679688,24.45,0
0.0938216894865036,-0.3868863880634308,0.8929110765457153,-86.63163757324219,0.621566891670227,121.64720916748048,24.45,0
0.093796007335186,-0.3882257640361786,0.8920920491218567,-56.465763092041016,0.6234689354896545,121.6553726196289,24.45,0
0.0881817489862442,-0.3946830928325653,0.8915664553642273,-30.203418731689453,0.624689519405365,121.66061401367188,24.45,0
0.0901766195893287,-0.3988270163536072,0.8912291526794434,-6.044886589050293,0.6254728436470032,121.66397857666016,24.45,0
0.0914568081498146,-0.4014863669872284,0.8966104984283447,19.156700134277344,0.6259755492210388,121.6661376953125,24.45,0
0.0922783613204956,-0.4031929671764374,0.9000639319419861,44.87361145019531,0.6262981295585632,121.66751861572266,24.45,0
0.0984033644199371,-0.398690402507782,0.9022801518440248,67.8008041381836,0.6265051364898682,121.66840362548828,24.45,0
0.0967362597584724,-0.395800918340683,0.8981046080589294,86.6806869506836,0.6266379952430725,121.66897583007812,24.45,0
0.1012641862034797,-0.3939466178417206,0.8954249620437622,104.65780639648438,0.6267232894897461,121.66934204101562,24.45,0
0.104169949889183,-0.3871588408946991,0.8881075382232666,125.65606689453124,0.6318276524543762,121.6695785522461,24.47,0
0.1060346961021423,-0.3884006142616272,0.8834116458892822,145.89186096191406,0.6351033449172974,121.66973114013672,24.47,0
0.1072313860058784,-0.3891975283622741,0.8692025542259216,150.82440185546875,0.6372054815292358,121.66983032226562,24.47,0
0.1079993546009063,-0.389708936214447,0.8544862270355225,125.54058837890624,0.6385545134544373,121.66989135742188,24.47,0
0.1028944179415702,-0.3956348896026611,0.8338465690612793,68.9464340209961,0.639420211315155,121.66992950439452,24.47,0
0.0996183604001998,-0.4050356149673462,0.8094056844711304,-3.0978846549987797,0.6399757862091064,121.66995239257812,24.47,0
0.1031137481331825,-0.4166662395000458,0.754536509513855,-67.72830963134766,0.6403323411941528,121.6699676513672,24.47,0
0.0381835997104644,-0.4129345417022705,0.6745424270629883,-109.30470275878906,0.6405611634254456,121.66997528076172,24.47,0
-0.037071481347084,-0.4273330867290497,0.6064134836196899,-126.65342712402344,0.6416261792182922,121.66998291015624,24.47,0
-0.107756957411766,-0.4421710073947906,0.5347033739089966,-128.16763305664062,0.6423096656799316,121.66999053955078,24.47,0
-0.1643143743276596,-0.4516931176185608,0.4830861985683441,-122.33963012695312,0.6427482962608337,121.66999053955078,24.47,0
-0.2230007648468017,-0.5193793773651123,0.461156815290451,-113.97087097167967,0.6430298089981079,121.66999053955078,24.47,0
-0.2326734513044357,-0.6075987219810486,0.4638771414756775,-104.70960235595705,0.6432104706764221,121.66999053955078,24.47,0
-0.227685272693634,-0.6754083633422852,0.4824162125587463,-94.12681579589844,0.6433264017105103,121.66999053955078,24.47,0
-0.2188863754272461,-0.7749024629592896,0.5167046189308167,-81.8683853149414,0.6434007883071899,121.66999053955078,24.47,0
-0.196446418762207,-0.8555453419685364,0.5443066954612732,-69.27262878417969,0.643448531627655,121.66999053955078,24.47,0
-0.1708502024412155,-0.91849285364151,0.5396290421485901,-58.1621208190918,0.6462334394454956,121.66999053955078,24.47,0
-0.1544240266084671,-0.9868777990341188,0.5422249436378479,-48.7965087890625,0.6480206251144409,121.66999053955078,24.47,0
-0.1550782024860382,-1.053154468536377,0.5550864338874817,-40.04194641113281,0.649167537689209,115.6082763671875,24.47,0
-0.1890846490859985,-1.1124802827835083,0.6081223487854004,-31.28901672363281,0.6499035358428955,111.7182159423828,24.47,0
-0.2053102552890777,-1.1393566131591797,0.6533533334732056,-23.214242935180664,0.6503759026527405,109.2218017578125,24.47,0
-0.1709407269954681,-1.1342132091522217,0.6767821907997131,-16.516889572143555,0.6506789922714233,107.61974334716795,24.47,0
-0.1264932453632354,-1.1029236316680908,0.6694263815879822,-10.982924461364746,0.6508735418319702,106.59163665771484,24.47,0
-0.1147627308964729,-1.0716482400894165,0.6479125022888184,-6.1346516609191895,0.6509983539581299,105.93185424804688,24.47,0
-0.1296258568763733,-1.040381908416748,0.6117150783538818,-1.9843624830245967,0.6538330912590027,105.5084457397461,24.47,0
-0.1671530306339264,-1.0091214179992676,0.5884856581687927,1.237936019897461,0.6556522846221924,105.23672485351562,24.47,0
-0.2080291360616684,-1.0114513635635376,0.556784987449646,3.660496473312378,0.656819760799408,105.0623550415039,24.47,0
-0.223065510392189,-1.0073487758636477,0.5028547048568726,5.72388219833374,0.6575689315795898,104.95045471191406,24.47,0
-0.2103238999843597,-0.9991182684898376,0.4514520168304443,7.646334648132324,0.6580497622489929,104.8786392211914,24.47,0
-0.1965492963790893,-0.9770430326461792,0.4016714096069336,9.145164489746094,0.6583582758903503,104.83255004882812,24.47,0
-0.1877095401287078,-0.9628764390945436,0.3585295379161834,9.892072677612305,0.6585562825202942,104.802978515625,24.47,0
-0.1876344680786132,-0.9481873512268066,0.3252457976341247,10.06329345703125,0.6586833596229553,104.78399658203124,24.47,0
-0.2043796181678772,-0.9275652170181274,0.2870928645133972,10.11943531036377,0.6601420640945435,104.77182006835938,24.45,0
-0.2263212352991104,-0.9087333083152772,0.2570107281208038,10.230697631835938,0.661078155040741,104.76399993896484,24.45,0
-0.2571954429149627,-0.9022458791732788,0.2377057522535324,10.273438453674316,0.6616789102554321,104.7589874267578,24.45,0
-0.2826064825057983,-0.8980826139450073,0.2253169417381286,10.200554847717283,0.6620644330978394,104.75576782226562,24.45,0
-0.2933160662651062,-0.901008665561676,0.2173665165901184,10.114374160766602,0.662311851978302,104.75370025634766,24.45,0
-0.2777977585792541,-0.8916908502578735,0.2122643887996673,10.134302139282228,0.6624706387519836,104.75237274169922,24.45,0
-0.2622412145137787,-0.880113422870636,0.2145879119634628,10.276063919067385,0.6625725030899048,104.75152587890624,24.45,0
-0.2298668324947357,-0.8502926230430603,0.2384701073169708,10.435107231140137,0.6626378893852234,104.7509765625,24.45,0
-0.2146885991096496,-0.8255575895309448,0.259394109249115,10.46910285949707,0.660384476184845,104.75062561035156,24.45,0
-0.2329369485378265,-0.8096840381622314,0.2840174734592438,10.261634826660156,0.6589383482933044,104.75040435791016,24.45,0
-0.2446476966142654,-0.8218884468078613,0.3166126608848572,9.763071060180664,0.6580103039741516,104.75025939941406,24.45,0
-0.2465651929378509,-0.8297204971313477,0.3375303745269775,9.066950798034668,0.6574147939682007,104.75016784667967,24.45,0
-0.2477957457304,-0.8459421992301941,0.3565519154071808,8.12224292755127,0.6570326089859009,104.75010681152344,24.45,0
-0.248585432767868,-0.8675479292869568,0.3799543976783752,6.287160873413086,0.6567873358726501,104.75006866455078,24.45,0
-0.2378966659307479,-0.8814132213592529,0.4061683118343353,2.9133918285369877,0.6566299200057983,104.7500457763672,24.45,0
-0.20304836332798,-0.9238978028297424,0.40619757771492,-1.6771026849746704,0.656528890132904,104.75003051757812,24.45,0
-0.1750869452953338,-0.9735530614852904,0.4118141233921051,-6.410723209381104,0.6564640998840332,104.7500228881836,24.45,0
-0.1851317882537841,-0.994223415851593,0.4322118461132049,-10.390706062316896,0.65642249584198,104.75001525878906,24.45,0
-0.2139690965414047,-0.9739018082618712,0.4508996903896332,-13.141871452331545,0.6563957929611206,104.75000762939452,24.45,0
-0.2436707615852356,-0.9216761589050292,0.4516969323158264,-14.49541473388672,0.6563786864280701,104.75000762939452,24.45,0
-0.2347427159547805,-0.9049540758132936,0.4298174381256103,-14.737090110778809,0.6563676595687866,104.75000762939452,24.45,0
-0.2234154343605041,-0.9110161066055298,0.4101786911487579,-14.37629222869873,0.6563606262207031,104.75000762939452,24.45,0
-0.2049506902694702,-0.91490638256073,0.3975756466388702,-13.643192291259766,0.6563560962677002,104.75000762939452,24.45,0
-0.1875032931566238,-0.923000693321228,0.3950855135917663,-12.481293678283691,0.6563531756401062,104.75000762939452,24.45,0
-0.2042954415082931,-0.9058040976524352,0.4102808237075805,-10.954652786254885,0.6586467027664185,104.75000762939452,24.45,0
-0.2206694483757019,-0.9059638381004332,0.4256300628185272,-9.247679710388184,0.6601185202598572,104.75000762939452,24.45,0
-0.225579559803009,-0.906066358089447,0.4298825562000274,-7.40706729888916,0.6610630750656128,104.75000762939452,24.45,0
-0.206339493393898,-0.8949366211891174,0.4829915463924408,-5.405458450317383,0.6616691946983337,100.75543212890624,24.45,0
-0.2107856571674347,-0.898989737033844,0.5338671207427979,-3.386512756347656,0.6620581746101379,98.1919403076172,24.45,0
-0.2248344868421554,-0.8847974538803101,0.5777117013931274,-1.6502128839492798,0.6623077988624573,96.54684448242188,24.45,0
-0.1834702491760254,-0.8980807662010193,0.6786196827888489,-0.4499737322330475,0.6624680161476135,95.4911117553711,24.45,0
-0.1681206077337265,-0.9066052436828612,0.743376612663269,0.2199584692716598,0.6625708341598511,94.81360626220705,24.45,0
-0.1582701057195663,-0.878489077091217,0.7681406140327454,0.5997263789176941,0.6617186069488525,94.37882232666016,24.45,0
-0.1407530605792999,-0.8436524271965027,0.7784349322319031,0.950916826725006,0.6611716747283936,94.09980010986328,24.45,0
-0.1854893714189529,-0.7765141129493713,0.7346612811088562,1.366167068481445,0.660820722579956,93.92074584960938,24.45,0
-0.1190363988280296,-0.7166352868080139,0.7289609313011169,1.8225274085998533,0.6605954766273499,93.80583190917967,24.45,0
-0.1155751273036003,-0.6670129299163818,0.7085094451904297,2.237200736999512,0.6604509353637695,93.73209381103516,24.45,0
-0.1301472038030624,-0.6239725947380066,0.6953848600387573,2.4889838695526123,0.660358190536499,93.6847686767578,24.45,0
-0.1115098595619201,-0.5907540321350098,0.6869622468948364,2.4642698764801025,0.6602986454963684,93.6543960571289,24.45,0
-0.1219405755400657,-0.5526429414749146,0.6703615784645081,2.143890857696533,0.6602604389190674,93.6349105834961,24.45,0
-0.1398299634456634,-0.5225876569747925,0.6820993423461914,1.7197530269622805,0.6588587760925293,93.62240600585938,24.45,0
-0.1401147842407226,-0.4921043515205383,0.6896319389343262,1.4726437330245972,0.6579592823982239,93.6143798828125,24.45,0
-0.1458953469991684,-0.4501508176326751,0.6944659352302551,1.4967745542526243,0.6573820114135742,93.6092300415039,24.45,0
-0.1440072059631347,-0.4176296889781952,0.7143614292144775,1.6304854154586792,0.6570115685462952,93.60592651367188,24.45,0
-0.11480662971735,-0.402357280254364,0.7551180720329285,1.7700319290161133,0.6567738652229309,93.6038055419922,24.45,0
-0.118458479642868,-0.3813607692718506,0.781273365020752,2.0458788871765137,0.6566212773323059,93.6024398803711,24.45,0
-0.1096064820885658,-0.3678864240646362,0.8092538714408875,2.5202553272247314,0.6565233469009399,93.6015625,24.45,0
-0.1039257794618606,-0.3536415994167328,0.8384056687355042,2.921412467956543,0.6564605236053467,93.60100555419922,24.45,0
-0.1002802327275276,-0.3445000946521759,0.8515158891677856,2.9603147506713867,0.6573384404182434,93.60064697265624,24.45,0
-0.1035384982824325,-0.344231367111206,0.871124804019928,2.745247364044189,0.6579018235206604,93.60041809082033,24.45,0
-0.1056294664740562,-0.3440589010715484,0.8893064260482788,2.5606560707092285,0.6582633852958679,93.60026550292967,24.45,0
-0.1069713309407234,-0.3439482450485229,0.9009743928909302,2.4672739505767822,0.6584953665733337,93.60016632080078,24.45,0
-0.1190280094742775,-0.343877226114273,0.902864396572113,2.457502841949463,0.6586442589759827,93.60010528564452,24.45,0
-0.1267652958631515,-0.3438316583633423,0.9096750617027284,2.580204963684082,0.6587398052215576,93.60006713867188,24.45,0
-0.1261328607797622,-0.3438023924827575,0.9084479808807372,2.6840262413024902,0.6588011384010315,93.60004425048828,24.45,0
-0.1257269978523254,-0.3381858468055725,0.896465003490448,2.542863368988037,0.6588404774665833,93.60002899169922,24.45,0
-0.1254665404558181,-0.3345814645290375,0.8887749910354614,2.301805019378662,0.6584064364433289,93.60002136230467,24.45,0
-0.1308971792459488,-0.3266706168651581,0.8782421946525574,2.218759059906006,0.6581279039382935,93.60001373291016,24.45,0
-0.1287844628095626,-0.3271916508674621,0.8658850789070129,2.1117262840271,0.6579491496086121,93.60000610351562,24.45,0
-0.127428650856018,-0.3387215733528137,0.8467594981193542,1.5880517959594729,0.6578344702720642,93.60000610351562,24.45,0
-0.1265585720539093,-0.3573163747787475,0.8064969182014465,0.6214542984962463,0.6577608585357666,93.60000610351562,24.45,0
-0.1371957510709762,-0.3692494332790375,0.7582675814628601,-0.3893530368804931,0.6577136516571045,93.60000610351562,24.45,0
-0.1832064986228943,-0.3713096082210541,0.7049257159233093,-1.0165356397628784,0.6576833128929138,93.60000610351562,24.45,0
-0.2295268774032592,-0.383827269077301,0.6706939339637756,-1.1789926290512085,0.657663881778717,93.60000610351562,24.45,0
-0.2536548376083374,-0.4142514765262604,0.6655192971229553,-1.2080141305923462,0.6571924686431885,93.60000610351562,24.47,0
-0.2859321236610412,-0.4505693018436432,0.6621984839439392,-1.4272626638412476,0.6568899154663086,93.60000610351562,24.47,0
-0.3066458106040954,-0.490669310092926,0.6768606901168823,-1.765005350112915,0.6566957831382751,93.60000610351562,24.47,0
-0.3031453490257263,-0.5499898195266724,0.6974655985832214,-1.953088641166687,0.6565712094306946,93.60000610351562,24.47,0
-0.2953011691570282,-0.5992538928985596,0.7050908803939819,-1.8695828914642332,0.656491219997406,93.86153411865234,24.47,0
-0.2846694588661194,-0.6476620435714722,0.7211799025535583,-1.529387593269348,0.6564399003982544,94.02936553955078,24.47,0
-0.2610533237457275,-0.7067164778709412,0.7315049171447754,-1.0208812952041626,0.6564069986343384,94.13706970214844,24.47,0
-0.2514955997467041,-0.7558097839355469,0.7325331568717957,-0.4903443455696106,0.6563858389854431,94.20619201660156,24.47,0
-0.2565575540065765,-0.8041083812713623,0.710801899433136,0.1080691516399383,0.6605040431022644,94.25054931640624,24.47,0
-0.2598060369491577,-0.8407014012336731,0.6912582516670227,1.0438131093978882,0.6631469130516052,94.27901458740234,24.47,0
-0.2618907392024994,-0.8641846776008606,0.6619229316711426,2.367999792098999,0.664842963218689,94.29727935791016,24.47,0
-0.2464352399110794,-0.8736571073532104,0.6374994516372681,3.7229299545288086,0.6659313440322876,94.30900573730467,24.47,0
-0.2309190183877945,-0.8797360062599182,0.6162281036376953,4.821731090545654,0.6666298508644104,94.3165283203125,24.47,0
-0.2321571558713913,-0.8724415302276611,0.591381847858429,5.759745597839356,0.6670780777931213,94.32135772705078,24.47,0
-0.2385494858026504,-0.8677603602409363,0.5642414093017578,6.565916538238525,0.6673657298088074,94.32445526123048,24.47,0
-0.2538472712039947,-0.859158456325531,0.5356286764144897,6.97579288482666,0.6675503253936768,94.3264389038086,24.47,0
-0.269262284040451,-0.8592360615730286,0.511668860912323,6.837579727172852,0.6695048809051514,94.32771301269533,24.47,0
-0.2735569775104522,-0.859285831451416,0.4906950891017914,6.437198162078857,0.6707592010498047,94.32852935791016,24.47,0
-0.2707152962684631,-0.8593177795410156,0.4716375470161438,6.130100250244141,0.6715641617774963,94.3290557861328,24.47,0
-0.2688916623592376,-0.8593382835388184,0.4538097381591797,5.943770408630371,0.6720806956291199,94.3293914794922,24.47,0
-0.2621235847473144,-0.8649492263793945,0.4423688650131225,5.763290882110596,0.6724122166633606,94.3296127319336,24.47,0
-0.2521824538707733,-0.8629522323608398,0.4350267946720123,5.686877727508545,0.672624945640564,94.32975006103516,24.47,0
-0.2514005601406097,-0.8616706728935242,0.4303150773048401,5.795473575592041,0.6727614402770996,94.32984161376952,24.47,0
-0.2564965784549713,-0.8608482480049133,0.4216935932636261,5.900990009307861,0.6728490591049194,94.32990264892578,24.47,0
-0.2597669064998626,-0.8603204488754272,0.4161608219146728,5.821818828582764,0.6719870567321777,94.32994079589844,24.47,0
-0.2562678456306457,-0.8599817156791687,0.418207973241806,5.69577693939209,0.6714338660240173,94.32996368408205,24.47,0
-0.2484245747327804,-0.8597643375396729,0.4195217192173004,5.6399688720703125,0.6710788607597351,94.3299789428711,24.47,0
-0.2433912009000778,-0.8596248626708984,0.4203647971153259,5.586241245269775,0.6708510518074036,94.32998657226562,24.47,0
-0.2401610761880874,-0.8651331067085266,0.4209058284759521,5.523101329803467,0.6707048416137695,94.32999420166016,24.47,0
-0.2380881756544113,-0.8686680197715759,0.4212530553340912,5.4933295249938965,0.6706110239028931,94.32999420166016,24.47,0
-0.2367579042911529,-0.8653387427330017,0.4214758574962616,5.424067974090576,0.6705508232116699,94.32999420166016,24.47,0
-0.2359042167663574,-0.8632022142410278,0.4160210788249969,5.376037120819092,0.6705121994018555,94.32999420166016,24.47,0
-0.2353563606739044,-0.8618310689926147,0.4125205278396606,5.595993995666504,0.6704874038696289,94.32999420166016,24.41,0
-0.2350047826766967,-0.8609511852264404,0.4102740585803985,6.055998802185059,0.6704714894294739,94.32999420166016,24.41,0
-0.2347791641950607,-0.8603864908218384,0.4032346308231354,6.354785919189453,0.6704612970352173,94.32999420166016,24.41,0
-0.2346343696117401,-0.8656218647956848,0.4043149054050445,6.059300422668457,0.670454740524292,94.32999420166016,24.41,0
-0.2345414459705352,-0.868981659412384,0.3994103968143463,4.959700107574463,0.6704505085945129,94.32999420166016,24.41,0
-0.2400795966386795,-0.8655400276184082,0.3962629735469818,3.150606870651245,0.670447826385498,94.32999420166016,24.41,0
-0.2380358874797821,-0.8633313775062561,0.3998408913612366,1.0366697311401367,0.6704460978507996,94.32999420166016,24.41,0
-0.2367243468761444,-0.8619139790534973,0.4021370112895965,-0.8931453824043274,0.6704449653625488,94.32999420166016,24.41,0
-0.2358826696872711,-0.8666021227836609,0.4036105275154114,-2.278475284576416,0.6718217730522156,94.32999420166016,24.41,0
-0.2353425323963165,-0.8696107268333435,0.4045561254024505,-3.067188262939453,0.6727052927017212,94.32999420166016,24.41,0
-0.2349959015846252,-0.8715415000915527,0.4051629602909088,-3.53393030166626,0.6732723116874695,94.32999420166016,24.41,0
-0.2347734570503235,-0.8727805614471436,0.4055523872375488,-3.8728668689727774,0.6736361980438232,94.32999420166016,24.41,0
-0.2346307039260864,-0.8679779171943665,0.405802309513092,-3.925578355789185,0.6738697290420532,94.32999420166016,24.41,0
-0.2345390915870666,-0.8648958802223206,0.4003649353981018,-3.601148128509521,0.6740195751190186,94.5198745727539,24.41,0
-0.2400780767202377,-0.8685157299041748,0.4024733006954193,-3.1672451496124268,0.6741157174110413,94.6417236328125,24.41,0
-0.2380349040031433,-0.8652409911155701,0.4038263261318207,-2.9067041873931885,0.6741774082183838,94.7199249267578,24.41,0
-0.2367237210273742,-0.8687372207641602,0.4046946167945862,-2.77532958984375,0.6728395223617554,94.77011108398438,24.41,0
-0.2358822673559188,-0.8709809184074402,0.4052518308162689,-2.5369701385498047,0.6719809770584106,94.80231475830078,24.41,0
-0.240940049290657,-0.8724207878112793,0.4056094288825989,-2.090233564376831,0.6714299917221069,94.82298278808594,24.41,0
-0.2385880649089813,-0.8677470088005066,0.4058389067649841,-1.5527634620666504,0.6710764169692993,94.83624267578124,24.41,0
-0.2370786964893341,-0.8647477030754089,0.4059861898422241,-1.0967862606048584,0.6708495020866394,94.84475708007812,24.41,0
-0.2361100763082504,-0.8628228902816772,0.4060806930065155,-0.7540103197097778,0.6707038879394531,94.8502197265625,24.41,0
-0.235488474369049,-0.861587643623352,0.4005435705184936,-0.462384968996048,0.6706104278564453,94.85372161865234,24.41,0
-0.2350895702838897,-0.8663927316665649,0.4025879502296448,-0.2394108474254608,0.6705504655838013,94.85597229003906,24.41,0
-0.2348335683345794,-0.8638785481452942,0.4038999080657959,-0.1500575244426727,0.6705119609832764,94.85741424560548,24.41,0
-0.2346692830324173,-0.8622651100158691,0.4047418534755707,-0.1858626753091812,0.6704872250556946,94.85833740234376,24.41,0
-0.2345638573169708,-0.8612297177314758,0.4052821695804596,-0.2984047532081604,0.6704713702201843,94.8589324951172,24.41,0
-0.2344961911439895,-0.8661630153656006,0.405628889799118,-0.4888527691364288,0.6704611778259277,94.85931396484376,24.41,0
-0.2400505542755127,-0.8693289160728455,0.4058513939380646,-0.6648100018501282,0.6704546809196472,94.85955810546876,24.41,0
-0.2436150163412094,-0.8657628297805786,0.4059942066669464,-0.6702519655227661,0.6704505085945129,94.8597183227539,24.41,0
-0.2403047084808349,-0.8634743690490723,0.4060858488082886,-0.5698495507240295,0.670447826385498,94.8598175048828,24.41,0
-0.2437781244516372,-0.8620057106018066,0.4061446487903595,-0.5233299732208252,0.6704460978507996,94.8598861694336,24.41,0
-0.2460071593523025,-0.866661012172699,0.4061823785305023,-0.4791460931301117,0.6695271134376526,94.85992431640624,24.43,0
-0.2474376261234283,-0.8640507459640503,0.4062066078186035,-0.354061871767044,0.6689373850822449,94.85995483398438,24.43,0
-0.2427578419446945,-0.8679733872413635,0.4062221646308899,-0.2200513780117035,0.6685589551925659,94.85997009277344,24.43,0
-0.2453524023294448,-0.8648929595947266,0.4006343483924866,-0.0695647895336151,0.6683160662651062,94.85997772216795,24.43,0
-0.2470174431800842,-0.8685138821601868,0.3970484137535095,0.1667292565107345,0.6681602001190186,94.8599853515625,24.43,0
-0.2480859607458114,-0.8708375692367554,0.3947471678256988,0.404350996017456,0.6680601835250854,94.85999298095705,24.43,0
-0.2487716823816299,-0.8667309880256653,0.3932703733444214,0.5210171937942505,0.6679959893226624,94.85999298095705,24.43,0
-0.2492117434740066,-0.8640956282615662,0.3923226594924927,0.4812444448471069,0.6679548025131226,94.85999298095705,24.43,0
-0.2438963651657104,-0.8624044060707092,0.3917144536972046,0.2909221053123474,0.666550874710083,94.85999298095705,24.43,0
-0.23488749563694,-0.8613191246986389,0.3913241624832153,0.0756372138857841,0.6656498908996582,94.85999298095705,24.43,0
-0.2291061133146286,-0.8606226444244385,0.3910736739635467,0.0413744561374187,0.6650716662406921,94.85999298095705,24.43,0
-0.2309937328100204,-0.8657734394073486,0.3853151500225067,0.2630017399787903,0.6647006273269653,94.85999298095705,24.43,0
-0.2322050929069519,-0.8690789341926575,0.3760218918323517,0.6094362139701843,0.6644625067710876,94.85999298095705,24.43,0
-0.2329824715852737,-0.8767979741096497,0.3756558001041412,0.8711662292480469,0.6643096804618835,94.85999298095705,24.43,0
-0.2222858071327209,-0.8817515969276428,0.3698230683803558,0.9065741896629332,0.664211630821228,94.85999298095705,24.43,0
-0.2154213041067123,-0.8849305510520935,0.3660799562931061,0.7609159350395203,0.6641486883163452,94.85999298095705,24.43,0
-0.2110160589218139,-0.88137286901474,0.3636778593063354,0.6137021780014038,0.6650265455245972,94.85999298095705,24.43,0
-0.2193845808506012,-0.867894172668457,0.3621363341808319,0.5335592031478882,0.6655898690223694,94.85999298095705,24.43,0
-0.2303527891635894,-0.8648421168327332,0.3555493056774139,0.4140591025352478,0.6659513711929321,94.85999298095705,24.43,0
-0.2485871016979217,-0.8740790486335754,0.3625176548957824,0.1510768830776214,0.666183352470398,94.85999298095705,24.43,0
-0.2546910643577575,-0.8856045603752136,0.3725873231887817,-0.1430801153182983,0.6663322448730469,94.85999298095705,24.43,0
-0.241814911365509,-0.9041965007781982,0.3790494501590729,-0.1992978602647781,0.6664277911186218,94.85999298095705,24.43,0
-0.2167584151029586,-0.9217255115509032,0.3775987029075622,0.0261528547853231,0.6664891242980957,94.82058715820312,24.43,0
-0.2006785869598388,-0.932974636554718,0.376667708158493,0.2460682392120361,0.6665284633636475,94.79529571533205,24.43,0
-0.1959572583436966,-0.9345958828926086,0.3760702311992645,0.2510593831539154,0.6656355261802673,94.77906799316406,24.43,0
-0.1929273754358291,-0.9300385117530824,0.3644912540912628,0.0966290980577468,0.6650624871253967,94.7686538696289,24.43,0
-0.1965807527303695,-0.9159183502197266,0.3458649814128876,-0.027553392574191,0.6646947264671326,94.76197052001952,24.43,0
-0.1989252716302871,-0.9012590646743774,0.3339117169380188,0.0217261500656604,0.6644587516784668,94.75768280029295,24.43,0
-0.2060276269912719,-0.891851544380188,0.3262408077716827,0.239644855260849,0.6643072962760925,94.7549285888672,24.43,0
-0.2273788303136825,-0.8746188282966614,0.3101225197315216,0.5013000965118408,0.6642100811004639,94.75316619873048,24.43,0
-0.2410808056592941,-0.869157612323761,0.3053764998912811,0.7014585137367249,0.6641477346420288,94.75202941894533,24.43,0
-0.2554717361927032,-0.860055148601532,0.3023307621479034,0.7905004024505615,0.6641076803207397,94.75130462646484,24.43,0
-0.2535114586353302,-0.8486159443855286,0.3003762066364288,0.7115044593811035,0.6631641387939453,94.75083923339844,24.45,0
-0.2634490132331848,-0.8468726873397827,0.3047196567058563,0.5175064206123352,0.6625586152076721,94.75054168701172,24.45,0
-0.2698263525962829,-0.856949508190155,0.3131048083305359,0.3536012768745422,0.6621700525283813,94.75035095214844,24.45,0
-0.2739189565181732,-0.8690140247344971,0.3128881454467773,0.2878247201442718,0.6619206666946411,94.75022888183594,24.45,0
-0.2709475755691528,-0.8935496211051941,0.3127490878105163,0.3029343485832214,0.6617606282234192,94.7501449584961,24.45,0
-0.2690407335758209,-0.8980996012687683,0.3182576298713684,0.3520391583442688,0.6616579294204712,94.75009155273438,24.45,0
-0.2678170204162597,-0.8954217433929443,0.3273904621601105,0.3978821039199829,0.6615920066833496,94.75006103515624,24.45,0
-0.2670316994190216,-0.893703281879425,0.3388491570949554,0.4201363027095794,0.6615497469902039,94.75003814697266,24.45,0
-0.2665277421474457,-0.8981982469558716,0.3518004715442657,0.3985920250415802,0.6619815230369568,94.7500228881836,24.45,0
-0.2606065571308136,-0.9066806435585022,0.3657096624374389,0.3023669123649597,0.6622586250305176,94.75001525878906,24.45,0
-0.2568066716194153,-0.923319697380066,0.3690379858016968,0.204789400100708,0.6624364852905273,94.75000762939452,24.45,0
-0.2543681263923645,-0.9339976906776428,0.3711739182472229,0.2496470510959625,0.6625506281852722,94.75000762939452,24.45,0
-0.2472054362297058,-0.9296546578407288,0.3725446462631225,0.4324848651885986,0.6626238226890564,94.75000762939452,24.45,0
-0.248206615447998,-0.9212697744369508,0.3678265213966369,0.4960810244083404,0.6626708507537842,94.75000762939452,24.45,0
-0.2544468939304352,-0.9046933054924012,0.3592009246349334,0.2538698613643646,0.6627010107040405,94.75000762939452,24.45,0
-0.2640493214130401,-0.8940554261207581,0.3480677306652069,-0.077113501727581,0.6627203822135925,94.75000762939452,24.45,0
-0.2702116072177887,-0.8872286677360535,0.3409231007099151,-0.1820423007011413,0.660896360874176,94.75000762939452,24.45,0
-0.2685684263706207,-0.8940432071685791,0.336338073015213,-0.1204068437218666,0.6597257852554321,94.75000762939452,24.45,0
-0.2675139307975769,-0.8984163999557495,0.3333956897258758,-0.0629398822784423,0.6589745879173279,94.75000762939452,24.45,0
-0.2556416690349579,-0.901222825050354,0.3371051847934723,0.0133474431931972,0.6584925055503845,94.75000762939452,24.45,0
-0.2480227202177047,-0.8974260687828064,0.3394857347011566,0.0408088006079196,0.6581831574440002,94.75000762939452,24.45,0
-0.2487310916185379,-0.894989550113678,0.3466112017631531,-0.1278620064258575,0.6579846143722534,94.75000762939452,24.45,0
-0.237990140914917,-0.9214147925376892,0.3511839210987091,-0.3292521834373474,0.6578572392463684,94.75000762939452,24.45,0
-0.2254994362592697,-0.9551663398742676,0.3541184365749359,-0.3259375095367431,0.6577754616737366,94.75000762939452,24.45,0
-0.21188585460186,-0.9712283611297609,0.3560016453266144,-0.2879846096038818,0.6572640538215637,94.75000762939452,24.45,0
-0.2031494379043579,-0.9591449499130248,0.3572101891040802,-0.4570876955986023,0.6569358706474304,94.75000762939452,24.45,0
-0.2311295568943023,-0.951390504837036,0.3467901945114136,-0.5906863212585449,0.656725287437439,94.75000762939452,24.45,0
-0.2099011689424514,-0.9520118832588196,0.3568965792655945,-0.2859215140342712,0.6565901041030884,94.75000762939452,24.45,0
-0.1738869100809097,-0.918824017047882,0.3577844798564911,0.3073248565196991,0.6565033793449402,94.75000762939452,24.45,0
-0.133981704711914,-0.9199170470237732,0.352756530046463,0.6772885322570801,0.65644770860672,94.75000762939452,24.45,0
-0.1083728447556495,-0.9374118447303772,0.3551276326179504,0.7355811595916748,0.6564120054244995,94.75000762939452,24.45,0
-0.1087318733334541,-0.9150523543357848,0.3622470498085022,0.8159809112548828,0.656389057636261,94.72134399414062,24.45,0
-0.1033645048737526,-0.8783121705055237,0.3836092054843902,0.9535586833953856,0.6563743352890015,94.70294952392578,24.43,0
-0.0887244865298271,-0.8491367101669312,0.3973182141780853,0.8770496845245361,0.656364917755127,94.69114685058594,24.43,0
-0.0905249118804931,-0.8136202096939087,0.3949203193187713,0.5807529091835022,0.6563588380813599,94.6835708618164,24.43,0
-0.1028758734464645,-0.7908278107643127,0.3877837061882019,0.2508862316608429,0.6563549637794495,94.6787109375,24.43,0
-0.1331931054592132,-0.7538098692893982,0.3832038342952728,-0.0861933827400207,0.6563524603843689,94.67559051513672,24.43,0
-0.169442281126976,-0.7244560718536377,0.3746669888496399,-0.3562502861022949,0.65635085105896,94.673583984375,24.43,0
-0.198302686214447,-0.7168140411376953,0.369188517332077,-0.3575936555862427,0.6563498377799988,94.67230224609376,24.43,0
-0.2112258672714233,-0.7343009114265442,0.3768683075904846,-0.0933451503515243,0.6563491821289062,94.67147827148438,24.43,0
-0.2195192128419876,-0.7511208057403564,0.387394517660141,0.2410328090190887,0.654512345790863,94.6709442138672,24.43,0
-0.2248414158821106,-0.7787081599235535,0.3885518610477447,0.5630946159362793,0.6533335447311401,94.6706085205078,24.43,0
-0.2394524365663528,-0.829998791217804,0.3892945647239685,0.8306791186332703,0.6525770425796509,94.6703872680664,24.43,0
-0.2600245177745819,-0.8853052258491516,0.3953689634799957,0.8519312739372253,0.6520915627479553,94.67024993896484,24.43,0
-0.2788242697715759,-0.9767754673957824,0.4048649370670318,0.5323901176452637,0.6517800092697144,94.67015838623048,24.43,0
-0.2908888459205627,-1.0522691011428833,0.3885678350925445,0.1446156948804855,0.6515800952911377,94.67009735107422,24.43,0
-0.3210223019123077,-1.0839232206344604,0.383707046508789,0.0462325401604175,0.651451826095581,94.67005920410156,24.43,0
-0.3347624540328979,-1.115432620048523,0.3973810076713562,0.2302936315536499,0.6513695120811462,94.67003631591795,24.43,0
-0.3099934458732605,-1.113262414932251,0.4173517227172851,0.4164823591709137,0.6499395370483398,94.6700210571289,24.43,0
-0.2996958792209625,-1.0279030799865725,0.3909833431243896,0.4607335031032562,0.6490218639373779,94.67001342773438,24.43,0
-0.3154785931110382,-0.9283422231674194,0.3516705334186554,0.4210623800754547,0.6484329700469971,94.67000579833984,24.43,0
-0.2976181805133819,-0.8980364203453064,0.3208440840244293,0.3418651223182678,0.6480550169944763,94.67000579833984,24.43,0
-0.2973519265651703,-0.9289678931236268,0.3122569918632507,0.2337196618318557,0.6478124856948853,94.67000579833984,24.43,0
-0.2971810698509216,-0.965611219406128,0.3067462742328644,0.1284923702478408,0.6476568579673767,94.67000579833984,24.43,0
-0.2970714271068573,-0.9443446397781372,0.2808187305927276,0.0179726481437683,0.6475569605827332,94.67000579833984,24.43,0
-0.2914032936096191,-0.9195014238357544,0.2473865896463394,-0.0995260328054428,0.6474928855895996,94.67000579833984,24.43,0
-0.2765702605247497,-0.8811673521995544,0.2259317636489868,-0.1713473498821258,0.6525017023086548,94.67000579833984,24.43,0
-0.2334646135568618,-0.8621645569801331,0.2793365716934204,-0.1386214643716812,0.6557161211967468,94.67000579833984,24.43,0
-0.2002041190862655,-0.8667629361152649,0.3359998166561126,-0.013725190423429,0.6577789187431335,94.67000579833984,24.43,0
-0.1956527680158615,-0.8753116726875305,0.3555696904659271,0.1201646924018859,0.6591026782989502,94.67000579833984,24.43,0
-0.198329746723175,-0.8752000331878662,0.3625307381153106,0.1845920532941818,0.6599522233009338,94.67000579833984,24.43,0
-0.1888521313667297,-0.858335018157959,0.3558023869991302,0.1542863100767135,0.6604974269866943,94.67000579833984,24.43,0
-0.1939654946327209,-0.8363165259361267,0.3402889668941498,0.1133423745632171,0.6608473062515259,94.67000579833984,24.43,0
-0.2084425091743469,-0.8277840614318848,0.335931122303009,0.1837964504957199,0.6610718369483948,94.67000579833984,24.43,0
-0.2177330255508422,-0.86709064245224,0.3499278426170349,0.3185742199420929,0.6584612727165222,94.67000579833984,24.41,0
-0.2292929142713546,-0.9147064089775084,0.3589101433753967,0.3405804634094238,0.6567859649658203,94.67000579833984,24.41,0
-0.2479069381952285,-0.9788501262664796,0.3926633298397064,0.1719914525747299,0.6557108163833618,94.67000579833984,24.41,0
-0.2486567944288253,-1.0815893411636353,0.425519734621048,-0.0974151715636253,0.6550208926200867,94.67000579833984,24.41,0
-0.2659313380718231,-1.1587170362472534,0.4242139756679535,-0.3132957518100738,0.6545781493186951,94.67000579833984,24.41,0
-0.2994082272052765,-1.0458776950836182,0.4345715641975403,-0.3264453113079071,0.6542940139770508,94.67000579833984,24.41,0
-0.3040984570980072,-0.9454750418663024,0.4188273847103119,-0.1485900282859802,0.6541116237640381,94.67000579833984,24.41,0
-0.2567284107208252,-0.9090312719345092,0.3415503799915313,0.0300336182117462,0.653994619846344,94.67000579833984,24.41,0
-0.2543179094791412,-0.91363263130188,0.2807628810405731,0.0837602093815803,0.6543788313865662,94.64492797851562,24.41,0
-0.2695643007755279,-0.9109877347946168,0.252948522567749,0.017926724627614,0.6546253561973572,94.62882995605467,24.41,0
-0.3073374330997467,-0.8533126711845398,0.2350988686084747,-0.1461289823055267,0.6547836065292358,94.61849975585938,24.41,0
-0.3427736163139343,-0.7995067834854126,0.2236439883708953,-0.272905945777893,0.6548851728439331,94.61186981201172,24.41,0
-0.3711122870445251,-0.7649772763252258,0.2274884581565857,-0.2288739681243896,0.6549503207206726,94.6076202392578,24.41,0
-0.3613095283508301,-0.7652093172073364,0.2467489391565323,-0.2113645076751709,0.6549921035766602,94.60488891601562,24.41,0
-0.3438231348991394,-0.7653582096099854,0.2647069692611694,-0.425830215215683,0.6550189256668091,94.60313415527344,24.41,0
-0.360590249300003,-0.7598559856414795,0.2930247187614441,-0.6064528822898865,0.6550361514091492,94.60201263427734,24.41,0
-0.365752637386322,-0.7563250064849854,0.3335885405540466,-0.4465077519416809,0.6587197184562683,94.60128784179688,24.41,0
-0.3522722423076629,-0.7540590167045593,0.3764133751392364,-0.1253270804882049,0.6610835790634155,94.60082244873048,24.41,0
-0.3436213135719299,-0.808582603931427,0.4262869954109192,0.0592927485704422,0.662600576877594,94.60052490234376,24.41,0
-0.3324718773365021,-0.8827571272850037,0.4582930207252502,0.1097021847963333,0.6635740995407104,94.60033416748048,24.41,0
-0.3365123569965362,-0.935955822467804,0.4732348620891571,0.1599649339914322,0.6641988754272461,94.60021209716795,24.41,0
-0.3223119676113128,-0.9365090131759644,0.4828236699104309,0.2746199071407318,0.6645998358726501,94.60013580322266,24.41,0
-0.3020034432411194,-0.9648529291152954,0.5057705640792847,0.430598109960556,0.6648571491241455,94.60009002685548,24.41,0
-0.35054612159729,-1.0558134317398071,0.5316920876502991,0.5020353198051453,0.6650222539901733,94.60005950927734,24.41,0
-0.3928935527801513,-1.108588933944702,0.52593594789505,0.4224894940853119,0.6642100214958191,94.60003662109376,24.41,0
-0.4032763838768005,-1.0640883445739746,0.4438731372356415,0.357111245393753,0.6636887788772583,94.60002136230467,24.41,0
-0.3931461572647095,-1.041128158569336,0.36881884932518,0.587431013584137,0.6633542776107788,94.60001373291016,24.41,0
-0.3474607467651367,-1.0431870222091677,0.3206533193588257,1.12932026386261,0.6631395816802979,94.60000610351562,24.41,0
-0.3181424736976623,-1.0724971294403076,0.2897434532642364,1.5594727993011477,0.6630018353462219,94.60000610351562,24.41,0
-0.2937299311161041,-1.0913066864013672,0.2643095254898071,1.4342715740203855,0.6629133820533752,94.60000610351562,24.41,0
-0.2668678164482116,-1.080986499786377,0.2423897087574005,0.8416162729263306,0.6628566384315491,94.60000610351562,24.41,0
-0.244031473994255,-1.0743635892868042,0.228322833776474,0.2069213688373565,0.6628202199935913,94.60000610351562,24.41,0
-0.2405719757080078,-1.0701134204864502,0.2136977463960647,-0.3007014393806457,0.6646332740783691,94.60000610351562,24.41,0
-0.2551451921463012,-1.0673859119415283,0.1875188797712326,-0.6515425443649292,0.6657968163490295,94.60000610351562,24.41,0
-0.2756929993629455,-1.0656354427337646,0.1651210188865661,-0.6438247561454773,0.6665434837341309,94.60000610351562,24.41,0
-0.2944771647453308,-1.053316593170166,0.1395518183708191,-0.2806143760681152,0.6670226454734802,94.60000610351562,24.41,0
-0.3121295273303985,-1.0454111099243164,0.1231429725885391,-0.0367791391909122,0.6673301458358765,94.60000610351562,24.41,0
-0.323457807302475,-1.0459355115890503,0.11821049451828,-0.181236058473587,0.6675274968147278,94.60000610351562,24.41,0
-0.313934326171875,-1.0574675798416138,0.1150451153516769,-0.3742523491382599,0.6676541566848755,94.60000610351562,24.41,0
-0.2966271340847015,-1.0592705011367798,0.1130137518048286,-0.3583986163139343,0.6677354574203491,94.60000610351562,24.41,0
-0.2743248343467712,-1.0212430953979492,0.1173079162836074,-0.3231465518474579,0.6696236729621887,94.60000610351562,24.41,0
-0.2768058180809021,-0.9800459742546082,0.1312592178583145,-0.3041064143180847,0.6708354353904724,94.60000610351562,24.41,0
-0.2672024369239807,-0.9424124360084534,0.1682012230157852,0.0305442698299884,0.6716130375862122,94.60000610351562,24.41,0
-0.2498439848423004,-0.9182614088058472,0.208701804280281,0.6787954568862915,0.6721120476722717,94.60000610351562,24.41,0
-0.2275087833404541,-0.8299916386604309,0.2682794034481048,1.087640643119812,0.6724323034286499,94.60000610351562,24.41,0
-0.1683931350708007,-0.71736741065979,0.3289039731025696,0.877113938331604,0.6726378202438354,94.60000610351562,24.41,0
-0.1304561197757721,-0.6898738741874695,0.3734070956707001,0.2655274569988251,0.6727697253227234,94.60000610351562,24.41,0
-0.1396969705820083,-0.7450011372566223,0.4299555122852325,-0.3132475018501282,0.6728543639183044,94.60000610351562,24.41,0
-0.1512249857187271,-0.791574239730835,0.4718427956104278,-0.5807772278785706,0.6724497675895691,94.60000610351562,24.41,0
-0.1530252397060394,-0.8326576948165894,0.4987236559391022,-0.5410904288291931,0.6721901297569275,94.58209228515624,24.41,0
-0.1541805416345596,-0.8870115876197815,0.5215719938278198,-0.4475528001785278,0.6720234751701355,94.57059478759766,24.41,0
-0.1661174893379211,-0.927490532398224,0.5306369662284851,-0.6060628294944763,0.6719165444374084,94.56321716308594,24.41,0
-0.1849734783172607,-0.9646631479263306,0.5084654688835144,-1.012304425239563,0.671847939491272,94.55847930908205,24.41,0
-0.1802808493375778,-0.9549317359924316,0.4886393249034881,-1.358988642692566,0.671803891658783,94.5554428100586,24.41,0
-0.182867169380188,-0.9374911189079284,0.4815138280391693,-1.427419900894165,0.6717756390571594,94.55349731445312,24.41,0
-0.1901246905326843,-0.9095054268836976,0.4825388789176941,-1.2384676933288574,0.6717574596405029,94.55224609375,24.41,0
-0.1947821527719497,-0.891545832157135,0.4887944459915161,-0.9309151768684388,0.6722047328948975,94.55144500732422,24.41,0
-0.2145643681287765,-0.8912159204483032,0.4928089082241058,-0.6368160843849182,0.6724917888641357,94.5509262084961,24.41,0
-0.244052767753601,-0.9021997451782228,0.4785918593406677,-0.3800113201141357,0.6726760268211365,94.55059814453124,24.41,0
-0.2797700464725494,-0.9148463010787964,0.4358815252780914,-0.0647406131029129,0.6727942228317261,94.55038452148438,24.41,0
-0.3418757617473602,-0.956548810005188,0.3748858273029327,0.3919448852539062,0.6728700995445251,94.5502471923828,24.41,0
-0.3649383187294006,-0.9777132868766784,0.3189489841461181,0.932217001914978,0.6729187965393066,94.55016326904295,24.41,0
-0.4021296501159668,-1.0472731590270996,0.2718563973903656,1.3756622076034546,0.672950029373169,94.55010223388672,24.41,0
-0.4427902102470398,-1.0919127464294434,0.2304395288228988,1.627996563911438,0.6729700565338135,94.55006408691406,24.41,0
-0.4688838124275207,-1.07017982006073,0.1758717000484466,1.7755998373031616,0.6748193502426147,94.55004119873048,24.43,0
-0.4744336605072021,-1.067428469657898,0.1128643304109573,1.891818642616272,0.6760061383247375,94.5500259399414,24.43,0
-0.4612019062042236,-1.0712605714797974,0.0724298283457756,1.8016027212142944,0.6767677664756775,94.55001831054688,24.43,0
-0.4359171986579895,-1.0905131101608276,0.0520790703594684,1.3281285762786863,0.6772565245628357,94.55001068115234,24.43,0
-0.3917020559310913,-1.0748794078826904,0.0502146743237972,0.691100537776947,0.6775701642036438,94.55001068115234,24.43,0
-0.3633273243904114,-1.0760421752929688,0.0546159856021404,0.3002054989337921,0.6777714490890503,94.55001068115234,24.43,0
-0.3563135862350464,-1.0935816764831543,0.0854293629527092,0.2535583972930908,0.6779006123542786,94.55001068115234,24.43,0
-0.3630081415176391,-1.099239706993103,0.1052036136388778,0.2701964676380157,0.6779835224151611,94.55001068115234,24.43,0
-0.3729020953178406,-1.0916751623153689,0.095502495765686,0.0981624498963356,0.6766595840454102,94.55001068115234,24.43,0
-0.3736536800861358,-1.0812228918075562,0.0780813246965408,-0.2415239363908767,0.675809919834137,94.55001068115234,24.43,0
-0.3685382306575775,-1.0745152235031128,0.0669014230370521,-0.6278961300849915,0.6752646565437317,94.55001068115234,24.43,0
-0.3372665643692016,-1.0534173250198364,0.0653245821595192,-0.9725771546363832,0.6749147772789001,94.55001068115234,24.43,0
-0.3116004467010498,-1.017486810684204,0.0643126517534256,-1.18302583694458,0.6746902465820312,94.55001068115234,24.43,0
-0.2895316183567047,-0.9664398431777954,0.0524677075445652,-1.2356804609298706,0.6745461225509644,94.55001068115234,24.43,0
-0.2865646779537201,-0.9224852919578552,0.0448663048446178,-1.2479757070541382,0.674453616142273,94.55001068115234,24.43,0
-0.2902584373950958,-0.8942777514457703,0.0455859340727329,-1.3203524351119995,0.6743942499160767,94.55001068115234,24.43,0
-0.3038244247436523,-0.8817735910415649,0.0628410726785659,-1.4097906351089478,0.6748151183128357,94.55001068115234,24.43,0
-0.3125302791595459,-0.862553596496582,0.0907077491283416,-1.3668746948242188,0.675085186958313,94.55001068115234,24.43,0
-0.3181172013282776,-0.8446215391159058,0.1309820860624313,-1.0742231607437134,0.6752585172653198,94.55001068115234,24.43,0
-0.3161047995090484,-0.8890914916992188,0.1792189329862594,-0.5711495876312256,0.6753697395324707,94.55001068115234,24.43,0
-0.2980200350284576,-0.9176297783851624,0.2325656563043594,-0.0476817041635513,0.6754411458969116,94.55001068115234,24.43,0
-0.2696209549903869,-0.8351840376853943,0.3115827143192291,0.4351354241371155,0.6754869222640991,94.55001068115234,24.43,0
-0.2457982748746872,-0.7542862296104431,0.3734868466854095,0.9957600235939026,0.6755163073539734,94.55001068115234,24.43,0
-0.1913258284330368,-0.797532856464386,0.4300066828727722,1.581238865852356,0.6755352020263672,94.55001068115234,24.43,0
-0.1395752280950546,-0.8924593329429626,0.4606800973415375,1.9712958335876465,0.676924467086792,94.55001068115234,24.43,0
-0.1175602227449417,-0.9421821236610411,0.4747667610645294,2.153542995452881,0.6778160333633423,94.55001068115234,24.43,0
-0.1258233487606048,-0.9572980403900146,0.5173934102058411,2.1952645778656006,0.6783881783485413,94.53209686279295,24.43,0
-0.147919476032257,-0.9558030366897584,0.5615420341491699,1.982006549835205,0.6787553429603577,94.52059936523438,24.43,0
-0.1565017253160476,-0.9268547296524048,0.5618852376937866,1.5836217403411863,0.6789909601211548,94.51322174072266,24.43,0
-0.1620093137025833,-0.90827739238739,0.5341166257858276,1.3422917127609253,0.67914217710495,94.50848388671876,24.43,0
-0.1823370903730392,-0.9075510501861572,0.5162963271141052,1.3020623922348022,0.6792392134666443,94.50544738769533,24.43,0
-0.2121756076812744,-0.895889401435852,0.5048602819442749,1.2511674165725708,0.6793015003204346,94.50349426269533,24.43,0
-0.2313242554664611,-0.8716123104095459,0.4807279407978058,1.236418843269348,0.6788825392723083,94.5022430419922,24.43,0
-0.2436127513647079,-0.8504348993301392,0.4540456533432007,1.3380138874053955,0.6786136627197266,94.5014419555664,24.43,0
-0.2403032630681991,-0.8536377549171448,0.414531409740448,1.2993171215057373,0.6784411072731018,94.50092315673828,24.43,0
-0.2269838750362396,-0.8556931614875793,0.3779778778553009,0.8983133435249329,0.6783303618431091,94.50059509277344,24.43,0
-0.2296317964792251,-0.8682077527046204,0.3433243930339813,0.2862971723079681,0.6782593131065369,94.50038146972656,24.43,0
-0.2313310801982879,-0.9042277932167052,0.3154880106449127,-0.2282671481370926,0.6782137155532837,94.500244140625,24.43,0
-0.2324215918779373,-0.9553322196006776,0.2808308899402618,-0.5119114518165588,0.678184449672699,94.50016021728516,24.43,0
-0.2555125057697296,-1.044105887413025,0.247394397854805,-0.7082682847976685,0.6781656742095947,94.5000991821289,24.43,0
-0.2759287059307098,-1.1066734790802002,0.2427300959825515,-0.9847469925880432,0.6776943206787109,94.50006103515624,24.43,0
-0.3506061732769012,-1.113239049911499,0.250932365655899,-1.3341387510299685,0.6773918271064758,94.50003814697266,24.43,0
-0.3985298573970794,-1.0558769702911377,0.2450005710124969,-1.6980786323547363,0.6771976947784424,94.5000228881836,24.43,0
-0.4012956619262695,-1.0078697204589844,0.2020094543695449,-2.010451078414917,0.6770731210708618,94.50001525878906,24.43,0
-0.3638861775398254,-1.0050503015518188,0.1744202375411987,-2.1392621994018555,0.676993191242218,94.50000762939452,24.43,0
-0.3454766869544983,-1.031229853630066,0.1623128354549408,-2.0033886432647705,0.6769418716430664,94.50000762939452,24.43,0
-0.3168692290782928,-1.081616997718811,0.1713363230228424,-1.661829948425293,0.6769089698791504,94.50000762939452,24.43,0
-0.3041083812713623,-1.1083548069000244,0.1827248632907867,-1.285003900527954,0.6768878698348999,94.50000762939452,24.43,0
-0.2343436777591705,-1.1199158430099487,0.2068266868591308,-1.03243088722229,0.6768743395805359,94.50000762939452,24.43,0
-0.1391927301883697,-1.0937484502792358,0.2166960835456848,-0.9025872945785522,0.6768656373023987,94.50000762939452,24.43,0
-0.0837281048297882,-1.0601623058319092,0.223029688000679,-0.7726876735687256,0.6768600344657898,94.50000762939452,24.43,0
-0.0761229768395423,-1.016217589378357,0.2382897734642028,-0.7179861664772034,0.6768564581871033,94.50000762939452,24.43,0
-0.088035762310028,-0.9880164265632628,0.2368872761726379,-0.897836446762085,0.676854133605957,94.50000762939452,24.43,0
-0.1348651200532913,-0.9475274085998536,0.2415850013494491,-1.1135660409927368,0.6768526434898376,94.50000762939452,24.43,0
-0.1425264179706573,-0.8991528153419495,0.2501974999904632,-1.133783936500549,0.6768516898155212,94.50000762939452,24.43,0
-0.1362474411725998,-0.8569132685661316,0.2613222897052765,-1.1575063467025757,0.6768510937690735,94.50000762939452,24.43,0
-0.1154246404767036,-0.807415246963501,0.2852548658847809,-1.373354196548462,0.6773099899291992,94.50000762939452,24.43,0
-0.1020617634057998,-0.7812480330467224,0.3006134033203125,-1.4903775453567505,0.6776044964790344,94.50000762939452,24.43,0
-0.1102795600891113,-0.7756509780883789,0.2992740869522095,-1.2036362886428833,0.6777935028076172,94.50000762939452,24.43,0
-0.1435421407222747,-0.805645763874054,0.3152079284191131,-0.6219563484191895,0.6779147982597351,94.50000762939452,24.43,0
-0.1704859286546707,-0.8864701986312866,0.3366288840770721,0.0200255494564771,0.677992582321167,94.50000762939452,24.43,0
-0.2101679891347885,-0.983120858669281,0.35037562251091,0.65771484375,0.6780425310134888,94.50000762939452,24.43,0
-0.2468292117118835,-1.0843300819396973,0.3647952675819397,1.2030850648880005,0.6780745983123779,94.50000762939452,24.43,0
-0.2423674017190933,-1.0989004373550415,0.3908422887325287,1.4491775035858154,0.6780951619148254,94.50000762939452,24.43,0
-0.2562973797321319,-1.091457486152649,0.3291889131069183,1.4423069953918457,0.6758130192756653,94.50000762939452,24.43,0
-0.2652368545532226,-1.1034743785858154,0.2616344690322876,1.5776183605194092,0.6743484735488892,94.50000762939452,24.43,0
-0.2877670228481293,-1.14477276802063,0.207086369395256,1.925981402397156,0.673408567905426,94.50000762939452,24.43,0
-0.3022255599498749,-1.1376889944076538,0.1720805317163467,2.0528111457824707,0.6728054285049438,94.48567199707033,24.43,0
-0.3171020150184631,-1.0547741651535034,0.1496157944202423,1.8225191831588743,0.6724183559417725,94.47647094726562,24.43,0
-0.3154533207416534,-0.9623798131942748,0.1351992189884185,1.6209924221038818,0.6721699237823486,94.47057342529295,24.43,0
-0.3087975084781647,-0.8918909430503845,0.1203497201204299,1.5561505556106567,0.6720105409622192,94.46678161621094,24.43,0
-0.3101239502429962,-0.8522529602050781,0.1108201667666435,1.3461576700210571,0.6719082593917847,94.46435546875,24.43,0
-0.3109751939773559,-0.8268156051635742,0.1103024259209632,0.9355380535125732,0.6723015308380127,94.4627914428711,24.43,0
-0.322717010974884,-0.7936980724334717,0.1155679449439048,0.5143926739692688,0.6725538969039917,94.4617919921875,24.43,0
-0.3302522301673889,-0.7780429124832153,0.1413381546735763,0.1115704700350761,0.6727158427238464,94.46115112304688,24.43,0
-0.3294901251792907,-0.773594081401825,0.169071540236473,-0.3475618362426758,0.6728197932243347,94.4607391357422,24.43,0
-0.3457943797111511,-0.7987279891967773,0.2092603147029876,-0.7640141248703003,0.6728864908218384,94.4604721069336,24.43,0
-0.3394641876220703,-0.8372485637664795,0.2518444955348968,-0.891548752784729,0.6729292869567871,94.4603042602539,24.43,0
-0.3409996032714844,-0.9123488068580629,0.2847703397274017,-0.6509613394737244,0.6729567646980286,94.46019744873048,24.43,0
-0.3363871872425079,-0.9829349517822266,0.3338891267776489,-0.3246025443077087,0.6729744076728821,94.46012878417967,24.43,0
-0.3278294205665588,-0.9890486598014832,0.3542151749134063,-0.2118937969207763,0.6743628978729248,94.4600830078125,24.43,0
-0.2887508869171142,-0.9873743057250975,0.3672592639923095,-0.3079448640346527,0.6752539277076721,94.46005249023438,24.43,0
-0.2300858944654464,-0.980701982975006,0.392423540353775,-0.5200530886650085,0.6758257150650024,94.46002960205078,24.43,0
-0.2596113681793213,-0.9820178747177124,0.4029747545719147,-0.842465877532959,0.6761927008628845,94.46002197265624,24.43,0
-0.267363578081131,-1.0556334257125854,0.4601258933544159,-1.1819270849227903,0.6764281988143921,94.46001434326172,24.43,0
-0.2667407095432281,-1.0972778797149658,0.4744111001491546,-1.256470799446106,0.6765792965888977,94.4600067138672,24.43,0
-0.2439499050378799,-1.10720956325531,0.4611874222755432,-0.831408679485321,0.6766762733459473,94.4600067138672,24.43,0
-0.2013352066278457,-1.1191809177398682,0.4471034407615661,-0.0893108323216438,0.6767385005950928,94.4600067138672,24.43,0
-0.106814257800579,-1.1268634796142578,0.4212718307971954,0.4585763812065124,0.6763195395469666,94.4600067138672,24.43,0
-0.0405583679676055,-1.0982069969177246,0.3879012763500213,0.5593985319137573,0.6760506629943848,94.4600067138672,24.43,0
-0.0260280258953571,-1.0518280267715454,0.366485983133316,0.4485541582107544,0.67587810754776,94.4600067138672,24.43,0
-0.0726810321211814,-1.0164669752120972,0.3471451103687286,0.381003201007843,0.6757673621177673,94.4600067138672,24.43,0
-0.1250113397836685,-0.982578694820404,0.3291354775428772,0.366313487291336,0.6756963133811951,94.4600067138672,24.43,0
-0.1809850186109542,-0.9272444844245912,0.2895890474319458,0.3855470716953277,0.6756507158279419,94.4600067138672,24.43,0
-0.205710157752037,-0.8805386424064636,0.253014862537384,0.4838719069957733,0.6756214499473572,94.4600067138672,24.43,0
-0.2103817760944366,-0.850565493106842,0.2351414412260055,0.6007097363471985,0.6756026744842529,94.4600067138672,24.43,0
-0.1853908896446228,-0.8201349377632141,0.2404646277427673,0.5789600014686584,0.6746724247932434,94.4600067138672,24.43,0
-0.163755401968956,-0.7950085401535034,0.2494785189628601,0.4288644194602966,0.6740754246711731,94.4600067138672,24.43,0
-0.1666643023490905,-0.7732861042022705,0.2440675646066665,0.3791151940822601,0.6736922860145569,94.4600067138672,24.43,0
-0.1797266155481338,-0.7761392593383789,0.240595132112503,0.5442306399345398,0.6734464168548584,94.4600067138672,24.43,0
-0.1937070339918136,-0.7947635650634766,0.2439644932746887,0.7648346424102783,0.6732886433601379,94.4600067138672,24.43,0
-0.2250699698925018,-0.8458999991416931,0.262920081615448,0.9350662231445312,0.6731873750686646,94.4600067138672,24.43,0
-0.2675879895687103,-0.9234985709190368,0.2862802445888519,1.0693891048431396,0.6731224060058594,94.4600067138672,24.43,0
-0.2948735952377319,-1.1244367361068726,0.3236625492572784,1.1018511056900024,0.6730806827545166,94.4600067138672,24.43,0
-0.2899928390979767,-1.1918118000030518,0.3308590352535248,0.9148939847946168,0.6707585453987122,94.4600067138672,24.43,0
-0.3092517554759979,-1.156680464744568,0.3354773223400116,0.4760664403438568,0.6692683696746826,94.4600067138672,24.43,0
-0.3216110169887543,-1.0837551355361938,0.2936588823795318,-0.0849887281656265,0.6683120131492615,94.4600067138672,24.43,0
-0.3183469176292419,-1.0425536632537842,0.2332355678081512,-0.4951976835727691,0.667698323726654,94.4600067138672,24.43,0
-0.3106544315814972,-1.0161129236221311,0.1608727127313614,-0.6438037753105164,0.6673044562339783,94.3453598022461,24.43,0
-0.2833267450332641,-1.01593816280365,0.1312277168035507,-0.7714137434959412,0.6670517325401306,94.27178955078124,24.43,0
-0.2769849598407745,-0.9990326762199402,0.1010077148675918,-1.114834547042847,0.6668895483016968,94.22457122802734,24.43,0
-0.3009040355682373,-0.9601948261260986,0.0816142633557319,-1.564507007598877,0.6667854189872742,94.19427490234376,24.43,0
-0.3162539303302765,-0.9240753650665284,0.08036420494318,-1.9390627145767207,0.6653414964675903,94.1748275756836,24.43,0
-0.3205068409442901,-0.8673093318939209,0.0851597636938095,-2.1651008129119877,0.6644148826599121,94.162353515625,24.43,0
-0.3232361078262329,-0.8028912544250488,0.0994328260421752,-2.1811861991882324,0.663820207118988,94.1543426513672,24.43,0
-0.3249875903129577,-0.7503558993339539,0.1141902357339859,-1.9837195873260496,0.663438618183136,94.14920043945312,24.43,0
-0.314916044473648,-0.705446183681488,0.1460517942905426,-1.6707029342651367,0.6631937026977539,94.14590454101562,24.43,0
-0.3140504658222198,-0.6822234988212585,0.1776942461729049,-1.3086110353469849,0.6630365252494812,94.14379119873048,24.43,0
-0.3190927803516388,-0.6897116303443909,0.2371849715709686,-0.8899472951889038,0.6629356741905212,94.1424331665039,24.43,0
-0.3223286271095276,-0.7225059270858765,0.2921560108661651,-0.39915332198143,0.6628709435462952,94.14156341552734,24.43,0
-0.3300029933452606,-0.7547469735145569,0.3330310583114624,0.1271819919347763,0.6646658182144165,94.14100646972656,24.43,0
-0.3741123974323272,-0.8370129466056824,0.3760556280612945,0.6118392944335938,0.6658176779747009,94.1406478881836,24.43,0
-0.3968214988708496,-0.9345887303352356,0.4092640876770019,0.9730204939842224,0.6665568947792053,94.14041900634766,24.43,0
-0.4057970941066742,-1.0307939052581787,0.4193798303604126,1.204805850982666,0.6670312881469727,94.14026641845705,24.43,0
-0.4227526783943176,-1.1597061157226562,0.4706537127494812,1.4037083387374878,0.6673356890678406,94.14016723632812,24.43,0
-0.422438234090805,-1.2088478803634644,0.5203516483306885,1.6173343658447266,0.6675310730934143,94.14010620117188,24.43,0
-0.3886497914791107,-1.0612554550170898,0.5242560505867004,1.6899409294128418,0.667656421661377,94.14006805419922,24.43,0
-0.3333796858787536,-0.944148063659668,0.5155661106109619,1.371112823486328,0.6677368879318237,94.14004516601562,24.43,0
-0.2699216306209564,-0.9585596919059752,0.4875983297824859,0.7151027917861938,0.6650338768959045,94.14002990722656,24.43,0
-0.2571867704391479,-1.0349814891815186,0.4416613578796386,0.064828485250473,0.6632992625236511,94.14002227783205,24.43,0
-0.2602098286151886,-1.0616334676742554,0.4065838754177093,-0.3524801433086395,0.6621860861778259,94.1400146484375,24.43,0
-0.2397587597370147,-1.0619438886642456,0.4008664786815643,-0.5701287388801575,0.6614716649055481,94.14000701904295,24.43,0
-0.1874500215053558,-1.0677409172058103,0.4083929359912872,-0.6560644507408142,0.6610132455825806,94.14000701904295,24.43,0
-0.1370879560708999,-1.037874460220337,0.3852341175079345,-0.6001532077789307,0.6607190370559692,94.14000701904295,24.43,0
-0.1103662550449371,-0.985121250152588,0.3591765761375427,-0.4102218151092529,0.6605302095413208,94.14000701904295,24.43,0
-0.1100111305713653,-0.9344739317893982,0.3312588036060333,-0.1951878070831298,0.6604090332984924,94.14000701904295,24.43,0
-0.1433698832988739,-0.8795803189277649,0.2853538990020752,-0.0500262193381786,0.6594130992889404,94.14000701904295,24.43,0
-0.1703753769397735,-0.8387549519538879,0.2670903205871582,0.053877867758274,0.6587739586830139,94.14000701904295,24.43,0
-0.1821081787347793,-0.7957622408866882,0.2721631228923797,0.167131021618843,0.6583637595176697,94.14000701904295,24.43,0
-0.1784420609474182,-0.7625742554664612,0.2866141200065613,0.2720535397529602,0.6581005454063416,94.14000701904295,24.43,0
-0.1704915910959243,-0.7300805449485779,0.3014857172966003,0.4325337707996368,0.6579316258430481,94.14000701904295,24.43,0
-0.1877805292606353,-0.7316190600395203,0.3166272044181824,0.775553286075592,0.6578232049942017,94.14000701904295,24.43,0
-0.2044733464717865,-0.7438019514083862,0.3319419324398041,1.1927251815795898,0.6577536463737488,94.14000701904295,24.43,0
-0.2319791615009308,-0.7964023947715759,0.3809544444084167,1.4711897373199463,0.657709002494812,94.14000701904295,24.43,0
-0.266424149274826,-0.936516046524048,0.4236034154891968,1.571075677871704,0.6590578556060791,94.14000701904295,24.43,0
-0.2997244894504547,-1.0880085229873655,0.4677664041519165,1.466795563697815,0.6599234342575073,94.14000701904295,24.43,0
-0.3043014109134674,-1.185227632522583,0.4737165570259094,0.9914610385894777,0.660478949546814,94.14000701904295,24.43,0
-0.3352274894714355,-1.1804440021514893,0.4775350391864776,0.1848580986261367,0.6608354449272156,94.14000701904295,24.43,0
-0.3270851969718933,-1.082211971282959,0.424007773399353,-0.5656406879425049,0.6610642075538635,94.14000701904295,24.43,0
-0.299468845129013,-1.007976770401001,0.3448748588562011,-0.9541205763816832,0.6612110137939453,94.08985137939452,24.43,0
-0.2817462682723999,-0.97153240442276,0.254907488822937,-1.006382942199707,0.6613052487373352,94.0576629638672,24.43,0
-0.2815684676170349,-0.953742265701294,0.2027693688869476,-0.8392977118492126,0.6613656878471375,94.03700256347656,24.43,0
-0.2982476949691772,-0.931130051612854,0.1693101227283477,-0.5959341526031494,0.6591091156005859,94.02374267578124,24.43,0
-0.3369403481483459,-0.8830321431159973,0.1534356921911239,-0.554399847984314,0.6576610207557678,94.0152359008789,24.43,0
-0.3505755066871643,-0.8465679287910461,0.1488461643457412,-0.7785258293151855,0.6567317247390747,94.00978088378906,24.43,0
-0.3481302261352539,-0.8063739538192749,0.1514986455440521,-0.9080266952514648,0.6561353206634521,94.00627899169922,24.43,0
-0.3353654146194458,-0.7693842649459839,0.1699941754341125,-0.7260223031044006,0.6557525992393494,94.0040283203125,24.43,0
-0.3159781694412231,-0.7456463575363159,0.1930590867996215,-0.5160753726959229,0.65550696849823,94.0025863647461,24.43,0
-0.3035365343093872,-0.7248150110244751,0.2302519232034683,-0.5568897128105164,0.6553493738174438,94.0016632080078,24.43,0
-0.2955522239208221,-0.7170444130897522,0.2709134817123413,-0.7263850569725037,0.65524822473526,94.00106811523438,24.43,0
-0.3016238808631897,-0.7344487905502319,0.3361921310424804,-0.8566528558731079,0.6570193767547607,94.0006866455078,24.41,0
-0.3111180961132049,-0.7736067771911621,0.4004753232002258,-0.8865125775337219,0.6581559777259827,94.0004425048828,24.41,0
-0.3172109425067901,-0.8211272358894348,0.4585219025611877,-0.6584771275520325,0.6588854193687439,94.00028228759766,24.41,0
-0.3211209774017334,-0.8852097392082214,0.5349572896957397,-0.071480318903923,0.659353494644165,94.00018310546876,24.41,0
-0.3236302137374878,-0.9431275129318236,0.5840091109275818,0.5954090356826782,0.659653902053833,94.00011444091795,24.41,0
-0.3252404928207397,-1.025078058242798,0.6098899841308594,0.9624764919281006,0.6598466634750366,94.00007629394533,24.41,0
-0.3262738883495331,-1.111255764961243,0.6376943588256836,0.9185983538627625,0.6599704027175903,94.0000457763672,24.41,0
-0.3269370496273041,-1.1441686153411863,0.6443420648574829,0.5071043372154236,0.6600497961044312,94.00003051757812,24.41,0
-0.3217648565769195,-1.075725793838501,0.587032675743103,-0.0829832181334495,0.6596418023109436,94.0000228881836,24.41,0
-0.2848590016365051,-0.9870209097862244,0.5222659111022949,-0.3971811234951019,0.6593799591064453,94.00001525878906,24.41,0
-0.2723704874515533,-0.9244974851608276,0.4695067703723907,-0.1832364648580551,0.6592119336128235,94.00000762939452,24.41,0
-0.3147360682487488,-0.9067646265029908,0.413257896900177,0.2120063304901123,0.6591041088104248,94.00000762939452,24.41,0
-0.3587171733379364,-0.9009824991226196,0.3771606087684631,0.3510079979896545,0.6590349078178406,94.00000762939452,24.41,0
-0.3869417309761047,-0.9028696417808532,0.3427999019622803,0.2288393080234527,0.6589905023574829,94.00000762939452,24.41,0
-0.3602724075317383,-0.920873999595642,0.3039558529853821,0.0214657504111528,0.6589620113372803,94.00000762939452,24.41,0
-0.3263642489910126,-0.938025951385498,0.273430198431015,-0.2119267880916595,0.6589437127113342,94.00000762939452,24.41,0
-0.2822128534317016,-0.9490330815315248,0.2482428252696991,-0.3402092158794403,0.656636655330658,94.00000762939452,24.41,0
-0.25387904047966,-0.961694598197937,0.2320790290832519,-0.1932486593723297,0.655156135559082,94.00000762939452,24.41,0
-0.2524893581867218,-0.9810155630111694,0.2217060327529907,0.0873560979962349,0.6542059779167175,94.00000762939452,24.41,0
-0.2571952939033508,-0.9934146404266356,0.2150492370128631,0.1671199649572372,0.6535962224006653,94.00000762939452,24.41,0
-0.2602153122425079,-1.0013716220855713,0.2051795125007629,0.0606744885444641,0.6532049179077148,94.00000762939452,24.41,0
-0.2565555870532989,-1.0120757818222046,0.1876501441001892,0.0568502731621265,0.6529538035392761,94.00000762939452,24.41,0
-0.2486092299222946,-1.0245428085327148,0.1708030253648758,0.2980112731456756,0.6527926921844482,94.00000762939452,24.41,0
-0.2323141545057296,-1.0213478803634644,0.1543937474489212,0.782371461391449,0.6526892781257629,94.00000762939452,24.41,0
-0.2218569219112396,-1.0081020593643188,0.1382654458284378,1.4657938480377195,0.6558364629745483,94.00000762939452,24.41,0
-0.2375371605157852,-0.999601662158966,0.1503063291311264,2.1479899883270264,0.6578561663627625,94.00000762939452,24.41,0
-0.2308065146207809,-0.9717555046081544,0.1916201114654541,2.506967782974243,0.6591522693634033,94.00000762939452,24.41,0
-0.2376827299594879,-0.9538854360580444,0.1957418173551559,2.2572736740112305,0.6599840521812439,94.00000762939452,24.41,0
-0.286877691745758,-0.847255289554596,0.2319735437631607,1.330363392829895,0.6605178117752075,94.00000762939452,24.41,0
-0.3072526156902313,-0.7508373260498047,0.2832138538360595,0.036923374980688,0.6608603596687317,94.00000762939452,24.41,0
-0.2979369759559631,-0.7505373358726501,0.3496835827827453,-1.076155424118042,0.6610801815986633,93.95701599121094,24.41,0
-0.2583720982074737,-0.7951270341873169,0.3811444640159607,-1.6937357187271118,0.6612212657928467,93.9294204711914,24.41,0
-0.2161883115768432,-0.8181443810462952,0.4013342559337616,-1.8894389867782595,0.661770761013031,93.91171264648438,24.41,0
-0.2003127336502075,-0.8049266934394836,0.4142909049987793,-1.9183006286621092,0.6621233820915222,93.90035247802734,24.41,0
-0.1845269203186035,-0.7964443564414978,0.4226057529449463,-1.9833958148956297,0.6623496413230896,93.89305877685548,24.41,0
-0.1911898255348205,-0.8021963834762573,0.4279417395591736,-2.107569456100464,0.6624948978424072,93.8883819580078,24.41,0
-0.2178567945957183,-0.8562676906585693,0.4425615966320038,-2.172926664352417,0.6625880599021912,93.8853759765625,24.41,0
-0.2405678927898407,-0.9021630883216858,0.4519437849521637,-2.103809118270874,0.6626478433609009,93.8834457397461,24.41,0
-0.2495447844266891,-0.9148228168487548,0.4635625183582306,-1.8373339176177976,0.6626862287521362,93.88220977783205,24.41,0
-0.2441100925207138,-0.9117515683174132,0.4766165316104889,-1.2865724563598633,0.6627108454704285,93.88141632080078,24.41,0
-0.2350246459245681,-0.8985850214958191,0.4905916154384613,-0.496051162481308,0.6622677445411682,93.8809051513672,24.41,0
-0.2347919046878814,-0.8957332968711853,0.4939622282981872,0.3121961951255798,0.6619833707809448,93.88057708740234,24.41,0
-0.2458380907773971,-0.9050987362861632,0.4905275404453277,0.9455252289772034,0.6618008613586426,93.88037109375,24.41,0
-0.2641224563121795,-0.939097821712494,0.4827255606651306,1.4379411935806274,0.6616837382316589,93.88023376464844,24.41,0
-0.2814540863037109,-0.9553186893463136,0.4721209406852722,1.976065158843994,0.6616085767745972,93.8801498413086,24.41,0
-0.2757832109928131,-0.9433372616767884,0.4317288696765899,2.557852029800415,0.6615603566169739,93.88009643554688,24.41,0
-0.2665461897850036,-0.9580393433570862,0.4002097845077514,2.902548789978028,0.6615294218063354,93.88005828857422,24.41,0
-0.2718139290809631,-1.001060962677002,0.3855804204940796,2.786993265151977,0.6615095734596252,93.88003540039062,24.41,0
-0.331172227859497,-1.090245246887207,0.3705943524837494,2.3115878105163574,0.6633328795433044,93.88002014160156,24.41,0
-0.3692649602890014,-1.119489669799805,0.3553793728351593,1.6983985900878906,0.6645029783248901,93.88001251220705,24.41,0
-0.3825151324272156,-1.0151060819625854,0.2952353060245514,1.0935170650482178,0.6652538776397705,93.8800048828125,24.41,0
-0.3630294501781463,-0.9873031377792358,0.2342472225427627,0.6193570494651794,0.6657357811927795,93.8800048828125,24.41,0
-0.3561224341392517,-0.9974496364593506,0.1951085776090622,0.3150684535503387,0.6660450100898743,93.8800048828125,24.41,0
-0.3628854751586914,-1.0711344480514526,0.1531983315944671,0.040976908057928,0.6662434935569763,93.8800048828125,24.41,0
-0.350432276725769,-1.10722553730011,0.1095094159245491,-0.3140480518341064,0.6663708686828613,93.8800048828125,24.41,0
-0.3480382859706878,-1.107995629310608,0.0478857457637786,-0.6851856708526611,0.6664525866508484,93.8800048828125,24.41,0
-0.3856863975524902,-1.1420764923095703,-0.0476385280489921,-0.9806816577911376,0.666046142578125,93.8800048828125,24.41,0
-0.3706623613834381,-1.1471542119979858,-0.0977449566125869,-1.1918094158172607,0.6657853126525879,93.8800048828125,24.41,0
-0.2938475012779236,-1.1336195468902588,-0.0795204117894172,-1.2556475400924685,0.6656178832054138,93.8800048828125,24.41,0
-0.2389543801546096,-1.1025426387786863,-0.0454338490962982,-1.0852432250976562,0.6655104756355286,93.8800048828125,24.41,0
-0.2317160069942474,-1.0490126609802246,-0.0067657316103577,-0.8290019035339355,0.6654415130615234,93.8800048828125,24.41,0
-0.266255259513855,-1.0202579498291016,0.0068536913022398,-0.7756208181381226,0.6653972864151001,93.8800048828125,24.41,0
-0.2996160984039306,-0.996207058429718,0.0155938528478145,-0.9025798439979552,0.665368914604187,93.8800048828125,24.41,0
-0.3210251629352569,-0.9639792442321776,0.032398335635662,-0.905238151550293,0.6653506755828857,93.8800048828125,24.41,0
-0.323568731546402,-0.9488950967788696,0.0599758066236972,-0.7457281947135925,0.6621254086494446,93.8800048828125,24.41,0
-0.3196032643318176,-0.95600825548172,0.1000645384192466,-0.6791896820068359,0.6600555777549744,93.8800048828125,24.41,0
-0.2834718227386474,-0.9829641580581664,0.176171138882637,-0.729636013507843,0.6587272882461548,93.8800048828125,24.41,0
-0.2658825218677521,-1.0226540565490725,0.2250119894742965,-0.6258717179298401,0.6578748822212219,93.8800048828125,24.41,0
-0.2378013879060745,-1.0705158710479736,0.2619529962539673,-0.2690931558609009,0.6573278903961182,93.8800048828125,24.41,0
-0.2085849791765213,-1.0620464086532593,0.3080507218837738,0.1139175742864608,0.6569768190383911,93.8800048828125,24.41,0
-0.1898355782032013,-0.9614489674568176,0.421600192785263,0.2808951139450073,0.6567515134811401,93.8800048828125,24.41,0
-0.1050322204828262,-0.8521091341972351,0.5000674724578857,0.2590789794921875,0.6566069722175598,93.8370132446289,24.41,0
-0.0674036368727684,-0.7987344264984131,0.5168366432189941,0.220000609755516,0.6574323773384094,93.8094253540039,24.41,0
-0.0768424198031425,-0.8316549062728882,0.4996092319488525,0.2343306839466095,0.6579620838165283,93.79171752929688,24.41,0
-0.0940952375531196,-0.8583791851997375,0.4829559028148651,0.2757700979709625,0.6583020091056824,93.78035736083984,24.41,0
-0.1331559717655182,-0.8587359189987183,0.4722687602043152,0.3811801970005035,0.6585201621055603,93.77306365966795,24.41,0
-0.169418454170227,-0.8477693200111389,0.459812581539154,0.5563035607337952,0.6586601734161377,93.76838684082033,24.41,0
-0.1982873976230621,-0.8519271612167358,0.4462211430072784,0.6507747769355774,0.658750057220459,93.765380859375,24.41,0
-0.2224116027355194,-0.882584273815155,0.40951007604599,0.5716805458068848,0.6588076949119568,93.7634506225586,24.41,0
-0.237893134355545,-0.902258276939392,0.3747554719448089,0.4958443939685821,0.6588447093963623,93.76221466064452,24.41,0
-0.253426045179367,-0.9148839116096495,0.3748430907726288,0.6442188024520874,0.6597866415977478,93.76142120361328,24.41,0
-0.2689919471740722,-0.9117907285690308,0.386094868183136,0.9221482872962952,0.6603911519050598,93.76091003417967,24.41,0
-0.2845790386199951,-0.8930124044418335,0.3877178132534027,1.0216907262802124,0.6607790589332581,93.76058197021484,24.41,0
-0.3001797199249267,-0.8753637671470642,0.3887593448162079,0.8419561982154846,0.6610280275344849,93.7603759765625,24.41,0
-0.304593563079834,-0.8696356415748596,0.3894277215003967,0.5868924856185913,0.6611877679824829,93.76023864746094,24.41,0
-0.2962305545806885,-0.8771552443504333,0.3954544365406036,0.4124595820903778,0.6612902879714966,93.7601547241211,24.41,0
-0.3020592033863067,-0.904371976852417,0.4049198031425476,0.3005185723304748,0.6613560914993286,93.76010131835938,24.41,0
-0.3002019226551056,-0.9274358749389648,0.4053963422775268,0.228681281208992,0.6613983511924744,93.76006317138672,24.41,0
-0.3102055788040161,-1.0038124322891235,0.3945066332817077,0.1718325167894363,0.6600479483604431,93.76004028320312,24.41,0
-0.3166253566741943,-1.0976088047027588,0.3931159973144531,0.0672813132405281,0.6591813564300537,93.76002502441406,24.41,0
-0.3263429701328277,-1.157801866531372,0.3810280263423919,-0.0320568159222602,0.6586252450942993,93.76001739501952,24.41,0
-0.3157858550548553,-1.078877091407776,0.3116951584815979,0.0009232326992787,0.6582683324813843,93.760009765625,24.41,0
-0.3090108931064605,-1.0170321464538574,0.2504079937934875,0.0435833856463432,0.6580392718315125,93.760009765625,24.41,0
-0.2822720110416412,-1.0557124614715576,0.2166751772165298,-0.1905678063631057,0.6578922867774963,93.760009765625,24.41,0
-0.2763080894947052,-1.0861330032348633,0.2006251811981201,-0.7384984493255615,0.6577979922294617,93.760009765625,24.41,0
-0.3228607475757599,-1.1112529039382937,0.1623363345861435,-1.2800053358078003,0.6577374339103699,93.760009765625,24.41,0
-0.324746698141098,-1.127373456954956,0.1209714412689209,-1.4770450592041016,0.6586167812347412,93.760009765625,24.43,0
-0.3147614598274231,-1.1265231370925903,0.0888280570507049,-1.3061400651931765,0.6591811180114746,93.760009765625,24.43,0
-0.2803646326065063,-1.1035863161087036,0.0626025050878524,-0.9779259562492372,0.6595432758331299,93.760009765625,24.43,0
-0.2526929378509521,-1.0832690000534058,0.051370233297348,-0.720723569393158,0.6597756743431091,93.760009765625,24.43,0
-0.2405326217412948,-1.059035062789917,0.0385642349720001,-0.6953862905502319,0.6599248051643372,93.760009765625,24.43,0
-0.2439243793487548,-1.037885308265686,0.0247483067214489,-0.897663414478302,0.6600205302238464,93.760009765625,24.43,0
-0.2572965621948242,-1.0187147855758667,0.0214798133820295,-1.081211805343628,0.6600819826126099,93.760009765625,24.43,0
-0.2602802813053131,-0.9952167272567748,0.0417733788490295,-0.9518049359321594,0.6601213812828064,93.760009765625,24.43,0
-0.2621950805187225,-0.9689415097236632,0.0603943951427936,-0.5319969654083252,0.6564741730690002,93.760009765625,24.43,0
-0.252228319644928,-0.9464818239212036,0.0779420658946037,-0.140780821442604,0.6541336178779602,93.760009765625,24.43,0
-0.2346366792917251,-0.9264706969261168,0.1003987044095993,0.0207148119807243,0.6526315808296204,93.760009765625,24.43,0
-0.217749610543251,-0.9024331569671632,0.1204078570008277,0.127935990691185,0.6516676545143127,93.760009765625,24.43,0
-0.2125102281570434,-0.9038005471229552,0.166835218667984,0.5227587819099426,0.6510490775108337,93.760009765625,24.43,0
-0.2091479003429412,-0.915873646736145,0.2190207242965698,1.1737991571426392,0.6506521105766296,93.760009765625,24.43,0
-0.1957945972681045,-0.9348170161247252,0.2693037092685699,1.5880168676376345,0.6503973603248596,93.760009765625,24.43,0
-0.1816274523735046,-0.9469737410545348,0.3127679824829101,1.4095985889434814,0.6502338647842407,93.760009765625,24.43,0
-0.1669380068778991,-0.9267863631248474,0.3630519509315491,0.901016652584076,0.6510471701622009,93.7277603149414,24.43,0
-0.1743045002222061,-0.8578535318374634,0.4401035010814667,0.5352297425270081,0.651569128036499,93.70706939697266,24.43,0
-0.1902274340391159,-0.8136163949966431,0.5119418501853943,0.3685576617717743,0.6519040465354919,93.69378662109376,24.43,0
-0.1724569797515869,-0.8635963797569275,0.5524457693099976,0.2078584879636764,0.652118980884552,93.68526458740234,24.43,0
-0.1498573869466781,-0.929257333278656,0.556047797203064,0.0151666179299354,0.6522569060325623,93.67979431152344,24.43,0
-0.1465498208999633,-0.9490036368370056,0.5527615547180176,-0.1407351046800613,0.6523454189300537,93.67628479003906,24.43,0
-0.1332316547632217,-0.9224912524223328,0.5450548529624939,-0.2157058268785476,0.6524022221565247,93.67403411865234,24.43,0
-0.1190870553255081,-0.9054771661758424,0.5289136171340942,-0.1312624365091323,0.6524387001991272,93.6725845336914,24.43,0
-0.1044120863080024,-0.8833629488945007,0.4961639940738678,0.0769792199134826,0.6524621248245239,93.67166137695312,24.43,0
-0.1061900854110717,-0.8691713213920593,0.4583538472652435,0.2536076307296753,0.6524771451950073,93.67106628417967,24.43,0
-0.1241244301199913,-0.8488683700561523,0.4284917116165161,0.4063659310340881,0.6524868011474609,93.67068481445312,24.43,0
-0.1916113942861557,-0.8134480118751526,0.3981323540210724,0.6441178917884827,0.6524930000305176,93.67044067382812,24.43,0
-0.2517139613628387,-0.7907173037528992,0.3730517029762268,0.8074411153793335,0.6524969339370728,93.67028045654295,24.43,0
-0.2958821058273315,-0.7873255610466003,0.3401630520820617,0.6865502595901489,0.6524994969367981,93.67018127441406,24.43,0
-0.3074333667755127,-0.7907467484474182,0.3190570175647735,0.4728316366672516,0.652501106262207,93.67011260986328,24.43,0
-0.2924551963806152,-0.8097355365753174,0.3055123686790466,0.4968952238559723,0.652502179145813,93.67007446289062,24.43,0
-0.2772453129291534,-0.8555081486701965,0.3136135041713714,0.7416226863861084,0.6515846252441406,93.6700439453125,24.41,0
-0.2730822563171386,-0.890480101108551,0.3300079107284546,0.9416655898094176,0.6509957909584045,93.67002868652344,24.41,0
-0.2816061973571777,-0.9129230976104736,0.3349311053752899,0.9374862909317015,0.6506178975105286,93.6700210571289,24.41,0
-0.2926741242408752,-0.977705717086792,0.3492860794067383,0.7126845717430115,0.6503754258155823,93.67001342773438,24.41,0
-0.3221679925918579,-1.0696594715118408,0.3584982752799988,0.3212220966815948,0.6502197980880737,93.67000579833984,24.41,0
-0.3522910177707672,-1.083887815475464,0.3812034726142883,-0.127037689089775,0.6501199007034302,93.67000579833984,24.41,0
-0.3660244643688202,-1.0202476978302002,0.3845787942409515,-0.572338342666626,0.6500558257102966,93.67000579833984,24.41,0
-0.3244578242301941,-0.9402227401733398,0.3755493462085724,-0.9405059218406676,0.6500146985054016,93.67000579833984,24.41,0
-0.2585983276367187,-0.9728339314460754,0.3641569912433624,-1.0728799104690552,0.6495293974876404,93.67000579833984,24.41,0
-0.2163334935903549,-1.0161529779434204,0.3400527238845825,-0.9572057127952576,0.6492179036140442,93.67000579833984,24.41,0
-0.217199221253395,-1.021561622619629,0.3133884370326996,-0.8829727172851562,0.6490180492401123,93.67000579833984,24.41,0
-0.2121570259332656,-1.0194348096847534,0.3018746078014374,-1.0502887964248655,0.6488897800445557,93.67000579833984,24.41,0
-0.1697368174791336,-1.018069863319397,0.3168767690658569,-1.254392147064209,0.6488074660301208,93.67000579833984,24.41,0
-0.1425139605998993,-0.9780095219612122,0.3153087496757507,-1.2814792394638062,0.6487546563148499,93.67000579833984,24.41,0
-0.130641683936119,-0.935507833957672,0.2975091636180877,-1.2522886991500854,0.6487207412719727,93.67000579833984,24.41,0
-0.1230227351188659,-0.897037148475647,0.2692930996417999,-1.2980421781539917,0.6486989855766296,93.67000579833984,24.41,0
-0.1293288767337799,-0.8611533045768738,0.251185655593872,-1.255752682685852,0.6491439342498779,93.67000579833984,24.41,0
-0.1389735788106918,-0.8269295692443848,0.2395653426647186,-1.0423197746276855,0.6494295001029968,93.67000579833984,24.41,0
-0.1451629847288131,-0.7993689775466919,0.2433036416769027,-0.883855402469635,0.6496127843856812,93.67000579833984,24.41,0
-0.1659283190965652,-0.7816821932792664,0.2513004243373871,-0.9254651069641112,0.649730384349823,93.67000579833984,24.41,0
-0.1960476338863372,-0.7759295701980591,0.2620300948619842,-0.9450026750564576,0.6498058438301086,93.67000579833984,24.41,0
-0.220974251627922,-0.7946289777755737,0.2745135426521301,-0.7533339262008667,0.649854302406311,93.67000579833984,24.41,0
-0.2425684928894043,-0.862606942653656,0.2881224751472473,-0.4762811958789825,0.649885356426239,93.67000579833984,24.41,0
-0.2732197642326355,-1.034980058670044,0.2856603562831878,-0.2196680456399917,0.6499053239822388,93.67000579833984,24.41,0
-0.2704988718032837,-1.184783697128296,0.2448958903551101,0.1886266767978668,0.6485409736633301,93.67000579833984,24.41,0
-0.3527193963527679,-1.2249412536621094,0.1907467395067215,0.844730019569397,0.6476653814315796,93.63776397705078,24.41,0
-0.4334726631641388,-1.2059298753738403,0.1783880144357681,1.527307391166687,0.647103488445282,93.61707305908205,24.41,0
-0.3957310616970062,-1.1489472389221191,0.1368702501058578,2.029832601547241,0.6467428803443909,93.60379028320312,24.41,0
-0.354717344045639,-1.095585823059082,0.0766398981213569,2.330828905105591,0.6465114951133728,93.59526824951172,24.41,0
-0.3060060143470764,-1.0781347751617432,0.0491830743849277,2.32694935798645,0.6463630199432373,93.5897979736328,24.41,0
-0.2747458815574646,-1.0445445775985718,0.0483561903238296,1.937541484832764,0.6462677121162415,93.58628845214844,24.41,0
-0.2882715761661529,-1.0005972385406494,0.0422277674078941,1.4117836952209473,0.6462065577507019,93.58403778076172,24.41,0
-0.2969515919685364,-0.9500033259391784,0.0382949002087116,1.034974217414856,0.6443308591842651,93.58258819580078,24.41,0
-0.3137174844741821,-0.8951439261436462,0.0357710123062133,0.7752467393875122,0.6431271433830261,93.5816650390625,24.41,0
-0.3244768679141998,-0.8487427830696106,0.0453468747437,0.5261693596839905,0.6423546671867371,93.58106994628906,24.41,0
-0.3089905083179474,-0.7965741157531738,0.0738832131028175,0.3269174993038177,0.6418589353561401,93.5806884765625,24.41,0
-0.2990522682666778,-0.7518997192382812,0.0977939665317535,0.1488930583000183,0.6415408253669739,93.5804443359375,24.41,0
-0.2926744818687439,-0.7008391618728638,0.1243340596556663,-0.1050732433795929,0.6413366794586182,93.58028411865234,24.41,0
-0.2829838097095489,-0.6792669892311096,0.1637570559978485,-0.3504534363746643,0.6412056684494019,93.58018493652344,24.41,0
-0.2823626697063446,-0.676618754863739,0.2002520114183426,-0.3968644738197326,0.6411216259002686,93.58011627197266,24.41,0
-0.3099529147148132,-0.7141036987304688,0.2460634708404541,-0.3729097843170166,0.6415265798568726,93.580078125,24.41,0
-0.3500498533248901,-0.7941371202468872,0.2866581976413727,-0.5581612586975098,0.6417864561080933,93.58004760742188,24.41,0
-0.4149661660194397,-0.9238668084144592,0.3518939614295959,-0.8024351596832275,0.6419532299041748,93.5800323486328,24.41,0
-0.445430189371109,-1.0183154344558716,0.4049540758132934,-0.6618422865867615,0.6420602798461914,93.58002471923828,24.41,0
-0.44258913397789,-1.0845248699188232,0.455798327922821,-0.2061951905488968,0.6421290040016174,93.58001708984376,24.41,0
-0.4519614577293396,-1.1382098197937012,0.5276116728782654,-0.0033514823298901,0.6421730518341064,93.58000946044922,24.41,0
-0.4075961112976074,-1.1334773302078247,0.5736973285675049,-0.2099401652812957,0.6422013640403748,93.58000946044922,24.41,0
-0.3231472373008728,-1.0296803712844849,0.5305013656616211,-0.407003253698349,0.6422195434570312,93.58000946044922,24.41,0
-0.2857461273670196,-0.9910582900047302,0.457998514175415,-0.3722510933876037,0.6408540606498718,93.58000946044922,24.41,0
-0.2617442607879638,-1.0278483629226685,0.4058725833892822,-0.3033756911754608,0.639977753162384,93.58000946044922,24.41,0
-0.2351456880569458,-1.118631362915039,0.3444322645664215,-0.3344095051288605,0.6394153833389282,93.58000946044922,24.41,0
-0.2180762588977813,-1.137706279754639,0.2994056344032287,-0.3364123404026031,0.6390544772148132,93.58000946044922,24.41,0
-0.1959265321493148,-1.116360783576965,0.2929012477397918,-0.1836468875408172,0.6388228535652161,93.58000946044922,24.41,0
-0.1705165654420852,-1.0802714824676514,0.2943248748779297,0.0397793129086494,0.638674259185791,93.58000946044922,24.41,0
-0.1710032373666763,-1.0235247611999512,0.278445154428482,0.1079273149371147,0.6385788917541504,93.58000946044922,24.41,0
-0.182511106133461,-0.9535213112831116,0.2346678227186203,-0.0632937625050544,0.6385176777839661,93.58000946044922,24.41,0
-0.1898961961269378,-0.9029993414878844,0.2065740376710891,-0.212581917643547,0.6398555636405945,93.58000946044922,24.41,0
-0.1778421849012375,-0.8649795055389404,0.1941428482532501,-0.0432758703827858,0.6407141089439392,93.58000946044922,24.41,0
-0.1533132940530777,-0.829384982585907,0.1973607689142227,0.3412333130836487,0.6412650942802429,93.58000946044922,24.41,0
-0.1319742947816848,-0.8009446859359741,0.2050236165523529,0.620232343673706,0.6416186690330505,93.58000946044922,24.41,0
-0.1126823797821998,-0.7770956158638,0.2323322892189026,0.7312089800834656,0.6418455839157104,93.58000946044922,24.41,0
-0.1114974841475486,-0.7617906332015991,0.2498574256896972,0.8418356776237488,0.6419911980628967,93.58000946044922,24.41,0
-0.1387259662151336,-0.7855554223060608,0.2611040472984314,0.937907576560974,0.6420846581459045,93.58000946044922,24.41,0
-0.1785907298326492,-0.8399907350540161,0.3131036758422851,0.8777534365653992,0.6421446204185486,93.58000946044922,24.41,0
-0.232162520289421,-0.9197063446044922,0.3408762812614441,0.7280901074409485,0.6408059597015381,93.58000946044922,24.39,0
-0.3057262301445007,-1.0996121168136597,0.3195147216320038,0.5783061385154724,0.6399468779563904,93.58000946044922,24.39,0
-0.3809240460395813,-1.2486518621444702,0.2946105599403381,0.2314031422138214,0.6393955945968628,93.53343200683594,24.39,0
-0.4459750056266784,-1.1931570768356323,0.2674329280853271,-0.4354586005210876,0.6390417814254761,93.5035400390625,24.39,0
-0.4205476641654968,-1.095968246459961,0.2164052575826645,-1.0568711757659912,0.6388147473335266,93.48435974121094,24.39,0
-0.3818387687206268,-1.055989146232605,0.1612675338983535,-1.2156254053115845,0.6386690139770508,93.4720458984375,24.39,0
-0.3402042984962463,-1.0695172548294067,0.1090899929404258,-1.0308986902236938,0.6385754942893982,93.46414947509766,24.39,0
-0.3190834820270538,-1.0670032501220703,0.0756054520606994,-0.9374297261238098,0.6385154724121094,93.45907592773438,24.39,0
-0.32232266664505,-1.0374010801315308,0.0485192276537418,-1.0816535949707031,0.6370998024940491,93.45582580566406,24.39,0
-0.3244014084339142,-0.9904152154922484,0.0367346219718456,-1.2566074132919312,0.6361913084983826,93.4537353515625,24.39,0
-0.3257354199886322,-0.9434690475463868,0.0291719399392604,-1.3760478496551514,0.6356083154678345,93.452392578125,24.39,0
-0.3209937214851379,-0.8853528499603271,0.0411119684576988,-1.5350971221923828,0.6352341771125793,93.4515380859375,24.39,0
-0.3011574447154999,-0.8368616700172424,0.0599699430167675,-1.6371657848358154,0.6349940896034241,93.45098876953124,24.39,0
-0.2828299105167389,-0.783351719379425,0.088865227997303,-1.476965308189392,0.6348400115966797,93.45063018798828,24.39,0
-0.2934594452381134,-0.7546098828315735,0.1297996491193771,-1.1054645776748655,0.6347411274909973,93.45040130615234,24.39,0
-0.3058786392211914,-0.7305672764778137,0.1784601062536239,-0.6843454837799072,0.6346776485443115,93.45025634765624,24.39,0
-0.3082507848739624,-0.7207358479499817,0.2488720118999481,-0.1848106533288955,0.6360141038894653,93.45016479492188,24.39,0
-0.2985775470733642,-0.7200244069099426,0.3108516335487366,0.408037781715393,0.6368717551231384,93.45010375976562,24.39,0
-0.3091631531715393,-0.7419589161872864,0.3618221282958984,0.999865710735321,0.6374221444129944,93.45006561279295,24.39,0
-0.349543035030365,-0.8120129704475403,0.4169231653213501,1.5659607648849487,0.6377753615379333,93.45004272460938,24.39,0
-0.3866520524024963,-0.8961540460586548,0.4634793996810913,2.0367252826690674,0.6380020380020142,93.45002746582033,24.39,0
-0.4384553730487823,-0.9669442772865297,0.4765631854534149,2.1632885932922363,0.6381474733352661,93.45001983642578,24.39,0
-0.4605042040348053,-1.0123733282089231,0.4793618321418762,1.8611741065979004,0.6382408142089844,93.45001220703124,24.39,0
-0.4858494102954864,-1.0807116031646729,0.4923533797264099,1.3305323123931885,0.6383007168769836,93.45000457763672,24.39,0
-0.5021145343780518,-1.1189693212509155,0.4950928390026092,0.6962257027626038,0.6365031003952026,93.45000457763672,24.39,0
-0.4733681082725525,-1.0987387895584106,0.4744597673416137,-0.0261024422943592,0.635349452495575,93.45000457763672,24.39,0
-0.3821492493152618,-0.9849960207939148,0.4332297742366791,-0.5899631381034851,0.6346091628074646,93.45000457763672,24.39,0
-0.312414675951004,-0.934393584728241,0.3955751955509186,-0.7010361552238464,0.63413405418396,93.45000457763672,24.39,0
-0.2844563722610473,-0.9522998332977296,0.3546173274517059,-0.464214950799942,0.6338291764259338,93.45000457763672,24.39,0
-0.3112965226173401,-0.9525954723358154,0.3003440499305725,-0.2441678047180175,0.6336334943771362,93.45000457763672,24.39,0
-0.3341187834739685,-0.9471874237060548,0.2655145823955536,-0.1853534430265426,0.6335079073905945,93.45000457763672,24.39,0
-0.3207759261131286,-0.9381190538406372,0.2543585896492004,-0.2371741682291031,0.6334273219108582,93.45000457763672,24.39,0
-0.2898221313953399,-0.9267017245292664,0.2527970969676971,-0.342081218957901,0.6338345408439636,93.45000457763672,24.41,0
-0.2307733595371246,-0.8969836235046387,0.2573927938938141,-0.4094045460224151,0.6340958476066589,93.45000457763672,24.41,0
-0.1928792595863342,-0.8611189723014832,0.2435487210750579,-0.3415489494800567,0.6342635750770569,93.45000457763672,24.41,0
-0.1741587817668914,-0.8269075155258179,0.2290666103363037,-0.1081266030669212,0.6343712210655212,93.45000457763672,24.41,0
-0.1733406037092209,-0.8049525618553162,0.2253706008195877,0.2315469086170196,0.6344403028488159,93.45000457763672,24.41,0
-0.1784133166074752,-0.7796676158905029,0.228596493601799,0.6394063234329224,0.634484589099884,93.45000457763672,24.41,0
-0.1928642392158508,-0.7578434348106384,0.2530577778816223,1.130431890487671,0.6345130205154419,93.45000457763672,24.41,0
-0.2189313322305679,-0.7494356632232666,0.2799511849880218,1.6784112453460691,0.6345312595367432,93.45000457763672,24.41,0
-0.2412574589252472,-0.7664311528205872,0.3028075993061065,2.10172438621521,0.6350018978118896,93.45000457763672,24.41,0
-0.2667806446552276,-0.8501089811325073,0.3342688381671905,2.2336618900299072,0.6353039741516113,93.45000457763672,24.41,0
-0.2719644010066986,-0.931797444820404,0.3656544089317322,2.042473554611206,0.6354978084564209,93.45000457763672,24.41,0
-0.2696932554244995,-1.0457959175109863,0.4081869721412658,1.518531322479248,0.6356222033500671,93.39268493652344,24.41,0
-0.2570402324199676,-1.1581380367279053,0.4354819059371948,0.6341612935066223,0.6357020139694214,93.35589599609376,24.41,0
-0.2545180022716522,-1.1966460943222046,0.4418026804924011,-0.3883635699748993,0.6357532143592834,93.33229064941406,24.41,0
-0.2864860296249389,-1.0534250736236572,0.4234679043292999,-1.1592035293579102,0.6357861161231995,93.317138671875,24.41,0
-0.3014034926891327,-0.9391229748725892,0.3781150281429291,-1.532076716423035,0.63580721616745,93.3074188232422,24.41,0
-0.2997811138629913,-0.916150450706482,0.3154235184192657,-1.685383439064026,0.6349028944969177,93.30117797851562,24.41,0
-0.3099355399608612,-0.9126035571098328,0.2975828349590301,-1.7945146560668943,0.6343225836753845,93.29717254638672,24.41,0
-0.3108542859554291,-0.9047295451164246,0.2973292469978332,-1.8287229537963867,0.6339501738548279,93.29460144042967,24.41,0
-0.3226394355297088,-0.8548942804336548,0.3027642965316772,-1.7073729038238523,0.6337111592292786,93.29295349121094,24.41,0
-0.3413980007171631,-0.8117173314094543,0.3062521815299988,-1.5041072368621826,0.6335577964782715,93.2918930053711,24.41,0
-0.3254472911357879,-0.8119977116584778,0.308490514755249,-1.3055940866470337,0.6334593296051025,93.2912139892578,24.41,0
-0.3208088278770447,-0.8345687389373779,0.3155247271060943,-0.9811581373214722,0.6333961486816406,93.29077911376952,24.41,0
-0.3234299123287201,-0.8434557914733887,0.3256366550922394,-0.368122786283493,0.6333556175231934,93.29049682617188,24.41,0
-0.3251119554042816,-0.8435611724853516,0.3545169830322265,0.4014584422111511,0.6342474818229675,93.29032135009766,24.41,0
-0.3149958550930023,-0.8436288237571716,0.3786484897136688,0.9490700364112854,0.6348198056221008,93.29020690917967,24.41,0
-0.2749172747135162,-0.8380744457244873,0.3885369300842285,1.1249494552612305,0.6351870894432068,93.29013061523438,24.41,0
-0.2324038296937942,-0.8624988794326782,0.3780894577503204,1.15183687210083,0.6354227662086487,93.2900848388672,24.41,0
-0.2107189148664474,-0.8893685936927795,0.371384859085083,1.1225181818008425,0.6355740427970886,93.29005432128906,24.41,0
-0.2191938906908035,-0.9234053492546082,0.3670822381973266,0.8959137797355652,0.6356711387634277,93.29003143310548,24.41,0
-0.2302304059267044,-0.9508459568023682,0.3587232828140259,0.5391201376914978,0.635733425617218,93.29002380371094,24.41,0
-0.2317152321338653,-0.9516624212265016,0.3421634435653686,0.2456641495227813,0.6357734203338623,93.2900161743164,24.41,0
-0.2494614422321319,-1.0137618780136108,0.3315362930297851,-0.0859620422124862,0.6357990503311157,93.29000854492188,24.39,0
-0.2888388037681579,-1.0927982330322266,0.3247163891792297,-0.6283776164054871,0.6358155012130737,93.29000854492188,24.39,0
-0.3476955890655517,-1.1211280822753906,0.3147419989109039,-1.2093360424041748,0.635826051235199,93.29000854492188,24.39,0
-0.3742709159851074,-1.0609396696090698,0.2859499156475067,-1.56066632270813,0.6358328461647034,93.29000854492188,24.39,0
-0.3689343333244324,-0.9831297993659972,0.228288397192955,-1.642826795578003,0.635837197303772,93.29000854492188,24.39,0
-0.3487163186073303,-0.9555870294570924,0.1968823224306106,-1.4376072883605957,0.6358399987220764,93.29000854492188,24.39,0
-0.3413393199443817,-0.9994871616363524,0.1879232674837112,-0.9046607613563538,0.6358417868614197,93.29000854492188,24.39,0
-0.3142140805721283,-1.0276597738265991,0.1821738481521606,-0.2545448243618011,0.6358429193496704,93.29000854492188,24.39,0
-0.2856111228466034,-1.0233482122421265,0.1728864312171936,0.1447492986917495,0.6340075731277466,93.29000854492188,24.39,0
-0.2504620850086212,-1.0261790752410889,0.16132852435112,0.1752910017967224,0.6328297853469849,93.29000854492188,24.39,0
-0.2335032224655151,-1.0391913652420044,0.1595091074705124,-0.0093158865347504,0.6320739388465881,93.29000854492188,24.39,0
-0.2450110912322998,-1.0587373971939087,0.1583415120840072,-0.2460109591484069,0.631588876247406,93.29000854492188,24.39,0
-0.2691895067691803,-1.0488898754119873,0.140798881649971,-0.3943256735801697,0.6312776207923889,93.29000854492188,24.39,0
-0.2847058176994324,-1.03137469291687,0.1239432618021965,-0.3139593005180359,0.6310778856277466,93.29000854492188,24.39,0
-0.2946632802486419,-1.014536738395691,0.1131263002753257,-0.0187696535140275,0.6309496760368347,93.29000854492188,24.39,0
-0.2954556345939636,-1.0037310123443604,0.1117823719978332,0.2530653178691864,0.6308674216270447,93.29000854492188,24.39,0
-0.2791708111763,-1.0023943185806274,0.1165176853537559,0.3128709197044372,0.6344870924949646,93.29000854492188,24.39,0
-0.2519268095493316,-1.0239276885986328,0.1307520866394043,0.3046772480010986,0.6368100047111511,93.29000854492188,24.39,0
-0.2288454174995422,-1.0265510082244873,0.1398869007825851,0.621850848197937,0.6383007168769836,93.29000854492188,24.39,0
-0.2140331119298935,-0.9778544902801514,0.1569446474313736,1.4702582359313965,0.6392573714256287,93.29000854492188,24.39,0
-0.2157229781150818,-0.9354082942008972,0.1790868788957595,2.498364925384521,0.6398712992668152,93.23626708984376,24.39,0
-0.2056118845939636,-0.919364333152771,0.2268831431865692,2.946772575378418,0.6402652859687805,93.2017822265625,24.39,0
-0.2159164845943451,-0.8866771459579468,0.2743493616580963,2.2959001064300537,0.6405181288719177,93.17964935302734,24.39,0
-0.2281271666288375,-0.8097226619720459,0.3160059750080108,0.9073294997215272,0.6406803727149963,93.16544342041016,24.39,0
-0.219169944524765,-0.7771310210227966,0.3707276880741119,-0.1772341728210449,0.6380302309989929,93.15632629394533,24.39,0
-0.1910306215286255,-0.7954000234603882,0.4114426970481872,-0.3537712693214416,0.6363295316696167,93.15047454833984,24.39,0
-0.1561791002750396,-0.8351128697395325,0.4431690275669098,-0.0586489923298358,0.6352381110191345,93.14672088623048,24.39,0
-0.1394111812114715,-0.8438049554824829,0.4523335993289947,-0.0376375466585159,0.6345376968383789,93.1443099975586,24.39,0
-0.1454438120126724,-0.8493830561637878,0.4582149088382721,-0.4397323429584503,0.6340882182121277,93.14276885986328,24.39,0
-0.1773040890693664,-0.8641582727432251,0.473184734582901,-0.841076672077179,0.6337997317314148,93.14177703857422,24.39,0
-0.2033479511737823,-0.8904334902763367,0.4715959429740906,-0.858603835105896,0.6336145997047424,93.14114379882812,24.39,0
-0.2256591767072677,-0.9128931760787964,0.4705763757228851,-0.4972638785839081,0.6334958076477051,93.14073181152344,24.39,0
-0.2399772405624389,-0.938502073287964,0.4699220657348633,-0.0898304879665374,0.6325013637542725,93.14047241210938,24.39,0
-0.254763513803482,-0.9437408447265624,0.458306610584259,0.039081510156393,0.6318631768226624,93.14030456542967,24.39,0
-0.2698502838611603,-0.9191139340400696,0.4172658324241638,-0.1397182196378708,0.6314536333084106,93.14019775390624,24.39,0
-0.2627387642860412,-0.8865164518356323,0.4021237790584564,-0.3870168626308441,0.631190836429596,93.14012908935548,24.39,0
-0.2637727856636047,-0.8599994778633118,0.3924064934253692,-0.4382416307926178,0.6310221552848816,93.14008331298828,24.39,0
-0.2644363641738891,-0.8541779518127441,0.3861704766750335,-0.2669079601764679,0.6309139132499695,93.14005279541016,24.39,0
-0.2648622095584869,-0.8616375923156738,0.3765707910060882,-0.092469498515129,0.6308444738388062,93.14002990722656,24.39,0
-0.2763310372829437,-0.8608270287513733,0.359214723110199,-0.0127681205049157,0.6307998895645142,93.14002227783205,24.39,0
-0.2836910784244537,-0.8603067994117737,0.3424788117408752,0.1458569020032882,0.6312301754951477,93.1400146484375,24.39,0
-0.3052076399326324,-0.8711685538291931,0.3149453401565552,0.4590252637863159,0.6315063238143921,93.14000701904295,24.39,0
-0.3637979328632355,-1.001289963722229,0.2916781902313232,0.7065721750259399,0.6316835284233093,93.14000701904295,24.39,0
-0.4349844455718994,-1.1631633043289185,0.2711488902568817,0.6934699416160583,0.6317972540855408,93.14000701904295,24.39,0
-0.4694723188877105,-1.1382954120635986,0.2523765861988067,0.4020381867885589,0.6318702697753906,93.14000701904295,24.39,0
-0.4692135453224182,-1.027174472808838,0.2067429572343826,-0.1002526059746742,0.6319171190261841,93.14000701904295,24.39,0
-0.4242652952671051,-0.9502657055854796,0.1550668329000473,-0.6268007159233093,0.6319471597671509,93.14000701904295,24.39,0
-0.4066156446933746,-0.9624856114387512,0.1275018453598022,-0.9575438499450684,0.6319664716720581,93.14000701904295,24.39,0
-0.4176802039146423,-0.9927187561988832,0.0986166670918464,-0.990666925907135,0.6315199136734009,93.14000701904295,24.39,0
-0.4303785562515259,-1.0177184343338013,0.0576887242496013,-0.7718908786773682,0.6312333345413208,93.14000701904295,24.39,0
-0.4217343330383301,-1.033761739730835,0.0314235277473926,-0.513267993927002,0.6310494542121887,93.14000701904295,24.39,0
-0.3826003074645996,-1.0720462799072266,0.036959134042263,-0.4547759890556335,0.6309314370155334,93.14000701904295,24.39,0
-0.3406930267810821,-1.0630284547805786,0.0573048926889896,-0.5282990336418152,0.6308556795120239,93.14000701904295,24.39,0
-0.3137993514537811,-1.0572413206100464,0.0703616291284561,-0.4895000755786896,0.630807101726532,93.14000701904295,24.39,0
-0.3133338391780853,-1.0367342233657837,0.0787406861782074,-0.4001147747039795,0.6307759284973145,93.14000701904295,24.39,0
-0.313035100698471,-1.0067806243896484,0.0785201117396354,-0.4896380305290222,0.6307559013366699,93.14000701904295,24.39,0
-0.324038952589035,-0.9707647562026978,0.0783785581588745,-0.6259055733680725,0.6289066076278687,93.14000701904295,24.39,0
-0.3143072724342346,-0.930858552455902,0.1006788164377212,-0.5449731945991516,0.6277198195457458,93.14000701904295,24.39,0
-0.3024642467498779,-0.905248999595642,0.1149898394942283,-0.292411208152771,0.6269582509994507,93.14000701904295,24.39,0
-0.2892663180828094,-0.8888142704963684,0.1185760572552681,-0.0765928402543068,0.6264694929122925,93.14000701904295,24.39,0
-0.2807966470718384,-0.8726696372032166,0.1264752596616745,0.0619069673120975,0.6261558532714844,93.14000701904295,24.39,0
-0.2753612995147705,-0.8735045194625854,0.1427400559186935,0.2403525710105896,0.6259545683860779,93.08985137939452,24.39,0
-0.2942642867565155,-0.9076269268989564,0.1867645233869552,0.4695110917091369,0.6258254051208496,93.0576629638672,24.39,0
-0.2951996028423309,-0.9351224899291992,0.2262124270200729,0.5377551913261414,0.625742495059967,93.03700256347656,24.39,0
-0.2902020514011383,-0.9639631509780884,0.2515278160572052,0.3415177464485168,0.6284439563751221,93.02374267578124,24.39,0
-0.2869949042797088,-0.9544825553894044,0.2957626581192016,0.1510974913835525,0.6301775574684143,93.0152359008789,24.39,0
-0.2569478750228882,-0.8588340282440186,0.3577366769313812,0.2474338412284851,0.6312901377677917,93.00978088378906,24.39,0
-0.2152743190526962,-0.8534300327301025,0.3919102549552917,0.5277940630912781,0.6320040822029114,93.00627899169922,24.39,0
-0.1941284090280532,-0.8891465067863464,0.4026453495025635,0.7865297794342041,0.6324622631072998,93.0040283203125,24.39,0
-0.2085470557212829,-0.9400561451911926,0.3983389735221863,1.0278055667877195,0.6327562928199768,93.0025863647461,24.39,0
-0.2233978807926178,-0.9447381496429444,0.4067709445953369,1.2220507860183716,0.6329450011253357,93.0016632080078,24.39,0
-0.2329282909631729,-0.9253516793251038,0.4233776330947876,1.275054693222046,0.6330661177635193,93.00106811523438,24.39,0
-0.2278488129377365,-0.8961172699928284,0.400448203086853,1.258913516998291,0.6322256326675415,93.0006866455078,24.39,0
-0.2301868647336959,-0.8773562908172607,0.3689400851726532,1.2270596027374268,0.6316862106323242,93.0004425048828,24.39,0
-0.2372850775718689,-0.8877077102661133,0.3655133247375488,1.0525667667388916,0.6313400864601135,93.00028228759766,24.39,0
-0.2530358433723449,-0.8999484181404114,0.368912011384964,0.7507108449935913,0.6311179399490356,93.00018310546876,24.39,0
-0.2743393182754516,-0.8910104632377625,0.3710930645465851,0.5569970607757568,0.6309753656387329,93.00011444091795,24.39,0
-0.2712173461914062,-0.8796768188476562,0.3724927604198456,0.5473251342773438,0.6308838725090027,93.00007629394533,24.39,0
-0.258018285036087,-0.8724035620689392,0.3733910024166107,0.5697788596153259,0.6308251619338989,93.0000457763672,24.39,0
-0.2271568030118942,-0.8677359819412231,0.3571741282939911,0.5806058049201965,0.6307874917984009,93.00003051757812,24.39,0
-0.2129494547843933,-0.8647406101226807,0.3411692976951599,0.6377099752426147,0.6316815614700317,93.0000228881836,24.39,0
-0.2150275409221649,-0.8796116709709167,0.3197027444839477,0.7495902180671692,0.6322553157806396,93.00001525878906,24.39,0
-0.2275566905736923,-0.917143940925598,0.3003289699554443,0.8500491380691528,0.6326234936714172,93.00000762939452,24.39,0
-0.241194948554039,-0.9300343990325928,0.2822982370853424,0.8321186304092407,0.6328597664833069,93.00000762939452,24.39,0
-0.2555449604988098,-0.955100119113922,0.2595315873622894,0.6020748019218445,0.6330114006996155,93.00000762939452,24.39,0
-0.270351767539978,-1.0103702545166016,0.2505190372467041,0.1929178535938263,0.6331087350845337,93.00000762939452,24.39,0
-0.3414294421672821,-1.10181725025177,0.2671264111995697,-0.2559494078159332,0.6331712007522583,93.00000762939452,24.39,0
-0.3926407694816589,-1.0653403997421265,0.2497951984405517,-0.6765618920326233,0.6332112550735474,93.00000762939452,24.39,0
-0.4087119400501251,-0.9971495270729064,0.216281920671463,-1.089789867401123,0.6332369446754456,93.00000762939452,24.39,0
-0.3798410594463348,-0.9645841121673584,0.1891772598028183,-1.401549220085144,0.6332534551620483,93.00000762939452,24.39,0
-0.3389222919940948,-0.977272093296051,0.1829786002635955,-1.4833934307098389,0.6332640647888184,93.00000762939452,24.39,0
-0.2958696484565735,-1.0357944965362549,0.1901962012052536,-1.4535170793533323,0.6332708597183228,93.00000762939452,24.39,0
-0.2514476180076599,-1.0677530765533447,0.1948280483484268,-1.5418214797973633,0.6332752108573914,93.00000762939452,24.39,0
-0.217342346906662,-1.071468949317932,0.1978004872798919,-1.7095500230789185,0.6332780122756958,93.00000762939452,24.39,0
-0.1898577809333801,-1.0570602416992188,0.205305814743042,-1.795693039894104,0.6332798004150391,93.00000762939452,24.39,0
-0.1554264426231384,-1.0422157049179075,0.2269156128168106,-1.8581398725509644,0.6332809329032898,93.00000762939452,24.39,0
-0.144525945186615,-1.0047005414962769,0.2183924466371536,-1.9627009630203247,0.6328223943710327,93.00000762939452,24.41,0
-0.1543239504098892,-0.963832139968872,0.1961294412612915,-1.8614212274551392,0.6325281262397766,93.00000762939452,24.41,0
-0.1550139784812927,-0.932007372379303,0.1874400973320007,-1.4202553033828735,0.6323392987251282,93.00000762939452,24.41,0
-0.1554567962884903,-0.8947907090187073,0.1874615550041198,-0.9759244322776794,0.6322181224822998,93.00000762939452,24.41,0
-0.1669365167617797,-0.8597116470336914,0.187475323677063,-0.8376640677452087,0.6321403384208679,93.00000762939452,24.41,0
-0.157510221004486,-0.8260043859481812,0.2042774856090545,-0.7955100536346436,0.6320903897285461,93.00000762939452,24.41,0
-0.1514609605073928,-0.8323618769645691,0.2262556999921798,-0.4818519651889801,0.6320583820343018,92.95701599121094,24.41,0
-0.1475788950920105,-0.830843985080719,0.2459578216075897,0.1314319372177124,0.6320378184318542,92.9294204711914,24.41,0
-0.1562831550836563,-0.8522610068321228,0.2753948271274566,0.7901128530502319,0.631106436252594,92.91171264648438,24.41,0
-0.1618690490722656,-0.9163851737976074,0.2998835742473602,1.2593897581100464,0.6305087208747864,92.90035247802734,24.41,0
-0.1878448575735092,-0.9855252504348756,0.3155990540981293,1.427989482879639,0.630125105381012,92.89305877685548,24.41,0
-0.1989168524742126,-1.0354931354522705,0.3704665303230285,1.3176499605178833,0.6298789381980896,92.8883819580078,24.41,0
-0.1836311370134353,-1.033972978591919,0.405677318572998,1.0641289949417114,0.6297209858894348,92.8853759765625,24.41,0
-0.1738216429948806,-1.0162041187286377,0.3946869373321533,0.7975391745567322,0.6296195983886719,92.8834457397461,24.41,0
-0.1675264686346054,-1.0215944051742554,0.3708406090736389,0.5619707703590393,0.6295545101165771,92.88220977783205,24.41,0
-0.1802799105644226,-1.075433611869812,0.321950763463974,0.3570579290390014,0.6295127868652344,92.88141632080078,24.41,0
-0.2052576541900634,-1.0484089851379397,0.284978300333023,0.1825657486915588,0.6299452781677246,92.8809051513672,24.41,0
-0.2324824929237365,-1.0086749792099,0.2612515091896057,0.0777518525719642,0.6302228569984436,92.88057708740234,24.41,0
-0.2331604957580566,-0.960784912109375,0.2348294705152511,0.0534792393445968,0.6304009556770325,92.88037109375,24.41,0
-0.227997824549675,-0.9188562631607056,0.2178733348846435,0.0199895948171615,0.6305152773857117,92.88023376464844,24.41,0
-0.2358802706003189,-0.8863511085510254,0.190198540687561,-0.0158324334770441,0.6305886507034302,92.8801498413086,24.41,0
-0.257732093334198,-0.8598933815956116,0.1668406724929809,0.1761335730552673,0.6306357383728027,92.88009643554688,24.41,0
-0.2829508781433105,-0.8261210322380066,0.1574487090110778,0.6683315634727478,0.6306659579277039,92.88005828857422,24.41,0
-0.3215259611606598,-0.7876545190811157,0.1570192575454712,1.113168716430664,0.6306853294372559,92.88003540039062,24.41,0
-0.3406834304332733,-0.7685667276382446,0.1623414456844329,1.1657720804214478,0.6288613080978394,92.88002014160156,24.41,0
-0.3473798334598541,-0.767512857913971,0.1937457919120788,0.8878458738327026,0.6276907920837402,92.88001251220705,24.41,0
-0.3516771793365478,-0.8284120559692383,0.241888165473938,0.5339426398277283,0.626939594745636,92.8800048828125,24.41,0
-0.3488371968269348,-0.901080310344696,0.2895765006542206,0.2674195766448974,0.6264575123786926,92.8800048828125,24.41,0
-0.3582102060317993,-0.953312337398529,0.3481689989566803,0.2038576751947403,0.6261481642723083,92.8800048828125,24.41,0
-0.3474319577217102,-0.9868318438529968,0.3857702910900116,0.367274135351181,0.6259496212005615,92.8800048828125,24.41,0
-0.2957328855991363,-1.025136113166809,0.4266939461231231,0.497223436832428,0.6258222460746765,92.8800048828125,24.41,0
-0.3241309225559234,-1.1000975370407104,0.4697497189044952,0.2975939214229584,0.6257404685020447,92.8800048828125,24.41,0
-0.3423551619052887,-1.1426056623458862,0.508575975894928,-0.1386183053255081,0.6266062259674072,92.8800048828125,24.39,0
-0.3316593170166015,-1.0803205966949463,0.5111013650894165,-0.5081185698509216,0.6271618008613586,92.8800048828125,24.39,0
-0.2968064844608307,-1.0179585218429563,0.4959286749362945,-0.7488251328468323,0.627518355846405,92.8800048828125,24.39,0
-0.2408532798290252,-1.0507091283798218,0.4693983793258667,-0.874636173248291,0.6277471780776978,92.8800048828125,24.39,0
-0.1881524175405502,-1.0997154712677002,0.4243839085102081,-0.7547502517700195,0.6278939843177795,92.8800048828125,24.39,0
-0.1655275821685791,-1.1087738275527954,0.3787028789520263,-0.4091211855411529,0.6279882192611694,92.8800048828125,24.39,0
-0.1733993738889694,-1.0865981578826904,0.3493874371051788,-0.1694034785032272,0.6280487179756165,92.8800048828125,24.39,0
-0.1504621505737304,-1.0779647827148438,0.3641611039638519,-0.3093376457691192,0.6280875205993652,92.8800048828125,24.39,0
-0.1357423663139343,-1.0388377904891968,0.3512508869171142,-0.6749976873397827,0.6290306448936462,92.8800048828125,24.39,0
-0.1598827093839645,-0.9857394099235536,0.2981836795806885,-0.8953269124031067,0.6296358704566956,92.8800048828125,24.39,0
-0.1753745824098587,-0.9460662007331848,0.2585304081439972,-0.8432624340057373,0.630024254322052,92.8800048828125,24.39,0
-0.1741208285093307,-0.9150084257125854,0.2442787736654281,-0.7059557437896729,0.6302735209465027,92.8800048828125,24.39,0
-0.1621206998825073,-0.8782839775085449,0.2407306730747223,-0.6285879611968994,0.6304334998130798,92.8800048828125,24.39,0
-0.1376263797283172,-0.8267275094985962,0.2440514862537384,-0.5466945767402649,0.6305361390113831,92.8800048828125,24.39,0
-0.1275051087141037,-0.7768481969833374,0.2461825907230377,-0.3544196784496307,0.6306020021438599,92.8800048828125,24.39,0
-0.1266076415777206,-0.7392407655715942,0.2531479895114898,-0.0733954086899757,0.6306442618370056,92.8370132446289,24.39,0
-0.1596183329820633,-0.743095338344574,0.2632157504558563,0.2323399484157562,0.6288349628448486,92.8094253540039,24.39,0
-0.1975960284471511,-0.7511667609214783,0.2752744257450104,0.5897592306137085,0.627673864364624,92.79171752929688,24.39,0
-0.2163701504468917,-0.8291175961494446,0.3054040968418121,1.026919722557068,0.6269287467002869,92.78035736083984,24.39,0
-0.1780383288860321,-1.0582706928253174,0.3135440349578857,1.414941430091858,0.6264505982398987,92.77306365966795,24.39,0
-0.1534391790628433,-1.2277190685272217,0.2851811349391937,1.5815521478652954,0.6261436939239502,92.76838684082033,24.39,0
-0.2943905293941498,-1.2021147012710571,0.2557839155197143,1.5344226360321045,0.6259467601776123,92.765380859375,24.39,0
-0.3568561375141144,-1.1688899993896484,0.2313206791877746,1.325048804283142,0.6258203983306885,92.7634506225586,24.39,0
-0.3689540922641754,-1.1531660556793213,0.1204594224691391,0.979312777519226,0.6257392764091492,92.76221466064452,24.39,0
-0.3879134058952331,-1.1094887256622314,0.0549128241837024,0.6714574694633484,0.6270643472671509,92.76142120361328,24.39,0
-0.37209153175354,-1.0926547050476074,0.035239890217781,0.481058806180954,0.6279147267341614,92.76091003417967,24.39,0
-0.373133510351181,-1.0482648611068726,0.0394082553684711,0.1546651124954223,0.6284604668617249,92.76058197021484,24.39,0
-0.3738021850585937,-1.0085824728012085,0.0364854969084262,-0.4023054242134094,0.6288106441497803,92.7603759765625,24.39,0
-0.3574379980564117,-0.9775188565254213,0.0290120653808116,-0.8457188606262207,0.6290354132652283,92.76023864746094,24.39,0
-0.3525341749191284,-0.9295951724052428,0.0242160484194755,-1.0299639701843262,0.6291796565055847,92.7601547241211,24.39,0
-0.3549849390983581,-0.8876449465751648,0.0211382396519184,-1.2306010723114014,0.6292722225189209,92.76010131835938,24.39,0
-0.3621554970741272,-0.8327348232269287,0.0303586293011903,-1.445340275764465,0.6293315887451172,92.76006317138672,24.39,0
-0.3611593544483185,-0.7807033658027649,0.0418735183775424,-1.3753581047058103,0.627992570400238,92.76004028320312,24.43,0
-0.3605200946331024,-0.7473125457763672,0.0716542080044746,-1.1119104623794556,0.6271332502365112,92.76002502441406,24.43,0
-0.3601098656654358,-0.7482753396034241,0.1187546178698539,-0.9392623901367188,0.6265817880630493,92.76001739501952,24.43,0
-0.3654443621635437,-0.771284282207489,0.1601765006780624,-0.7389023900032043,0.6262279152870178,92.760009765625,24.43,0
-0.3912588357925415,-0.8364300727844238,0.2091497778892517,-0.3308819830417633,0.6260008215904236,92.760009765625,24.43,0
-0.4246183931827545,-0.911823570728302,0.2685668766498565,0.1889074444770813,0.6258550882339478,92.760009765625,24.43,0
-0.4124400019645691,-0.9602067470550536,0.3458817601203918,0.672946572303772,0.6257615685462952,92.760009765625,24.43,0
-0.4158201515674591,-1.013647437095642,0.4402801990509033,0.9620795845985411,0.6257015466690063,92.760009765625,24.43,0
-0.3900004625320434,-1.0703336000442505,0.5344463586807251,0.8825178742408752,0.6238266229629517,92.760009765625,24.43,0
-0.3398442268371582,-1.1291027069091797,0.6004745364189148,0.5448537468910217,0.6226233839988708,92.760009765625,24.43,0
-0.3244501650333404,-1.0996440649032593,0.6148587465286255,0.2457610666751861,0.6218512058258057,92.760009765625,24.43,0
-0.2697889506816864,-0.9911747574806212,0.5625141859054565,0.0251600164920091,0.6213556528091431,92.760009765625,24.43,0
-0.234710544347763,-0.971945345401764,0.4897380471229553,-0.2346340417861938,0.6210376620292664,92.760009765625,24.43,0
-0.2289925515651703,-1.015582799911499,0.4262411892414093,-0.4264329373836517,0.6208335757255554,92.760009765625,24.43,0
-0.2533119618892669,-1.0771734714508057,0.3798947632312774,-0.366807073354721,0.6207026243209839,92.760009765625,24.43,0
-0.2745165228843689,-1.1111010313034058,0.3725433945655823,-0.0705971866846084,0.6206185817718506,92.760009765625,24.43,0
-0.2041577696800232,-1.1384714841842651,0.4014123678207397,0.2699614465236664,0.6228603720664978,92.760009765625,24.43,0
-0.1422122567892074,-1.0944608449935913,0.3695588409900665,0.4598517715930938,0.6242989897727966,92.760009765625,24.43,0
-0.119252510368824,-1.0494239330291748,0.3267259895801544,0.4455745816230774,0.6252222061157227,92.760009765625,24.43,0
-0.1269093602895736,-0.9925330281257628,0.2880427837371826,0.354013055562973,0.62581467628479,92.760009765625,24.43,0
-0.1486164182424545,-0.9448281526565552,0.2520225644111633,0.3454101979732513,0.6261948943138123,92.760009765625,24.43,0
-0.1737423092126846,-0.8862250447273254,0.2401024103164672,0.4437840580940246,0.6264389157295227,92.760009765625,24.43,0
