acc_x,acc_y,acc_z,bvp,eda,hr,temp,label
0.0,0.0,0.0,0.0,0.0,0.0,34.73,0
-0.0416666641831398,-0.1458333283662796,0.0572916641831398,36.783329010009766,0.4174773097038269,12.848332405090332,34.73,0
-0.0933689028024673,-0.3288871943950653,0.1509146392345428,69.43097686767578,0.9775078892707824,30.08390045166016,34.73,0
-0.163257896900177,-0.4881125390529632,0.2223837226629257,63.517574310302734,1.464638113975525,45.07587814331055,34.73,0
-0.171540081501007,-0.550894021987915,0.2478332817554474,14.53679084777832,1.82002592086792,56.01333618164063,34.73,0
-0.2265549600124359,-0.6977044343948364,0.1936973333358764,-41.30791473388672,2.060638427734375,63.418453216552734,34.73,0
-0.2404403239488601,-0.9050946831703186,0.1526232808828354,-73.98029327392578,2.2185146808624268,68.27727508544922,34.73,0
-0.2494332045316696,-0.9222452044487,0.1260216385126114,-66.71009063720703,2.32076358795166,71.4240951538086,34.73,0
-0.2384556382894516,-0.9165225625038148,0.114475779235363,-27.64502716064453,2.375627279281616,73.4511947631836,34.73,0
-0.2146159559488296,-0.929628312587738,0.1238386929035186,17.09601593017578,2.4108903408050537,74.75409698486328,34.73,0
-0.2105001807212829,-0.938044250011444,0.1242546439170837,46.85820770263672,2.433534860610962,75.59075927734375,34.73,0
-0.2134554535150528,-0.9490437507629396,0.1189244017004966,61.69288635253906,2.448070526123047,76.12782287597656,34.73,0
-0.2209497541189193,-0.9505058526992798,0.1211009472608566,68.12232208251953,2.457399845123291,76.47251892089844,34.73,0
-0.2201616913080215,-0.951444149017334,0.1280954778194427,68.66961669921875,2.463387012481689,76.69373321533203,34.73,0
-0.2196559458971023,-0.9520463347434998,0.1325842440128326,64.98330688476562,2.4672293663024902,76.835693359375,34.73,0
-0.2305269092321396,-0.9524327516555786,0.1242693811655044,60.310455322265625,2.4696950912475586,76.92679595947266,34.73,0
-0.2375032901763916,-0.952680766582489,0.1133355945348739,56.91759490966797,2.4703593254089355,76.98526000976562,34.73,0
-0.2475780993700027,-0.9416443705558776,0.1063189134001731,54.99103164672852,2.470785617828369,77.02278137207031,34.73,0
-0.2372502237558365,-0.9513551592826844,0.1130115538835525,53.299686431884766,2.471059083938598,77.04685974121094,34.73,0
-0.2418179214000702,-0.946391463279724,0.1061109602451324,50.67735290527344,2.4712345600128174,77.06231689453125,34.73,0
-0.2503469884395599,-0.9488037824630736,0.1016825512051582,47.926883697509766,2.4713473320007324,77.07223510742188,34.73,0
-0.2502226829528808,-0.950351893901825,0.0988406538963317,46.709922790527344,2.4714195728302,77.07859802246094,34.73,0
-0.250142902135849,-0.9513453841209412,0.1026146635413169,50.50389862060547,2.471466064453125,77.08267974853516,34.73,0
-0.2500917017459869,-0.9519829154014589,0.1050366088747978,61.57982635498047,2.4714958667755127,77.0853042602539,34.73,0
-0.2500588595867157,-0.9523921012878418,0.1065908670425415,73.10144805908203,2.468301296234131,77.08698272705078,34.73,0
-0.2500377595424652,-0.9526546597480774,0.1131860762834549,71.65715026855469,2.4662511348724365,77.08806610107422,34.73,0
-0.2500242292881012,-0.9528231620788574,0.1174185052514076,55.27863693237305,2.464935541152954,77.08876037597656,34.73,0
-0.2500155568122864,-0.95293128490448,0.1145368590950965,37.78540802001953,2.4640913009643555,77.08920288085938,34.73,0
-0.2500099837779999,-0.9530006647109984,0.1126875877380371,29.482643127441406,2.4635496139526367,77.08948516845703,34.73,0
-0.2500064074993133,-0.9474474191665648,0.1115008294582367,26.264543533325195,2.463201999664306,77.08966827392578,34.73,0
-0.2500041127204895,-0.9438836574554444,0.1107392385601997,20.2191104888916,2.462978839874268,77.08978271484375,34.73,0
-0.2500026524066925,-0.9415966868400574,0.1046527177095413,7.752066135406494,2.4628355503082275,77.08985900878906,34.73,0
-0.2555994689464569,-0.9457268118858336,0.1007467359304428,-11.193334579467772,2.459071397781372,77.02900695800781,34.65,0
-0.2591911852359772,-0.948377251625061,0.0982400998473167,-31.541168212890625,2.456655740737915,76.98995208740234,34.65,0
-0.2670939266681671,-0.9444804191589355,0.0966314896941185,-44.98973846435547,2.4551055431365967,76.96488952636719,34.65,0
-0.272165447473526,-0.9419796466827391,0.0955991744995117,-47.304176330566406,2.454110860824585,76.94880676269531,34.65,0
-0.275420069694519,-0.940374791622162,0.094936691224575,-42.097198486328125,2.453472375869751,76.93848419189453,34.65,0
-0.2775086760520935,-0.9337471127510072,0.0889137759804725,-34.3526725769043,2.4530627727508545,76.9318618774414,34.65,0
-0.2788490355014801,-0.9294938445091248,0.0906463861465454,-26.867713928222656,2.452799797058105,76.9276123046875,34.65,0
-0.2797091901302337,-0.932362139225006,0.0861605033278465,-23.15340232849121,2.4526309967041016,76.92488098144531,34.65,0
-0.2858589589595794,-0.9342027902603148,0.0776839479804039,-30.10238075256348,2.444718837738037,76.92313385009766,34.65,0
-0.2842077612876892,-0.9353840351104736,0.072244182229042,-55.55572891235352,2.439641237258911,76.92201232910156,34.65,0
-0.2831481099128723,-0.936142086982727,0.0687532573938369,-94.48194885253906,2.43638277053833,76.9212875366211,34.65,0
-0.2824681103229522,-0.9422263503074646,0.0665129795670509,-127.08985137939452,2.4342916011810303,76.92082214355469,34.65,0
-0.2820317149162292,-0.946130871772766,0.0650753006339073,-129.60487365722656,2.4329497814178467,76.92052459716797,34.65,0
-0.2761538922786712,-0.943038821220398,0.064152680337429,-98.59951782226562,2.432088613510132,76.92033386230469,34.65,0
-0.272381842136383,-0.9354566931724548,0.0635605975985527,-56.37545394897461,2.4315359592437744,76.92021179199219,34.65,0
-0.2643633782863617,-0.9305909276008606,0.0575828552246093,-24.70353126525879,2.4311814308166504,76.92013549804688,34.65,0
-0.2592175900936126,-0.9274683594703674,0.053746685385704,-6.782223701477051,2.431767463684082,76.92008972167969,34.65,0
-0.2559153139591217,-0.9254645109176636,0.0568826273083686,1.45491361618042,2.432143449783325,76.92005920410156,34.65,0
-0.2481983304023742,-0.9241785407066344,0.0588950924575328,2.019200325012207,2.432384729385376,76.92003631591797,34.65,0
-0.2376482486724853,-0.9345488548278807,0.0657843500375747,-1.086606502532959,2.432539701461792,76.9200210571289,34.65,0
-0.2308778017759323,-0.9468016624450684,0.0758032575249672,-3.9467175006866455,2.4326391220092773,76.92001342773438,34.65,0
-0.2209351509809494,-0.9602625966072084,0.0766350403428077,-7.415826797485352,2.432702779769897,76.92000579833984,34.65,0
-0.2201523035764694,-0.9744988083839417,0.0827666074037551,-14.414092063903809,2.432743787765503,76.92000579833984,34.65,0
-0.2196499109268188,-0.9836348295211792,0.0978970378637313,-23.258005142211918,2.432770013809204,76.92000579833984,34.65,0
-0.2137297391891479,-0.978302240371704,0.1188024282455444,-29.07682228088379,2.425901174545288,76.92000579833984,34.65,0
-0.2099305093288421,-0.9748800992965698,0.1546093970537185,-29.500703811645508,2.4214930534362797,76.92000579833984,34.65,0
-0.241079032421112,-0.9558905959129332,0.1607949286699295,-26.2438907623291,2.4186642169952397,76.92000579833984,34.65,0
-0.2722639143466949,-0.9325087070465088,0.1479711234569549,-20.943866729736328,2.41684889793396,76.92000579833984,34.65,0
-0.2978743314743042,-0.9119057655334472,0.1173504441976547,-12.727635383605955,2.4156839847564697,76.92000579833984,34.65,0
-0.3087118566036224,-0.898684024810791,0.0976998582482338,-1.3000658750534058,2.4149363040924072,76.92000579833984,34.65,0
-0.3212645351886749,-0.8957968354225159,0.0850892439484596,10.798315048217772,2.414456605911255,76.92000579833984,34.65,0
-0.3237223625183105,-0.8939439654350281,0.0769964754581451,19.89866065979004,2.414148569107056,76.92000579833984,34.65,0
-0.3197018802165985,-0.8815593719482422,0.0718030035495758,24.416767120361328,2.409360647201538,76.86626434326172,34.61,0
-0.3171217441558838,-0.8848072290420532,0.0740679055452346,25.338647842407227,2.406287908554077,76.83177947998047,34.61,0
-0.3154659569263458,-0.8980870246887207,0.0811191648244857,24.135387420654297,2.4043161869049072,76.80964660644531,34.61,0
-0.3200011551380157,-0.9290003180503844,0.0856442600488662,21.059608459472656,2.403050661087036,76.79544067382812,34.61,0
-0.3229115903377533,-0.9544364809989928,0.0829504281282424,15.882926940917969,2.402238607406616,76.78632354736328,34.61,0
-0.3247793316841125,-0.9875532984733582,0.0868194550275802,9.168131828308104,2.4017174243927,76.78047180175781,34.61,0
-0.3203801810741424,-1.036794662475586,0.0949001461267471,2.655678987503052,2.4013829231262207,76.77671813964844,34.61,0
-0.3119592666625976,-1.0907859802246094,0.1112814173102378,-2.5554206371307373,2.4011683464050293,76.77430725097656,34.61,0
-0.3233485519886017,-1.1254345178604126,0.1553806215524673,-6.7200140953063965,2.394603729248047,76.77276611328125,34.61,0
-0.3250597417354584,-1.1476699113845823,0.1836809515953064,-10.596356391906738,2.3903911113739014,76.77177429199219,34.61,0
-0.3205601274967193,-1.1451460123062134,0.1402669548988342,-13.78257179260254,2.3876876831054688,76.7711410522461,34.61,0
-0.2952814400196075,-1.1211352348327637,0.0844174847006797,-13.767319679260254,2.3859527111053467,76.7707290649414,34.61,0
-0.2622657120227813,-1.0665420293807983,0.0597720555961132,-6.921977996826172,2.3848392963409424,76.77046966552734,34.61,0
-0.2186870127916336,-0.9755295515060424,0.0495538152754306,7.774455070495605,2.384124755859375,76.77030181884766,34.61,0
-0.179525151848793,-0.9283185601234436,0.037398561835289,22.493661880493164,2.3836662769317627,76.77019500732422,34.61,0
-0.1655888855457306,-0.9316079020500184,-0.0039886278100311,26.039098739624023,2.383372068405152,76.77012634277344,34.61,0
-0.1734387129545211,-0.956109881401062,-0.0473418645560741,15.248703956604004,2.3758385181427,76.77008056640625,34.61,0
-0.1784762740135193,-0.9550405144691468,-0.0751634761691093,-4.386929035186768,2.371004104614258,76.77005004882812,34.61,0
-0.1705135405063629,-0.920767605304718,-0.076224461197853,-24.540016174316406,2.367901563644409,76.77002716064453,34.61,0
-0.1710013002157211,-0.8875777125358582,-0.0713075697422027,-36.28010940551758,2.365910530090332,76.77001953125,34.61,0
-0.1881076395511627,-0.8494849801063538,-0.0569566413760185,-33.220550537109375,2.3646328449249268,76.77001190185547,34.61,0
-0.2046832740306854,-0.8362348079681396,-0.0421492680907249,-17.510759353637695,2.3638129234313965,76.77000427246094,34.61,0
-0.2153205573558807,-0.8445249795913696,-0.0270489733666181,1.498659372329712,2.36328673362732,76.77000427246094,34.61,0
-0.2109514027833938,-0.8554428815841675,-0.0005651502287946,15.492679595947266,2.3629488945007324,76.77000427246094,34.61,0
-0.2081475406885147,-0.8624493479728699,0.0164306424558162,22.41325569152832,2.3521740436553955,76.77000427246094,34.61,0
-0.2287392765283584,-0.8725435137748718,0.0273375641554594,24.80525016784668,2.345259428024292,76.77000427246094,34.61,0
-0.2643449604511261,-0.8902168869972229,0.0287392232567071,26.673473358154297,2.3408219814300537,76.77000427246094,34.61,0
-0.2871946394443512,-0.9127541780471802,0.0296387281268835,30.4052734375,2.3379743099212646,76.77000427246094,34.61,0
-0.3018582463264465,-0.9496084451675416,0.0358137525618076,35.759334564208984,2.336146831512451,76.77000427246094,34.61,0
-0.3056707382202148,-0.978857159614563,0.0453743040561676,42.100730895996094,2.3349740505218506,76.77000427246094,34.61,0
-0.3081173598766327,-1.0144206285476685,0.0627052634954452,49.792259216308594,2.334221363067627,76.77000427246094,34.61,0
-0.3040896952152252,-1.0540364980697632,0.0738272741436958,57.47249221801758,2.333738327026367,76.77000427246094,34.61,0
-0.3015049695968628,-1.068264126777649,0.0753669664263725,59.26288604736328,2.328378915786743,76.72342681884766,34.61,0
-0.2998462617397308,-1.088590145111084,0.0707572773098945,48.4460563659668,2.324939727783203,76.69353485107422,34.61,0
-0.2931840121746063,-1.0792431831359863,0.0677990466356277,25.0210075378418,2.32273268699646,76.67435455322266,34.61,0
-0.2889085710048675,-1.0284626483917236,0.0714983940124511,-2.5221962928771973,2.3213162422180176,76.66204833984375,34.61,0
-0.2637737393379211,-0.9510924220085144,0.0626768767833709,-25.593196868896484,2.3204071521759038,76.6541519165039,34.61,0
-0.2476436495780944,-0.907038390636444,0.0514179617166519,-43.51567840576172,2.319823741912842,76.64907836914062,34.61,0
-0.2372922748327255,-0.9123536944389344,0.0329970866441726,-59.25189971923828,2.3194494247436523,76.64582824707031,34.61,0
-0.2306493669748306,-0.9325581192970276,0.0155778564512729,-69.94161987304688,2.319209337234497,76.64373779296875,34.61,0
-0.2319841086864471,-0.9455241560935974,0.0155947459861636,-68.80535888671875,2.316759824752808,76.64239501953125,34.61,0
-0.2384384423494339,-0.9090628027915956,0.0212033595889806,-55.795108795166016,2.315187931060791,76.64154052734375,34.61,0
-0.2425804585218429,-0.8632729053497314,0.0304004196077585,-38.9874153137207,2.3141791820526123,76.6409912109375,34.61,0
-0.2508363425731659,-0.8226920366287231,0.0530958883464336,-24.747604370117188,2.3135316371917725,76.64063262939453,34.61,0
-0.25053671002388,-0.8134428858757019,0.0732583031058311,-12.266769409179688,2.3131160736083984,76.6404037475586,34.61,0
-0.2503444254398346,-0.8298984169960022,0.1029907092452049,1.6862053871154783,2.312849521636963,76.6402587890625,34.61,0
-0.2614165842533111,-0.8460564017295837,0.1220712512731552,16.07518768310547,2.312678337097168,76.64016723632812,34.61,0
-0.2797175943851471,-0.8732190132141113,0.1287182718515396,23.507173538208008,2.312568664550781,76.64010620117188,34.61,0
-0.3026576936244964,-0.9354326128959656,0.1329839527606964,15.809231758117676,2.3051533699035645,76.64006805419922,34.61,0
-0.3173793256282806,-0.9809554815292358,0.1357214152812957,-4.600425720214844,2.3003945350646973,76.64004516601562,34.61,0
-0.3156312704086303,-1.0325604677200315,0.120684839785099,-23.12577247619629,2.2973406314849854,76.64002990722656,34.61,0
-0.3089116811752319,-1.144046425819397,0.0830463543534278,-29.038537979125977,2.2953808307647705,76.64002227783203,34.61,0
-0.2990016639232635,-1.2155917882919312,0.0476965941488742,-26.506179809570312,2.2941231727600098,76.6400146484375,34.61,0
-0.2646531164646148,-1.2223210334777832,0.0250111557543277,-23.354881286621094,2.293315887451172,76.64000701904297,34.61,0
-0.2146213352680206,-1.1930527687072754,0.0048551713116467,-18.498743057250977,2.2927980422973637,76.64000701904297,34.61,0
-0.1713182628154754,-1.0735101699829102,-0.0136775532737374,-8.26735782623291,2.292465686798096,76.64000701904297,34.61,0
-0.1435288488864898,-0.9855991005897522,-0.0367663390934467,3.916035652160645,2.288121223449707,76.64000701904297,34.61,0
-0.1144996508955955,-0.923585057258606,-0.0515833906829357,12.411742210388184,2.2853331565856934,76.64000701904297,34.61,0
-0.1070659309625625,-0.8949835300445557,-0.0778854414820671,17.698999404907227,2.2835440635681152,76.64000701904297,34.61,0
-0.107893168926239,-0.8766287565231323,-0.1003623604774475,23.746746063232425,2.282395839691162,76.64000701904297,34.61,0
-0.114021822810173,-0.8648496866226196,-0.1091889813542366,31.873193740844727,2.281658887863159,76.64000701904297,34.61,0
-0.1403459310531616,-0.8572905659675598,-0.1036578491330146,41.71696853637695,2.281186103820801,76.64000701904297,34.61,0
-0.1684347838163375,-0.8524395823478699,-0.0945105105638504,53.225284576416016,2.2808825969696045,76.64000701904297,34.61,0
-0.1976561397314071,-0.849326491355896,-0.0830425024032592,63.12921524047852,2.2806878089904785,76.64000701904297,34.61,0
-0.2164087295532226,-0.8473286628723145,-0.0700852200388908,64.60551452636719,2.274595022201538,76.62567138671875,34.59,0
-0.2172475010156631,-0.8516443371772766,-0.0449766591191291,55.66859436035156,2.2706849575042725,76.61647033691406,34.59,0
-0.2177857756614685,-0.8600116968154907,-0.0176678821444511,43.77494812011719,2.2681756019592285,76.6105728149414,34.59,0
-0.2237289845943451,-0.8709791302680969,-0.0001426809467375,37.249305725097656,2.266565322875977,76.60678100585938,34.59,0
-0.238738551735878,-0.917201817035675,-0.0056893387809395,35.42243957519531,2.2655320167541504,76.60435485839844,34.59,0
-0.2483708262443542,-0.9748537540435792,-0.0092488648369908,31.55954933166504,2.26486873626709,76.60279083251953,34.59,0
-0.254552274942398,-1.0230469703674316,-0.0171309374272823,22.45638656616211,2.2644431591033936,76.60179138183594,34.59,0
-0.2529214024543762,-1.1099523305892944,-0.0165914241224527,10.89312744140625,2.2641701698303223,76.60115051269531,34.59,0
-0.2462770193815231,-1.160125494003296,-0.0218429695814847,0.2159317284822464,2.263535976409912,76.60073852539062,34.59,0
-0.2420130372047424,-1.1923236846923828,-0.0252131093293428,-11.153705596923828,2.2631289958953857,76.60047149658203,34.59,0
-0.244874432682991,-1.168204426765442,0.0006130003021098,-29.2658805847168,2.2628676891326904,76.60030364990234,34.59,0
-0.2243196070194244,-1.0687594413757324,0.0283822584897279,-55.996952056884766,2.262700080871582,76.6001968383789,34.59,0
-0.2055309265851974,-1.010539174079895,0.0406051985919475,-80.31656646728516,2.2625925540924072,76.60012817382812,34.59,0
-0.1822778880596161,-0.9787745475769044,0.0428514033555984,-84.4592514038086,2.262523651123047,76.60008239746094,34.59,0
-0.1505621075630188,-0.9919764995574952,0.0386951118707656,-61.742408752441406,2.262479305267334,76.60005187988281,34.59,0
-0.130208745598793,-1.0004487037658691,0.0416256189346313,-24.027772903442383,2.262450933456421,76.60002899169922,34.59,0
-0.1339404433965683,-0.966701328754425,0.0547017976641655,9.232059478759766,2.2610554695129395,76.60002136230469,34.59,0
-0.1475307792425155,-0.9170553088188172,0.0518977865576744,25.63235282897949,2.260159969329834,76.60001373291016,34.59,0
-0.1562522798776626,-0.873999834060669,0.0445005595684051,25.52403259277344,2.259585380554199,76.60000610351562,34.59,0
-0.1674470156431198,-0.8351737260818481,0.0453512221574783,18.296533584594727,2.259216547012329,76.60000610351562,34.59,0
-0.1746311485767364,-0.8158551454544067,0.051494900137186,12.640888214111328,2.258979797363281,76.60000610351562,34.59,0
-0.1848392933607101,-0.8146531581878662,0.0498397871851921,8.92543888092041,2.2588279247283936,76.60000610351562,34.59,0
-0.2249769270420074,-0.8306751251220703,0.071168728172779,1.9661288261413572,2.258730411529541,76.60000610351562,34.59,0
-0.2563327252864837,-0.8353592753410339,0.0792586430907249,-11.313091278076172,2.2586679458618164,76.60000610351562,34.59,0
-0.2820528447628021,-0.8775497078895569,0.0844502821564674,-30.045270919799805,2.2512831687927246,76.60000610351562,34.59,0
-0.3041563034057617,-0.9438095688819884,0.0933797508478164,-50.55362701416016,2.246544122695923,76.60000610351562,34.59,0
-0.3183410465717315,-1.0143201351165771,0.0991101711988449,-65.48450469970703,2.2435028553009038,76.60000610351562,34.59,0
-0.3162484467029571,-1.0931564569473269,0.1083853989839553,-66.69021606445312,2.241551160812378,76.60000610351562,34.59,0
-0.3037099838256836,-1.1381512880325315,0.1199354827404022,-52.012325286865234,2.2402987480163574,76.60000610351562,34.59,0
-0.2788701951503753,-1.172624111175537,0.1049565598368644,-27.21648597717285,2.239494800567627,76.60000610351562,34.59,0
-0.2629294693470001,-1.1723557710647583,0.0897461771965026,-1.4446961879730225,2.238978862762451,76.60000610351562,34.59,0
-0.2471018433570861,-1.127401351928711,0.07438725233078,18.76271247863769,2.238647937774658,76.60000610351562,34.59,0
-0.2201512604951858,-1.0593677759170532,0.042139682918787,33.525535583496094,2.2398126125335693,76.56417846679688,34.63,0
-0.2140514701604843,-1.0213054418563845,0.0214450489729642,47.31646728515625,2.2405600547790527,76.54118347167969,34.63,0
-0.2045392096042633,-0.9856837391853333,-0.0086289001628756,61.37934112548828,2.241039752960205,76.52642822265625,34.63,0
-0.1928370147943496,-0.9516282081604004,-0.0279286280274391,71.35704803466797,2.241347551345825,76.51696014404297,34.63,0
-0.1853272169828415,-0.9073822498321532,-0.0291185341775417,73.03833770751953,2.2415452003479004,76.5108871459961,34.63,0
-0.1861056387424469,-0.8677921891212463,-0.0186866000294685,66.4183349609375,2.2416720390319824,76.50698852539062,34.63,0
-0.1866051852703094,-0.8367878198623657,-0.006394209805876,53.67212677001953,2.241753339767456,76.50448608398438,34.63,0
-0.1981213092803955,-0.8168909549713135,-0.0041034356690943,36.53232192993164,2.2418055534362797,76.50287628173828,34.63,0
-0.2055116891860962,-0.8097200989723206,-0.0026333488058298,15.95317554473877,2.239084482192993,76.50184631347656,34.63,0
-0.2158521860837936,-0.8331071138381958,0.0039078425616025,-7.961653709411621,2.237338066101074,76.50118255615234,34.63,0
-0.2224881201982498,-0.8481155633926392,0.01930115185678,-34.77663803100586,2.236217498779297,76.5007553100586,34.63,0
-0.2267466783523559,-0.8577471375465393,0.0235819164663553,-59.74123001098633,2.2354981899261475,76.50048828125,34.63,0
-0.22947958111763,-0.8919169902801514,0.0207312908023595,-73.34024810791016,2.235036611557007,76.50031280517578,34.63,0
-0.2368311733007431,-0.9250407814979552,0.0189019236713647,-68.65773010253906,2.2347404956817627,76.50019836425781,34.63,0
-0.2471467852592468,-0.9910799264907836,0.023325715214014,-46.56480026245117,2.2345504760742188,76.50012969970703,34.63,0
-0.2481689751148224,-1.0614489316940308,0.0261646509170532,-12.14527702331543,2.2344284057617188,76.50008392333984,34.63,0
-0.2488249540328979,-1.1066076755523682,0.0279865153133869,27.522891998291016,2.233891248703003,76.50005340576172,34.63,0
-0.2548437118530273,-1.146783471107483,0.0347534567117691,60.230770111083984,2.233546495437622,76.50003051757812,34.63,0
-0.253108412027359,-1.1501749753952026,0.0446938648819923,72.47573852539062,2.233325242996216,76.5000228881836,34.63,0
-0.251994788646698,-1.079580307006836,0.0566708222031593,62.223934173583984,2.2331833839416504,76.50001525878906,34.63,0
-0.217693492770195,-1.0062878131866455,0.0699547156691551,43.643287658691406,2.2330923080444336,76.50000762939453,34.63,0
-0.1900831162929535,-0.9648507237434388,0.072881780564785,34.32741165161133,2.2330338954925537,76.50000762939453,34.63,0
-0.1723643690347671,-0.9606499075889589,0.063564658164978,38.81014251708984,2.232996225357056,76.50000762939453,34.63,0
-0.1721890419721603,-0.9803451299667358,0.0631832331418991,47.25780487060547,2.2329721450805664,76.50000762939453,34.63,0
-0.1776743084192276,-0.9705933332443236,0.0741340070962905,48.2939567565918,2.237088203430176,76.50000762939453,34.63,0
-0.1755966693162918,-0.925150752067566,0.0755638107657432,38.47628021240234,2.239729642868042,76.50000762939453,34.63,0
-0.1742633581161499,-0.879194974899292,0.0764813795685768,21.03046989440918,2.241424798965454,76.50000762939453,34.63,0
-0.1734077036380767,-0.8441054224967957,0.0826679915189743,1.6987227201461792,2.2425124645233154,76.50000762939453,34.63,0
-0.1784563809633255,-0.8215869665145874,0.0922359824180603,-13.487357139587402,2.243210554122925,76.50000762939453,34.63,0
-0.1872940957546234,-0.8295270204544067,0.1039739400148391,-20.96513938903809,2.2436585426330566,76.50000762939453,34.63,0
-0.2041611820459365,-0.8346225023269653,0.1115066856145858,-21.454111099243164,2.243946075439453,76.50000762939453,34.63,0
-0.2317788302898407,-0.8434902429580688,0.1163407638669014,-17.02815818786621,2.2441306114196777,76.50000762939453,34.63,0
-0.2662955820560455,-0.8715721964836121,0.1138452291488647,-7.431097984313965,2.242871761322021,76.4068603515625,34.61,0
-0.2996419966220855,-0.9231802225112916,0.1122437343001365,7.752251625061035,2.2420639991760254,76.34708404541016,34.61,0
-0.3210417926311493,-0.9842881560325624,0.1224115341901779,24.571638107299805,2.2415456771850586,76.3087158203125,34.61,0
-0.3179816305637359,-1.0570902824401855,0.1065455451607704,36.69448852539063,2.241213083267212,76.28409576416016,34.61,0
-0.3216155767440796,-1.1206039190292358,0.0963636711239814,41.049293518066406,2.240999460220337,76.26829528808594,34.61,0
-0.3351431787014007,-1.15016770362854,0.0898295268416404,37.778656005859375,2.240862369537353,76.2581558227539,34.61,0
-0.3382266461849212,-1.1523467302322388,0.0856362879276275,27.09947967529297,2.240774393081665,76.25164794921875,34.61,0
-0.3290098905563354,-1.1201584339141846,0.0773475393652916,10.766704559326172,2.240718126296997,76.24747467041016,34.61,0
-0.3118995428085327,-1.043524146080017,0.0608327463269233,-5.633145332336426,2.2429773807525635,76.24479675292969,34.61,0
-0.2953213453292846,-0.999942421913147,0.0446367301046848,-15.86385440826416,2.24442720413208,76.24308013916016,34.61,0
-0.2622913122177124,-0.9887675046920776,0.0118519617244601,-18.19831275939941,2.2453575134277344,76.24197387695312,34.61,0
-0.2354967594146728,-0.9927916526794434,-0.0203829649835824,-17.027414321899414,2.2459545135498047,76.24126434326172,34.61,0
-0.2071060091257095,-0.9729830026626588,-0.0410694852471351,-20.43895149230957,2.246337652206421,76.24081420898438,34.61,0
-0.1832886785268783,-0.9322820901870728,-0.0431493557989597,-33.83099365234375,2.2465834617614746,76.24052429199219,34.61,0
-0.1736018657684326,-0.8893692493438721,-0.0388863198459148,-52.75738525390625,2.24674129486084,76.2403335571289,34.61,0
-0.1841787546873092,-0.8506346940994263,-0.030552776530385,-64.74562072753906,2.246842622756958,76.2402114868164,34.61,0
-0.19096639752388,-0.8313748836517334,-0.0196070130914449,-61.51570510864258,2.248743772506714,76.2401351928711,34.61,0
-0.2009200900793075,-0.8302105665206909,-0.0125826522707939,-46.617313385009766,2.249963760375977,76.2400894165039,34.61,0
-0.2185033410787582,-0.8350611925125122,-0.0080748219043016,-28.608667373657227,2.250746726989746,76.24005889892578,34.61,0
-0.2409828007221222,-0.8437718152999878,-0.0051819561049342,-11.423529624938965,2.251249074935913,76.24003601074219,34.61,0
-0.2666043639183044,-0.8661550879478455,0.0078700678423047,5.043252944946289,2.2515714168548584,76.24002075195312,34.61,0
-0.2830468118190765,-0.886117160320282,0.0218438804149627,20.031583786010746,2.2517783641815186,76.2400131225586,34.61,0
-0.2935986518859863,-0.9269165396690368,0.0308114681392908,32.480464935302734,2.251911163330078,76.24000549316406,34.61,0
-0.3003702163696289,-0.9810881018638612,0.0421641245484352,43.622108459472656,2.2519965171813965,76.24000549316406,34.61,0
-0.3047158122062683,-1.0382434129714966,0.0550473816692829,54.79898834228516,2.2525105476379395,76.24000549316406,34.61,0
-0.2907112240791321,-1.0805201530456543,0.0521195642650127,62.677433013916016,2.252840280532837,76.24000549316406,34.61,0
-0.3041149973869324,-1.0796620845794678,0.0614362098276615,59.82304000854492,2.253051996231079,76.24000549316406,34.61,0
-0.3183145225048065,-1.0455247163772583,0.0786106437444686,42.98384475708008,2.253187894821167,76.24000549316406,34.61,0
-0.3106336593627929,-0.9564440846443176,0.0840344354510307,19.71005630493164,2.253274917602539,76.24000549316406,34.61,0
-0.3001067340373993,-0.910472810268402,0.0763195604085922,2.882678985595703,2.253330945968628,76.24000549316406,34.61,0
-0.2989489436149597,-0.9145577549934388,0.0657708272337913,-2.266441822052002,2.253366708755493,76.24000549316406,34.61,0
-0.3038037121295929,-0.9395703077316284,0.0590012557804584,-2.568652868270874,2.253389835357666,76.24000549316406,34.61,0
-0.3013214468955993,-0.9612197279930116,0.065852478146553,-6.735670566558838,2.2570767402648926,76.11461639404297,34.61,0
-0.2997284829616546,-0.9359286427497864,0.0758469775319099,-14.081501960754396,2.2594428062438965,76.03414916992188,34.61,0
-0.2931084334850311,-0.9029049277305604,0.087858647108078,-16.449047088623047,2.2609610557556152,75.98250579833984,34.61,0
-0.2776645123958587,-0.859321117401123,0.1011648178100586,-8.20588207244873,2.2619354724884038,75.9493637084961,34.61,0
-0.2677534818649292,-0.8313515782356262,0.1153017282485961,9.512062072753906,2.2625608444213867,75.92809295654297,34.61,0
-0.2501976191997528,-0.8301956057548523,0.1243739798665046,30.759578704833984,2.262962102890014,75.91444396972656,34.61,0
-0.24452905356884,-0.8294537663459778,0.1245982572436332,47.447364807128906,2.2632195949554443,75.90568542480469,34.61,0
-0.2576846182346344,-0.8289777040481567,0.1247421875596046,53.825294494628906,2.2633848190307617,75.90006256103516,34.61,0
-0.2829204201698303,-0.8454655408859253,0.1248345524072647,50.294559478759766,2.26027774810791,75.89645385742188,34.61,0
-0.3103108406066894,-0.8728398084640503,0.1248938217759132,41.497703552246094,2.258283853530884,75.8941421508789,34.61,0
-0.3334862291812897,-0.9295914769172668,0.1305296421051025,32.359375,2.2570042610168457,75.89265441894531,34.61,0
-0.3371632993221283,-0.994000256061554,0.1341463774442672,26.15816116333008,2.25618314743042,75.8917007446289,34.61,0
-0.3339252471923828,-1.057725191116333,0.1308696120977401,22.984657287597656,2.255656242370605,75.8910903930664,34.61,0
-0.3374450504779815,-1.0986201763153076,0.1231690049171447,19.432655334472656,2.2553179264068604,75.89070129394531,34.61,0
-0.3453016281127929,-1.1472554206848145,0.1182271987199783,10.976825714111328,2.255100965499878,75.89044952392578,34.61,0
-0.3335501849651336,-1.1392822265625,0.1150558292865753,-4.953751564025879,2.2549617290496826,75.89028930664062,34.61,0
-0.2924221456050873,-1.066992163658142,0.1018250808119773,-25.562965393066406,2.251659154891968,75.89018249511719,34.61,0
-0.2548329830169678,-0.998209536075592,0.0821387991309166,-41.46854019165039,2.249539613723755,75.8901138305664,34.61,0
-0.2363082021474838,-0.9596665501594543,0.0583097264170646,-43.73324966430664,2.2481794357299805,75.89007568359375,34.61,0
-0.2244200706481933,-0.9461274147033693,0.0318220518529415,-33.43934631347656,2.2473065853118896,75.89004516601562,34.61,0
-0.1999976336956024,-0.9710254669189452,-0.0075673121027648,-19.356475830078125,2.24674654006958,75.89002990722656,34.61,0
-0.1787269413471222,-0.9758080244064332,-0.032845139503479,-6.646759033203125,2.246387004852295,75.89002227783203,34.61,0
-0.1594788581132888,-0.967681646347046,-0.0434692166745662,6.625523090362549,2.2461562156677246,75.8900146484375,34.61,0
-0.1471265405416488,-0.9400755167007446,-0.0390915907919406,22.75230026245117,2.2460081577301025,75.89000701904297,34.61,0
-0.1447973102331161,-0.9167616963386536,-0.0362822823226451,39.92634582519531,2.2445359230041504,75.89000701904297,34.61,0
-0.1433025449514389,-0.8962025046348572,-0.0288816541433334,54.56605911254883,2.24359130859375,75.89000701904297,34.61,0
-0.1423432976007461,-0.8774110078811646,-0.0185345839709043,64.08995819091797,2.2429850101470947,75.89000701904297,34.61,0
-0.1473254859447479,-0.865351676940918,-0.01189442910254,67.20323181152344,2.242595911026001,75.89000701904297,34.61,0
-0.1561205387115478,-0.8632104992866516,0.0035623882431536,63.78071594238281,2.2423462867736816,75.89000701904297,34.61,0
-0.1617646962404251,-0.8618363738059998,0.0134816840291023,55.15361785888672,2.2421860694885254,75.89000701904297,34.61,0
-0.182180106639862,-0.8665523529052734,0.0254450924694538,44.16814422607422,2.2420833110809326,75.89000701904297,34.61,0
-0.206477090716362,-0.8919698596000671,0.0275247450917959,35.029659271240234,2.242017269134521,75.89000701904297,34.61,0
-0.2276672720909118,-0.9194769263267516,0.028859345242381,32.120731353759766,2.2387614250183105,75.98673248291016,34.61,0
-0.2412659078836441,-0.9651182293891908,0.0353135913610458,36.11503982543945,2.2366719245910645,76.0488052368164,34.61,0
-0.2499927431344986,-1.0056037902832031,0.0338577777147293,40.0361557006836,2.2353310585021973,76.0886459350586,34.61,0
-0.2611908912658691,-1.0595738887786863,0.0329235233366489,33.298709869384766,2.23447060585022,76.11421203613281,34.61,0
-0.2851705551147461,-1.1277954578399658,0.0211284216493368,13.18659210205078,2.2339184284210205,76.130615234375,34.61,0
-0.3117548525333404,-1.1771739721298218,0.0135590052232146,-10.138336181640623,2.2335638999938965,76.14114379882812,34.61,0
-0.3288151323795318,-1.130493402481079,0.0366902612149715,-23.04336929321289,2.2333364486694336,76.14790344238281,34.61,0
-0.3229701220989227,-1.0277653932571411,0.0683278888463974,-20.957103729248047,2.2331905364990234,76.15223693847656,34.61,0
-0.2744369208812713,-0.9226560592651368,0.0830333232879638,-10.733470916748049,2.2312607765197754,76.15502166748047,34.61,0
-0.2488888800144195,-0.9279739856719972,0.0756771042943,-3.5527453422546387,2.230022430419922,76.15680694580078,34.61,0
-0.2380913943052292,-0.9593756198883056,0.0653585344552993,-6.779662609100342,2.2292275428771973,76.15795135498047,34.61,0
-0.2423577457666397,-0.9851251840591432,0.053138893097639,-20.106964111328125,2.228717565536499,76.15868377685547,34.61,0
-0.2450956404209137,-0.97925865650177,0.0452970303595066,-36.66671752929688,2.2283902168273926,76.1591567993164,34.61,0
-0.2636459767818451,-0.9419072270393372,0.0402645766735076,-47.51593017578125,2.228180170059204,76.15946197509766,34.61,0
-0.2699527442455292,-0.9067416787147522,0.0538283586502075,-47.60695266723633,2.228045463562012,76.15965270996094,34.61,0
-0.2684023082256317,-0.8841744065284729,0.073728360235691,-39.45051956176758,2.227958917617798,76.15977478027344,34.61,0
-0.2394184470176696,-0.8864853978157043,0.0976945906877517,-30.031742095947266,2.2237720489501958,76.15985870361328,34.61,0
-0.2096227258443832,-0.88237065076828,0.1186725124716758,-23.61830711364746,2.2210850715637207,76.159912109375,34.61,0
-0.2072948664426803,-0.8853278160095215,0.1209393814206123,-19.01888656616211,2.219360828399658,76.15994262695312,34.61,0
-0.2337898463010788,-0.9040188789367676,0.1167963519692421,-13.731404304504396,2.218254327774048,76.15996551513672,34.61,0
-0.2563905715942383,-0.9160137176513672,0.1141375973820686,-7.536627769470215,2.2175440788269043,76.15998077392578,34.61,0
-0.2764922082424164,-0.9405046701431274,0.1180291324853897,-1.5549343824386597,2.217088460922241,76.15998840332031,34.61,0
-0.2893922626972198,-0.961819350719452,0.1205265000462532,2.7351765632629395,2.216795921325684,76.15999603271484,34.61,0
-0.2864752411842346,-0.9699000716209412,0.1221291646361351,2.8013908863067627,2.2166082859039307,76.15999603271484,34.61,0
-0.2902010381221771,-1.019868016242981,0.111962117254734,-3.239330053329468,2.2114381790161133,76.15999603271484,34.61,0
-0.2925920486450195,-1.079923391342163,0.1166330352425575,-12.840872764587402,2.208120346069336,76.15999603271484,34.61,0
-0.305321991443634,-1.10726797580719,0.1140327900648117,-19.03841590881348,2.20599102973938,76.15999603271484,34.61,0
-0.2966980040073395,-1.068838357925415,0.0899730026721954,-15.983046531677246,2.204624652862549,76.15999603271484,34.61,0
-0.2575770020484924,-0.9770032167434692,0.0689350441098213,-4.066308498382568,2.2037477493286133,76.15999603271484,34.61,0
-0.2212758362293243,-0.9348620176315308,0.0666296407580375,11.201305389404297,2.2031850814819336,76.15999603271484,34.61,0
-0.1979798376560211,-0.9190137982368468,0.0595523901283741,23.98346710205078,2.2028238773345947,76.15999603271484,34.61,0
-0.1830298006534576,-0.9424299597740172,0.0270217489451169,30.545503616333008,2.202592134475708,76.15999603271484,34.61,0
-0.1678379625082016,-0.9742504358291626,0.0005476791411638,29.511749267578125,2.2029027938842773,76.24597930908203,34.61,0
-0.1580887138843536,-0.9890731573104858,-0.0108440788462758,22.19550323486328,2.2031021118164062,76.30116271972656,34.61,0
-0.1854188591241836,-0.9649989008903505,-0.0013613315531983,11.474465370178224,2.2032299041748047,76.3365707397461,34.61,0
-0.2085555344820022,-0.9439516663551332,0.004724150057882,0.1555085927248001,2.203311920166016,76.35929870605469,34.61,0
-0.2234033346176147,-0.9304447770118712,0.0030316875781863,-8.527045249938965,2.203364610671997,76.3738784790039,34.61,0
-0.2329317927360534,-0.9217768311500548,0.0019455625442788,-11.04665470123291,2.203398466110229,76.38323974609375,34.61,0
-0.2334488332271576,-0.9218119978904724,0.0068463245406746,-6.383339405059815,2.203420162200928,76.38924407958984,34.61,0
-0.233780637383461,-0.9274323582649232,0.0099913515150547,2.606538772583008,2.203433990478516,76.39309692382812,34.61,0
-0.2395913451910019,-0.9366369247436525,0.0064118742011487,11.703938484191896,2.201147556304932,76.39556884765625,34.61,0
-0.2377225458621978,-0.9369461536407472,0.0041147717274725,19.00023460388184,2.1996803283691406,76.39715576171875,34.61,0
-0.2309254854917526,-0.9315468072891236,0.0026406235992908,26.777921676635746,2.198738813400269,76.39817810058594,34.61,0
-0.2321612983942031,-0.9392773509025574,0.0128901489078998,39.35708999633789,2.198134422302246,76.39883422851562,34.61,0
-0.2329543679952621,-0.9554339051246644,0.0138699300587177,55.93470764160156,2.197746753692627,76.39925384521484,34.61,0
-0.2390610873699188,-0.9658022522926332,0.0144986975938081,64.84646606445312,2.197497844696045,76.39952087402344,34.61,0
-0.2429800331592559,-0.955662727355957,0.0204999782145023,51.04765319824219,2.197338104248047,76.39969635009766,34.61,0
-0.2454949915409088,-0.9435580372810364,0.0299490299075841,14.104974746704102,2.197235584259033,76.3998031616211,34.61,0
-0.2527067065238952,-0.9301921725273132,0.0360128879547119,-26.211530685424805,2.19212007522583,76.39987182617188,34.61,0
-0.2573347687721252,-0.9272124767303468,0.0510998703539371,-47.767337799072266,2.1888372898101807,76.39991760253906,34.61,0
-0.2603048086166382,-0.9308980703353882,0.0607818290591239,-45.90177154541016,2.1867306232452397,76.39994812011719,34.61,0
-0.2510152459144592,-0.9500566124916076,0.0725929290056228,-32.326759338378906,2.1853785514831543,76.39997100830078,34.61,0
-0.2450537532567978,-0.9623514413833618,0.0801726132631301,-20.104171752929688,2.184510946273804,76.39997863769531,34.61,0
-0.2468257844448089,-0.9758393168449402,0.085036814212799,-14.753891944885254,2.1839542388916016,76.39998626708984,34.61,0
-0.2591585218906402,-0.9788972735404968,0.0881583765149116,-16.400482177734375,2.1835968494415283,76.39999389648438,34.61,0
-0.2726707458496094,-0.975261926651001,0.0901616215705871,-24.106430053710938,2.1833674907684326,76.39999389648438,34.61,0
-0.2757443189620971,-0.9729290008544922,0.0970449596643447,-35.76899337768555,2.184138536453247,76.39999389648438,34.61,0
-0.2777167856693268,-0.9658340811729432,0.1014622896909713,-46.449012756347656,2.184633493423462,76.39999389648438,34.61,0
-0.2789825797080993,-0.9612809419631958,0.0986993014812469,-50.68755340576172,2.184951066970825,76.39999389648438,34.61,0
-0.2741971313953399,-0.9583590030670166,0.096926175057888,-46.81566619873047,2.185154914855957,76.39999389648438,34.61,0
-0.2711260914802551,-0.9564839005470276,0.090190514922142,-37.46669769287109,2.1852855682373047,76.39999389648438,34.61,0
-0.2691552937030792,-0.9552805423736572,0.0858679562807083,-26.72373580932617,2.1853694915771484,76.39999389648438,34.61,0
-0.2678905427455902,-0.9545083045959472,0.0774962082505226,-17.34321403503418,2.1854233741760254,76.39999389648438,34.61,0
-0.2670789062976837,-0.9540127515792848,0.0721237063407898,-8.679394721984863,2.185457944869995,76.39999389648438,34.61,0
-0.2665580213069916,-0.9480969309806824,0.0686759427189827,1.9033167362213133,2.185021162033081,76.4967269897461,34.59,0
-0.2606259882450104,-0.9443004727363586,0.0720611363649368,13.459517478942873,2.1847410202026367,76.55879974365234,34.59,0
-0.2568191587924957,-0.9418641328811646,0.0742335617542266,20.1662712097168,2.184561252593994,76.59864044189453,34.59,0
-0.2543761432170868,-0.9403006434440612,0.0756276994943618,18.007314682006836,2.184445858001709,76.62420654296875,34.59,0
-0.2472105771303177,-0.944895088672638,0.0709246024489402,9.639379501342772,2.1843717098236084,76.64060974121094,34.59,0
-0.2482099086046219,-0.9422457218170166,0.0679064244031906,2.0624542236328125,2.184324026107788,76.65113830566406,34.59,0
-0.2488512247800827,-0.9461433291435242,0.0659695342183113,2.326685667037964,2.184293508529663,76.65789794921875,34.59,0
-0.2492627799510955,-0.9486445784568788,0.0647265464067459,12.97887134552002,2.1842739582061768,76.6622314453125,34.59,0
-0.2495268881320953,-0.95024973154068,0.063928872346878,27.707244873046875,2.181507110595703,76.6650161743164,34.59,0
-0.2496963888406753,-0.9512798190116882,0.0634169653058052,34.69425582885742,2.179731607437134,76.66680145263672,34.59,0
-0.2498051524162292,-0.951940894126892,0.068686231970787,27.538328170776367,2.1785922050476074,76.6679458618164,34.59,0
-0.2498749643564224,-0.9523651003837584,0.0720677450299263,10.167017936706545,2.177860975265503,76.6686782836914,34.59,0
-0.2499197572469711,-0.9526373147964478,0.0742378011345863,-9.765365600585938,2.177391767501831,76.66915130615234,34.59,0
-0.249948501586914,-0.9528120160102844,0.0756304189562797,-27.9593448638916,2.177090644836426,76.6694564819336,34.59,0
-0.249966949224472,-0.947326362133026,0.0709263458847999,-42.9526596069336,2.1768972873687744,76.66964721679688,34.59,0
-0.2499787956476211,-0.943805992603302,0.0679075419902801,-52.86469268798828,2.1767733097076416,76.66976928710938,34.59,0
-0.24998639523983,-0.9415467977523804,0.0659702494740486,-55.16660690307617,2.176234245300293,76.66985321044922,34.59,0
-0.2499912679195404,-0.9400969743728638,0.0647270083427429,-48.81949996948242,2.1758882999420166,76.66990661621094,34.59,0
-0.2499943971633911,-0.9447643756866456,0.0639291629195213,-35.438758850097656,2.175666332244873,76.66993713378906,34.59,0
-0.2499964088201522,-0.9421618580818176,0.0634171515703201,-18.009973526000977,2.1755239963531494,76.66996002197266,34.59,0
-0.2499976903200149,-0.9404917359352112,0.0686863511800766,0.6552367210388184,2.175432682037353,76.66997528076172,34.59,0
-0.2499985247850418,-0.9450176954269408,0.0664700418710708,17.541622161865234,2.1753740310668945,76.66998291015625,34.59,0
-0.2499990463256836,-0.94232439994812,0.0706455186009407,29.24531555175781,2.1753363609313965,76.66999053955078,34.59,0
-0.255597174167633,-0.9461938142776488,0.0677273273468017,33.929420471191406,2.1753122806549072,76.66999053955078,34.59,0
-0.2591897249221802,-0.9486769437789916,0.0658545941114425,32.74737930297852,2.174837827682495,76.66999053955078,34.59,0
-0.2614952027797699,-0.9502704739570618,0.0702505633234977,28.4993839263916,2.1745333671569824,76.66999053955078,34.59,0
-0.262974739074707,-0.9512931108474731,0.0730716362595558,23.79210090637207,2.1743381023406982,76.66999053955078,34.59,0
-0.2639242112636566,-0.951949417591095,0.0748820453882217,20.59210777282715,2.174212694168091,76.66999053955078,34.59,0
-0.264533519744873,-0.952370584011078,0.0760438591241836,19.77094268798828,2.1741323471069336,76.66999053955078,34.59,0
-0.2705223262310028,-0.9526408314704896,0.0767894461750984,20.08587074279785,2.174080610275269,76.66999053955078,34.59,0
-0.2743656039237976,-0.9472165107727052,0.0772679150104522,18.65073776245117,2.174047470092773,76.66999053955078,34.59,0
-0.2768319845199585,-0.9437354803085328,0.0775749757885932,13.3124361038208,2.1740262508392334,76.66999053955078,34.59,0
-0.278414785861969,-0.9415015578269958,0.0721742510795593,4.433940887451172,2.1707992553710938,76.78821563720703,34.61,0
-0.2794305086135864,-0.9400679469108582,0.0687083750963211,-5.598682403564453,2.1687283515930176,76.86408996582031,34.61,0
-0.2800823450088501,-0.9447457194328308,0.0664841756224632,-14.462446212768556,2.167399406433105,76.91278076171875,34.61,0
-0.2805006802082062,-0.9477476477622986,0.0650568157434463,-21.848840713500977,2.166546583175659,76.94403076171875,34.61,0
-0.2807691395282745,-0.949674129486084,0.0641408190131187,-29.318925857543945,2.165999412536621,76.96408081054688,34.61,0
-0.2753436267375946,-0.9509104490280152,0.0635529831051826,-37.56639862060547,2.1656482219696045,76.9769515991211,34.61,0
-0.2718618512153625,-0.9517038464546204,0.0631757453083992,-43.98408126831055,2.165422916412353,76.9852066040039,34.61,0
-0.2696274518966675,-0.9522129893302916,0.0629336535930633,-44.079349517822266,2.165278196334839,76.99050903320312,34.61,0
-0.2681935429573059,-0.9525397419929504,0.0683760717511177,-35.757259368896484,2.1651854515075684,76.99391174316406,34.61,0
-0.267273336648941,-0.9527494311332704,0.0718686953186988,-21.392112731933597,2.165125846862793,76.99609375,34.61,0
-0.261085033416748,-0.9528839588165284,0.074110060930252,-5.273348808288574,2.1650876998901367,76.99748992919922,34.61,0
-0.2571137249469757,-0.952970325946808,0.0755484402179718,9.731678009033203,2.1650631427764893,76.9983901977539,34.61,0
-0.2545651793479919,-0.953025758266449,0.070873737335205,22.255760192871094,2.165047407150269,76.99897003173828,34.61,0
-0.2529296576976776,-0.9530612826347352,0.0734715536236763,31.13848304748535,2.165037155151367,76.99933624267578,34.61,0
-0.2518800795078277,-0.953084111213684,0.0695409104228019,35.70322799682617,2.1650307178497314,76.99957275390625,34.61,0
-0.2512065172195434,-0.9530987739562988,0.0726162269711494,36.479488372802734,2.165026426315308,76.99972534179688,34.61,0
-0.2563720345497131,-0.9531081914901732,0.0745897889137268,34.63822937011719,2.165482759475708,76.99982452392578,34.61,0
-0.254089206457138,-0.9531142115592957,0.0702585279941558,31.1995906829834,2.1657755374908447,76.99988555908203,34.61,0
-0.2526242136955261,-0.953118085861206,0.0674789771437645,27.043949127197266,2.1659634113311768,76.99992370605469,34.61,0
-0.2516840696334839,-0.947522759437561,0.0656952187418937,22.88674736022949,2.166084051132202,76.99995422363281,34.61,0
-0.2510807514190674,-0.9495298266410828,0.0645505040884018,18.918418884277344,2.16616153717041,76.99996948242188,34.61,0
-0.2562913298606872,-0.9508178234100342,0.0638158991932869,14.684381484985352,2.1662111282348637,76.9999771118164,34.61,0
-0.259635180234909,-0.9460465908050536,0.0633444711565971,9.480912208557127,2.166243076324463,76.99998474121094,34.61,0
-0.2617810666561126,-0.942984700202942,0.0630419328808784,3.0140368938446045,2.1662635803222656,76.99999237060547,34.61,0
-0.2631581723690033,-0.9466175436973572,0.0684455558657646,-4.123899459838867,2.164440631866455,76.99999237060547,34.61,0
-0.264041930437088,-0.948948860168457,0.0663155168294906,-10.93656063079834,2.163270711898804,76.99999237060547,34.61,0
-0.2646090686321258,-0.950444996356964,0.0649485811591148,-17.27895164489746,2.162519931793213,76.99999237060547,34.61,0
-0.2649730443954468,-0.951405107975006,0.0640713572502136,-24.26534843444824,2.1620380878448486,76.99999237060547,34.61,0
-0.2652066051959991,-0.952021300792694,0.0635084062814712,-32.865196228027344,2.161728858947754,76.99999237060547,34.61,0
-0.2653565108776092,-0.9468189477920532,0.0687449127435684,-41.71229553222656,2.1615304946899414,76.99999237060547,34.61,0
-0.2654527127742767,-0.9490781426429749,0.0665076225996017,-46.73782730102539,2.161403179168701,76.99999237060547,34.61,0
-0.2599166631698608,-0.9505279660224916,0.0650718584656715,-44.20930862426758,2.1613214015960693,76.99999237060547,34.61,0
-0.256363958120346,-0.9514583945274352,0.0641504675149917,-34.1568489074707,2.160350799560547,77.0931396484375,34.59,0
-0.2540840208530426,-0.9520554542541504,0.0635591745376586,-19.88141441345215,2.1597278118133545,77.15291595458984,34.59,0
-0.2526208758354187,-0.9468408823013306,0.0631797164678573,-4.798264503479004,2.159327983856201,77.1912841796875,34.59,0
-0.251681923866272,-0.9490922093391418,0.0629362016916275,8.86863899230957,2.159071445465088,77.21590423583984,34.59,0
-0.2510793507099151,-0.9505369663238524,0.062779925763607,19.333829879760746,2.158906936645508,77.23170471191406,34.59,0
-0.2506926655769348,-0.9514641761779784,0.0682774111628532,25.390594482421875,2.158801317214966,77.2418441772461,34.59,0
-0.2504445016384125,-0.9520591497421264,0.0718053877353668,27.213912963867188,2.158733606338501,77.24835205078125,34.59,0
-0.250285267829895,-0.9524409770965576,0.074069432914257,25.994434356689453,2.1586899757385254,77.25252532958984,34.59,0
-0.2501830756664276,-0.9526860117912292,0.0755223706364631,22.94049072265625,2.1563665866851807,77.25520324707031,34.59,0
-0.2501174807548523,-0.9528433084487916,0.0764547809958458,19.03172492980957,2.1548757553100586,77.25691986083984,34.59,0
-0.2500753998756408,-0.9529442191123962,0.0826509222388267,15.158342361450195,2.153918981552124,77.25802612304688,34.59,0
-0.2500483989715576,-0.9530090093612672,0.08102947473526,11.845053672790527,2.1533048152923584,77.25873565673828,34.59,0
-0.250031054019928,-0.9530505537986756,0.0799889266490936,8.74789810180664,2.1529107093811035,77.25918579101562,34.59,0
-0.2500199377536773,-0.95307719707489,0.0737233832478523,4.811400413513184,2.152657985687256,77.25947570800781,34.59,0
-0.2500127851963043,-0.9530943036079408,0.0697025209665298,-0.6525289416313171,2.152495622634888,77.2596664428711,34.59,0
-0.2500081956386566,-0.953105330467224,0.0671221613883972,-7.1575798988342285,2.1523914337158203,77.2597885131836,34.59,0
-0.2500052452087402,-0.9531123638153076,0.0710640102624893,-13.660821914672852,2.150947570800781,77.2598648071289,34.59,0
-0.2500033676624298,-0.9531168937683104,0.0735936611890792,-19.790313720703125,2.150020837783813,77.2599105834961,34.59,0
-0.2500021755695343,-0.9531198143959044,0.0752170458436012,-26.217342376708984,2.149426221847534,77.25994110107422,34.59,0
-0.2500014007091522,-0.9531216621398926,0.0762588456273078,-33.766780853271484,2.1490445137023926,77.25996398925781,34.59,0
-0.2500008940696716,-0.953122854232788,0.0769274085760116,-41.49913024902344,2.1487996578216557,77.25997924804688,34.59,0
-0.2500005662441253,-0.9531236290931702,0.0773564577102661,-45.67672348022461,2.148642539978028,77.2599868774414,34.59,0
-0.2500003576278686,-0.9531241059303284,0.0776317939162254,-42.28519821166992,2.1485416889190674,77.25999450683594,34.59,0
-0.2500002384185791,-0.9531244039535522,0.077808491885662,-31.087785720825195,2.148476839065552,77.25999450683594,34.59,0
-0.2500001490116119,-0.9531246423721312,0.0779218822717666,-15.658425331115724,2.1488945484161377,77.25999450683594,34.59,0
-0.2444023191928863,-0.9531247615814208,0.0779946520924568,0.2297339290380478,2.149162769317627,77.25999450683594,34.59,0
-0.2408099621534347,-0.9531248211860656,0.0780413523316383,14.3380126953125,2.1493349075317383,77.25999450683594,34.59,0
-0.2385045886039734,-0.9531248807907104,0.0780713185667991,24.910903930664062,2.1494452953338623,77.25999450683594,34.59,0
-0.2370251268148422,-0.9531249403953552,0.0780905485153198,30.71793556213379,2.1495161056518555,77.25999450683594,34.59,0
-0.241673469543457,-0.9531249403953552,0.0781028941273689,32.37740707397461,2.149561643600464,77.25999450683594,34.59,0
-0.2446565181016922,-0.9531249403953552,0.0781108140945434,31.744220733642575,2.1495907306671143,77.25999450683594,34.59,0
-0.2465708553791046,-0.9531249403953552,0.0781158953905105,29.661231994628903,2.149609327316284,77.25999450683594,34.59,0
-0.2422015964984893,-0.9531249403953552,0.078119158744812,25.788026809692383,2.1473259925842285,77.34597778320312,34.61,0
-0.244995430111885,-0.9531249403953552,0.0781212523579597,20.579668045043945,2.1458606719970703,77.40116119384766,34.61,0
-0.24678835272789,-0.9531249403953552,0.0781225934624672,15.517607688903809,2.1449203491210938,77.43656921386719,34.61,0
-0.2479389458894729,-0.9531249403953552,0.0781234577298164,11.0796537399292,2.144316911697388,77.45929718017578,34.61,0
-0.2486773282289505,-0.9531249403953552,0.0781240090727806,6.085667610168457,2.1439297199249268,77.473876953125,34.61,0
-0.2491511851549148,-0.9475271701812744,0.0781243667006492,-0.3757466375827789,2.143681049346924,77.48323822021484,34.61,0
-0.2494552731513977,-0.9495326280593872,0.0781245902180671,-7.517343997955322,2.143521547317505,77.48924255371094,34.61,0
-0.2496504187583923,-0.9508196115493774,0.0781247392296791,-13.812881469726562,2.1434192657470703,77.49309539794922,34.61,0
-0.2497756630182266,-0.95164555311203,0.0781248360872268,-18.766551971435547,2.1433534622192383,77.49556732177734,34.61,0
-0.2498560398817062,-0.9521755576133728,0.0781248956918716,-23.572021484375,2.1433112621307373,77.49715423583984,34.61,0
-0.2499076128005981,-0.952515721321106,0.0781249329447746,-30.09158515930176,2.143284320831299,77.49817657470703,34.61,0
-0.2499407082796096,-0.9527339935302734,0.0781249552965164,-38.53514862060547,2.1432669162750244,77.49883270263672,34.61,0
-0.2499619573354721,-0.9528740644454956,0.0781249701976776,-45.7020378112793,2.143255710601806,77.49925231933594,34.61,0
-0.2499755918979644,-0.9529639482498168,0.0781249776482582,-46.63636016845703,2.1432485580444336,77.49951934814453,34.61,0
-0.2499843388795852,-0.9530216455459596,0.0781249850988388,-39.07843017578125,2.1432440280914307,77.49969482421875,34.61,0
-0.2499899566173553,-0.953058660030365,0.0781249925494194,-25.27532768249512,2.143241167068481,77.49980163574219,34.61,0
-0.249993547797203,-0.9530824422836304,0.0837227702140808,-9.141080856323242,2.1414031982421875,77.49987030029297,34.61,0
-0.2499958574771881,-0.947499930858612,0.08731509745121,6.396935939788818,2.140223741531372,77.49991607666016,34.61,0
-0.2499973475933075,-0.949515163898468,0.0896204486489296,19.112594604492188,2.1394667625427246,77.49994659423828,34.61,0
-0.2499983012676239,-0.9508084058761596,0.0910998880863189,27.251277923583984,2.1389811038970947,77.49996948242188,34.61,0
-0.2499989122152328,-0.9516383409500122,0.0920493081212043,30.76532745361328,2.138669490814209,77.4999771118164,34.61,0
-0.2499992996454239,-0.9521709680557252,0.092658594250679,31.261398315429688,2.1384694576263428,77.49998474121094,34.61,0
-0.2499995529651641,-0.9525127410888672,0.0930496007204055,30.178958892822266,2.138341188430786,77.49999237060547,34.61,0
-0.2499997168779373,-0.9527320861816406,0.0933005213737487,27.821996688842773,2.138258695602417,77.49999237060547,34.61,0
-0.2499998211860656,-0.9528728723526,0.0934615507721901,24.199296951293945,2.135451555252075,77.49999237060547,34.61,0
-0.2499998807907104,-0.9529631733894348,0.0935648903250694,19.7822322845459,2.133650064468384,77.49999237060547,34.61,0
-0.249999925494194,-0.9530211687088012,0.0936312079429626,14.944955825805664,2.1324939727783203,77.49999237060547,34.61,0
-0.2499999552965164,-0.9474605917930604,0.0936737656593322,9.300623893737791,2.131752014160156,77.49999237060547,34.61,0
-0.2499999701976776,-0.9438921213150024,0.0937010794878006,2.411107063293457,2.1312758922576904,77.49999237060547,34.61,0
-0.2499999850988388,-0.9471998810768129,0.0937186032533645,-5.180768013000488,2.1309704780578613,77.49999237060547,34.61,0
-0.2499999850988388,-0.9493225812911988,0.0937298536300659,-12.331314086914062,2.1307742595672607,77.49999237060547,34.61,0
-0.2499999850988388,-0.9506848454475404,0.0937370732426643,-18.539445877075195,2.130648374557495,77.49999237060547,34.61,0
-0.2499999850988388,-0.9515590667724608,0.0937417075037956,-24.221609115600582,2.13102650642395,77.60747528076172,34.59,0
-0.2499999850988388,-0.9521200656890868,0.0937446802854538,-30.34365463256836,2.131269216537476,77.67645263671875,34.59,0
-0.2499999850988388,-0.9524800777435304,0.0937465876340866,-37.89799880981445,2.131424903869629,77.72071838378906,34.59,0
-0.2499999850988388,-0.9527111053466796,0.0937478095293045,-45.98458862304688,2.131525039672852,77.7491226196289,34.59,0
-0.2499999850988388,-0.9528594017028807,0.0937485918402671,-50.385929107666016,2.13158917427063,77.76734924316406,34.59,0
-0.2499999850988388,-0.9529545307159424,0.0937490984797477,-46.56119537353516,2.1316304206848145,77.77904510498047,34.59,0
-0.2499999850988388,-0.9530156254768372,0.0937494188547134,-34.31193923950195,2.1316568851470947,77.78655242919922,34.59,0
-0.2499999850988388,-0.9530547857284546,0.0937496274709701,-17.59136390686035,2.131673812866211,77.79137420654297,34.59,0
-0.2499999850988388,-0.947482168674469,0.0937497615814209,-0.6130490303039551,2.133520603179932,77.79446411132812,34.59,0
-0.2499999850988388,-0.949503779411316,0.0937498435378074,13.872396469116213,2.134705781936645,77.79644775390625,34.59,0
-0.2555977702140808,-0.9508011341094972,0.0881521254777908,23.963653564453125,2.1354663372039795,77.79772186279297,34.59,0
-0.2591901123523712,-0.9460359215736388,0.0901576057076454,29.028106689453125,2.1359543800354004,77.79853820800781,34.59,0
-0.2614954710006714,-0.9485756158828736,0.085846833884716,30.282686233520508,2.13626766204834,77.79906463623047,34.59,0
-0.2573771178722381,-0.9502054452896118,0.088678203523159,29.58312225341797,2.1364686489105225,77.79940032958984,34.59,0
-0.2547342181205749,-0.9512513875961304,0.0904952138662338,27.95193290710449,2.1365976333618164,77.79961395263672,34.59,0
-0.2530381381511688,-0.951922595500946,0.0916612669825553,25.70138359069824,2.136680603027344,77.79975128173828,34.59,0
-0.2519496977329254,-0.9523533582687378,0.092409573495388,23.10710334777832,2.133520603179932,77.79984283447266,34.59,0
-0.2512511909008026,-0.952629804611206,0.0928897932171821,20.285070419311523,2.1314926147460938,77.7999038696289,34.59,0
-0.2508029341697693,-0.9472094178199768,0.0931979715824127,16.876224517822266,2.1301913261413574,77.79994201660156,34.59,0
-0.2505152821540832,-0.9493287205696106,0.0933957397937774,12.374279022216797,2.1293561458587646,77.79996490478516,34.59,0
-0.2503306865692138,-0.9506887793540956,0.0935226529836654,6.75526762008667,2.1288201808929443,77.79998016357422,34.59,0
-0.2558099925518036,-0.9515615701675416,0.093604102730751,0.7561487555503845,2.128476142883301,77.79998779296875,34.59,0
-0.2593262791633606,-0.9521216750144958,0.0936563685536384,-4.745307445526123,2.1282553672790527,77.79999542236328,34.59,0
-0.2559850811958313,-0.9524811506271362,0.0936899110674858,-9.701690673828123,2.1281137466430664,77.79999542236328,34.59,0
-0.2594386637210846,-0.952711820602417,0.0937114357948303,-14.881488800048828,2.127563953399658,77.79999542236328,34.59,0
-0.2616549730300903,-0.9528598189353944,0.093725249171257,-20.928342819213867,2.127211093902588,77.79999542236328,34.59,0
-0.2574794888496399,-0.9529548287391664,0.0937341153621673,-27.180530548095703,2.1269845962524414,77.79999542236328,34.59,0
-0.2603976726531982,-0.9530158042907716,0.0937398076057434,-30.96354103088379,2.126839399337769,77.79999542236328,34.59,0
-0.2566726207733154,-0.953054904937744,0.0937434583902359,-28.81989288330078,2.12674617767334,77.79999542236328,34.59,0
-0.2542821168899536,-0.9530799984931946,0.0937458053231239,-19.48015594482422,2.1266863346099854,77.79999542236328,34.59,0
-0.2527480125427246,-0.9474983215332032,0.0937473103404045,-5.23219633102417,2.12664794921875,77.79999542236328,34.59,0
-0.2517635226249695,-0.9495141506195068,0.0937482714653015,9.847651481628418,2.1266231536865234,77.79999542236328,34.59,0
-0.2511317133903503,-0.9452099800109864,0.093748889863491,22.23703956604004,2.1256890296936035,77.87165069580078,34.59,0
-0.2507262825965881,-0.94244784116745,0.0937492847442627,29.962133407592773,2.125089645385742,77.91763305664062,34.59,0
-0.2504660785198211,-0.9462730288505554,0.0937495380640029,32.69129180908203,2.124705076217652,77.9471435546875,34.59,0
-0.2502990961074829,-0.9431300163269044,0.0937497019767761,31.598142623901367,2.124458312988281,77.96607971191406,34.59,0
-0.2501919567584991,-0.946710765361786,0.0937498062849044,28.71125221252441,2.1242997646331787,77.97823333740234,34.59,0
-0.2501231729984283,-0.9490087032318116,0.0937498733401298,25.461406707763672,2.124198198318481,77.98603057861328,34.59,0
-0.2500790357589721,-0.9504833817481996,0.0937499180436134,21.774433135986328,2.124132871627808,77.99103546142578,34.59,0
-0.2500507235527038,-0.9514297842979432,0.0937499478459358,17.086835861206055,2.1240909099578857,77.99424743652344,34.59,0
-0.2500325441360473,-0.9464393258094788,0.0937499701976776,11.74276638031006,2.1231462955474854,77.99630737304688,34.59,0
-0.2500208914279938,-0.943236768245697,0.0937499776482582,6.504049777984619,2.12253999710083,77.99762725830078,34.59,0
-0.2500134110450744,-0.9467793107032776,0.0937499850988388,1.2756211757659912,2.1221508979797363,77.99847412109375,34.59,0
-0.25000861287117,-0.9490526914596558,0.0937499925494194,-4.623311519622803,2.121901273727417,77.9990234375,34.59,0
-0.2500055134296417,-0.950511634349823,0.0937499925494194,-11.257054328918455,2.1217410564422607,77.99937438964844,34.59,0
-0.2500035464763641,-0.9514479041099548,0.0937499925494194,-17.871543884277344,2.121638298034668,77.99959564208984,34.59,0
-0.2500022649765014,-0.9520487189292908,0.0937499925494194,-23.911212921142575,2.121572256088257,77.99974060058594,34.59,0
-0.250001460313797,-0.9524343013763428,0.0937499925494194,-29.8005313873291,2.1215298175811768,77.99983215332031,34.59,0
-0.250000923871994,-0.9526817202568054,0.0937499925494194,-36.37078475952149,2.1219615936279297,77.99989318847656,34.59,0
-0.2500005960464477,-0.9528405070304872,0.0993477702140808,-43.22039031982422,2.1222386360168457,77.99993133544922,34.59,0
-0.250000387430191,-0.952942430973053,0.0973423272371292,-47.501426696777344,2.1224164962768555,77.99995422363281,34.59,0
-0.2500002384185791,-0.9530078172683716,0.0960553511977195,-45.333457946777344,2.122530698776245,77.99996948242188,34.59,0
-0.2500001490116119,-0.9474520087242126,0.0952294394373893,-35.29742431640625,2.1226038932800293,77.9999771118164,34.59,0
-0.2500000894069671,-0.949484407901764,0.0946994200348854,-19.900436401367188,2.1226508617401123,77.99998474121094,34.59,0
-0.2500000596046448,-0.950788676738739,0.0943592861294746,-3.49566650390625,2.122680902481079,77.99999237060547,34.59,0
-0.2500000298023224,-0.9516257047653198,0.0941410064697265,10.127315521240234,2.1227002143859863,77.99999237060547,34.59,0
-0.2500000298023224,-0.9521628618240356,0.0940009281039238,18.76944923400879,2.1227126121521,77.99999237060547,34.59,0
-0.2500000298023224,-0.9469097852706908,0.0939110293984413,22.463281631469727,2.122720718383789,77.99999237060547,34.59,0
-0.2444022446870803,-0.9491364359855652,0.0938533395528793,23.2180290222168,2.12272572517395,77.99999237060547,34.59,0
-0.2464076876640319,-0.9505653977394104,0.0938163176178932,23.08976173400879,2.1227290630340576,77.99999237060547,34.59,0
-0.247694656252861,-0.9514824151992798,0.0937925577163696,22.638442993164062,2.122731208801269,77.99999237060547,34.59,0
-0.2485205680131912,-0.9520708918571472,0.0937773138284683,21.39584732055664,2.122732639312744,77.99999237060547,34.59,0
-0.2490505874156952,-0.952448546886444,0.0993653014302253,19.265703201293945,2.1227335929870605,77.99999237060547,34.59,0
-0.2493907213211059,-0.9526908993721008,0.1029513552784919,16.74510955810547,2.1227340698242188,77.99999237060547,34.59,0
-0.2496089935302734,-0.9528464078903198,0.1052526757121086,13.920208930969238,2.1213572025299072,78.07881164550781,34.59,0
-0.2497490793466568,-0.9529461860656738,0.1067295297980308,10.10827350616455,2.120473623275757,78.12939453125,34.59,0
-0.2498389780521392,-0.9530102610588074,0.1076772883534431,5.07179069519043,2.1199066638946533,78.16185760498047,34.59,0
-0.2498966604471206,-0.9474536180496216,0.102687731385231,-0.2848014235496521,2.1195428371429443,78.18268585205078,34.59,0
-0.2499336898326873,-0.9494854211807252,0.0994857251644134,-5.001333236694336,2.119309425354004,78.19605255126953,34.59,0
-0.2499574422836303,-0.9507893323898317,0.0974308550357818,-9.411005973815918,2.119159460067749,78.20463562011719,34.59,0
-0.2555704712867737,-0.9516261219978333,0.0961121618747711,-14.931394577026367,2.119063377380371,78.21014404296875,34.59,0
-0.2535748183727264,-0.946565330028534,0.1008636727929115,-22.217853546142575,2.119001626968384,78.21367645263672,34.59,0
-0.25229412317276,-0.9489153623580932,0.1039129197597503,-29.172401428222656,2.119880199432373,78.2159423828125,34.59,0
-0.2514722347259521,-0.9448257088661194,0.105869747698307,-31.643518447875977,2.120444059371948,78.21739959716797,34.59,0
-0.2509447932243347,-0.9477989673614502,0.1071255281567573,-26.99565696716309,2.1208059787750244,78.21833038330078,34.59,0
-0.2506063282489776,-0.94970703125,0.1079314202070236,-16.475187301635742,2.1210381984710693,78.21892547607422,34.59,0
-0.2503890991210937,-0.9509315490722656,0.1084485948085784,-3.9378974437713614,2.121187210083008,78.21931457519531,34.59,0
-0.2446519285440445,-0.9517173767089844,0.108780488371849,6.855649471282959,2.1212828159332275,78.21955871582031,34.59,0
-0.2465679198503494,-0.952221691608429,0.1089934781193733,13.861143112182615,2.1213440895080566,78.21971893310547,34.59,0
-0.2477974891662597,-0.9469475150108336,0.1091301590204238,16.96324348449707,2.1213834285736084,78.21981811523438,34.59,0
-0.2485865503549575,-0.949160635471344,0.1092178747057914,17.388408660888672,2.1186540126800537,78.21988677978516,34.59,0
-0.2434951514005661,-0.950580894947052,0.1092741638422012,16.658132553100586,2.1169025897979736,78.21992492675781,34.59,0
-0.2402277886867523,-0.9514923691749572,0.1093102917075157,15.537455558776855,2.1157784461975098,78.21995544433594,34.59,0
-0.2381309866905212,-0.9520772695541382,0.1093334704637527,13.775739669799805,2.1150572299957275,78.219970703125,34.59,0
-0.2423831522464752,-0.9524526000022888,0.1093483492732048,10.950613975524902,2.1145942211151123,78.21997833251953,34.59,0
-0.2451119422912597,-0.952693521976471,0.1093578934669494,7.1528639793396,2.114297151565552,78.21998596191406,34.59,0
-0.2468631267547607,-0.9528480768203736,0.1093640252947807,2.594801664352417,2.1141064167022705,78.2199935913086,34.59,0
-0.2479869425296783,-0.9529472589492798,0.1093679592013359,-2.723460912704468,2.1139841079711914,78.2199935913086,34.59,0
-0.2487081289291381,-0.9530109167099,0.1093704849481582,-8.637053489685059,2.111610651016236,78.2199935913086,34.59,0
-0.2491709440946579,-0.9530518054962158,0.1093721017241478,-14.599515914916992,2.1100873947143555,78.2199935913086,34.59,0
-0.2494679540395736,-0.953078031539917,0.1093731373548507,-20.14551544189453,2.109109878540039,78.2199935913086,34.59,0
-0.2496585696935653,-0.9530948400497437,0.1093738079071044,-25.5639762878418,2.108482599258423,78.2199935913086,34.59,0
-0.2497808933258056,-0.9475078582763672,0.1093742325901985,-31.5526180267334,2.1080801486968994,78.2199935913086,34.59,0
-0.2498593926429748,-0.949520230293274,0.1093745082616806,-37.24439239501953,2.1078217029571533,78.2199935913086,34.59,0
-0.2499097734689712,-0.9508116841316224,0.1093746870756149,-39.20606994628906,2.1076560020446777,78.2199935913086,34.59,0
-0.2499420940876007,-0.9516404271125792,0.1093747988343238,-34.15604782104492,2.1075496673583984,78.2199935913086,34.59,0
-0.2499628365039825,-0.9521722793579102,0.1093748733401298,-22.517675399780277,2.1093173027038574,78.28089904785156,34.57,0
-0.2499761432409286,-0.9469158053398132,0.1093749180436134,-8.091475486755371,2.1104516983032227,78.31998443603516,34.57,0
-0.2499846965074539,-0.9435425400733948,0.1093749478459358,5.1036787033081055,2.111179828643799,78.3450698852539,34.57,0
-0.2499901801347732,-0.9469755291938782,0.1093749701976776,14.735906600952148,2.111647129058838,78.36116790771484,34.57,0
-0.2443959265947342,-0.9491786360740662,0.1093749776482582,20.25812149047852,2.111946821212769,78.37149810791016,34.57,0
-0.2408058494329452,-0.9505924582481384,0.1093749850988388,22.56597328186035,2.1121392250061035,78.37812805175781,34.57,0
-0.2440997213125229,-0.9514997601509094,0.1093749925494194,23.04389762878418,2.112262725830078,78.38237762451172,34.57,0
-0.2406157702207565,-0.9520820379257202,0.1093749925494194,22.44062805175781,2.11234188079834,78.3851089477539,34.57,0
-0.2383799701929092,-0.9524556994438172,0.1149727702140808,20.79600143432617,2.1100974082946777,78.3868637084961,34.57,0
-0.2369451522827148,-0.9526954889297484,0.11856509745121,18.046016693115234,2.108657121658325,78.38798522949219,34.57,0
-0.2360243797302246,-0.9528493881225586,0.1208704486489296,14.178261756896973,2.1077327728271484,78.38871002197266,34.57,0
-0.2354334741830825,-0.9529481530189514,0.1167521178722381,9.152530670166016,2.107139587402344,78.38917541503906,34.57,0
-0.2350542694330215,-0.9530115127563475,0.1141092106699943,3.190218210220337,2.1067588329315186,78.38947296142578,34.57,0
-0.2404086887836456,-0.9530521631240844,0.1124131456017494,-2.9575600624084477,2.1065144538879395,78.38966369628906,34.57,0
-0.2438448518514633,-0.953078269958496,0.111324705183506,-8.475601196289062,2.1063578128814697,78.38978576660156,34.57,0
-0.2404522001743316,-0.953095018863678,0.1106262058019638,-13.33873176574707,2.106257200241089,78.38986206054688,34.57,0
-0.2382749915122985,-0.9531057476997375,0.1101779490709304,-18.4837646484375,2.108029127120972,78.38990783691406,34.57,0
-0.2368777841329574,-0.9531126618385316,0.1098902896046638,-24.644445419311523,2.109166145324707,78.38993835449219,34.57,0
-0.23598113656044,-0.9531170725822448,0.1097056865692138,-30.546937942504883,2.109895944595337,78.38996124267578,34.57,0
-0.2354057282209396,-0.953119933605194,0.1095872148871421,-32.68683242797852,2.1103641986846924,78.38997650146484,34.57,0
-0.2350364625453949,-0.9531217217445374,0.1095111891627311,-28.062862396240234,2.1106646060943604,78.38998413085938,34.57,0
-0.2403972595930099,-0.9531229138374328,0.1094623953104019,-17.389345169067383,2.110857486724853,78.3899917602539,34.57,0
-0.2438375204801559,-0.9531236886978148,0.1150288581848144,-4.427821636199951,2.1109812259674072,78.3899917602539,34.57,0
-0.2404475063085556,-0.9531241655349731,0.1186010986566543,7.418975353240967,2.111060619354248,78.3899917602539,34.57,0
-0.2382719814777374,-0.953124463558197,0.1208935528993606,16.38652992248535,2.111111640930176,78.3899917602539,34.57,0
-0.2312780767679214,-0.9531246423721312,0.1223647221922874,21.596837997436523,2.1111443042755127,78.3899917602539,34.57,0
-0.2323875725269317,-0.9531247615814208,0.1233088299632072,23.23879051208496,2.1111652851104736,78.3899917602539,34.57,0
-0.2330995798110962,-0.9475270509719848,0.1239147037267685,22.75199317932129,2.1111788749694824,78.3899917602539,34.57,0
-0.2335565090179443,-0.9439347982406616,0.1243035197257995,21.432891845703125,2.11118745803833,78.3899917602539,34.57,0
-0.2338497340679168,-0.9416294693946838,0.1189552620053291,19.597576141357425,2.1111929416656494,78.3899917602539,34.57,0
-0.2340379208326339,-0.9401500821113586,0.115523062646389,17.39874267578125,2.111196517944336,78.3899917602539,34.57,0
-0.2341586798429489,-0.9392006993293762,0.1189182475209236,15.285473823547363,2.111198902130127,78.3899917602539,34.57,0
-0.2342361807823181,-0.944189190864563,0.1210970804095268,13.388330459594728,2.108905076980591,78.4616470336914,34.57,0
-0.2342859208583831,-0.9473904967308044,0.1224953308701515,11.10682773590088,2.1074328422546387,78.50762939453125,34.57,0
-0.2343178391456604,-0.9494449496269226,0.1233926489949226,7.72959566116333,2.1064882278442383,78.53713989257812,34.57,0
-0.2343383133411407,-0.9507633447647096,0.1239684969186782,3.197782516479492,2.105881929397583,78.55607604980469,34.57,0
-0.2343514561653137,-0.951609432697296,0.1243380382657051,-1.9925751686096191,2.1054928302764893,78.56822967529297,34.57,0
-0.2343598902225494,-0.9521523714065552,0.1245751902461052,-7.616296768188477,2.10524320602417,78.5760269165039,34.57,0
-0.2343652993440628,-0.952500820159912,0.1247273832559585,-14.08775520324707,2.1050829887390137,78.5810317993164,34.57,0
-0.2343687713146209,-0.9527244567871094,0.1248250529170036,-21.06383514404297,2.104980230331421,78.58424377441406,34.57,0
-0.2343710064888,-0.9528679251670836,0.1248877272009849,-25.77713203430176,2.1053731441497803,78.5863037109375,34.57,0
-0.2343724370002746,-0.9529600143432616,0.1305257230997085,-24.39528465270996,2.1056253910064697,78.5876235961914,34.57,0
-0.2343733608722686,-0.9530191421508788,0.1341438591480255,-15.899105072021484,2.10578727722168,78.58847045898438,34.57,0
-0.2287761718034744,-0.953057050704956,0.1308680027723312,-3.457141160964966,2.105890989303589,78.58901977539062,34.57,0
-0.2307819873094558,-0.9530813694000244,0.1287657469511032,8.249691009521484,2.105957508087158,78.58937072753906,34.57,0
-0.2320692092180252,-0.9530969858169556,0.1274166405200958,15.895018577575684,2.1060001850128174,78.58959197998047,34.57,0
-0.2328952699899673,-0.9531069993972778,0.126550868153572,18.47625732421875,2.106027603149414,78.58973693847656,34.57,0
-0.2334253937005996,-0.9531134366989136,0.1259952634572982,17.32042694091797,2.106045246124268,78.58982849121094,34.57,0
-0.2337656021118164,-0.953117609024048,0.1256387084722519,14.962939262390137,2.1060566902160645,78.58988952636719,34.57,0
-0.2339839190244674,-0.953120231628418,0.1254098862409591,13.05595588684082,2.106063842773437,78.58992767333984,34.57,0
-0.234124019742012,-0.9531219601631165,0.1252630352973938,11.402255058288574,2.1060686111450195,78.58995056152344,34.57,0
-0.2286161631345749,-0.9475252628326416,0.1251688003540039,8.990373611450195,2.106071710586548,78.5899658203125,34.57,0
-0.230679303407669,-0.9439336657524108,0.1251083314418792,5.400498867034912,2.1060736179351807,78.58997344970703,34.57,0
-0.232003316283226,-0.9472265243530272,0.1306672990322113,1.122725009918213,2.106074810028076,78.58998107910156,34.57,0
-0.2328529953956604,-0.9493396878242492,0.1342347264289856,-3.152264356613159,2.106075525283813,78.5899887084961,34.57,0
-0.2278004884719848,-0.945098042488098,0.1309263110160827,-7.289327621459961,2.106076002120972,78.5899887084961,34.57,0
-0.2245580852031707,-0.9479737877845764,0.1288031637668609,-11.65672779083252,2.10561752319336,78.5899887084961,34.57,0
-0.2280750721693039,-0.949819266796112,0.1330384314060211,-16.422725677490234,2.105323076248169,78.5899887084961,34.57,0
-0.2303320616483688,-0.9510035514831544,0.1357563734054565,-21.55558013916016,2.1051342487335205,78.5899887084961,34.57,0
-0.231780469417572,-0.9517635703086852,0.13750059902668,-27.07074737548828,2.105013132095337,78.5899887084961,34.57,0
-0.2327099740505218,-0.9522513151168824,0.1386199444532394,-31.609603881835938,2.10493540763855,78.5899887084961,34.57,0
-0.2333064824342727,-0.952564299106598,0.13933826982975,-31.47002601623535,2.1048853397369385,78.5899887084961,34.57,0
-0.2280915081501007,-0.952765166759491,0.1397992521524429,-23.74956703186035,2.104853391647339,78.5899887084961,34.57,0
-0.230342611670494,-0.95289409160614,0.1400950849056244,-10.257741928100586,2.104832887649536,78.5899887084961,34.57,0
-0.2317872494459152,-0.9473790526390076,0.140284925699234,3.8424668312072754,2.103442430496216,78.65447998046875,34.57,0
-0.2327143251895904,-0.9438397884368896,0.1348089873790741,14.478249549865724,2.1025502681732178,78.69586181640625,34.57,0
-0.233309268951416,-0.9415684938430786,0.131294846534729,20.257572174072266,2.101977586746216,78.72241973876953,34.57,0
-0.2280932962894439,-0.945708692073822,0.1290396749973297,21.46218681335449,2.1016101837158203,78.73946380615234,34.57,0
-0.2247459888458252,-0.9483656287193298,0.1331901997327804,19.5196475982666,2.101374387741089,78.75040435791016,34.57,0
-0.2281956523656845,-0.9500707387924194,0.1358537673950195,16.53548812866211,2.10122299194336,78.7574234008789,34.57,0
-0.2304094433784485,-0.951164960861206,0.137563094496727,13.903911590576172,2.101125955581665,78.76192474365234,34.57,0
-0.2262323647737503,-0.9518671631813048,0.138660043478012,11.434115409851074,2.1010634899139404,78.76481628417969,34.57,0
-0.2291495203971862,-0.946720004081726,0.1393640041351318,8.24056625366211,2.1019418239593506,78.76667022705078,34.57,0
-0.2254238128662109,-0.9434168934822084,0.1398157626390457,4.270869731903076,2.1025054454803467,78.76786041259766,34.57,0
-0.2286306470632553,-0.9468948841094972,0.1345079094171524,0.4551152288913727,2.102867126464844,78.76862335205078,34.57,0
-0.2250908315181732,-0.9435290694236756,0.1366994082927703,-2.566828489303589,2.1030991077423096,78.76911163330078,34.57,0
-0.2284169495105743,-0.9413691163063048,0.1381057798862457,-5.340878486633301,2.103248119354248,78.7694320678711,34.57,0
-0.230551466345787,-0.9511785507202148,0.1390083134174347,-9.048529624938965,2.103343725204468,78.76963806152344,34.57,0
-0.220725730061531,-0.9406803250312804,0.1395875066518783,-14.523231506347656,2.103404998779297,78.76976776123047,34.57,0
-0.2200179100036621,-0.9507365226745604,0.1399592012166977,-21.160585403442383,2.1034443378448486,78.76985168457031,34.57,0
-0.2307592183351516,-0.9627877473831176,0.129002183675766,-25.99327087402344,2.103010416030884,78.76990509033203,34.57,0
-0.2208590507507324,-0.9593259692192078,0.1443616896867752,-25.04629898071289,2.102731943130493,78.76993560791016,34.57,0
-0.2201034724712371,-0.9794955253601074,0.1542185395956039,-17.054899215698242,2.102553129196167,78.76995849609375,34.57,0
-0.230814129114151,-0.9476569890975952,0.1493485569953918,-5.030020236968994,2.102438449859619,78.76997375488281,34.57,0
-0.2432853877544403,-0.9440181851387024,0.1518210470676422,6.552453994750977,2.1023647785186768,78.76998138427734,34.57,0
-0.2456909418106079,-0.9248896837234496,0.1757988482713699,14.723429679870604,2.102317571640014,78.76998901367188,34.57,0
-0.2528324723243713,-0.9238096475601196,0.1911864280700683,18.20804786682129,2.1022872924804688,78.76998901367188,34.57,0
