acc_x,acc_y,acc_z,bvp,eda,hr,temp,label
0.0,0.0,0.0,0.0,0.0,0.0,24.51,0
-0.0104166660457849,-0.0286458320915699,0.1588541567325592,-0.931666612625122,0.0837581604719162,11.333333015441896,24.51,0
-0.0495426841080188,-0.0754573196172714,0.3761433064937591,-2.210975646972656,0.1961166709661483,26.53658676147461,24.51,0
-0.0885589718818664,-0.1161752492189407,0.5601640343666077,-3.4034883975982666,0.293849229812622,39.76079940795898,24.51,0
-0.1063470616936683,-0.140542984008789,0.6997553110122681,-4.539973735809326,0.3651504218578338,49.40857696533203,24.51,0
-0.0854520201683044,-0.1460615247488021,0.7942644953727722,-5.773193836212158,0.4134243428707123,55.940528869628906,24.51,0
-0.0828480198979377,-0.1552355587482452,0.8562760949134827,-7.168768405914307,0.4450989663600921,60.2264289855957,24.51,0
-0.0978995338082313,-0.1667564511299133,0.8908586502075195,-8.726064682006836,0.4656130671501159,63.00219345092773,24.51,0
-0.107595294713974,-0.1741778999567031,0.9187259078025818,-10.616504669189451,0.4774523973464966,64.79026794433594,24.51,0
-0.1082325279712677,-0.1789479702711105,0.931042730808258,-13.256637573242188,0.4850620329380035,65.93953704833984,24.51,0
-0.11423821747303,-0.1820110976696014,0.9389520287513732,-16.828845977783203,0.4899486005306244,66.67754364013672,24.51,0
-0.118093341588974,-0.1783801019191742,0.9440290927886964,-20.97032356262207,0.4930853545665741,67.15127563476562,24.51,0
-0.1205676048994064,-0.18164724111557,0.947287619113922,-25.358692169189453,0.4950985610485077,67.455322265625,24.51,0
-0.1221555173397064,-0.1837439984083175,0.9493788480758668,-30.35318946838379,0.4963905811309814,67.65045166015625,24.51,0
-0.1231745705008506,-0.1850896030664444,0.9563186764717102,-36.57135772705078,0.4972197413444519,67.77568054199219,24.51,0
-0.1238285452127456,-0.185953140258789,0.9551745057106018,-44.0297737121582,0.4977518320083618,67.85604095458984,24.51,0
-0.1242482289671897,-0.1865073144435882,0.9544402360916138,-52.21961212158203,0.4957979619503021,67.9076156616211,24.49,0
-0.1189197823405265,-0.1868629455566406,0.9539690613746644,-61.093788146972656,0.4945440888404846,67.94071197509766,24.49,0
-0.1155002936720848,-0.1870911717414856,0.9536666870117188,-71.38875579833984,0.4937394261360168,67.96195220947266,24.49,0
-0.1133058592677116,-0.1872376352548599,0.95347261428833,-83.54129791259766,0.4932230412960052,67.9755859375,24.49,0
-0.1118976026773452,-0.1929294019937515,0.9533481001853944,-96.76053619384766,0.4928916394710541,67.98432922363281,24.49,0
-0.1109938621520996,-0.1965820491313934,0.9532681703567504,-110.01229095458984,0.4926789700984955,67.98994445800781,24.49,0
-0.1104138940572738,-0.198926106095314,0.9532168507575988,-123.60734558105467,0.4925424754619598,67.99354553222656,24.49,0
-0.1156394779682159,-0.2004303932189941,0.9531839489936828,-138.91664123535156,0.4924548864364624,67.99585723876953,24.49,0
-0.1133951842784881,-0.2013957500457763,0.9531628489494324,-154.57369995117188,0.4946940243244171,67.99734497070312,24.49,0
-0.1119549199938774,-0.2020152658224105,0.9531493186950684,-162.1674346923828,0.4961309731006622,67.99829864501953,24.49,0
-0.1110306456685066,-0.2024128437042236,0.958738386631012,-149.11703491210938,0.4970531463623047,67.99890899658203,24.49,0
-0.1104374974966049,-0.1970702111721038,0.9623250961303712,-108.44869995117188,0.4976449310779571,67.99929809570312,24.49,0
-0.110056847333908,-0.1992393881082534,0.9590290784835817,-45.75767135620117,0.4980247020721435,67.99954986572266,24.49,0
-0.1098125725984573,-0.1950336694717407,0.9569138884544371,22.726009368896484,0.4982684254646301,67.99971008300781,24.49,0
-0.109655812382698,-0.1979324519634246,0.9555565118789672,79.07777404785156,0.4984248280525207,67.99981689453125,24.49,0
-0.1151529848575592,-0.1941949427127838,0.954685389995575,113.89762878417967,0.4985252022743225,67.99988555908203,24.49,0
-0.1130829751491546,-0.2029919773340225,0.9541263580322266,129.41819763183594,0.4990485310554504,70.98421478271484,24.49,0
-0.1061567887663841,-0.2030396312475204,0.9593653678894044,133.11964416503906,0.4993843734264374,72.89938354492188,24.49,0
-0.1073097363114357,-0.1974724382162094,0.9683252573013306,130.84124755859375,0.4995999038219452,74.12842559814453,24.49,0
-0.1136474087834358,-0.2050952911376953,0.9628796577453612,125.62098693847656,0.4997382164001465,74.91716003417969,24.49,0
-0.1065190136432647,-0.2211827486753463,0.9593849778175354,118.47697448730467,0.4998269975185394,75.42332458496094,24.49,0
-0.0907488688826561,-0.2203111946582794,0.9627400636672974,109.23501586914062,0.4998839497566223,75.7481460571289,24.49,0
-0.0974218174815177,-0.2253496646881103,0.9648931622505188,98.64312744140624,0.499920517206192,75.95660400390625,24.49,0
-0.1017041355371475,-0.2229852825403213,0.9606771469116212,89.08369445800781,0.4999439716339111,76.09037780761719,24.49,0
-0.1100500524044036,-0.2214679569005966,0.952373743057251,82.18232727050781,0.4981229603290558,76.17622375488281,24.49,0
-0.1154059842228889,-0.2204942256212234,0.947045087814331,77.0225830078125,0.4969543516635895,76.23131561279297,24.49,0
-0.1132453382015228,-0.2198693454265594,0.9492232799530028,71.55464935302734,0.4962044060230255,76.26667022705078,24.49,0
-0.1118587628006935,-0.2306638807058334,0.9506211280822754,64.74967193603516,0.4957231283187866,76.28936004638672,24.49,0
-0.1109689325094223,-0.2319934219121933,0.951518177986145,56.93619155883789,0.4954142570495605,76.30391693115234,24.49,0
-0.1103978976607322,-0.2328466475009918,0.9520938396453856,49.009315490722656,0.49521604180336,76.31326293945312,24.49,0
-0.0988358855247497,-0.2389919608831405,0.9524632692337036,41.60795974731445,0.4950888454914093,76.31925964355469,24.49,0
-0.1026116013526916,-0.2373379021883011,0.9527003169059752,34.89494323730469,0.4950072169303894,76.32310485839844,24.49,0
-0.1050346419215202,-0.2362764179706573,0.9528524875640868,29.0141658782959,0.5050537586212158,76.32557678222656,24.49,0
-0.1065896078944206,-0.2355952262878418,0.9473523497581482,24.25501251220703,0.5115010738372803,76.32716369628906,24.49,0
-0.1019897237420082,-0.2351580709218979,0.9438226819038392,20.530920028686523,0.5156385898590088,76.32817840576172,24.49,0
-0.104635551571846,-0.2348775267601013,0.94155752658844,17.27044677734375,0.5182937979698181,76.3288345336914,24.49,0
-0.1119312718510627,-0.2346974909305572,0.9345061182975768,14.20718479156494,0.519997775554657,76.32925415039062,24.49,0
-0.1110154688358306,-0.2345819622278213,0.93557870388031,11.832945823669434,0.5210912823677063,76.32952117919922,24.49,0
-0.1048299819231033,-0.2345078140497207,0.9418647885322572,10.574406623840332,0.521793007850647,76.32969665527344,24.49,0
-0.106458269059658,-0.2344602346420288,0.9458988308906556,10.031859397888184,0.522243320941925,76.32980346679688,24.49,0
-0.1075032129883766,-0.2344297021627426,0.9484876394271852,9.619196891784668,0.5271226763725281,76.32987213134766,24.49,0
-0.1025760173797607,-0.2344101071357727,0.9557467699050904,9.447521209716797,0.5302539467811584,76.32991790771484,24.49,0
-0.1050118058919906,-0.2399953007698059,0.9548075199127196,10.03953456878662,0.5322633981704712,76.32994842529297,24.49,0
-0.1065749526023864,-0.2379817813634872,0.9542047381401062,11.637530326843262,0.5335530042648315,76.32997131347656,24.49,0
-0.1075780913233757,-0.2366896271705627,0.953817903995514,14.139053344726562,0.5343805551528931,76.3299789428711,24.49,0
-0.1082218438386917,-0.2358603924512863,0.9535696506500244,17.30638885498047,0.5349116325378418,76.32998657226562,24.49,0
-0.1086349710822105,-0.2353282421827316,0.9534103274345398,20.92966651916504,0.5352524518966675,76.32999420166016,24.49,0
-0.10330231487751,-0.234986737370491,0.95330810546875,25.175138473510746,0.5354712009429932,76.32999420166016,24.49,0
-0.0998801290988922,-0.2347675710916519,0.9532424807548524,30.565074920654297,0.5356115698814392,74.42048645019531,24.49,0
-0.0976839661598205,-0.2402247041463852,0.94760262966156,37.23759460449219,0.5357016324996948,73.195068359375,24.49,0
-0.1074701398611068,-0.2437267750501632,0.9383854866027832,44.75469970703125,0.535759449005127,72.4086685180664,24.49,0
-0.0969570204615593,-0.2403764277696609,0.9324705004692078,53.05026245117188,0.5357965230941772,71.90399932861328,24.49,0
-0.0846125334501266,-0.238226369023323,0.9230768084526062,62.82343673706055,0.5358203053474426,71.58013153076172,24.49,0
-0.0822883248329162,-0.2312488108873367,0.9002551436424255,74.3831787109375,0.5358356237411499,71.3722915649414,24.49,0
-0.0807967856526374,-0.2379665672779083,0.8632184267044067,86.88164520263672,0.5358453989028931,71.2389144897461,24.49,0
-0.0798395946621894,-0.2478754073381424,0.8114615082740784,99.20870208740234,0.5358517169952393,71.1533203125,24.49,0
-0.1240075230598449,-0.2374410033226013,0.7334647178649902,111.18213653564452,0.5376921892166138,71.098388671875,24.49,0
-0.1579497307538986,-0.2475381344556808,0.6834108829498291,124.22911071777344,0.5388733148574829,71.06314086914062,24.49,0
-0.157340794801712,-0.2932023108005523,0.651289165019989,140.2148895263672,0.5396312475204468,71.04051971435547,24.49,0
-0.168145552277565,-0.339300274848938,0.647468626499176,155.94064331054688,0.5401176810264587,71.0260009765625,24.49,0
-0.1918727457523346,-0.3912743926048279,0.6506146192550659,159.77734375,0.5404298305511475,71.01668548583984,24.49,0
-0.2350883781909942,-0.4638127982616424,0.6638290882110596,139.2322235107422,0.5406301617622375,71.01070404052734,24.49,0
-0.2684194445610046,-0.5327548980712891,0.6779071688652039,91.23565673828124,0.5407587289810181,71.00686645507812,24.49,0
-0.2786138653755188,-0.6161823868751526,0.692539393901825,23.816722869873047,0.5408412218093872,71.00440979003906,24.49,0
-0.2739605009555816,-0.66412353515625,0.6683428883552551,-47.342803955078125,0.5422713160514832,71.0028305053711,24.51,0
-0.2765720188617706,-0.6836938858032227,0.6360216736793518,-104.63076782226562,0.5431890487670898,71.00181579589844,24.51,0
-0.2726501524448395,-0.7410352230072021,0.6208775043487549,-138.36402893066406,0.5437780022621155,71.00116729736328,24.51,0
-0.2421444654464721,-0.8394091129302979,0.5887677669525146,-151.55361938476562,0.5441559553146362,71.00074768066406,24.51,0
-0.2337632179260254,-0.913735330104828,0.5513682961463928,-152.4981231689453,0.5443984866142273,71.00048065185547,24.51,0
-0.2675690352916717,-0.9614336490631104,0.5273674130439758,-146.80966186523438,0.5445541739463806,71.00030517578125,24.51,0
-0.2948614358901977,-1.0032391548156738,0.5287584066390991,-137.3195343017578,0.5446540713310242,71.00019836425781,24.51,0
-0.3571583330631256,-1.0412631034851074,0.5576398968696594,-125.86262512207033,0.5447181463241577,71.00012969970703,24.51,0
-0.3579524755477905,-1.0600669384002686,0.6041632890701294,-113.2474365234375,0.5461364388465881,71.00008392333984,24.51,0
-0.319277673959732,-1.0497430562973022,0.6116281747817993,-99.87101745605467,0.5470466017723083,71.00005340576172,24.51,0
-0.3112517595291137,-1.0151288509368896,0.5548431873321533,-86.70110321044922,0.5476307272911072,71.00003051757812,24.51,0
-0.3061011731624603,-0.9985132813453674,0.5128040909767151,-74.74565124511719,0.5480055809020996,71.0000228881836,24.51,0
-0.325186938047409,-0.9710570573806764,0.4858258366584778,-63.91350173950195,0.5482461452484131,71.00001525878906,24.51,0
-0.3430328369140625,-0.942241668701172,0.4685127437114715,-53.44754409790039,0.5484005212783813,71.00000762939453,24.51,0
-0.3544853031635284,-0.91815185546875,0.4574021995067596,-43.33123016357422,0.548499584197998,71.00000762939453,24.51,0
-0.3450415134429931,-0.9026923775672911,0.4502720832824707,-34.367183685302734,0.5485631823539734,71.00000762939453,24.51,0
-0.3445788323879242,-0.887173593044281,0.4345008432865143,-26.87702751159668,0.5513582229614258,72.71964263916016,24.51,0
-0.3330863416194916,-0.871616780757904,0.4019886553287506,-20.21808433532715,0.5531519651412964,73.82320404052734,24.51,0
-0.3201133608818054,-0.8560355305671692,0.3867219984531402,-13.86328125,0.5543030500411987,74.53141021728516,24.51,0
-0.2949947118759155,-0.85163414478302,0.3825224936008453,-8.269704818725586,0.5550417900085449,74.98589324951172,24.51,0
-0.2788750231266022,-0.843211829662323,0.3742297291755676,-4.042371273040772,0.5555158257484436,75.27755737304688,24.51,0
-0.2685303390026092,-0.8434046506881714,0.3689078986644745,-0.7240567803382874,0.5558200478553772,75.46472930908203,24.51,0
-0.256293922662735,-0.8659194707870483,0.3654926717281341,2.7668256759643555,0.5560153126716614,75.58484649658203,24.51,0
-0.2484413087368011,-0.8859659433364868,0.3688987493515014,6.622814178466797,0.5561406016349792,75.66192626953125,24.51,0
-0.2378041744232177,-0.8932328820228577,0.3766823410987854,10.111234664916992,0.5598931312561035,75.71139526367188,24.51,0
-0.2477711886167526,-0.9258852601051332,0.3816774189472198,12.847880363464355,0.5623012781143188,75.7431411743164,24.51,0
-0.2597652375698089,-0.958035171031952,0.3792851865291595,15.277626037597656,0.5638467073440552,75.76351165771484,24.51,0
-0.2730600833892822,-1.0290471315383911,0.3665544390678406,18.19827651977539,0.5648384690284729,75.7765884399414,24.51,0
-0.264798641204834,-1.091411828994751,0.3583845794200897,22.035831451416016,0.5654749274253845,75.78497314453125,24.51,0
-0.2427035868167877,-1.0810539722442627,0.3587394058704376,24.92129898071289,0.5658833384513855,75.79035949707031,24.51,0
-0.2173287123441696,-0.9904402494430542,0.3421737849712372,22.635150909423828,0.5661454796791077,75.79381561279297,24.51,0
-0.2066423445940017,-0.9210940599441528,0.3371407091617584,13.422503471374512,0.5663136839866638,75.79603576660156,24.51,0
-0.2109799981117248,-0.8821893930435181,0.3339107632637024,1.1047115325927734,0.5673398375511169,75.79745483398438,24.49,0
-0.2361547648906707,-0.8684182167053223,0.3262401819229126,-9.307940483093262,0.5679983496665955,75.79837036132812,24.49,0
-0.2802993357181549,-0.8875694870948792,0.3101221024990082,-16.23737907409668,0.568420946598053,75.79895782470703,24.49,0
-0.2918354570865631,-0.8998596668243408,0.2997784614562988,-20.028682708740234,0.568692147731781,75.79933166503906,24.49,0
-0.2880431413650512,-0.896551251411438,0.2987382709980011,-20.853147506713867,0.5688661932945251,75.79957580566406,24.49,0
-0.2688161134719848,-0.8888303637504578,0.3092662990093231,-19.719926834106445,0.5689778923988342,75.79972839355469,24.49,0
-0.250879555940628,-0.8838755488395691,0.3160225749015808,-18.394399642944336,0.569049596786499,75.7998275756836,24.49,0
-0.2337711304426193,-0.8806958198547363,0.3147605955600738,-17.511510848999023,0.5690956115722656,75.79988861083984,24.49,0
-0.2507807910442352,-0.87305748462677,0.3139507174491882,-16.493518829345703,0.5718793869018555,75.7999267578125,24.49,0
-0.2560988366603851,-0.8625578284263611,0.31902876496315,-15.091470718383787,0.5736658573150635,75.79995727539062,24.49,0
-0.2483161091804504,-0.8390264511108398,0.3222875595092773,-13.758225440979004,0.5748122930526733,75.79997253417969,24.49,0
-0.2377238273620605,-0.8239253759384155,0.3243788778781891,-12.709166526794434,0.5755480527877808,75.79998016357422,24.49,0
-0.2365240901708603,-0.8310276865959167,0.3369165062904358,-11.649023056030272,0.5760201811790466,75.79998779296875,24.49,0
-0.2301563918590545,-0.8467810750007629,0.3561579883098602,-10.313072204589844,0.5763232111930847,75.79999542236328,24.49,0
-0.2316677421331405,-0.8624885082244873,0.374103844165802,-8.234077453613281,0.576517641544342,75.79999542236328,24.49,0
-0.2438331842422485,-0.8781663775444031,0.3912182152271271,-4.395678520202637,0.5766424536705017,75.79999542236328,24.49,0
-0.2572380304336548,-0.8994231224060059,0.4077990055084228,1.3957985639572144,0.5767225027084351,77.00732421875,24.49,0
-0.2546449601650238,-0.9186622500419616,0.4240373969078064,7.043442726135254,0.5767738819122314,77.78211975097656,24.49,0
-0.241785317659378,-0.9310088157653807,0.4400560259819031,9.79720973968506,0.576806902885437,78.27933502197266,24.49,0
-0.2335327416658401,-0.9165409803390504,0.4391403198242187,9.185588836669922,0.5768280625343323,78.59841918945312,24.49,0
-0.2506278157234192,-0.868071973323822,0.4161615669727325,6.905068397521973,0.5768416523933411,78.80319213867188,24.49,0
-0.2727940082550049,-0.8481628894805908,0.3902195692062378,4.545917987823486,0.5768503546714783,78.93460083007812,24.49,0
-0.2758234441280365,-0.85777747631073,0.3679737150669098,2.7883358001708984,0.5768559575080872,79.01893615722656,24.49,0
-0.2665719985961914,-0.8751431107521057,0.3369042873382568,1.7392373085021973,0.5768595337867737,79.07305145263672,24.49,0
-0.2606349587440491,-0.9030807018280028,0.322563499212265,0.9370136260986328,0.5768618583679199,79.10778045654297,24.49,0
-0.2568249106407165,-0.915411651134491,0.3301537334918976,-0.1832626760005951,0.5768633484840393,79.13007354736328,24.49,0
-0.2487820535898208,-0.9009338617324828,0.3350246846675873,-1.478986144065857,0.5768643021583557,79.14437866210938,24.49,0
-0.2436206191778183,-0.8580561876296997,0.3213572800159454,-2.4251492023468018,0.5768648982048035,79.15355682373047,24.49,0
-0.229112759232521,-0.8193442225456238,0.3181840777397156,-2.892621755599976,0.5768652558326721,79.1594467163086,24.49,0
-0.225400224328041,-0.8000988960266113,0.3217454850673675,-3.110219717025757,0.5768654942512512,79.16322326660156,24.49,0
-0.2286155074834823,-0.7821505665779114,0.3296287655830383,-3.2606091499328613,0.5768656730651855,79.1656494140625,24.49,0
-0.2362766563892364,-0.7650346159934998,0.3458833396434784,-3.3320424556732178,0.5768657922744751,79.16720581054688,24.49,0
-0.2299976050853729,-0.759648323059082,0.3787057101726532,-3.14859938621521,0.5777837038040161,79.16820526123047,24.49,0
-0.2315658330917358,-0.7673872709274292,0.3997692167758941,-2.64754056930542,0.5783727765083313,79.1688461303711,24.49,0
-0.2437677830457687,-0.7891470193862915,0.4132865667343139,-2.068044424057007,0.5787508487701416,79.16925811767578,24.49,0
-0.2907827198505401,-0.8590888977050781,0.4443522989749908,-1.7140700817108154,0.5789934396743774,79.16952514648438,24.49,0
-0.3265519738197326,-0.9319624900817872,0.4642885029315948,-1.6194649934768677,0.5791491270065308,79.16969299316406,24.49,0
-0.2879311144351959,-0.9619352221488952,0.4882779717445373,-1.637569546699524,0.5792490243911743,79.1697998046875,24.49,0
-0.2687442302703857,-0.992365539073944,0.4980752468109131,-1.67068350315094,0.5793131589889526,79.16986846923828,24.49,0
-0.2844200730323791,-1.006296157836914,0.5099603533744812,-1.638195514678955,0.5793542861938477,79.16991424560547,24.49,0
-0.3392621278762817,-1.0096383094787598,0.5007942318916321,-1.4095571041107178,0.5816760659217834,79.1699447631836,24.49,0
-0.3688588142395019,-1.0005875825881958,0.4837163686752319,-1.0478756427764893,0.5831660032272339,79.16996765136719,24.49,0
-0.3430700600147247,-0.9611926674842834,0.4391701221466064,-0.8480125069618225,0.5841221809387207,79.16997528076172,24.49,0
-0.3153247833251953,-0.935911238193512,0.3825940489768982,-0.9311237931251526,0.5847358107566833,79.16998291015625,24.49,0
-0.3031172454357147,-0.9364804029464722,0.3462867736816406,-1.0632764101028442,0.5851296186447144,79.16999053955078,24.49,0
-0.2896853685379028,-0.9480412006378174,0.3285846412181854,-1.0226942300796509,0.585382342338562,79.16999053955078,24.49,0
-0.2754677832126617,-0.9386669397354126,0.3172244131565094,-0.8211047649383545,0.5855445265769958,79.16999053955078,24.49,0
-0.2439526617527008,-0.9158577919006348,0.2987385392189026,-0.5376855134963989,0.5856485962867737,79.16999053955078,24.49,0
-0.2237280756235122,-0.8788290619850159,0.270082026720047,-0.370133638381958,0.5857153534889221,80.02981567382812,24.49,0
-0.2219446450471878,-0.8606639504432678,0.2460941672325134,-0.5348842144012451,0.5857582092285156,80.58159637451172,24.49,0
-0.2263979166746139,-0.8602021932601929,0.230700135231018,-0.8806442618370056,0.5857856869697571,80.93569946289062,24.49,0
-0.2292557656764984,-0.8599058389663696,0.226418912410736,-0.9556475281715392,0.5858033299446106,81.1629409790039,24.49,0
-0.2086986750364303,-0.8597156405448914,0.2348670214414596,-0.6598530411720276,0.5858146548271179,81.30876922607422,24.49,0
-0.1955063194036483,-0.8595936298370361,0.25148406624794,-0.3052307069301605,0.5858219265937805,81.40235900878906,24.49,0
-0.1870402246713638,-0.8595153093338013,0.2621479332447052,-0.016750706359744,0.585826575756073,81.46241760253906,24.49,0
-0.1760093867778778,-0.8818561434745789,0.2633936107158661,0.3582556247711181,0.5858296155929565,81.50096130371094,24.49,0
-0.1689304411411285,-0.9185842871665956,0.280986338853836,0.8210328221321106,0.5904219150543213,81.52569580078125,24.49,0
-0.1923764497041702,-0.9589476585388184,0.3146674335002899,1.200415849685669,0.5933689475059509,81.54156494140625,24.49,0
-0.1794338822364807,-1.018437147140503,0.3530753552913666,1.3686479330062866,0.5952602028846741,81.55175018310547,24.49,0
-0.1711280792951584,-1.0566140413284302,0.3609300255775451,1.3010634183883667,0.5964739322662354,81.55828857421875,24.49,0
-0.1769934445619583,-1.008342742919922,0.39955735206604,0.9639203548431396,0.5972527861595154,81.56248474121094,24.49,0
-0.2311374694108963,-0.921387255191803,0.3963572680950165,0.3785560131072998,0.5977526307106018,81.56517791748047,24.49,0
-0.2658839821815491,-0.8655842542648315,0.3719125390052795,-0.2084690630435943,0.598073422908783,81.56690216064453,24.49,0
-0.2266067862510681,-0.8801530599594116,0.3450297713279724,-0.4669629633426666,0.5982792973518372,81.56800842285156,24.49,0
-0.2014009356498718,-0.8951002359390259,0.3333757221698761,-0.3928169012069702,0.6016249656677246,81.5687255859375,24.49,0
-0.2132141441106796,-0.8878991603851318,0.3258968293666839,-0.3201562166213989,0.603771984577179,81.56918334960938,24.49,0
-0.2263929545879364,-0.860886812210083,0.3210973143577575,-0.4419078230857849,0.6051498651504517,81.56947326660156,24.49,0
-0.2404481321573257,-0.8155630230903625,0.3124194741249084,-0.6490136981010437,0.6060341000556946,81.56966400146484,24.49,0
-0.2438701540231704,-0.780879020690918,0.3012527823448181,-0.835660994052887,0.6066015362739563,81.56978607177734,24.49,0
-0.2404684424400329,-0.7530230283737183,0.2884888648986816,-0.9841010570526124,0.6069656610488892,81.56986236572266,24.49,0
-0.2494809627532959,-0.763135552406311,0.2802977263927459,-0.9575538039207458,0.6071993708610535,81.56990814208984,24.49,0
-0.2664602398872375,-0.7864184975624084,0.2862366735935211,-0.6359983682632446,0.6073493361473083,81.56993865966797,24.49,0
-0.2773565649986267,-0.812555730342865,0.3124390244483948,-0.1645320206880569,0.6101998686790466,81.56996154785156,24.49,0
-0.289946973323822,-0.8349268436431885,0.3404497504234314,0.2562529742717743,0.6120291948318481,81.56997680664062,24.49,0
-0.2980267703533172,-0.8604788780212402,0.3640231788158417,0.6946696043014526,0.6132031679153442,81.56998443603516,24.49,0
-0.3088096976280212,-0.9216589331626892,0.3903467953205108,1.230383038520813,0.6139565110206604,81.56999206542969,24.49,0
-0.3101317882537842,-0.9665185213088988,0.4072397947311401,1.7747973203659058,0.6144399642944336,81.56999206542969,24.49,0
-0.3277735412120819,-1.0400890111923218,0.4404718279838562,2.220900535583496,0.6147502064704895,81.56999206542969,24.49,0
-0.3838771879673004,-1.0984978675842283,0.4617982506752014,2.446280241012573,0.6149493455886841,81.56999206542969,24.49,0
-0.4142835140228271,-1.10799241065979,0.4586910009384155,2.332970380783081,0.6150771379470825,81.56999206542969,24.49,0
-0.3610254824161529,-1.0581077337265017,0.4399036169052124,1.9593183994293213,0.6188312768936157,82.21843719482422,24.49,0
-0.310054212808609,-1.0037035942077637,0.4166513979434967,1.5153231620788574,0.6212404370307922,82.63457489013672,24.49,0
-0.2773437798023224,-0.9519968032836914,0.3793383836746216,1.0691766738891602,0.6227865219116211,82.90162658691406,24.49,0
-0.2619498968124389,-0.9468032121658324,0.3665885627269745,0.6682232022285461,0.6237787008285522,83.07300567626953,24.49,0
-0.2464732080698013,-0.9490680694580078,0.3640042543411255,0.4037491679191589,0.6244154572486877,83.18299102783203,24.49,0
-0.2197478413581848,-0.9281303882598876,0.351150244474411,0.2089469283819198,0.624824047088623,83.25357055664062,24.49,0
-0.1969992667436599,-0.9090960025787354,0.3261079490184784,-0.1560984998941421,0.62508624792099,83.29886627197266,24.49,0
-0.1879983097314834,-0.8856853246688843,0.3044394850730896,-0.8095250129699707,0.6252545118331909,83.32793426513672,24.49,0
-0.1710264682769775,-0.876259446144104,0.3017294406890869,-1.5154625177383425,0.6267396807670593,83.34658813476562,24.49,0
-0.1601349115371704,-0.8758082389831543,0.2887947559356689,-1.8251895904541016,0.6276927590370178,83.35855865478516,24.49,0
-0.1755364388227462,-0.8643231391906738,0.2748962342739105,-1.683609962463379,0.6283044219017029,83.36624145507812,24.49,0
-0.2022135704755783,-0.8401593565940857,0.2603791952133178,-1.6142476797103882,0.6286969184875488,83.37117004394531,24.49,0
-0.2137356400489807,-0.8414457440376282,0.2566607594490051,-1.9530705213546755,0.6289488077163696,83.37433624267578,24.49,0
-0.2043365240097046,-0.8590645790100098,0.2598722577095032,-2.270819664001465,0.6291104555130005,83.3763656616211,24.49,0
-0.1927069425582885,-0.8759691119194031,0.267531007528305,-2.04124116897583,0.6292141675949097,83.37767028808594,24.49,0
-0.1908415108919143,-0.9036107659339904,0.2668481767177582,-1.3923503160476685,0.6292807459831238,83.37850189208984,24.49,0
-0.2064377069473266,-0.938142955303192,0.2664099633693695,-0.7108189463615417,0.6329959630966187,83.37903594970703,24.49,0
-0.2276419997215271,-0.999488115310669,0.2829220592975616,-0.0620793774724006,0.635380208492279,83.37937927246094,24.49,0
-0.252445250749588,-0.9548892974853516,0.3159096837043762,0.648015558719635,0.6369102597236633,83.37960052490234,24.49,0
-0.2683625519275665,-0.909475028514862,0.3426769971847534,1.3401635885238647,0.6378921270370483,83.37974548339844,24.49,0
-0.2505884766578674,-0.908319652080536,0.3542569577693939,1.78076171875,0.6385222673416138,83.37983703613281,24.49,0
-0.2111932337284088,-0.9243714809417723,0.3560905456542969,1.7697410583496094,0.63892662525177,83.37989807128906,24.49,0
-0.1691183000802993,-0.9178793430328368,0.3572672307491302,1.314846754074097,0.6391861438751221,83.37993621826172,24.49,0
-0.1813014596700668,-0.880126416683197,0.3580223619937897,0.6646642088890076,0.6393526792526245,83.37995910644531,24.49,0
-0.200315460562706,-0.8503009676933289,0.3585069477558136,0.0790333598852157,0.6426727771759033,83.37997436523438,24.49,0
-0.2181153297424316,-0.8311607241630554,0.36441570520401,-0.4042680263519287,0.6448034048080444,83.3799819946289,24.49,0
-0.2295382469892501,-0.8132798075675964,0.3682076036930084,-0.8505609035491943,0.6461707353591919,83.37998962402344,24.49,0
-0.2424665987491607,-0.7962071299552917,0.3706410229206085,-1.291016697883606,0.6470482349395752,83.37998962402344,24.49,0
-0.2731543779373169,-0.7852508425712585,0.3666048943996429,-1.7671350240707395,0.6476113200187683,83.37998962402344,24.49,0
-0.2928480207920074,-0.7782197594642639,0.3640147447586059,-2.230313539505005,0.6479727029800415,83.37998962402344,24.49,0
-0.2998884916305542,-0.7737075686454773,0.367950290441513,-2.4487383365631104,0.6482046246528625,83.37998962402344,24.49,0
-0.2988088726997375,-0.7764096856117249,0.3704758882522583,-2.270061492919922,0.6483534574508667,83.37998962402344,24.49,0
-0.331702709197998,-0.8453170657157898,0.3776944577693939,-1.8258000612258911,0.6530396342277527,83.88155364990234,24.49,0
-0.3584098517894745,-0.962308943271637,0.3991202414035797,-1.3221615552902222,0.656046986579895,84.20343017578125,24.49,0
-0.3699511587619781,-1.0541808605194092,0.4184678494930267,-0.7804182767868042,0.6579769253730774,84.40998840332031,24.49,0
-0.388553261756897,-1.113139033317566,0.4364818036556244,0.0365588590502738,0.6592154502868652,84.54254913330078,24.49,0
-0.4060887992382049,-1.150974988937378,0.4368465840816498,1.3705097436904907,0.6600102782249451,84.62761688232422,24.49,0
-0.4061465561389923,-1.113680362701416,0.397896260023117,2.9215824604034424,0.6605203151702881,84.68220520019531,24.49,0
-0.383792519569397,-1.067355751991272,0.3673024177551269,3.967127561569214,0.6608476638793945,84.71723937988281,24.49,0
-0.3638492226600647,-1.0376272201538086,0.3420712649822235,4.261927604675293,0.661057710647583,84.7397232055664,24.49,0
-0.334257423877716,-1.0185492038726809,0.3202815949916839,4.128681659698486,0.6616514325141907,84.754150390625,24.49,0
-0.2872782349586487,-1.0063060522079468,0.3174937665462494,3.688497304916382,0.6620324850082397,84.76341247558594,24.49,0
-0.234738603234291,-0.9592646956443788,0.3101069331169128,2.814887285232544,0.6622769832611084,84.76935577392578,24.49,0
-0.1954239159822464,-0.9010873436927797,0.2885731756687164,1.6523818969726562,0.662433922290802,84.7731704711914,24.49,0
-0.181389570236206,-0.8637524843215942,0.269156277179718,0.5480953454971313,0.6625346541404724,84.77561950683594,24.49,0
-0.1891764551401138,-0.8509886860847473,0.2455000728368759,-0.2286412119865417,0.6625992655754089,84.77719116210938,24.49,0
-0.1997714042663574,-0.8539931178092957,0.2247211039066314,-0.6017158627510071,0.6626407504081726,84.7781982421875,24.49,0
-0.1897772997617721,-0.8783122897148132,0.2225819081068039,-0.7766473889350891,0.6626673340797424,84.77884674072266,24.49,0
-0.1833636611700058,-0.9051145315170288,0.2212090939283371,-1.046541690826416,0.6649797558784485,84.77925872802734,24.49,0
-0.1792477667331695,-0.9335101842880248,0.2203281074762344,-1.4382814168930054,0.6664637327194214,84.77952575683594,24.49,0
-0.1766064167022705,-0.9685261845588684,0.2141649574041366,-1.7290856838226318,0.6674160957336426,84.77969360351562,24.49,0
-0.1637157946825027,-0.9853996634483336,0.2158075869083404,-1.8046473264694212,0.6680272221565247,84.77980041503906,24.49,0
-0.1554433405399322,-0.9906303286552428,0.2168617248535156,-1.7420785427093506,0.6684194207191467,84.77986907958984,24.49,0
-0.1501345634460449,-1.0499647855758667,0.2679181694984436,-1.651769518852234,0.6686711311340332,84.77991485595703,24.49,0
-0.1467276960611343,-1.0824445486068726,0.2894877195358276,-1.5544060468673706,0.6688326597213745,84.77994537353516,24.49,0
-0.1781280040740966,-0.9857348799705504,0.3201231360435486,-1.3880290985107422,0.6689363121986389,84.77996826171875,24.49,0
-0.2094744592905044,-0.9124765992164612,0.3565765023231506,-1.123624563217163,0.6708388924598694,84.77997589111328,24.49,0
-0.2127974927425384,-0.9046481251716614,0.3519813120365143,-0.8572154641151428,0.6720598936080933,84.77998352050781,24.49,0
-0.1645500510931015,-0.9220153093338012,0.3266412913799286,-0.693414568901062,0.6728434562683105,84.77999114990234,24.49,0
-0.1391853988170623,-0.9331606030464172,0.3159773051738739,-0.566801130771637,0.6733462810516357,84.77999114990234,24.49,0
-0.1508966982364654,-0.9067263603210448,0.3147315382957458,-0.3529926240444183,0.6736689805984497,84.77999114990234,24.49,0
-0.1752056628465652,-0.8729690313339233,0.3083342909812927,-0.1190530881285667,0.6738760471343994,84.77999114990234,24.49,0
-0.2020013034343719,-0.8401100039482117,0.2986311316490173,-0.0584885403513908,0.6740089654922485,84.77999114990234,24.49,0
-0.2247949689626693,-0.8246207237243652,0.2868064343929291,-0.1485944241285324,0.6740942597389221,84.77999114990234,24.49,0
-0.2450204044580459,-0.8202784061431885,0.2792180180549621,-0.1311850994825363,0.6695586442947388,85.25289154052734,24.49,0
-0.274793267250061,-0.8230894804000854,0.2799459993839264,0.0626985505223274,0.6666479110717773,85.5563735961914,24.49,0
-0.2938997745513916,-0.8192957043647766,0.2804131805896759,0.2408605515956878,0.6647799611091614,85.75112915039062,24.49,0
-0.3117589950561523,-0.8112633228302002,0.2919085323810577,0.2692128419876098,0.6635812520980835,85.87611389160156,24.49,0
-0.3232200145721435,-0.8564885854721069,0.3160789012908935,0.2121736407279968,0.6628119945526123,85.9563217163086,24.49,0
-0.3305750489234924,-0.913500428199768,0.3371878266334533,0.1182479485869407,0.6623182892799377,86.00779724121094,24.49,0
-0.3464906215667724,-1.000467300415039,0.3675276339054107,0.0723021551966667,0.6620014905929565,86.04083251953125,24.49,0
-0.3567043244838714,-1.0786687135696411,0.3925957679748535,0.2398584485054016,0.6617981791496277,86.06202697753906,24.49,0
-0.36885666847229,-1.1232560873031616,0.4366719126701355,0.6913136839866638,0.660290539264679,86.07563018798828,24.49,0
-0.3934486508369446,-1.1126853227615356,0.4481641352176666,1.3679498434066772,0.6593230366706848,86.08435821533203,24.49,0
-0.3868392705917358,-1.072314977645874,0.4331480860710144,2.2249200344085693,0.6587021350860596,86.08995819091797,24.49,0
-0.3490111231803894,-1.0128209590911863,0.3955227732658386,2.9754984378814697,0.6583036780357361,86.09355163574219,24.49,0
-0.335930734872818,-0.9690433144569396,0.360181450843811,3.1562399864196777,0.6580479741096497,86.09586334228516,24.49,0
-0.344329833984375,-0.9521449208259584,0.3319036662578583,2.724095344543457,0.657883882522583,86.09734344482422,24.49,0
-0.3329265415668487,-0.9748871326446532,0.319354385137558,2.0204434394836426,0.6577785611152649,86.09829711914062,24.49,0
-0.2976197004318237,-0.989481806755066,0.3280943036079407,1.2249528169631958,0.6577109694480896,86.09890747070312,24.49,0
-0.2413751631975174,-0.9708589315414428,0.3225075304508209,0.513828456401825,0.6553722620010376,86.09929656982422,24.49,0
-0.1996828764677047,-0.9533100724220276,0.3077267110347748,0.1398690044879913,0.6538714170455933,86.09954833984375,24.49,0
-0.1841227263212204,-0.942048192024231,0.2926434576511383,-0.0642908886075019,0.6529082655906677,86.0997085571289,24.49,0
-0.1685393303632736,-0.9180276989936828,0.2885616719722748,-0.517740786075592,0.6522901654243469,86.09981536865234,24.49,0
-0.1641365885734558,-0.8970149159431458,0.2803444266319275,-1.2529782056808472,0.6518934965133667,86.09988403320312,24.49,0
-0.1893000304698944,-0.8779323697090149,0.2918643951416015,-1.9576786756515503,0.6516389846801758,86.09992218017578,24.49,0
-0.199850708246231,-0.8824796080589294,0.2992572486400604,-2.313185214996338,0.6514756083488464,86.0999526977539,24.49,0
-0.1954259723424911,-0.9301799535751344,0.3095993399620056,-2.2117319107055664,0.6513707637786865,86.09996795654297,24.49,0
-0.1925864368677139,-0.9719868302345276,0.3218340575695038,-1.942418336868286,0.6513034701347351,86.0999755859375,24.49,0
-0.2019597291946411,-0.95403391122818,0.3352833986282348,-1.8770655393600464,0.6512603163719177,86.09998321533203,24.49,0
-0.1967794150114059,-0.9425127506256104,0.3383166193962097,-1.827960729598999,0.6512326002120972,86.09999084472656,24.49,0
-0.1990527659654617,-0.9183257818222046,0.340263158082962,-1.373704195022583,0.6512148380279541,86.09999084472656,24.49,0
-0.2061094492673874,-0.8916084170341492,0.3471101224422455,-0.6164537072181702,0.651203453540802,86.09999084472656,24.49,0
-0.2050402462482452,-0.8240827918052673,0.3403085470199585,0.0378871373832225,0.6511961221694946,86.09999084472656,24.49,0
-0.2099518626928329,-0.7751509547233582,0.324748158454895,0.4685531854629516,0.6511914134025574,86.09999084472656,24.49,0
-0.2075060904026031,-0.7885315418243408,0.3147623836994171,0.6983563899993896,0.6511883735656738,86.09999084472656,24.49,0
-0.2059365361928939,-0.8251072764396667,0.325147420167923,0.5986331105232239,0.6502682566642761,86.55139923095703,24.49,0
-0.2049292773008346,-0.8541772961616516,0.3542030453681946,0.2122046500444412,0.6496777534484863,86.8410873413086,24.49,0
-0.2042828798294067,-0.8336483240127563,0.3616537153720855,-0.0751912146806716,0.6492987871170044,87.02699279785156,24.49,0
-0.2262591570615768,-0.8204740285873413,0.3664351105690002,-0.0733314231038093,0.6490556001663208,87.14629364013672,24.49,0
-0.2347644865512848,-0.8512039184570312,0.3751013278961181,-0.0972159430384635,0.6488995552062988,87.22285461425781,24.49,0
-0.2458204925060272,-0.8765223622322083,0.3806627988815307,-0.4349754452705383,0.6487994194030762,87.27198791503906,24.49,0
-0.2641111612319946,-0.8759769797325134,0.4010251462459564,-0.8666845560073853,0.6487351655960083,87.30352020263672,24.49,0
-0.2870446145534515,-0.8756269812583923,0.4308858513832092,-1.0219230651855469,0.6486939191818237,87.3237533569336,24.49,0
-0.3017619848251343,-0.8698045611381531,0.4556465148925781,-0.8958439826965332,0.6486674547195435,87.33673858642578,24.49,0
-0.3168044984340668,-0.8660680651664734,0.4603409469127655,-0.7755253314971924,0.6486504673957825,87.3450698852539,24.49,0
-0.3208601474761963,-0.8804635405540466,0.4745491147041321,-0.820119321346283,0.6486395597457886,87.35041809082031,24.49,0
-0.295473963022232,-0.9512772560119628,0.4780693054199219,-0.834406852722168,0.6486325263977051,87.35385131835938,24.49,0
-0.312769204378128,-1.019112467765808,0.4691328108310699,-0.528309166431427,0.6486280560493469,87.3560562133789,24.49,0
-0.3294660747051239,-1.073840856552124,0.4689956605434418,0.1231138110160827,0.6486251950263977,87.35746765136719,24.49,0
-0.3177900612354278,-1.0921690464019775,0.4633098840713501,0.9746512174606324,0.6486233472824097,87.3583755493164,24.49,0
-0.2879059910774231,-1.0535509586334229,0.4484655261039734,1.9402803182601929,0.6486221551895142,87.35895538330078,24.49,0
-0.2519347965717315,-0.9615948796272278,0.4165481626987457,2.785667657852173,0.6426538825035095,87.35932922363281,24.49,0
-0.2456438690423965,-0.8913871645927429,0.3680765628814697,3.138312101364136,0.6388238072395325,87.35957336425781,24.49,0
-0.258400022983551,-0.8519296646118164,0.3313725292682647,2.974118232727051,0.6363658905029297,87.35972595214844,24.49,0
-0.2833795249462127,-0.8769881129264832,0.3078179657459259,2.564229249954224,0.6347885131835938,87.35982513427734,24.49,0
-0.2882143855094909,-0.9210580587387084,0.3038975596427917,1.942928433418274,0.6337762475013733,87.3598861694336,24.49,0
-0.257730484008789,-0.960535168647766,0.3013816773891449,1.0713133811950684,0.6331266164779663,87.35992431640625,24.49,0
-0.2269721031188964,-0.9802715182304382,0.2997671365737915,0.2074420750141143,0.6327097415924072,87.35995483398438,24.49,0
-0.2072331458330154,-0.99293714761734,0.2987309992313385,-0.3433581888675689,0.6324422359466553,87.35997009277344,24.49,0
-0.1945658177137375,-1.0122607946395874,0.2980660796165466,-0.6538391709327698,0.6318116188049316,87.35997772216797,24.49,0
-0.1864366680383682,-1.0358572006225586,0.2976393699645996,-0.9892258644104004,0.6314069032669067,87.3599853515625,24.49,0
-0.1812198460102081,-1.0174132585525513,0.2973655164241791,-1.3585084676742554,0.6311472058296204,87.35999298095703,24.49,0
-0.183469757437706,-0.9943814873695374,0.291592001914978,-1.5489193201065063,0.6309805512428284,87.35999298095703,24.49,0
-0.1961091756820678,-1.001992106437683,0.2990824580192566,-1.5170632600784302,0.6308735609054565,87.35999298095703,24.49,0
-0.1874271035194397,-0.9956806302070618,0.3094871640205383,-1.4213858842849731,0.6308049559593201,87.35999298095703,24.49,0
-0.1874532252550125,-0.9748370051383972,0.3105665445327759,-1.3671507835388184,0.630760908126831,87.35999298095703,24.49,0
-0.204263299703598,-0.916678547859192,0.3224547803401947,-1.3001025915145874,0.6307326555252075,87.35999298095703,24.49,0
-0.2262465953826904,-0.8681602478027344,0.3356817364692688,-1.1388499736785889,0.6288780570030212,87.65018463134766,24.49,0
-0.2347564250230789,-0.8090351223945618,0.3553655743598938,-0.9601331949234008,0.627687931060791,87.83641052246094,24.49,0
-0.2458153218030929,-0.7487009167671204,0.3847908675670624,-0.9565029144287108,0.6269241571426392,87.95591735839844,24.49,0
-0.2641078233718872,-0.7099819183349609,0.4260654151439667,-1.1261367797851562,0.6264340281486511,88.0326156616211,24.49,0
-0.2870424687862396,-0.6739387512207031,0.4581508040428161,-1.2135026454925537,0.6261194944381714,88.08183288574219,24.49,0
-0.301760584115982,-0.656406044960022,0.4787413775920868,-1.1728395223617554,0.6259176135063171,88.11341857910156,24.49,0
-0.3224013745784759,-0.6395568251609802,0.5143463015556335,-1.2506388425827026,0.6257880330085754,88.1336898803711,24.49,0
-0.3412452340126037,-0.6231461763381958,0.5371955037117004,-1.472529649734497,0.6257048845291138,88.14669799804688,24.49,0
-0.3589359223842621,-0.623810350894928,0.5574565529823303,-1.5074491500854492,0.6247336864471436,88.15504455566406,24.49,0
-0.3758865594863891,-0.64662766456604,0.576056718826294,-1.2181743383407593,0.6241104602813721,88.160400390625,24.49,0
-0.3867644965648651,-0.6556727290153503,0.593591034412384,-0.8999791741371155,0.6237104535102844,88.1638412475586,24.49,0
-0.4049408733844757,-0.6614773273468018,0.5936479568481445,-0.7996745109558105,0.6234537959098816,88.16604614257812,24.49,0
-0.4166054129600525,-0.681995689868927,0.6048800349235535,-0.7424699068069458,0.6232890486717224,88.16746520996094,24.49,0
-0.4184932708740234,-0.6951631903648376,0.612088143825531,-0.3725797832012176,0.6231833696365356,88.16837310791016,24.49,0
-0.419704794883728,-0.6868200302124023,0.5999205708503723,0.4200936257839203,0.6231155395507812,88.16895294189453,24.49,0
-0.426080048084259,-0.6870636343955994,0.5865143537521362,1.426763892173767,0.6230720281600952,88.16932678222656,24.49,0
-0.4245735704898834,-0.6984155178070068,0.589106559753418,2.276993751525879,0.6235030293464661,88.16957092285156,24.47,0
-0.4348023235797882,-0.7224938273429871,0.5907701253890991,2.6936495304107666,0.6237795948982239,88.16972351074219,24.47,0
-0.4413665533065796,-0.7435436844825745,0.5918377041816711,2.7424981594085693,0.623957097530365,88.1698226928711,24.47,0
-0.4343835711479187,-0.7458567023277283,0.5981205701828003,2.76309871673584,0.6240710020065308,88.16988372802734,24.47,0
-0.4299022853374481,-0.741743266582489,0.6021525263786316,3.009186267852783,0.6241440773010254,88.169921875,24.47,0
-0.4214286804199219,-0.7335057258605957,0.5991422533988953,3.328326940536499,0.6241909861564636,88.16995239257812,24.47,0
-0.415990799665451,-0.7338171601295471,0.5916126370429993,3.2966830730438232,0.6242210865020752,88.16996765136719,24.47,0
-0.4125010967254638,-0.734017014503479,0.5867806077003479,2.7067463397979736,0.6242403984069824,88.16997528076172,24.47,0
-0.4046638309955597,-0.7341452836990356,0.5780819058418274,1.7370339632034302,0.6224167346954346,88.16998291015625,24.47,0
-0.399634301662445,-0.7286298274993896,0.5724995732307434,0.666906476020813,0.6212463974952698,88.16999053955078,24.47,0
-0.3908088803291321,-0.7250903248786926,0.5689171552658081,-0.2849504053592682,0.6204953193664551,88.16999053955078,24.47,0
-0.3851452171802521,-0.7228188514709473,0.5666181445121765,-0.956701159477234,0.6200133562088013,88.16999053955078,24.47,0
-0.3815106153488159,-0.7213611602783203,0.565142810344696,-1.33405339717865,0.6197040677070618,88.16999053955078,24.47,0
-0.3903736770153045,-0.7148278951644897,0.5585982203483582,-1.5081474781036377,0.6195055842399597,88.16999053955078,24.47,0
-0.3960614800453186,-0.7162330150604248,0.5543982982635498,-1.541054368019104,0.6193782091140747,88.16999053955078,24.47,0
-0.3941138088703155,-0.7227325439453125,0.5517030358314514,-1.5191811323165894,0.6192964315414429,88.16999053955078,24.47,0
-0.3984616994857788,-0.721305787563324,0.5499733686447144,-1.5982911586761477,0.6169486045837402,88.52108764648438,24.47,0
-0.4012519121170044,-0.7203901410102844,0.5544611215591431,-1.7959450483322144,0.6154419183731079,88.74639892578125,24.47,0
-0.3974447548389435,-0.7198025584220886,0.5629388689994812,-1.9657788276672363,0.6144750118255615,88.8909912109375,24.47,0
-0.3950015306472778,-0.7194254994392395,0.5683794021606445,-2.0210297107696533,0.6138545274734497,88.98377990722656,24.47,0
-0.4046291410923004,-0.7247812747955322,0.5718708634376526,-2.045738697052002,0.6134563088417053,89.04332733154297,24.47,0
-0.3996120393276214,-0.7226205468177795,0.5797092318534851,-2.068760871887207,0.6132007837295532,89.08154296875,24.47,0
-0.3963923752307892,-0.715636134147644,0.5903372168540955,-2.004718542098999,0.6130368113517761,89.10607147216797,24.47,0
-0.3999239504337311,-0.7111539244651794,0.5971576571464539,-1.845394730567932,0.6129315495491028,89.12181091308594,24.47,0
-0.4021902978420257,-0.7082775235176086,0.6071323752403259,-1.6965763568878174,0.6128640174865723,89.13191223144531,24.47,0
-0.3924491703510284,-0.700833797454834,0.613533616065979,-1.4864310026168823,0.6128206849098206,89.13838958740234,24.47,0
-0.3973934352397918,-0.6960568428039551,0.6120437383651733,-1.079295992851257,0.6127928495407104,89.14254760742188,24.47,0
-0.4005663692951202,-0.692991316318512,0.6110876202583313,-0.5923179388046265,0.6127749681472778,89.14521789550781,24.47,0
-0.4026025831699371,-0.6910240054130554,0.6104740500450134,-0.2296473979949951,0.612763524055481,89.14693450927734,24.47,0
-0.4095070660114288,-0.6841637492179871,0.6044825315475464,0.092658095061779,0.6127561926841736,89.14803314208984,24.47,0
-0.4139379858970642,-0.6797612309455872,0.6006374955177307,0.5001194477081299,0.6127514839172363,89.14873504638672,24.47,0
-0.4111837148666382,-0.6713381409645081,0.5925722122192383,0.944316029548645,0.6127484440803528,89.14918518066406,24.47,0
-0.4094161689281463,-0.6603349447250366,0.5817986130714417,1.4192522764205933,0.6118282675743103,89.14947509765625,24.47,0
-0.4026840925216675,-0.6476759314537048,0.580482542514801,1.946158766746521,0.6112377643585205,89.14966583251953,24.47,0
-0.4039615988731384,-0.639552116394043,0.5740401744842529,2.309375047683716,0.6108587980270386,89.14978790283203,24.47,0
-0.4047814309597015,-0.6287409067153931,0.5755035877227783,2.309598922729492,0.610615611076355,89.14986419677734,24.47,0
-0.4053075611591339,-0.6274006962776184,0.5820404887199402,2.0410494804382324,0.610459566116333,89.14990997314453,24.47,0
-0.4056451916694641,-0.6265406012535095,0.586235523223877,1.6430076360702517,0.6103594303131104,89.14994049072266,24.47,0
-0.4058618545532226,-0.6315864324569702,0.6001231670379639,1.2299339771270752,0.6102951765060425,89.14996337890625,24.47,0
-0.4115986824035644,-0.6348245739936829,0.6090354919433594,1.011420488357544,0.6102539300918579,89.14997863769531,24.47,0
-0.4096824824810028,-0.6369026303291321,0.6147549152374268,1.1148062944412231,0.6074731349945068,89.14998626708984,24.47,0
-0.4084527790546417,-0.6382362246513367,0.6184253096580505,1.3101260662078855,0.6056885719299316,89.14999389648438,24.47,0
-0.4132613837718963,-0.6334942579269409,0.6207807660102844,1.234846830368042,0.6045433878898621,89.14999389648438,24.47,0
-0.4107494950294494,-0.6304511427879333,0.6166945695877075,0.8211142420768738,0.6038084626197815,89.14999389648438,24.47,0
-0.4091375172138214,-0.6284982562065125,0.6084744930267334,0.3908060193061828,0.6033368110656738,89.14999389648438,24.47,0
-0.4137008190155029,-0.6384405493736267,0.5976015329360962,0.2507967948913574,0.6030341386795044,89.14999389648438,24.47,0
-0.4110315144062042,-0.6448209285736084,0.5906239151954651,0.2970848083496094,0.6028398871421814,89.14999389648438,24.47,0
-0.4037207365036011,-0.6545132398605347,0.5805482864379883,0.2443905621767044,0.602715253829956,89.14999389648438,24.47,0
-0.3934313058853149,-0.6663309931755066,0.5740823745727539,0.0995145812630653,0.6030945777893066,89.4795913696289,24.47,0
-0.3868281543254852,-0.6739149689674377,0.5643351078033447,0.0387847013771534,0.6033380031585693,89.69110870361328,24.47,0
-0.3769928514957428,-0.6843796968460083,0.5468843579292297,-0.003770814044401,0.6034942269325256,89.82685089111328,24.47,0
-0.3650833368301391,-0.6966931223869324,0.5300877094268799,-0.246035024523735,0.6035944819450378,89.9139633178711,24.47,0
-0.3462449610233307,-0.7101929187774658,0.5249063372612,-0.6594517230987549,0.6036587953567505,89.96986389160156,24.47,0
-0.3341555595397949,-0.7412474155426025,0.5159834623336792,-0.9928277134895324,0.6037001013755798,90.0057373046875,24.47,0
-0.3319950699806213,-0.7723719477653503,0.5102572441101074,-1.102874517440796,0.6037265658378601,90.02876281738281,24.47,0
-0.3362063765525818,-0.8035414218902588,0.5121802687644958,-1.008697748184204,0.6037435531616211,90.04353332519531,24.47,0
-0.3109200596809387,-0.8291419744491577,0.5190121531486511,-0.7727143168449402,0.6032951474189758,90.05301666259766,24.47,0
-0.2946927547454834,-0.8399732112884521,0.5233964323997498,-0.495883584022522,0.6030073761940002,90.05909729003906,24.47,0
-0.289876788854599,-0.8469240665435791,0.5150144696235657,-0.2859863340854645,0.6028227210044861,90.06300354003906,24.47,0
-0.2923839390277862,-0.8569824695587158,0.504037618637085,-0.1584515422582626,0.6027042269706726,90.06551361083984,24.47,0
-0.2939929068088531,-0.8634374141693115,0.5025911331176758,-0.0766070485115051,0.6026281714439392,90.06712341308594,24.47,0
-0.2894276678562164,-0.8619820475578308,0.4904672801494598,-0.0205013900995254,0.6025793552398682,90.06815338134766,24.47,0
-0.286497950553894,-0.8610480427742004,0.4770891368389129,0.0477471724152565,0.6025480628013611,90.06881713867188,24.47,0
-0.2790200710296631,-0.8604486584663391,0.4685038030147552,0.1631966829299926,0.6025279760360718,90.06924438476562,24.47,0
-0.2742211818695068,-0.8600640296936035,0.4573964476585388,0.2802764475345611,0.6029743552207947,90.06951141357422,24.49,0
-0.2823370695114136,-0.8598172068595886,0.4446706175804138,0.3374986052513122,0.6032608151435852,90.06968688964844,24.49,0
-0.2819476127624511,-0.8652565479278564,0.4309061467647552,0.3849682211875915,0.6034446954727173,90.0698013305664,24.49,0
-0.2760999202728271,-0.8687472343444824,0.4276706576347351,0.5085784792900085,0.6035626530647278,90.06986999511719,24.49,0
-0.2723472118377685,-0.8653895854949951,0.4143987596035003,0.6595559120178223,0.6036383509635925,90.06991577148438,24.49,0
-0.2699389159679413,-0.86323481798172,0.4058816432952881,0.6991233229637146,0.6036869287490845,90.0699462890625,24.49,0
-0.273991197347641,-0.8618519902229309,0.3948180675506592,0.6242033243179321,0.603718101978302,90.0699691772461,24.49,0
-0.2709939479827881,-0.8665623664855957,0.3877180814743042,0.5546284914016724,0.6037381291389465,90.06997680664062,24.49,0
-0.2690704762935638,-0.8695852160453796,0.383161723613739,0.5243096947669983,0.6032916903495789,90.06998443603516,24.49,0
-0.2622383236885071,-0.8659273386001587,0.380237728357315,0.4726096391677856,0.6030051708221436,90.06999206542969,24.49,0
-0.2578538656234741,-0.8635799288749695,0.3839590549468994,0.3821103274822235,0.6028212904930115,90.06999206542969,24.49,0
-0.255040168762207,-0.8620734810829163,0.3863471746444702,0.2631292939186096,0.602703332901001,90.06999206542969,24.49,0
-0.2532344758510589,-0.8611067533493042,0.3822819590568542,0.1437832117080688,0.6026276350021362,90.06999206542969,24.49,0
-0.2520757019519806,-0.8604863286018372,0.3796731531620025,0.1639233082532882,0.6025790572166443,90.06999206542969,24.49,0
-0.2569298446178436,-0.8600881695747375,0.377998948097229,0.4598715305328369,0.6025478839874268,90.06999206542969,24.49,0
-0.2600449621677398,-0.865430474281311,0.3769245445728302,0.9722258448600768,0.6025278568267822,90.06999206542969,24.49,0
-0.2620440423488617,-0.868858814239502,0.3762350678443908,1.4909019470214844,0.6043514013290405,90.4031753540039,24.49,0
-0.2633269429206848,-0.8710589408874512,0.3701948225498199,1.7413591146469116,0.6055216789245605,90.6169891357422,24.49,0
-0.2641502320766449,-0.8724708557128906,0.3719163239002228,1.5330828428268433,0.6062726974487305,90.75420379638672,24.49,0
-0.2702763676643371,-0.8733769655227661,0.3730210661888122,1.0590784549713137,0.6067546606063843,90.8422622680664,24.49,0
-0.27420774102211,-0.87395840883255,0.3737300336360931,0.7871328592300415,0.6070639491081238,90.89877319335938,24.49,0
-0.2767306864261627,-0.8743315935134888,0.3741849958896637,0.8741418123245239,0.6072624325752258,90.9350357055664,24.49,0
-0.278349757194519,-0.8745710849761963,0.3744769692420959,1.0553693771362305,0.6073898077011108,90.95831298828124,24.49,0
-0.2737910151481628,-0.8803225159645081,0.3746643364429474,1.1036018133163452,0.6074715256690979,90.97325134277344,24.49,0
-0.2764632403850555,-0.8896112442016602,0.3747845888137817,0.9446781277656556,0.6043104529380798,90.98283386230467,24.49,0
-0.2781781256198883,-0.8899744153022766,0.3748617470264435,0.538171112537384,0.6022818684577942,90.98898315429688,24.49,0
-0.2792786359786987,-0.8902074694633484,0.3749112784862518,-0.03080315887928,0.6009799838066101,90.99292755126952,24.49,0
-0.2743871212005615,-0.8847593069076538,0.3693452775478363,-0.5428237318992615,0.6001445651054382,90.9954605102539,24.49,0
-0.2712480127811432,-0.8812629580497742,0.3657733500003814,-0.8893219232559204,0.5996084213256836,90.99708557128906,24.49,0
-0.2748312950134277,-0.8846169710159302,0.3578833043575287,-1.1654231548309326,0.5992643237113953,90.99813079833984,24.49,0
-0.2771308422088623,-0.8867694139480591,0.352819949388504,-1.3963476419448853,0.5990435481071472,90.9988021850586,24.49,0
-0.273008793592453,-0.8825529217720032,0.3439728021621704,-1.390491008758545,0.5989018678665161,90.99922943115234,24.49,0
-0.2759612798690796,-0.8798470497131348,0.3382952213287353,-1.0392227172851562,0.5978930592536926,90.99950408935548,24.47,0
-0.2778559923171997,-0.8781105279922485,0.3346516489982605,-0.5773489475250244,0.5972456932067871,90.99967956542967,24.47,0
-0.2790719270706177,-0.8769961595535278,0.3323134183883667,-0.2630320489406585,0.5968302488327026,90.99979400634766,24.47,0
-0.2798522412776947,-0.8762810230255127,0.3364106714725494,-0.0649041384458541,0.5965636372566223,90.99987030029295,24.47,0
-0.2803530097007751,-0.881419837474823,0.3390400409698486,0.09090356528759,0.5963925123214722,90.99991607666016,24.47,0
-0.2862721383571625,-0.8847176432609558,0.3407274186611175,0.1443184912204742,0.5962827205657959,90.99994659423828,24.47,0
-0.2900706827640533,-0.88123619556427,0.3418102860450744,0.124858483672142,0.5962122678756714,90.99996948242188,24.47,0
-0.2925083935260772,-0.879002034664154,0.3425052165985107,0.1123701706528663,0.5961670279502869,90.9999771118164,24.47,0
-0.288474977016449,-0.8831660747528076,0.3429511785507202,0.0398695282638073,0.5970558524131775,90.99998474121094,24.47,0
-0.2914843559265136,-0.8858382701873779,0.34883514046669,-0.1642905324697494,0.597626268863678,90.99999237060548,24.47,0
-0.2934156060218811,-0.8875531554222107,0.3470133543014526,-0.3884556889533996,0.5979923009872437,90.99999237060548,24.47,0
-0.289057195186615,-0.8886536955833435,0.3458442389965057,-0.5609725713729858,0.5982272028923035,90.99999237060548,24.47,0
-0.2862602174282074,-0.8893599510192871,0.3450939655303955,-0.8114044070243835,0.5983779430389404,90.99999237060548,24.47,0
-0.2900630533695221,-0.8842154145240784,0.3446124792098999,-1.1655762195587158,0.5984746813774109,90.99999237060548,24.47,0
-0.2925034761428833,-0.8809139132499695,0.3387057185173034,-1.3856981992721558,0.5985367894172668,90.99999237060548,24.47,0
-0.2884718477725982,-0.8787952065467834,0.3405128717422485,-1.3191704750061035,0.5985766649246216,90.99999237060548,24.47,0
-0.2858845591545105,-0.8830333352088928,0.3416725993156433,-1.1260085105895996,0.5972250699996948,91.31526184082033,24.47,0
-0.2842241823673248,-0.8857530951499939,0.3368190824985504,-0.9017361998558044,0.5963577032089233,91.51758575439452,24.47,0
-0.2831586599349975,-0.8819007277488708,0.339302122592926,-0.5571869611740112,0.595801055431366,91.64742279052734,24.47,0
-0.2824748754501343,-0.879428505897522,0.3352978229522705,-0.1533636897802353,0.595443844795227,91.73074340820312,24.47,0
-0.2820360660552978,-0.8778419494628906,0.3383258879184723,0.0448830351233482,0.5952146053314209,91.78421783447266,24.47,0
-0.2817544639110565,-0.8768237829208374,0.3402691185474396,-0.0643436163663864,0.5950675010681152,91.81853485107422,24.47,0
-0.2815737426280975,-0.8817681670188904,0.3415161669254303,-0.2992374897003174,0.594973087310791,91.8405532836914,24.47,0
-0.2814577519893646,-0.8849412202835083,0.3479142189025879,-0.4105705022811889,0.5949125289916992,91.85468292236328,24.47,0
-0.2813833355903625,-0.8813797235488892,0.3464223444461822,-0.3136365711688995,0.5944147109985352,91.86375427246094,24.47,0
-0.2813355624675751,-0.8846918940544128,0.3454649448394775,-0.0902140438556671,0.5940952301025391,91.86957550048828,24.47,0
-0.2813048958778381,-0.886817455291748,0.3448505401611328,0.1104868724942207,0.5938902497291565,91.87330627441406,24.47,0
-0.2812852263450622,-0.882583737373352,0.3444562554359436,0.1783813834190368,0.5937587022781372,91.87570190429688,24.47,0
-0.2812726199626922,-0.8798667788505554,0.344203233718872,0.0643188506364822,0.5936742424964905,91.8772430419922,24.47,0
-0.2812645137310028,-0.8781232237815857,0.3440408706665039,-0.0841140151023864,0.5936200618743896,91.87822723388672,24.47,0
-0.2756615281105041,-0.8826020956039429,0.3439366519451141,-0.0432318076491355,0.5935853123664856,91.8788604736328,24.47,0
-0.2776636481285095,-0.8854763507843018,0.3438697755336761,0.1692979633808136,0.5935630202293396,91.87926483154295,24.47,0
-0.2789484858512878,-0.8817231059074402,0.3438268601894378,0.3307653665542602,0.5940076112747192,91.87952423095705,24.49,0
-0.2797730267047882,-0.8793144822120667,0.3437993228435516,0.3734820783138275,0.594292938709259,91.87969207763672,24.49,0
-0.2803021669387817,-0.8777688145637512,0.3437816500663757,0.4223906397819519,0.594476044178009,91.87979888916016,24.49,0
-0.2806417346000671,-0.8767768740653992,0.3381725251674652,0.4860205352306366,0.5945935249328613,91.87986755371094,24.49,0
-0.2808596491813659,-0.8817380666732788,0.3345729112625122,0.5017765164375305,0.5946689248085022,91.87991333007812,24.49,0
-0.280999481678009,-0.8793240785598755,0.3322629034519195,0.4903923273086548,0.5947173237800598,91.87994384765624,24.49,0
-0.2810892462730407,-0.8777749538421631,0.3307804763317108,0.4651737511157989,0.5947483777999878,91.87996673583984,24.49,0
-0.2811468243598938,-0.8823785781860352,0.3298291265964508,0.305686891078949,0.5947682857513428,91.87997436523438,24.49,0
-0.2811837792396545,-0.8853329420089722,0.3348163962364197,-0.040277749300003,0.5924860835075378,91.8799819946289,24.49,0
-0.2812075018882751,-0.8872288465499878,0.338016927242279,-0.4127661287784576,0.5910214781761169,91.87998962402344,24.49,0
-0.2812227308750152,-0.882847785949707,0.3400708436965942,-0.6231471300125122,0.5900815725326538,91.87998962402344,24.49,0
-0.2812325060367584,-0.8800362348556519,0.3413889408111572,-0.6685931086540222,0.5894784331321716,91.87998962402344,24.49,0
-0.2812387645244598,-0.878231942653656,0.3422348201274872,-0.6153584718704224,0.5890913605690002,91.87998962402344,24.49,0
-0.2812427878379822,-0.8826718330383301,0.3427776396274566,-0.4378925561904907,0.5888429284095764,91.87998962402344,24.49,0
-0.2812453806400299,-0.8855211138725281,0.3375282287597656,-0.1592066586017608,0.588683545589447,91.87998962402344,24.49,0
-0.2812470495700836,-0.8873496055603027,0.3397572338581085,0.008890176191926,0.5885812640190125,91.87998962402344,24.49,0
-0.2812480926513672,-0.8885230422019958,0.3411876857280731,-0.0695288851857185,0.58851557970047,92.11286163330078,24.49,0
-0.2812487781047821,-0.8892760872840881,0.3365078866481781,-0.1592620611190796,0.5884734392166138,92.2623062133789,24.49,0
-0.2812492251396179,-0.889759361743927,0.3335046470165252,0.0160197764635086,0.5884463787078857,92.35820770263672,24.49,0
-0.2756517231464386,-0.8900694847106934,0.3315773606300354,0.275391161441803,0.5884290337562561,92.41975402832033,24.49,0
-0.2720595598220825,-0.8902685046195984,0.3303405344486236,0.2949551939964294,0.5884178876876831,92.4592514038086,24.49,0
-0.2753520905971527,-0.890396237373352,0.3295468091964721,0.1212163269519805,0.5884107351303101,92.4845962524414,24.49,0
-0.2718672752380371,-0.8904781937599182,0.3290374279022217,-0.0261050295084714,0.5884061455726624,92.50086212158205,24.49,0
-0.2752287089824676,-0.8905307650566101,0.3287105560302734,-0.134977713227272,0.5884032249450684,92.51129913330078,24.49,0
-0.2773858904838562,-0.890564501285553,0.3285007774829864,-0.1940982043743133,0.5870242118835449,92.51799774169922,24.49,0
-0.2731724679470062,-0.8905861973762512,0.3283661603927612,-0.092317871749401,0.5861392617225647,92.52230072021484,24.49,0
-0.270468533039093,-0.8906000852584839,0.3282797634601593,0.1306322067975998,0.5855713486671448,92.52505493164062,24.49,0
-0.2743310630321502,-0.8906090259552002,0.3282243311405182,0.2557958662509918,0.5852068662643433,92.52682495117188,24.49,0
-0.276809811592102,-0.8850169777870178,0.3281887471675873,0.2071459740400314,0.5849729776382446,92.52796173095705,24.49,0
-0.2784005403518677,-0.8814283013343811,0.3281659185886383,0.1006911844015121,0.5848228931427002,92.52869415283205,24.49,0
-0.2794213891029358,-0.8847230672836304,0.3281512558460235,-0.0428594723343849,0.5847265720367432,92.52915954589844,24.49,0
-0.2800765037536621,-0.8868374824523926,0.328141838312149,-0.3033630549907684,0.5846647620201111,92.52945709228516,24.49,0
-0.2804969251155853,-0.8881943821907043,0.3281358182430267,-0.5529385209083557,0.5832479596138,92.52964782714844,24.47,0
-0.2807667255401611,-0.8946629166603088,0.3281319439411163,-0.5483031868934631,0.5823386907577515,92.52976989746094,24.47,0
-0.2809398770332336,-0.8988140821456909,0.3281294703483581,-0.3661997318267822,0.5817552208900452,92.52985382080078,24.47,0
-0.2810509800910949,-0.8958802819252014,0.3281278610229492,-0.2565013766288757,0.5813807845115662,92.5299072265625,24.47,0
-0.2811222672462463,-0.8939975500106812,0.328126847743988,-0.16460782289505,0.5811404585838318,92.52993774414062,24.47,0
-0.2755702435970306,-0.8927893042564392,0.3281261920928955,0.0484149269759655,0.5809862613677979,92.52996063232422,24.47,0
-0.2720072865486145,-0.8920139074325562,0.3281257748603821,0.2281115651130676,0.5808872580528259,92.52997589111328,24.47,0
-0.2753185629844665,-0.8859185576438904,0.3281255066394806,0.2037100791931152,0.5808237791061401,92.5299835205078,24.47,0
-0.2774435579776764,-0.8820068836212158,0.3281253278255462,0.0554953217506408,0.5821601748466492,92.52999114990234,24.47,0
-0.2788072526454925,-0.885094404220581,0.3281252086162567,-0.046785544604063,0.5830177664756775,92.52999114990234,24.47,0
-0.2796823978424072,-0.8870757818222046,0.3281251192092895,0.020131791010499,0.5835681557655334,92.52999114990234,24.47,0
-0.2802439928054809,-0.888347327709198,0.3281250894069671,0.2278739809989929,0.5839213728904724,92.52999114990234,24.47,0
-0.2806043922901153,-0.8891633152961731,0.3281250596046448,0.379103809595108,0.5841480493545532,92.52999114990234,24.47,0
-0.2808356881141662,-0.8896870017051697,0.3281250298023224,0.3758423030376434,0.5842934846878052,92.52999114990234,24.47,0
-0.2865819036960602,-0.8900230526924133,0.3281250298023224,0.3343409299850464,0.5843868255615234,92.52999114990234,24.47,0
-0.2846716940402984,-0.8902387022972107,0.3281250298023224,0.3005425631999969,0.5844467282295227,92.52999114990234,24.47,0
-0.2834458351135254,-0.8903771042823792,0.3281250298023224,0.1498800069093704,0.5840262174606323,92.69837188720705,24.47,0
-0.2826591730117798,-0.8904659152030945,0.3281250298023224,-0.1617610901594162,0.5837563872337341,92.80643463134766,24.47,0
-0.2821543216705322,-0.8905228972434998,0.3281250298023224,-0.5086399912834167,0.5835832357406616,92.8757781982422,24.47,0
-0.2818303406238556,-0.8905594944953918,0.3281250298023224,-0.7133340239524841,0.5834720730781555,92.92028045654295,24.47,0
-0.281622439622879,-0.8905829787254333,0.3281250298023224,-0.651235818862915,0.5834007263183594,92.94883728027344,24.47,0
-0.2758912444114685,-0.8905980587005615,0.3281250298023224,-0.3570218682289123,0.5833549499511719,92.9671630859375,24.47,0
-0.277811050415039,-0.8906077146530151,0.3281250298023224,-0.0320744216442108,0.5833255648612976,92.97892761230467,24.47,0
-0.2790430784225464,-0.8906139135360718,0.3281250298023224,0.129884660243988,0.5833067297935486,92.98648071289062,24.47,0
-0.2798337340354919,-0.8906179070472717,0.3281250298023224,0.1514214277267456,0.5819171667098999,92.99132537841795,24.47,0
-0.2803411185741424,-0.8906204700469971,0.3281250298023224,0.2583894431591034,0.5810254216194153,92.9944305419922,24.47,0
-0.2806667387485504,-0.890622079372406,0.3281250298023224,0.5169118642807007,0.5804531574249268,92.99642944335938,24.47,0
-0.2808756828308105,-0.890623152256012,0.3281250298023224,0.661321222782135,0.5800858736038208,92.99771118164062,24.47,0
-0.2810097932815552,-0.8906238079071045,0.3281250298023224,0.5282925963401794,0.5798501968383789,92.99852752685548,24.47,0
-0.2810958623886108,-0.8906242251396179,0.3281250298023224,0.3067846000194549,0.579698920249939,92.99905395507812,24.47,0
-0.2811510860919952,-0.8906245231628418,0.3281250298023224,0.1861289739608764,0.5796018838882446,92.9993896484375,24.47,0
-0.2755887508392334,-0.8906247019767761,0.3281250298023224,0.1731854975223541,0.5795395970344543,92.9996109008789,24.47,0
-0.2720191478729248,-0.8906248211860657,0.3281250298023224,0.2651912271976471,0.5799589157104492,92.99974822998048,24.47,0
-0.2697283923625946,-0.8906248807907104,0.3281250298023224,0.3708086907863617,0.5802279710769653,92.99983978271484,24.47,0
-0.2682583332061767,-0.8906249403953552,0.3281250298023224,0.2379636764526367,0.5804006457328796,92.9999008178711,24.47,0
-0.2673149108886719,-0.8906249403953552,0.3281250298023224,-0.1768855899572372,0.5805114507675171,92.99993896484376,24.47,0
-0.2667094767093658,-0.8906249403953552,0.3281250298023224,-0.5792497992515564,0.5805825591087341,92.99996185302734,24.47,0
-0.2663209438323974,-0.8906249403953552,0.3281250298023224,-0.6905784010887146,0.5806282162666321,92.9999771118164,24.47,0
-0.2716693878173828,-0.8906249403953552,0.3281250298023224,-0.5828939080238342,0.5806575417518616,92.99998474121094,24.47,0
-0.2751017212867737,-0.8906249403953552,0.3281250298023224,-0.4779624342918396,0.5806763172149658,92.99999237060548,24.47,0
-0.2773043811321258,-0.8906249403953552,0.3281250298023224,-0.4070408940315246,0.5806883573532104,92.99999237060548,24.47,0
-0.2787179350852966,-0.8906249403953552,0.3281250298023224,-0.2540502548217773,0.5806961059570312,92.99999237060548,24.47,0
-0.2796250581741333,-0.8906249403953552,0.3281250298023224,-0.0018189313123002,0.5807010531425476,92.99999237060548,24.47,0
-0.2802072167396545,-0.8906249403953552,0.3281250298023224,0.2317001223564148,0.5807042717933655,92.99999237060548,24.47,0
-0.2805807888507843,-0.8906249403953552,0.3281250298023224,0.3457334637641907,0.5807062983512878,92.99999237060548,24.47,0
-0.2808205485343933,-0.8906249403953552,0.3225272595882416,0.3042710721492767,0.5807076096534729,92.99999237060548,24.47,0
-0.2809743881225586,-0.8906249403953552,0.3189349174499511,0.1630204766988754,0.5807084441184998,92.99999237060548,24.47,0
-0.281073123216629,-0.8906249403953552,0.316629558801651,0.0795391276478767,0.5807089805603027,92.99999237060548,24.47,0
-0.2755387127399444,-0.8906249403953552,0.3207478821277618,0.1334428787231445,0.5788732767105103,92.96058654785156,24.47,0
-0.277584820985794,-0.8906249403953552,0.323390781879425,0.2325215637683868,0.5776952505111694,92.93529510498048,24.47,0
-0.2788979113101959,-0.8906249403953552,0.3250868618488312,0.2566962242126465,0.5769392251968384,92.9190673828125,24.47,0
-0.279740571975708,-0.8906249403953552,0.3261753022670746,0.1933934688568115,0.5764540433883667,92.90865325927734,24.47,0
-0.2802813351154327,-0.8906249403953552,0.3268738090991974,0.1169436499476432,0.5761427283287048,92.90196990966795,24.47,0
-0.280628353357315,-0.8906249403953552,0.3273220658302307,0.1108734607696533,0.5759429335594177,92.8976821899414,24.47,0
-0.2808510661125183,-0.8906249403953552,0.3276097178459167,0.1320559978485107,0.5758147239685059,92.89492797851562,24.47,0
-0.2809939980506897,-0.8906249403953552,0.3277943134307861,0.0632504820823669,0.575732409954071,92.8931655883789,24.47,0
-0.2810856997966766,-0.8906249403953552,0.3279127776622772,-0.0955473557114601,0.5770564079284668,92.89202880859376,24.47,0
-0.2755467891693115,-0.8906249403953552,0.3279888033866882,-0.1687940657138824,0.57790607213974,92.89130401611328,24.47,0
-0.2775900065898895,-0.8906249403953552,0.3280375897884369,-0.0724965631961822,0.5784513354301453,92.89083862304688,24.47,0
-0.2789012193679809,-0.8906249403953552,0.3280689120292663,0.0287099704146385,0.5788012146949768,92.89054107666016,24.47,0
-0.2741449177265167,-0.8906249403953552,0.3280889987945556,0.0040941042825579,0.5790257453918457,92.89035034179688,24.47,0
-0.2766903638839721,-0.8906249403953552,0.3281019032001495,-0.0403635464608669,0.5791698694229126,92.89022827148438,24.47,0
-0.2783238887786865,-0.8906249403953552,0.3281101882457733,0.0135053321719169,0.579262375831604,92.89014434814452,24.47,0
-0.2793721854686737,-0.8906249403953552,0.3281154930591583,0.091066189110279,0.5793217420578003,92.8900909423828,24.47,0
-0.2800449132919311,-0.8906249403953552,0.3281188905239105,0.1085970997810363,0.577983021736145,92.89006042480467,24.47,0
-0.2804766595363617,-0.8906249403953552,0.3281210660934448,0.0589436404407024,0.5771239399909973,92.8900375366211,24.47,0
-0.2807537019252777,-0.8906249403953552,0.328122466802597,-0.0983112305402755,0.576572597026825,92.89002227783205,24.47,0
-0.2809315025806427,-0.8906249403953552,0.3281233608722687,-0.3246185183525085,0.5762187838554382,92.8900146484375,24.47,0
-0.2754478454589844,-0.8906249403953552,0.3281239569187164,-0.4161108732223511,0.5759917497634888,92.89000701904295,24.47,0
-0.2719287276268005,-0.8906249403953552,0.3281243443489074,-0.2634534239768982,0.5758460164070129,92.89000701904295,24.47,0
-0.2696703672409057,-0.8906249403953552,0.3281245827674866,0.0028943726792931,0.5757524967193604,92.89000701904295,24.47,0
-0.2682210803031921,-0.8906249403953552,0.3281247317790985,0.1774036437273025,0.5756924748420715,92.89000701904295,24.47,0
-0.2728887796401977,-0.8906249403953552,0.3281248211860657,0.2428201735019683,0.5742768049240112,92.89000701904295,24.47,0
-0.2758842408657074,-0.8906249403953552,0.3281248807907104,0.385112851858139,0.5733683109283447,92.89000701904295,24.47,0
-0.2778065502643585,-0.8906249403953552,0.3281249105930328,0.6483917236328125,0.5727853178977966,92.89000701904295,24.47,0
-0.2790401875972748,-0.8906249403953552,0.3281249403953552,0.7743580341339111,0.5724111795425415,92.89000701904295,24.47,0
-0.2798318564891815,-0.8906249403953552,0.3281249701976776,0.607998251914978,0.5721710920333862,92.89000701904295,24.47,0
-0.2803399264812469,-0.8906249403953552,0.3281249701976776,0.3507699370384216,0.5720170140266418,92.89000701904295,24.47,0
-0.2806659638881683,-0.8906249403953552,0.3281249701976776,0.135539561510086,0.5719181299209595,92.89000701904295,24.47,0
-0.2808752059936523,-0.8906249403953552,0.3281249701976776,-0.1637988090515136,0.5718546509742737,92.89000701904295,24.47,0
-0.2810094654560089,-0.8906249403953552,0.3281249701976776,-0.5171128511428833,0.5718139410018921,92.83985137939452,24.47,0
-0.2810956239700317,-0.8906249403953552,0.3281249701976776,-0.7366843223571777,0.5717877745628357,92.8076629638672,24.47,0
-0.2755531668663025,-0.8906249403953552,0.3281249701976776,-0.841766893863678,0.5717710256576538,92.78700256347656,24.47,0
-0.2719963192939758,-0.8906249403953552,0.3281249701976776,-0.9271157383918762,0.5717602372169495,92.77374267578124,24.47,0
-0.2697137594223022,-0.8906249403953552,0.3281249701976776,-0.8815755844116211,0.5717533230781555,92.7652359008789,24.47,0
-0.2682489156723022,-0.8906249403953552,0.3281249701976776,-0.6087353825569153,0.5717489123344421,92.75978088378906,24.47,0
-0.2673088908195495,-0.8906249403953552,0.3281249701976776,-0.2258528620004654,0.5717460513114929,92.75627899169922,24.47,0
-0.2723034024238586,-0.8906249403953552,0.3281249701976776,0.0843454599380493,0.5717442631721497,92.7540283203125,24.47,0
-0.2755085825920105,-0.8906249403953552,0.3281249701976776,0.2153439670801162,0.5703659653663635,92.7525863647461,24.47,0
-0.2775654792785644,-0.8906249403953552,0.3281249701976776,0.1740211248397827,0.5694814324378967,92.7516632080078,24.47,0
-0.2788854837417602,-0.8906249403953552,0.3281249701976776,0.161832794547081,0.5689138174057007,92.75106811523438,24.47,0
-0.2797325849533081,-0.8906249403953552,0.3281249701976776,0.340304970741272,0.5685495138168335,92.7506866455078,24.47,0
-0.280276209115982,-0.8906249403953552,0.3281249701976776,0.5300722122192383,0.5683157444000244,92.7504425048828,24.47,0
-0.2806250751018524,-0.8906249403953552,0.3281249701976776,0.4763077199459076,0.5681657195091248,92.75028228759766,24.47,0
-0.2808489501476288,-0.8906249403953552,0.3281249701976776,0.3128320276737213,0.5680694580078125,92.75018310546876,24.47,0
-0.2809926271438598,-0.8906249403953552,0.3281249701976776,0.3189826011657715,0.5680077075958252,92.75011444091795,24.47,0
-0.2810848355293274,-0.8906249403953552,0.3281249701976776,0.4411546587944031,0.5684269666671753,92.75007629394533,24.47,0
-0.2811439931392669,-0.8906249403953552,0.3281249701976776,0.4192455410957336,0.5686960220336914,92.7500457763672,24.47,0
-0.2811819612979889,-0.8906249403953552,0.3281249701976776,0.2260567396879196,0.5688686966896057,92.75003051757812,24.47,0
-0.281206339597702,-0.8906249403953552,0.3281249701976776,0.0411755181849002,0.5689795017242432,92.7500228881836,24.47,0
-0.2812219858169555,-0.8906249403953552,0.3281249701976776,-0.1025486513972282,0.5690506100654602,92.75001525878906,24.47,0
-0.2812320291996002,-0.8906249403953552,0.3337227404117584,-0.2986772358417511,0.5690962672233582,92.75000762939452,24.47,0
-0.2812384665012359,-0.8906249403953552,0.3373150825500488,-0.4997753798961639,0.5691255331039429,92.75000762939452,24.47,0
-0.2812426090240478,-0.8906249403953552,0.3340226709842682,-0.5571770668029785,0.5691443085670471,92.75000762939452,24.47,0
-0.2812452614307403,-0.8906249403953552,0.3319097757339477,-0.4578762948513031,0.5700745582580566,92.75000762939452,24.47,0
-0.2812469601631164,-0.8906249403953552,0.3305538594722748,-0.3010038137435913,0.570671558380127,92.75000762939452,24.47,0
-0.2812480628490448,-0.8906249403953552,0.3296836912631988,-0.1394282877445221,0.5710546970367432,92.75000762939452,24.47,0
-0.2812487483024597,-0.8906249403953552,0.3291252851486206,-0.0249906852841377,0.5713005661964417,92.75000762939452,24.47,0
-0.2812491953372955,-0.8906249403953552,0.3287669122219085,-0.0626110658049583,0.5714583396911621,92.75000762939452,24.47,0
-0.2812494933605194,-0.8906249403953552,0.3285369277000427,-0.2085612267255783,0.5715596079826355,92.75000762939452,24.47,0
-0.2812496721744537,-0.8906249403953552,0.3283893465995788,-0.2556501626968384,0.5716245770454407,92.75000762939452,24.47,0
-0.2812497913837433,-0.8906249403953552,0.3282946348190307,-0.1425660997629165,0.5716663002967834,92.75000762939452,24.47,0
-0.2812498807907104,-0.8906249403953552,0.333831638097763,-0.0664126873016357,0.5698566436767578,92.3093490600586,24.47,0
-0.2812499105930328,-0.8906249403953552,0.337384968996048,-0.1286016553640365,0.5686953067779541,92.02655792236328,24.47,0
-0.2812499403953552,-0.8850271701812744,0.3396652936935425,-0.143432930111885,0.5679500102996826,91.84507751464844,24.47,0
-0.2812499701976776,-0.8870326280593872,0.3355309069156647,0.0476734414696693,0.5674717426300049,91.7286148071289,24.47,0
-0.2812499701976776,-0.8883196115493774,0.3328776955604553,0.3709387481212616,0.5671647787094116,91.65387725830078,24.47,0
-0.2812499701976776,-0.88914555311203,0.3311749994754791,0.6787039041519165,0.566967785358429,91.6059112548828,24.47,0
-0.2812499701976776,-0.8896755576133728,0.3356800973415375,0.8475492596626282,0.5668413639068604,91.57513427734376,24.47,0
-0.2812499701976776,-0.890015721321106,0.3385711908340454,0.7767757177352905,0.566760241985321,91.55538177490234,24.47,0
-0.2756521999835968,-0.8902339935302734,0.3404265344142914,0.5486459732055664,0.5667082071304321,91.5427017211914,24.47,0
-0.2720598876476288,-0.8903740644454956,0.3416171967983246,0.4309060573577881,0.5666748285293579,91.5345687866211,24.47,0
-0.2697545289993286,-0.8904639482498169,0.3423812985420227,0.5022329688072205,0.5666533708572388,91.52935028076172,24.47,0
-0.2738728821277618,-0.8905216455459595,0.3428716361522674,0.5050155520439148,0.5666396021842957,91.5260009765625,24.47,0
-0.276515781879425,-0.890558660030365,0.3431863188743591,0.2022823542356491,0.5666307806968689,91.52384948730467,24.47,0
-0.2726140916347503,-0.8905824422836304,0.3433882594108581,-0.2678527235984802,0.5666251182556152,91.52246856689452,24.47,0
-0.2757079601287842,-0.8905977010726929,0.3435178697109222,-0.5194023251533508,0.5666214823722839,91.5215835571289,24.47,0
-0.2776934504508972,-0.890607476234436,0.3436010181903839,-0.3440702557563782,0.5666191577911377,91.52101135253906,24.47,0
-0.2789676189422607,-0.8906137347221375,0.3436543941497803,0.0658015683293342,0.5679948329925537,91.52064514160156,24.47,0
-0.2797853052616119,-0.8906177878379822,0.3436886370182037,0.3073382675647735,0.568877637386322,91.52041625976562,24.47,0
-0.2803100347518921,-0.8850225806236267,0.3437106311321258,0.1793191283941269,0.5694441795349121,91.520263671875,24.47,0
-0.2806467711925506,-0.8814319372177124,0.3437247276306152,-0.2360157221555709,0.569807767868042,91.5201644897461,24.47,0
-0.286460667848587,-0.8847253918647766,0.3493315577507019,-0.7354211211204529,0.5700410604476929,91.52010345458984,24.47,0
-0.2845939099788666,-0.886838972568512,0.3585274815559387,-1.009337306022644,0.5701907873153687,91.5200653076172,24.47,0
-0.283395916223526,-0.8881953358650208,0.3644288778305053,-0.8698542714118958,0.5702868700027466,91.5200424194336,24.47,0
-0.282627135515213,-0.8946635723114014,0.3906071484088897,-0.586883008480072,0.5703485608100891,91.52002716064452,24.47,0
-0.2709382176399231,-0.8932167291641235,0.4074068665504455,-0.5485913753509521,0.5694702863693237,91.52001953125,24.47,0
-0.2914258241653442,-0.8922882080078125,0.4181879460811615,-0.6099998354911804,0.5689066648483276,91.52001190185548,24.47,0
-0.310171365737915,-0.8916923403739929,0.4474977254867553,-0.3807150721549988,0.5685449242591858,91.52000427246094,24.47,0
-0.3110056221485138,-0.8913099765777588,0.471904844045639,0.0566153228282928,0.5683128237724304,91.52000427246094,24.47,0
-0.3115409910678863,-0.8798690438270569,0.4763723611831665,0.3301036655902862,0.5681638717651367,91.52000427246094,24.47,0
-0.3230801224708557,-0.8725268840789795,0.4736416041851043,0.3479793965816498,0.568068265914917,91.52000427246094,24.47,0
-0.3472785949707031,-0.8678151369094849,0.4830847084522247,0.2233131527900695,0.5680069327354431,91.52000427246094,24.47,0
-0.217265635728836,-0.9935402274131776,0.3995803594589233,0.0752405896782875,0.5679675340652466,91.52000427246094,24.47,0
-0.301764041185379,-0.850312352180481,0.4019698202610016,0.0697805359959602,0.5693194270133972,91.3014678955078,24.47,0
-0.3559902608394623,-0.8143746852874756,0.4035032391548157,0.2489879429340362,0.570186972618103,91.16122436523438,24.47,0
-0.4019850790500641,-0.7913119792938232,0.3988895118236542,0.3424974679946899,0.5707436800003052,91.07122039794922,24.47,0
-0.3643285930156708,-0.7765116691589355,0.4295153319835663,0.1660565286874771,0.5711009502410889,91.01346588134766,24.47,0
-0.328967273235321,-0.767013669013977,0.4827558696269989,-0.0546503700315952,0.5713302493095398,90.97640228271484,24.47,0
-0.3286655247211456,-0.7497228384017944,0.5281181335449219,-0.0637320652604103,0.5714774131774902,90.9526138305664,24.47,0
-0.3452652096748352,-0.7330288290977478,0.5628268122673035,0.1131511777639389,0.5715718269348145,90.93734741210938,24.47,0
-0.3615157008171081,-0.7223155498504639,0.5739052891731262,0.3233942091464996,0.571632444858551,90.92755126953124,24.47,0
-0.3887376487255096,-0.6986470818519592,0.5642215013504028,0.4439857900142669,0.5721302628517151,90.9212646484375,24.47,0
-0.3726204931735992,-0.6554691195487976,0.5803980827331543,0.410314679145813,0.5724497437477112,90.91722869873048,24.47,0
-0.3622774183750152,-0.6221622228622437,0.5851815342903137,0.2310731559991836,0.5726547837257385,90.91464233398438,24.47,0
-0.3444442749023437,-0.6175811290740967,0.5994467735290527,0.0049864184111356,0.5727863311767578,90.91297912597656,24.47,0
-0.3497933149337768,-0.6034456491470337,0.6030036211013794,-0.1221901401877403,0.5728707909584045,90.9119110107422,24.47,0
-0.3420304656028747,-0.5943743586540222,0.655666172504425,-0.1106577813625335,0.5729249715805054,90.91122436523438,24.47,0
-0.3426465094089508,-0.5941506624221802,0.6558753252029419,-0.1068395525217056,0.5729597210884094,90.9107894897461,24.47,0
