acc_x,acc_y,acc_z,bvp,eda,hr,temp,label
0.0,0.0,0.0,0.0,0.0,0.0,23.49,0
-0.0312499981373548,-0.1406249850988388,0.0885416641831398,-0.7799999117851257,0.1785881668329239,12.416666030883787,23.49,0
-0.0731707289814949,-0.316692054271698,0.2073170840740203,-2.0087804794311523,0.418157696723938,29.073171615600582,23.49,0
-0.1096345484256744,-0.4598733186721802,0.3106312453746795,-3.007441759109497,0.6265419125556946,43.56146240234375,23.49,0
-0.1362368762493133,-0.5589935779571533,0.3913426995277405,-3.886342763900757,0.7785694599151611,54.13145446777344,23.49,0
-0.1597374975681305,-0.6261022090911865,0.440498024225235,-5.321103572845459,0.8814985156059265,61.287784576416016,23.49,0
-0.1418388187885284,-0.703453540802002,0.4616448283195495,-7.65566873550415,0.9490347504615784,65.98336791992188,23.49,0
-0.152564063668251,-0.7535502314567566,0.4697612524032593,-10.620956420898438,0.9927746653556824,69.02446746826172,23.49,0
-0.1762434840202331,-0.7858210802078247,0.4470387697219848,-13.543604850769045,1.0053644180297852,70.98345184326172,23.51,0
-0.1970578879117965,-0.8457254767417908,0.4156501293182373,-15.812396049499512,1.0134563446044922,72.2425765991211,23.51,0
-0.1992309689521789,-0.8674038648605347,0.4010902643203735,-17.487796783447266,1.0186526775360107,73.05113220214844,23.51,0
-0.1838341802358627,-0.8701249957084656,0.3973413705825805,-19.315526962280277,1.0219881534576416,73.57015228271484,23.51,0
-0.1795498877763748,-0.8830665349960327,0.3837401568889618,-22.043363571166992,1.0241289138793943,73.90326690673828,23.51,0
-0.1935933977365493,-0.896969735622406,0.3750112950801849,-26.090404510498047,1.0255028009414673,74.11705017089844,23.51,0
-0.1970081478357315,-0.9002944231033325,0.3694095015525818,-31.489164352416992,1.0263845920562744,74.25424194335938,23.51,0
-0.1936017870903015,-0.8968302607536316,0.3602168262004852,-37.680137634277344,1.026950478553772,74.34228515625,23.51,0
-0.2026113122701645,-0.9058027267456056,0.3599152266979217,-44.20753479003906,1.022722840309143,74.39878845214844,23.51,0
-0.2139908820390701,-0.9059629440307616,0.3541239202022552,-51.99693298339844,1.0200097560882568,74.43505096435547,23.51,0
-0.2380869686603546,-0.8948702216148376,0.3392118513584137,-62.35883712768555,1.0182687044143677,74.45832061767578,23.51,0
-0.225561574101448,-0.8933493494987488,0.3520332276821136,-74.29280853271484,1.0171513557434082,74.47325134277344,23.51,0
-0.2063279598951339,-0.886775553226471,0.3546634614467621,-85.05744171142578,1.0164343118667605,74.48283386230469,23.51,0
-0.2275715768337249,-0.8881546258926392,0.3451558649539947,-94.25841522216795,1.0159741640090942,74.48898315429688,23.51,0
-0.2412045001983642,-0.9114307761192322,0.3390544354915619,-104.91356658935548,1.015678882598877,74.49292755126953,23.51,0
-0.2723444402217865,-0.915172517299652,0.3183455467224121,-119.86954498291016,1.0154893398284912,74.4954605102539,23.51,0
-0.2643393874168396,-0.9119759798049928,0.3218491077423095,-139.28369140625,1.0534688234329224,74.49708557128906,23.51,0
-0.236811101436615,-0.9099246263504028,0.3240974843502044,-159.02236938476562,1.077841877937317,74.49813079833984,23.51,0
-0.2303405702114105,-0.9086081385612488,0.3199425935745239,-169.217529296875,1.0934830904006958,74.4988021850586,23.51,0
-0.2261881679296493,-0.9077633023262024,0.3172762393951416,-159.88580322265625,1.103520750999451,74.49922943115234,23.51,0
-0.2179256081581115,-0.8960255980491638,0.3099673390388489,-129.03416442871094,1.1099623441696167,74.49950408935547,23.51,0
-0.207025408744812,-0.8828952312469482,0.2996791303157806,-79.76151275634766,1.1140961647033691,74.49967956542969,23.51,0
-0.1944325119256973,-0.8632733821868896,0.2818812131881714,-15.00949764251709,1.1167490482330322,74.49979400634766,23.51,0
-0.1975466609001159,-0.8618767857551575,0.2592639923095703,56.0578727722168,1.118451476097107,74.49987030029297,23.51,0
-0.2051429152488708,-0.8665782809257507,0.2447495460510254,116.31039428710938,1.129184007644653,71.93121337890625,23.51,0
-0.2156155258417129,-0.8863887190818787,0.2410327792167663,155.44271850585938,1.1360715627670288,70.28279113769531,23.51,0
-0.2223362475633621,-0.899101972579956,0.2442453503608703,177.71104431152344,1.140491604804993,69.22492980957031,23.51,0
-0.2210514545440673,-0.9184561371803284,0.2463070005178451,190.73333740234372,1.143328070640564,68.54605865478516,23.51,0
-0.2146291732788086,-0.942072093486786,0.2476300448179245,197.5139617919922,1.1451483964920044,68.11039733886719,23.51,0
-0.204909935593605,-0.9628251791000366,0.2484790980815887,201.2635040283203,1.1463165283203125,67.83081817626953,23.51,0
-0.1874771416187286,-0.9761433601379396,0.2546217441558838,206.97645568847656,1.1470661163330078,67.65139770507812,23.51,0
-0.1874853372573852,-0.9846901893615724,0.2641615271568298,215.38961791992188,1.1475472450256348,67.5362548828125,23.51,0
-0.1930883675813675,-0.9733816981315612,0.281479150056839,222.7734375,1.1478559970855713,67.46236419677734,23.49,0
-0.2078796178102493,-0.97732013463974,0.2869948148727417,227.94903564453125,1.148054122924805,67.41494750976562,23.49,0
-0.2061762362718582,-0.9910431504249572,0.2961322367191314,234.00393676757807,1.1481813192367554,67.38451385498047,23.49,0
-0.1826920062303543,-0.9774587154388428,0.2963983416557312,242.6974334716797,1.148262858390808,67.36498260498047,23.49,0
-0.1732189506292343,-0.9575453996658324,0.2965691089630127,251.69419860839844,1.148315191268921,67.35244750976562,23.49,0
-0.1727374643087387,-0.9559617638587952,0.2966786921024322,255.85206604003903,1.1483488082885742,67.34440612792969,23.49,0
-0.1668307036161422,-0.9381521344184875,0.302346795797348,247.9266662597656,1.148370385169983,67.33924865722656,23.49,0
-0.1630400866270065,-0.9043318629264832,0.3059842586517334,221.44546508789065,1.1483842134475708,67.3359375,23.49,0
-0.1606074869632721,-0.8602368831634521,0.3027207851409912,175.34292602539062,1.1529834270477295,67.33380889892578,23.49,0
-0.1646441519260406,-0.8319392204284668,0.2950287163257599,112.4103546142578,1.1559349298477173,67.33244323730469,23.49,0
-0.1672346591949463,-0.8249749541282654,0.2900923788547516,35.53532028198242,1.1578290462493896,67.3315658569336,23.49,0
-0.1632993221282959,-0.8317012786865234,0.2925223112106323,-47.091529846191406,1.159044623374939,67.33100891113281,23.49,0
-0.1607738435268402,-0.8360178470611572,0.2940816879272461,-118.17286682128906,1.1598247289657593,67.33065032958984,23.49,0
-0.1535553634166717,-0.8443857431411743,0.2894846498966217,-163.34095764160156,1.160325288772583,67.3304214477539,23.49,0
-0.1545207351446151,-0.8553535342216492,0.2865345180034637,-183.19525146484372,1.1606465578079224,67.33026885986328,23.49,0
-0.1607380360364914,-0.8567942380905151,0.2902390658855438,-186.7974395751953,1.1608526706695557,67.33016967773438,23.49,0
-0.1647279411554336,-0.8801099061965942,0.281420886516571,-180.17417907714844,1.163280367851257,67.33010864257812,23.49,0
-0.1784839779138565,-0.9174636602401732,0.2701641023159027,-166.95655822753906,1.1648383140563965,67.33007049560547,23.49,0
-0.1985073536634445,-0.9862173199653624,0.2573423981666565,-151.8894805908203,1.1658381223678589,67.33004760742188,23.49,0
-0.2113572061061859,-1.0695239305496216,0.2547119259834289,-137.5665283203125,1.1664797067642212,67.33003234863281,23.49,0
-0.2196035087108612,-1.1621696949005127,0.2642194032669067,-122.70366668701172,1.1668914556503296,67.33002471923828,23.49,0
-0.230493277311325,-1.2440155744552612,0.2703207433223724,-106.29773712158205,1.1671557426452637,67.33001708984375,23.49,0
-0.2430794835090637,-1.2685506343841553,0.2686384618282318,-90.18412017822266,1.1673252582550049,67.33000946044922,23.49,0
-0.206374391913414,-1.2059270143508911,0.2731566429138183,-76.38614654541016,1.1674340963363647,67.33000946044922,23.49,0
-0.1604280769824981,-1.1265543699264526,0.2760561406612396,-64.56861114501953,1.171635389328003,65.86831665039062,23.49,0
-0.1309423744678497,-0.991650938987732,0.2443302273750305,-53.348480224609375,1.1743314266204834,64.93028259277344,23.49,0
-0.1288134753704071,-0.8826865553855896,0.1847859472036361,-42.76609802246094,1.1760616302490234,64.32830810546875,23.49,0
-0.1442405879497528,-0.8351505994796753,0.1353783011436462,-34.01884460449219,1.1771719455718994,63.94199752807617,23.49,0
-0.1933252513408661,-0.8830136060714722,0.0868780016899108,-27.445232391357425,1.177884578704834,63.69408416748047,23.49,0
-0.2360205054283142,-0.9417181611061096,0.0501555278897285,-22.073076248168945,1.1783418655395508,63.53498840332031,23.49,0
-0.2578220963478088,-0.923413634300232,0.0321869291365146,-17.070697784423828,1.1786353588104248,63.43288803100586,23.49,0
-0.2270309031009674,-0.8948735594749451,0.0206557177007198,-12.610140800476074,1.178823709487915,63.36736679077149,23.49,0
-0.1960753351449966,-0.8877537250518799,0.0188534241169691,-9.059758186340332,1.1807806491851809,63.3253173828125,23.51,0
-0.1762098371982574,-0.8719890713691711,0.0400879122316837,-6.1794538497924805,1.182036519050598,63.298336029052734,23.51,0
-0.1578635275363922,-0.8450788855552673,0.0537149868905544,-3.63960337638855,1.1828423738479614,63.28102111816406,23.51,0
-0.1516876965761184,-0.8166139125823975,0.0680578351020813,-1.6478334665298462,1.1833595037460327,63.2699089050293,23.51,0
-0.1701155006885528,-0.7871512174606323,0.0884577929973602,-0.4842725694179535,1.183691382408142,63.26277542114258,23.51,0
-0.1931369453668594,-0.7794392704963684,0.1015493124723434,0.0904702246189117,1.1839044094085691,63.25819778442383,23.51,0
-0.2135085612535476,-0.830467939376831,0.1211462467908859,0.4808025062084198,1.184041142463684,63.2552604675293,23.51,0
-0.2265819013118744,-0.8744107484817505,0.1337224245071411,0.7671210169792175,1.1841288805007937,63.25337600708008,23.51,0
-0.2237760573625564,-0.9641862511634828,0.1473908722400665,0.8792123198509216,1.185103416442871,63.25216674804688,23.51,0
-0.2163776606321334,-1.066581130027771,0.1561625003814697,0.8938248157501221,1.1857287883758545,63.25139236450195,23.51,0
-0.2116297930479049,-1.188270092010498,0.1561938524246215,0.939028024673462,1.186130166053772,63.25089263916016,23.51,0
-0.2141806632280349,-1.2943519353866575,0.1506161987781524,0.9823671579360962,1.1863876581192017,63.25057220458984,23.51,0
-0.2214154303073883,-1.3400380611419678,0.1638301014900207,0.9492759108543396,1.186552882194519,63.2503662109375,23.51,0
-0.2428516149520874,-1.2294124364852903,0.1891033500432968,0.877883791923523,1.1866589784622192,63.25023651123047,23.51,0
-0.2118259370326995,-1.0576592683792114,0.1717356145381927,0.7389215230941772,1.1867270469665527,63.25015258789063,23.51,0
-0.1695243418216705,-0.9642313122749328,0.138198897242546,0.459867000579834,1.1867706775665283,63.250099182128906,23.51,0
-0.1535731554031372,-0.9546546339988708,0.1222747415304184,0.169726014137268,1.1886348724365234,63.25006484985352,23.51,0
-0.1489343792200088,-0.954106628894806,0.1176533102989196,-0.0200523417443037,1.1898311376571655,63.25004196166992,23.51,0
-0.1683485805988311,-0.9089727401733398,0.125883087515831,-0.2493184506893158,1.1905988454818726,63.25002670288086,23.51,0
-0.1752097159624099,-0.8632150888442993,0.119968943297863,-0.4860126376152038,1.191091537475586,63.25001525878906,23.51,0
-0.1684172600507736,-0.8338505029678345,0.1105758100748062,-0.4838585555553436,1.1914076805114746,63.2500114440918,23.51,0
-0.1416671425104141,-0.7982126474380493,0.1101456135511398,-0.3355906009674072,1.19161057472229,63.25000762939453,23.51,0
-0.107707142829895,-0.7697445750236511,0.1210650876164436,-0.4016566574573517,1.1917407512664795,63.25000381469727,23.51,0
-0.0859135687351226,-0.7514753937721252,0.1448659002780914,-0.6733388900756836,1.1918243169784546,63.25000381469727,23.51,0
-0.0887210294604301,-0.7789356708526611,0.1601398885250091,-0.8691843748092651,1.1923367977142334,68.24769592285156,23.51,0
-0.0961204692721366,-0.8189492225646973,0.1699418574571609,-0.905302345752716,1.192665696144104,71.45492553710938,23.51,0
-0.1064667776226997,-0.8558231592178345,0.187427744269371,-0.7278565168380737,1.1928768157958984,73.51313781738281,23.51,0
-0.1019108965992927,-0.8850845098495483,0.1986491829156875,-0.1195865720510482,1.193012237548828,74.833984375,23.51,0
-0.0877916440367698,-0.9486449360847472,0.2002526819705963,0.8726387619972229,1.1930991411209106,75.68162536621094,23.51,0
-0.1123173683881759,-1.0454120635986328,0.2180750370025634,1.7637547254562378,1.1931549310684204,76.22559356689453,23.51,0
-0.1448498964309692,-1.1019139289855957,0.2351101636886596,2.170823335647583,1.1931908130645752,76.5746841430664,23.51,0
-0.1713251620531082,-1.1941512823104858,0.2460423409938812,2.10604190826416,1.1932138204574585,76.7987060546875,23.51,0
-0.2051087915897369,-1.258941650390625,0.2642535269260406,1.6166471242904663,1.2019503116607666,76.94247436523438,23.51,0
-0.2547780573368072,-1.2501404285430908,0.2871359586715698,0.8081862330436707,1.207556962966919,77.03473663330078,23.51,0
-0.2418707311153412,-1.1101458072662354,0.2514406144618988,0.1460595279932022,1.2111549377441406,77.09394073486328,23.51,0
-0.2223920077085495,-1.003511905670166,0.2117400765419006,0.0256636664271354,1.2134639024734497,77.1319351196289,23.51,0
-0.2434783279895782,-1.0190470218658447,0.1750670075416565,0.1991808116436004,1.214945673942566,77.15631866455078,23.51,0
-0.268205851316452,-1.034614324569702,0.1515323519706726,0.2030568718910217,1.2158966064453125,77.17196655273438,23.51,0
-0.2840745747089386,-0.9942246079444884,0.1308313906192779,-0.0452359952032566,1.216506838798523,77.1820068359375,23.51,0
-0.2606715559959411,-0.9067292809486388,0.1175466999411583,-0.3837048411369324,1.2168984413146973,77.1884536743164,23.51,0
-0.2344572991132736,-0.8449820280075073,0.0978258028626442,-0.6976442337036133,1.228166937828064,77.19258880615234,23.51,0
-0.2232322692871093,-0.7997584342956543,0.0739745199680328,-0.9277730584144592,1.2353984117507937,77.19524383544922,23.51,0
-0.2160286903381347,-0.770736575126648,0.0586681365966796,-1.111282229423523,1.2400391101837158,77.19694519042969,23.51,0
-0.2114058434963226,-0.7409164309501648,0.0656387060880661,-1.2612910270690918,1.243017315864563,77.19803619384766,23.51,0
-0.1972436159849167,-0.7273773550987244,0.0757097899913787,-1.2859065532684326,1.2449284791946411,77.19873809814453,23.51,0
-0.1825573444366455,-0.7354820966720581,0.0821728333830833,-1.129739761352539,1.246155023574829,77.19918823242188,23.51,0
-0.184328094124794,-0.7798676490783691,0.0863204374909401,-0.868304967880249,1.246942162513733,77.19947814941406,23.51,0
-0.1910622268915176,-0.836340606212616,0.0889821350574493,-0.5536455512046814,1.2474472522735596,77.19966125488281,23.51,0
-0.2009815871715545,-0.9117661714553832,0.1130813583731651,-0.1188478469848632,1.2610838413238523,77.19978332519531,23.51,0
-0.2073472589254379,-1.0105499029159546,0.1341446191072464,0.5650113224983215,1.269835114479065,77.19985961914062,23.51,0
-0.2114323824644088,-1.129921317100525,0.153259590268135,1.5520068407058716,1.2754511833190918,77.19990539550781,23.51,0
-0.208456203341484,-1.2009292840957642,0.2047109007835388,2.5257484912872314,1.2790552377700806,77.19993591308594,23.51,0
-0.1897529363632202,-1.2353025674819946,0.2489249408245086,2.842538356781006,1.2813680171966553,77.19995880126953,23.51,0
-0.1889458000659942,-1.2125791311264038,0.2717011868953705,2.264834403991699,1.282852292060852,77.1999740600586,23.51,0
-0.1324500888586044,-1.164409875869751,0.2135466039180755,1.277894139289856,1.2838047742843628,77.19998168945312,23.51,0
-0.0402166433632373,-1.111106514930725,0.1650307923555374,0.4868993759155273,1.2844160795211792,77.19998931884766,23.51,0
0.0021801439579576,-1.0377150774002075,0.1450916826725006,0.0760139673948288,1.2981208562850952,75.51618194580078,23.51,0
-0.0489808805286884,-0.9514322876930236,0.1266981363296508,-0.0443655773997306,1.3069157600402832,74.43561553955078,23.51,0
-0.0986064001917839,-0.8624743223190308,0.109296441078186,-0.0392189994454383,1.3125598430633545,73.7421646118164,23.51,0
-0.113659881055355,-0.7829951047897339,0.1037268117070198,-0.1147328913211822,1.3161818981170654,73.29714965820312,23.51,0
-0.1289181113243103,-0.7207943797111511,0.1001525446772575,-0.3566524386405945,1.318506360054016,73.01156616210938,23.51,0
-0.116318866610527,-0.6976708769798279,0.0866632387042045,-0.6659532189369202,1.319998025894165,72.82829284667969,23.51,0
-0.1138311773538589,-0.6940270662307739,0.0892021209001541,-0.9683393836021424,1.3209552764892578,72.71067810058594,23.51,0
-0.1290280371904373,-0.7364708781242371,0.096429206430912,-1.1982191801071167,1.321569561958313,72.63520050048828,23.51,0
-0.1499760597944259,-0.8196866512298584,0.1234582290053367,-1.2490131855010986,1.3302266597747805,72.58676147460938,23.53,0
-0.1746148467063903,-0.8618941903114319,0.1519994586706161,-1.1418894529342651,1.3357822895050049,72.55567932128906,23.53,0
-0.1568399518728256,-0.9617516398429872,0.1815111190080642,-1.015822410583496,1.3393476009368896,72.53572845458984,23.53,0
-0.1286397278308868,-1.0538232326507568,0.2004500031471252,-0.8202773928642273,1.3416355848312378,72.5229263305664,23.53,0
-0.0993468984961509,-1.1800827980041504,0.2014083415269851,-0.4010166823863983,1.3431038856506348,72.51470947265625,23.53,0
-0.1085373163223266,-1.3338799476623535,0.1964255720376968,0.237046018242836,1.344046115875244,72.50943756103516,23.53,0
-0.1424240618944168,-1.438175916671753,0.2044234722852707,0.961784601211548,1.3446508646011353,72.50605773925781,23.53,0
-0.1585728526115417,-1.314782738685608,0.1871649622917175,1.638252019882202,1.345038890838623,72.50389099121094,23.53,0
-0.1297518014907837,-1.174020528793335,0.1592961251735687,2.043709278106689,1.354927897453308,72.50249481201172,23.53,0
-0.0888650119304657,-1.078089714050293,0.1190204098820686,1.9958069324493408,1.3612741231918335,72.50160217285156,23.53,0
-0.1074084192514419,-1.0165268182754517,0.0875759944319725,1.6497992277145386,1.3653467893600464,72.50102996826172,23.53,0
-0.1472973823547363,-0.9770193099975586,0.0673967823386192,1.2951961755752563,1.3679603338241575,72.50066375732422,23.53,0
-0.1672980487346649,-0.9068834781646729,0.0544469244778156,1.0031459331512451,1.3696376085281372,72.50042724609375,23.53,0
-0.1577422320842743,-0.8506788015365601,0.0349409021437168,0.6401787400245667,1.3707139492034912,72.50027465820312,23.53,0
-0.1292187571525573,-0.8202076554298401,0.0224230606108903,0.0669026151299476,1.3714046478271484,72.50017547607422,23.53,0
-0.1165118068456649,-0.8006529808044434,0.0255853775888681,-0.7344846725463867,1.3718479871749878,72.50011444091797,23.53,0
-0.1139549911022186,-0.7825061678886414,0.0276147723197937,-1.5246272087097168,1.3716731071472168,72.50007629394531,23.53,0
-0.1403030455112457,-0.7708606123924255,0.0401126705110073,-1.93496572971344,1.3715609312057495,72.50004577636719,23.53,0
-0.1628094911575317,-0.7745826840400696,0.0537308752536773,-1.9116913080215452,1.3714889287948608,72.50003051757812,23.53,0
-0.1716550588607788,-0.7825690507888794,0.0736658051609993,-1.7928603887557983,1.3714426755905151,72.5000228881836,23.53,0
-0.166136085987091,-0.8268786668777466,0.0864588916301727,-1.8563220500946045,1.371412992477417,72.50001525878906,23.53,0
-0.1569965481758117,-0.8889006972312927,0.094668760895729,-2.000942707061768,1.3713940382003784,72.50000762939453,23.53,0
-0.1511313170194625,-0.9566917419433594,0.1055351570248603,-1.9253709316253664,1.3713818788528442,72.50000762939453,23.53,0
-0.1585628986358642,-1.0169894695281982,0.1348996758460998,-1.4111384153366089,1.371374011039734,72.50000762939453,23.53,0
-0.1521365046501159,-1.1284561157226562,0.1425485908985138,-0.5401646494865417,1.3713690042495728,71.24610137939453,23.53,0
-0.1536101996898651,-1.2951511144638062,0.1362616717815399,0.3734511435031891,1.3713657855987549,70.44142150878906,23.53,0
-0.154555931687355,-1.3797353506088257,0.1658137440681457,1.0779820680618286,1.371363639831543,69.92501831054688,23.53,0
-0.1215761974453926,-1.2436922788619995,0.2183652073144912,1.5587701797485352,1.371362328529358,69.59362030029297,23.53,0
-0.0668250620365142,-1.1172032356262207,0.2241008430719375,1.892390251159668,1.371361494064331,69.38095092773438,23.53,0
0.0074954912997782,-1.036029815673828,0.1606083512306213,2.110070943832397,1.3713608980178833,69.24446868896484,23.53,0
0.0048101749271154,-0.950350821018219,0.1254602968692779,2.124375820159912,1.3713605403900146,69.1568832397461,23.53,0
-0.0249019786715507,-0.8841714262962341,0.114099845290184,1.7466377019882202,1.3713603019714355,69.10067749023438,23.53,0
-0.0775561705231666,-0.7913212776184082,0.1236026808619499,0.974005937576294,1.3699830770492554,69.06460571289062,23.53,0
-0.1113466024398803,-0.726137638092041,0.1241032779216766,0.1915692836046219,1.369099259376526,69.04145812988281,23.53,0
-0.1498246788978576,-0.7178931832313538,0.1076312139630317,-0.2926406264305115,1.3685320615768433,69.02660369873047,23.53,0
-0.1689199209213256,-0.7349934577941895,0.1082559376955032,-0.6929430961608887,1.3681681156158447,69.01707458496094,23.53,0
-0.1811741441488266,-0.7515652179718018,0.1086568534374237,-1.2973440885543823,1.3679344654083252,69.01095581054688,23.53,0
-0.1722448766231537,-0.7957866787910461,0.1369030028581619,-1.8535947799682615,1.36778461933136,69.00703430175781,23.53,0
-0.1441234946250915,-0.8241654634475708,0.1662253141403198,-1.984862208366394,1.3676884174346924,69.0045166015625,23.53,0
-0.1092834845185279,-0.8311817646026611,0.2018360048532486,-1.7323399782180786,1.367626667022705,69.00289916992188,23.53,0
-0.0981207191944122,-0.8972599506378174,0.2302866727113723,-1.308757781982422,1.3671281337738037,69.00186157226562,23.53,0
-0.1021526530385017,-0.96765398979187,0.2429468929767608,-0.8291376829147339,1.3668081760406494,69.0011978149414,23.53,0
-0.1159356608986854,-1.0464154481887815,0.2342781722545623,-0.4246155321598053,1.3666027784347534,69.00077056884766,23.53,0
-0.1247808039188385,-1.1697311401367188,0.2343128621578216,-0.0360437966883182,1.3664710521697998,69.00049591064453,23.53,0
-0.1416526585817337,-1.3104435205459597,0.239932894706726,0.7256274819374084,1.3663865327835083,69.00032043457031,23.53,0
-0.1748711317777633,-1.3167780637741089,0.2267461866140365,1.8986961841583248,1.3663322925567627,69.00020599365234,23.53,0
-0.1737977415323257,-1.2480721473693848,0.2014903873205185,2.758981466293335,1.366297483444214,69.00012969970703,23.53,0
-0.1339244842529297,-1.120013952255249,0.1684893518686294,2.6805295944213867,1.3662750720977783,69.00008392333984,23.53,0
-0.1027383506298065,-1.037833571434021,0.1305178701877594,1.8957557678222656,1.3658018112182615,69.00005340576172,23.53,0
-0.099518209695816,-0.9962905645370485,0.0893566310405731,1.0661187171936035,1.3654980659484863,69.00003051757812,23.53,0
-0.1254405826330185,-0.9696305990219116,0.0461483933031559,0.6053569316864014,1.3653031587600708,69.0000228881836,23.53,0
-0.1476738452911377,-0.9301307201385498,0.0184198357164859,0.510290801525116,1.365178108215332,69.00001525878906,23.53,0
-0.1395507752895355,-0.8655975461006165,0.0006252414896152,0.5101866126060486,1.3650977611541748,69.00000762939453,23.53,0
-0.1175445243716239,-0.8241838216781616,-0.010794305242598,0.2629220485687256,1.3650462627410889,69.00000762939453,23.53,0
-0.0978244096040725,-0.8088024258613586,-0.0125249382108449,-0.3543278276920318,1.3650132417678833,69.00000762939453,23.53,0
-0.0851691737771034,-0.8045293092727661,-0.0080377841368317,-1.1266136169433594,1.3649920225143433,69.00000762939453,23.53,0
-0.0882433205842971,-0.8017870783805847,0.0060373614542186,-1.6723783016204834,1.3626830577850342,68.06137084960938,23.53,0
-0.0958139076828956,-0.8056250810623169,0.0318633019924163,-1.796916365623474,1.361201286315918,67.4590072631836,23.53,0
-0.1118678227066993,-0.8192836046218872,0.0540346801280975,-1.6654658317565918,1.3602503538131714,67.07244110107422,23.53,0
-0.1221702992916107,-0.8448421955108643,0.0794585421681404,-1.4700485467910769,1.359640121459961,66.82437133789062,23.53,0
-0.1231840625405311,-0.9060264229774476,0.1013718917965889,-1.2085031270980835,1.3592485189437866,66.66516876220703,23.53,0
-0.1182368621230125,-0.9620842933654784,0.1154346168041229,-0.908103048801422,1.3589972257614136,66.56300354003906,23.53,0
-0.1318553537130355,-1.0148522853851318,0.1524481326341629,-0.690245509147644,1.3588359355926514,66.4974365234375,23.53,0
-0.1517904698848724,-1.0655090808868408,0.1929945945739746,-0.3856386244297027,1.3587324619293213,66.45536041259766,23.53,0
-0.1198014840483665,-1.204375386238098,0.1630372405052185,0.4117132425308227,1.3609613180160522,66.42835998535156,23.55,0
-0.1104683429002761,-1.338274002075195,0.1382145583629608,1.5790191888809204,1.362391710281372,66.4110336303711,23.55,0
-0.1212721914052963,-1.334637999534607,0.1614692211151123,2.331711530685425,1.363309621810913,66.39991760253906,23.55,0
-0.1394010335206985,-1.214751362800598,0.1819904893636703,2.1770474910736084,1.363898754119873,66.39278411865234,23.55,0
-0.0950573310256004,-1.1602061986923218,0.1503776609897613,1.4902507066726685,1.3642767667770386,66.3882064819336,23.55,0
0.0285620689392089,-1.0916155576705933,0.090905949473381,0.8417146801948547,1.3645193576812744,66.38526916503906,23.55,0
0.0799050107598304,-0.9860225319862366,0.0639359802007675,0.3574526906013489,1.3646750450134275,66.38337707519531,23.55,0
0.0848650857806205,-0.901465654373169,0.0522259809076786,-0.0213877279311418,1.3647749423980713,66.38216400146484,23.55,0
0.0264726523309946,-0.8248108625411987,0.0447111763060092,-0.2179322093725204,1.3666751384735107,66.38138580322266,23.55,0
-0.0110002467408776,-0.7924115061759949,0.0286930594593286,-0.3082374036312103,1.3678946495056152,66.38088989257812,23.55,0
-0.0462437458336353,-0.8108038902282715,0.0184135530143976,-0.5775620341300964,1.368677258491516,66.38056945800781,23.55,0
-0.0800565481185913,-0.8338026404380798,0.0286100823432207,-1.0764135122299194,1.3691794872283936,66.38036346435547,23.55,0
-0.090560108423233,-0.8429641127586365,0.0407514013350009,-1.504024863243103,1.369501709938049,66.38023376464844,23.55,0
-0.097300685942173,-0.8432456851005554,0.0765318721532821,-1.6208078861236572,1.36970853805542,66.3801498413086,23.55,0
-0.0960286259651184,-0.8434263467788696,0.1106892675161361,-1.4843806028366089,1.36984121799469,66.38009643554688,23.55,0
-0.0728211924433708,-0.8659334182739258,0.1326095163822174,-1.3251779079437256,1.3699264526367188,66.38005828857422,23.55,0
-0.0579279996454715,-0.8859748840332031,0.1578722149133682,-1.3197402954101562,1.3704400062561035,66.38003540039062,23.55,0
-0.0539681799709796,-0.8876408338546753,0.1740843653678894,-1.2481818199157717,1.3707696199417114,66.38002014160156,23.55,0
-0.0738180950284004,-0.9222965836524964,0.1732928454875946,-0.571726381778717,1.3709810972213743,66.38001251220703,23.55,0
-0.0921543985605239,-1.0229054689407349,0.1671871244907379,0.7186192870140076,1.3711168766021729,66.3800048828125,23.55,0
-0.1207149103283882,-1.1098616123199463,0.1800621449947357,1.8762859106063845,1.371203899383545,66.3800048828125,23.55,0
-0.1222500726580619,-1.0481117963790894,0.1547379344701767,2.3003604412078857,1.3712598085403442,66.3800048828125,23.55,0
-0.106441929936409,-1.030875325202942,0.1160952225327491,2.0852768421173096,1.371295690536499,66.3800048828125,23.55,0
-0.1074927225708961,-1.0198140144348145,0.0856987833976745,1.563912868499756,1.3713186979293823,66.3800048828125,23.55,0
-0.1081670597195625,-0.9903243780136108,0.0661920979619026,1.064532995223999,1.370874524116516,68.9522933959961,23.55,0
-0.114197589457035,-0.976997435092926,0.0368805043399333,0.8443719148635864,1.3705894947052002,70.60303497314453,23.55,0
-0.1460565030574798,-0.9964338541030884,0.0012766858562827,0.8177276253700256,1.3704066276550293,71.66239166259766,23.55,0
-0.1665017306804657,-1.0089069604873655,-0.0215717945247888,0.6429955363273621,1.370289325714111,72.34222412109375,23.55,0
-0.1572311967611313,-0.9945204257965088,-0.0306368600577116,0.1726049482822418,1.3702139854431152,72.77850341796875,23.55,0
-0.1400863528251648,-0.9796901941299438,-0.0308565218001604,-0.473191887140274,1.3701655864715576,73.05847930908203,23.55,0
-0.1234860047698021,-0.9701730012893676,-0.0309974886476993,-1.0631732940673828,1.3701345920562744,73.23815155029297,23.55,0
-0.1240284070372581,-0.958467662334442,-0.0198924038559198,-1.3343122005462646,1.3701146841049194,73.35345458984375,23.55,0
-0.1243764907121658,-0.950955867767334,-0.0015702516539022,-1.28619384765625,1.3687248229980469,73.42745208740234,23.53,0
-0.1190020963549614,-0.9629285335540771,0.0101878512650728,-1.258896827697754,1.3678327798843384,73.47493743896484,23.53,0
-0.1211508885025978,-1.0209919214248655,0.0177335254848003,-1.4240905046463013,1.3672603368759155,73.50540924072266,23.53,0
-0.1449209600687027,-1.0190691947937012,0.0337714552879333,-1.5193545818328855,1.3668930530548096,73.52496337890625,23.53,0
-0.1489796787500381,-0.9842486381530762,0.0720525458455085,-1.275970697402954,1.366657257080078,73.53751373291016,23.53,0
-0.1515843272209167,-0.945109486579895,0.1022169217467308,-0.7866013646125793,1.3665059804916382,73.54557037353516,23.53,0
-0.1420602947473526,-0.942383348941803,0.1215746775269508,-0.2826757729053497,1.3664089441299438,73.55073547363281,23.53,0
-0.1415460854768753,-0.9574272036552428,0.1283995956182479,0.2019305527210235,1.3663465976715088,73.5540542602539,23.53,0
-0.1468138694763183,-0.978277027606964,0.1327794343233108,0.7923639416694641,1.362175226211548,73.55618286132812,23.53,0
-0.144596666097641,-0.9804616570472716,0.1411879360675811,1.4650412797927856,1.3594982624053955,73.55754852294922,23.53,0
-0.137576013803482,-0.970668077468872,0.1465840339660644,1.9934563636779783,1.3577803373336792,73.55842590332031,23.53,0
-0.1274727880954742,-0.9643831253051758,0.1444491595029831,2.149851560592652,1.3566778898239136,73.55899047851562,23.53,0
-0.1265868991613388,-0.9547520279884338,0.1374813467264175,1.8597161769866943,1.3559703826904297,73.5593490600586,23.53,0
-0.1372139304876327,-0.9485713839530944,0.1274120360612869,1.2149542570114136,1.3555163145065308,73.55957794189453,23.53,0
-0.1496315151453018,-0.9502027630805968,0.1209501326084137,0.4644210636615753,1.3552249670028689,73.55973052978516,23.53,0
-0.1576004177331924,-0.951249659061432,0.1224010288715362,-0.1605309545993805,1.3550379276275637,73.55982971191406,23.53,0
-0.1627143919467926,-0.95192152261734,0.1233321279287338,-0.5723369121551514,1.3535407781600952,73.55989074707031,23.53,0
-0.160398468375206,-0.9523527026176452,0.1239296570420265,-0.7936193943023682,1.3525800704956057,73.55992889404297,23.53,0
-0.1645100265741348,-0.9526293873786926,0.1299108862876892,-0.8783045411109924,1.3519635200500488,73.55995178222656,23.53,0
-0.1671485900878906,-0.9528069496154784,0.1337492913007736,-0.8609990477561951,1.3515678644180298,73.55996704101562,23.53,0
-0.1632440835237503,-0.95851868391037,0.141810342669487,-0.7280858159065247,1.3513139486312866,73.55997467041016,23.53,0
-0.16073839366436,-0.9621841311454772,0.1469834595918655,-0.54964280128479,1.3511509895324707,73.55998229980469,23.53,0
-0.1591303944587707,-0.964536428451538,0.1503032743930816,-0.5067798495292664,1.351046442985535,73.55998992919922,23.53,0
-0.1580984741449356,-0.9660459756851196,0.1524337381124496,-0.6763145327568054,1.3509793281555176,73.55998992919922,23.53,0
-0.1518384665250778,-0.967014729976654,0.1593987196683883,-0.8495984673500061,1.3458865880966189,75.6522216796875,23.53,0
-0.1534189283847808,-0.9676364064216614,0.1638684421777725,-0.6634483933448792,1.3426183462142944,76.9948959350586,23.53,0
-0.1544331759214401,-0.9624375700950624,0.1667368561029434,-0.0030190639663487,1.340520977973938,77.8565444946289,23.53,0
-0.1494862884283065,-0.9591012597084044,0.168577641248703,0.7360730767250061,1.33917498588562,78.40950012207031,23.53,0
-0.1463116705417633,-0.9569602012634276,0.1641611754894256,0.9954254031181335,1.3383111953735352,78.76435852050781,23.53,0
-0.1498721539974212,-0.9555861949920654,0.1613269299268722,0.7176233530044556,1.337756872177124,78.99208068847656,23.53,0
-0.1521570682525634,-0.9547044634819032,0.15950807929039,0.2778179943561554,1.3374011516571045,79.13822174072266,23.53,0
-0.1592211723327636,-0.9541386365890504,0.1583408415317535,-0.0617449879646301,1.3371728658676147,79.23200988769531,23.53,0
-0.1637545078992843,-0.9537754654884338,0.1575917750597,-0.2044228613376617,1.3342721462249756,79.29219055175781,23.59,0
-0.1666637361049652,-0.953542411327362,0.1627088487148285,-0.1025262176990509,1.3324105739593506,79.33081817626953,23.59,0
-0.1685307174921035,-0.9533928632736206,0.1603949218988418,0.0990030542016029,1.3312159776687622,79.35560607910156,23.59,0
-0.1697288304567337,-0.9532968997955322,0.1645077466964721,0.1208556666970253,1.3304493427276611,79.37151336669922,23.59,0
-0.170497715473175,-0.9532353281974792,0.1615493446588516,-0.0263364762067794,1.329957365989685,79.38172149658203,23.59,0
-0.1709911376237869,-0.9531958103179932,0.1652485877275467,-0.110048197209835,1.329641580581665,79.38826751708984,23.59,0
-0.1713077872991562,-0.9531704187393188,0.1676225513219833,-0.0383794121444225,1.3294389247894287,79.39247131347656,23.59,0
-0.1659132242202758,-0.9531541466712952,0.1691460162401199,0.0971778705716133,1.3293088674545288,79.39517211914062,23.59,0
-0.168049082159996,-0.9531437158584596,0.1645259261131286,0.2128313332796096,1.324635028839111,79.39690399169922,23.59,0
-0.1638219654560089,-0.9531370401382446,0.1615610122680664,0.3192942440509796,1.3216357231140137,79.39801025390625,23.59,0
-0.1611092537641525,-0.9531327486038208,0.1596582978963852,0.452102392911911,1.3197108507156372,79.39872741699219,23.59,0
-0.1593683958053589,-0.9531299471855164,0.1584372520446777,0.5480787754058838,1.318475604057312,79.39918518066406,23.59,0
-0.1582512110471725,-0.9531281590461732,0.157653659582138,0.469950407743454,1.317682862281799,79.39947509765625,23.59,0
-0.1575342565774917,-0.9531270265579224,0.1571507900953292,0.2621788084506988,1.317174196243286,79.39966583251953,23.59,0
-0.1626719385385513,-0.958724081516266,0.1624258458614349,0.1825815737247467,1.3168476819992063,79.39978790283203,23.59,0
-0.1659689992666244,-0.9623159170150756,0.165811076760292,0.3177945911884308,1.3166382312774658,79.39986419677734,23.59,0
-0.1624870896339416,-0.9590231776237488,0.1679835170507431,0.4690528810024261,1.3165037631988523,79.39990997314453,23.59,0
-0.1602526009082794,-0.9569101333618164,0.1693776696920395,0.46939218044281,1.3164174556732178,79.39994049072266,23.59,0
-0.158818632364273,-0.9555540680885316,0.1702723503112793,0.3513849377632141,1.3163621425628662,79.39996337890625,23.59,0
-0.1578983962535858,-0.9546838402748108,0.1708465069532394,0.1538471132516861,1.31632661819458,79.39997863769531,23.59,0
-0.1573078483343124,-0.9541253447532654,0.1712149679660797,-0.1305546015501022,1.316303849220276,79.39998626708984,23.59,0
-0.1569288671016693,-0.953766942024231,0.1714514344930648,-0.4384573996067047,1.3162891864776611,79.39999389648438,23.59,0
-0.1566856652498245,-0.9535369873046876,0.1716031730175018,-0.6396343111991882,1.3162797689437866,79.39999389648438,23.59,0
-0.1621273607015609,-0.9533894062042236,0.1717005521059036,-0.6576781868934631,1.3162736892700195,79.39999389648438,23.59,0
-0.1656195223331451,-0.9532946944236756,0.1717630475759506,-0.5402849912643433,1.312597393989563,81.0802230834961,23.59,0
-0.167860597372055,-0.9532338976860046,0.1718031615018844,-0.479279100894928,1.3102381229400637,82.15850067138672,23.59,0
-0.1692987829446792,-0.9531948566436768,0.177426666021347,-0.6622487306594849,1.308724045753479,82.85047149658203,23.59,0
-0.1702217310667038,-0.9531698226928712,0.1754377335309982,-0.894310474395752,1.30775249004364,83.29454040527344,23.59,0
-0.1708140224218368,-0.9531537890434264,0.174161359667778,-0.7458806037902832,1.30712890625,83.57952117919922,23.59,0
-0.1711941212415695,-0.9531434774398804,0.1733422577381134,-0.2314655035734176,1.306728720664978,83.76240539550781,23.59,0
-0.165840283036232,-0.9531368613243104,0.1728166043758392,0.1846383064985275,1.3064719438552856,83.87976837158203,23.59,0
-0.1624044924974441,-0.9531326293945312,0.1724792718887329,0.2510455250740051,1.3063071966171265,83.95508575439453,23.59,0
-0.1601995974779129,-0.9531298875808716,0.1722627878189087,0.1288633793592453,1.3043653964996338,84.00341796875,23.59,0
-0.1587846279144287,-0.9531281590461732,0.1721238642930984,0.0146281579509377,1.30311918258667,84.03443908691406,23.59,0
-0.157876580953598,-0.9475292563438416,0.1720347106456756,0.0093875098973512,1.3023195266723633,84.0543441772461,23.59,0
-0.1572938412427902,-0.9439362287521362,0.1719774901866912,0.1099190488457679,1.3018063306808472,84.0671157836914,23.59,0
-0.1625176519155502,-0.947228193283081,0.1719407737255096,0.1923472881317138,1.3014769554138184,84.07530975341797,23.59,0
-0.1658699959516525,-0.9493407607078552,0.1775149852037429,0.127020001411438,1.3012655973434448,84.08057403564453,23.59,0
-0.1680213361978531,-0.9506964683532716,0.1754944175481796,-0.0510411746799945,1.301129937171936,84.08394622802734,23.59,0
-0.1694019436836242,-0.951566517353058,0.179795503616333,-0.193971186876297,1.301042914390564,84.08611297607422,23.59,0
-0.170287936925888,-0.952124834060669,0.182555690407753,-0.2032961994409561,1.297773838043213,84.0875015258789,23.59,0
-0.1708565205335617,-0.9524831771850586,0.184327021241188,-0.0946380421519279,1.2956759929656982,84.08839416503906,23.59,0
-0.1712214052677154,-0.952713131904602,0.1854637712240219,0.0754046291112899,1.2943296432495115,84.0889663696289,23.59,0
-0.1714555621147155,-0.952860713005066,0.1861932724714279,0.2884229123592376,1.2934656143188477,84.0893325805664,23.59,0
-0.1716058254241943,-0.952955424785614,0.181063637137413,0.4896121621131897,1.292911171913147,84.08956909179688,23.59,0
-0.1717022657394409,-0.95301616191864,0.1777717322111129,0.5470722913742065,1.292555332183838,84.0897216796875,23.59,0
-0.1717641502618789,-0.9530551433563232,0.1756591796875,0.4227310121059418,1.292327046394348,84.0898208618164,23.59,0
-0.1718038618564605,-0.947482407093048,0.1743034720420837,0.2712844312191009,1.2921805381774902,84.08988189697266,23.59,0
-0.171829342842102,-0.9439061284065248,0.1678356826305389,0.1991727650165558,1.2916271686553955,84.08992004394531,23.59,0
-0.1718457043170929,-0.9472088813781738,0.1636850237846374,0.1063221618533134,1.2912720441818235,84.08995056152344,23.59,0
-0.1718561947345733,-0.949328362941742,0.1610213667154312,-0.0643238574266433,1.2910441160202026,84.0899658203125,23.59,0
-0.1718629300594329,-0.9506885409355164,0.1649097651243209,-0.1845823675394058,1.2908978462219238,84.08997344970703,23.59,0
-0.1662694811820984,-0.9515613913536072,0.1674051135778427,-0.1614452451467514,1.2908040285110474,84.08998107910156,23.59,0
-0.168277695775032,-0.9521215558052064,0.1690064817667007,-0.0892759636044502,1.2907438278198242,84.0899887084961,23.59,0
-0.1695664525032043,-0.9524810314178468,0.1700341552495956,-0.0393792949616909,1.2907052040100098,84.0899887084961,23.59,0
-0.1703935116529464,-0.9527117609977722,0.1706936508417129,0.0750407576560974,1.2906804084777832,84.0899887084961,23.59,0
-0.1709242612123489,-0.9528598189353944,0.1711168736219406,0.227285623550415,1.2888284921646118,83.1334457397461,23.59,0
-0.1712648719549179,-0.9529548287391664,0.1713884770870208,0.2461709529161453,1.2876399755477903,82.51959228515625,23.59,0
-0.1714834570884704,-0.9530158042907716,0.1715627759695053,0.1758912205696106,1.2868772745132446,82.12565612792969,23.59,0
-0.1716237366199493,-0.953054904937744,0.1716746389865875,0.180945798754692,1.2863878011703491,81.87284851074219,23.59,0
-0.1717137545347213,-0.9530799984931946,0.1717464178800583,0.2343456000089645,1.2860736846923828,81.71060943603516,23.59,0
-0.1661737412214279,-0.953096091747284,0.1661947071552276,0.2507016360759735,1.2858721017837524,81.60649871826172,23.59,0
-0.1682162582874298,-0.9531064629554749,0.162631943821907,0.2289548218250274,1.2857427597045898,81.53968048095703,23.59,0
-0.1695270240306854,-0.9531130790710448,0.1603455692529678,0.132599726319313,1.2856597900390625,81.4968032836914,23.59,0
-0.1647704243659973,-0.9531173706054688,0.1644760817289352,0.0026956310030072,1.282393217086792,81.46928405761719,23.61,0
-0.1617179214954376,-0.9531201124191284,0.1671268045902252,0.0590511076152324,1.2802969217300415,81.45162963867188,23.61,0
-0.1597589999437332,-0.9531218409538268,0.1688278764486313,0.2528501451015472,1.278951644897461,81.44029998779297,23.61,0
-0.1585018783807754,-0.9531229734420776,0.1699195355176925,0.1873426884412765,1.2780883312225342,81.43302917480469,23.61,0
-0.1576951295137405,-0.9531236886978148,0.1706200987100601,-0.2237015068531036,1.2775343656539917,81.42835998535156,23.61,0
-0.1571774035692215,-0.9531241655349731,0.1710696816444397,-0.5591375231742859,1.2771788835525513,81.42536163330078,23.61,0
-0.1568451523780822,-0.953124463558197,0.1713581979274749,-0.5916897058486938,1.276950716972351,81.4234390258789,23.61,0
-0.1566319316625595,-0.9531246423721312,0.1715433448553085,-0.5051025152206421,1.2768043279647827,81.42220306396484,23.61,0
-0.1564951092004776,-0.9531247615814208,0.1716621667146682,-0.4889442026615143,1.2753331661224363,81.4214096069336,23.61,0
-0.162005066871643,-0.9531248211860656,0.1717384159564972,-0.5502262711524963,1.274389147758484,81.42090606689453,23.61,0
-0.1599432677030563,-0.9531248807907104,0.1717873513698578,-0.6253792643547058,1.2737833261489868,81.42057800292969,23.61,0
-0.1586201339960098,-0.9531249403953552,0.1718187481164932,-0.6234521269798279,1.2733944654464722,81.42037200927734,23.61,0
-0.1633687913417816,-0.9531249403953552,0.1718388944864273,-0.5111555457115173,1.2731449604034424,81.42023468017578,23.61,0
-0.166416198015213,-0.9531249403953552,0.1718518286943435,-0.3280301988124847,1.2729848623275757,81.42015075683594,23.61,0
-0.1627740859985351,-0.9531249403953552,0.1774578988552093,-0.1137813553214073,1.272882103919983,81.42009735107422,23.61,0
-0.1660345643758773,-0.9531249403953552,0.1754577904939651,0.0380415245890617,1.272816181182861,81.42005920410156,23.61,0
-0.1681269407272339,-0.9531249403953552,0.1741742342710495,0.0279954355210065,1.2713967561721802,81.42003631591797,23.61,0
-0.1694697141647339,-0.9531249403953552,0.1733505129814148,-0.0608508065342903,1.270485758781433,81.4200210571289,23.61,0
-0.1703314334154129,-0.9531249403953552,0.172821894288063,-0.0963717550039291,1.269901156425476,81.42001342773438,23.61,0
-0.1708844304084777,-0.9531249403953552,0.1724826693534851,-0.0725935697555542,1.2695260047912598,81.42000579833984,23.61,0
-0.1712393164634704,-0.9531249403953552,0.172264963388443,0.0680560395121574,1.2692853212356567,81.42000579833984,23.61,0
-0.171467050909996,-0.9531249403953552,0.1777230352163314,0.366106241941452,1.269130825996399,81.42000579833984,23.61,0
-0.1716132014989853,-0.9531249403953552,0.1756279319524765,0.5824557542800903,1.269031643867493,81.42000579833984,23.61,0
-0.1661092191934585,-0.9531249403953552,0.1742834150791168,0.5242547392845154,1.2689679861068726,81.42000579833984,23.61,0
-0.1681748479604721,-0.9531249403953552,0.1734205782413482,0.3973402976989746,1.2698450088500977,80.52436065673828,23.61,0
-0.1639026850461959,-0.9475271701812744,0.1784646362066269,0.416206032037735,1.270407795906067,79.9495849609375,23.61,0
-0.1667588204145431,-0.9495326280593872,0.1817016303539276,0.4748864471912384,1.2707690000534058,79.58072662353516,23.61,0
-0.1685917377471923,-0.9508196115493774,0.1837789416313171,0.4552229642868042,1.2710007429122925,79.3440170288086,23.61,0
-0.1697679907083511,-0.95164555311203,0.1851120442152023,0.4067783057689667,1.271149516105652,79.19210815429688,23.61,0
-0.1705228388309478,-0.9521755576133728,0.1859675496816635,0.28254234790802,1.271245002746582,79.09461975097656,23.61,0
-0.1710072606801986,-0.952515721321106,0.1865165680646896,0.0308512542396783,1.2713062763214111,79.03205871582031,23.61,0
-0.1713181287050247,-0.9471362233161926,0.1868688911199569,-0.1772430986166,1.271345615386963,78.99191284179688,23.61,0
-0.1715176254510879,-0.9492817521095276,0.1814972162246704,-0.2248042672872543,1.269075870513916,78.96614837646484,23.61,0
-0.1716456562280655,-0.9506586194038392,0.1780499815940857,-0.2624914348125458,1.267619252204895,78.94961547851562,23.61,0
-0.1717278212308883,-0.9515421986579896,0.1814355254173278,-0.3619109988212585,1.2666844129562378,78.93900299072266,23.61,0
-0.1717805564403534,-0.9521092772483826,0.1836081743240356,-0.3540612161159515,1.2660845518112185,78.93219757080078,23.61,0
-0.1718143969774246,-0.9524731636047364,0.1794046759605407,-0.2164683789014816,1.2656996250152588,78.92782592773438,23.61,0
-0.171836107969284,-0.9527066946029664,0.1767071187496185,-0.1639949828386306,1.26545250415802,78.92501831054688,23.61,0
-0.1718500405550003,-0.9528565406799316,0.1749759763479232,-0.223467543721199,1.2652939558029177,78.9232177734375,23.61,0
-0.1718589812517166,-0.9529527425765992,0.1738650351762771,-0.197147250175476,1.2651922702789309,78.92206573486328,23.61,0
-0.1662669479846954,-0.9530144333839417,0.1731520891189575,0.0060375425964593,1.2646677494049072,78.92132568359375,23.61,0
-0.1682760715484619,-0.9530540704727172,0.1726945638656616,0.3298889398574829,1.2643311023712158,78.92085266113281,23.61,0
-0.1695654094219207,-0.9530794620513916,0.1779987215995788,0.6702734231948853,1.2641150951385498,78.92054748535156,23.61,0
-0.1703928411006927,-0.95309579372406,0.1814026236534118,0.8958777189254761,1.2639764547348022,78.92034912109375,23.61,0
-0.1709238290786743,-0.9531062841415404,0.1835870593786239,0.8973545432090759,1.2638874053955078,78.92022705078125,23.61,0
-0.1768623739480972,-0.9531129598617554,0.1849889010190963,0.7191734910011292,1.263830304145813,78.9201431274414,23.61,0
-0.1806733906269073,-0.95871502161026,0.1858885139226913,0.5224279165267944,1.263793706893921,78.92008972167969,23.61,0
-0.1775213032960891,-0.9567123651504515,0.1864658445119857,0.3782550692558288,1.2637702226638794,78.92005920410156,23.61,0
-0.1754984706640243,-0.949829399585724,0.1812385618686676,0.1961688548326492,1.2642143964767456,78.92003631591797,23.61,0
-0.1797981113195419,-0.945412278175354,0.1778839975595474,-0.0317434407770633,1.2644994258880615,78.9200210571289,23.61,0
-0.176959604024887,-0.9425776600837708,0.1757312268018722,-0.1636741459369659,1.2646822929382324,78.92001342773438,23.61,0
-0.1751380115747451,-0.9463562965393066,0.1743497103452682,-0.1838533133268356,1.26479971408844,78.92000579833984,23.61,0
-0.1795667856931686,-0.9543790221214294,0.1734631210565567,-0.26128950715065,1.264875054359436,78.92000579833984,23.61,0
-0.1768111437559127,-0.9539297819137572,0.1728941649198532,-0.4614517390727997,1.2649234533309937,78.92000579833984,23.61,0
-0.1750427335500717,-0.9536414742469788,0.1781268119812011,-0.7152944803237915,1.2649544477462769,78.92000579833984,23.61,0
-0.1795056462287902,-0.953456461429596,0.1814848333597183,-0.94984769821167,1.2649743556976318,78.92000579833984,23.61,0
-0.1767719089984893,-0.9477399587631226,0.1836398094892501,-1.0752923488616943,1.263150691986084,78.87342834472656,23.61,0
-0.1750175505876541,-0.9496691823005676,0.1850227564573288,-0.9945796728134156,1.261980414390564,78.84353637695312,23.61,0
-0.1794894784688949,-0.9509072303771972,0.1859102547168731,-0.7314109206199646,1.261229395866394,78.82435607910156,23.61,0
-0.1823593080043792,-0.9517017602920532,0.1864797919988632,-0.4013084769248962,1.2607474327087402,78.81204986572266,23.61,0
-0.1842010021209716,-0.952211618423462,0.1868452876806259,-0.0891556367278099,1.260438084602356,78.80415344238281,23.61,0
-0.1853828877210617,-0.9525388479232788,0.1870798468589782,0.1720698773860931,1.260239601135254,78.79907989501953,23.61,0
-0.1861413568258285,-0.9527488350868224,0.1872303634881973,0.3612048327922821,1.260112166404724,78.79582977294922,23.61,0
-0.1866281032562255,-0.9528836011886596,0.187326967716217,0.4754156172275543,1.2600303888320925,78.79373931884766,23.61,0
-0.186940461397171,-0.9529700875282288,0.1817911863327026,0.5379617810249329,1.25997793674469,78.79239654541016,23.61,0
-0.1871409267187118,-0.9530255794525146,0.1838364154100418,0.5745177268981934,1.2599443197250366,78.79154205322266,23.61,0
-0.1816717982292175,-0.9530612230300904,0.1851489245891571,0.5693166255950928,1.259922742843628,78.7909927368164,23.61,0
-0.1781620234251022,-0.9530840516090392,0.1859912127256393,0.5301530957221985,1.25990891456604,78.79063415527344,23.61,0
-0.1815074235200882,-0.953098714351654,0.1865317523479461,0.4942725002765655,1.2598999738693235,78.7904052734375,23.61,0
-0.178056538105011,-0.9531081318855286,0.1868786364793777,0.4819941222667694,1.2598942518234253,78.7902603149414,23.61,0
-0.1758419573307037,-0.9531141519546508,0.1871012449264526,0.4956099987030029,1.2598905563354492,78.79016876220703,23.61,0
-0.1800185441970825,-0.9531180262565612,0.187244102358818,0.5079304575920105,1.2598881721496582,78.79010772705078,23.61,0
-0.1771010607481002,-0.947522759437561,0.1873357743024826,0.4334377944469452,1.2589688301086426,78.79006958007812,23.61,0
-0.1752287894487381,-0.9495298266410828,0.1873946040868759,0.2065039128065109,1.2583788633346558,78.79004669189453,23.61,0
-0.1796250492334365,-0.9452200531959534,0.1874323636293411,-0.1254231333732605,1.2580002546310425,78.79003143310547,23.61,0
-0.1824463158845901,-0.9424542784690856,0.1818588227033615,-0.427999198436737,1.257757306098938,78.79002380371094,23.61,0
-0.184256836771965,-0.9462771415710448,0.1782820373773574,-0.6185925006866455,1.2576013803482056,78.7900161743164,23.61,0
-0.1798209547996521,-0.9487304091453552,0.1815844476222992,-0.697913408279419,1.257501244544983,78.79000854492188,23.61,0
-0.1769742518663406,-0.9503048062324524,0.1781059652566909,-0.6771655082702637,1.257436990737915,78.79000854492188,23.61,0
-0.1751473993062973,-0.95131516456604,0.1814714521169662,-0.5850340127944946,1.2573957443237305,78.79000854492188,23.61,0
-0.1739750355482101,-0.946365773677826,0.1836312264204025,-0.5008313059806824,1.2582871913909912,78.79000854492188,23.61,0
-0.1732226759195327,-0.9487873315811156,0.185017243027687,-0.4539600014686584,1.2588592767715454,78.79000854492188,23.61,0
-0.1727398633956909,-0.9503413438796996,0.185906708240509,-0.3522291779518127,1.2592264413833618,78.79000854492188,23.61,0
-0.1724300235509872,-0.9513385891914368,0.1864775121212005,-0.1508063375949859,1.2594619989395142,78.79000854492188,23.61,0
-0.1722311824560165,-0.95197856426239,0.1868438273668289,-0.0072144363075494,1.2596131563186646,78.79000854492188,23.61,0
-0.1721035838127136,-0.9523892998695374,0.187078908085823,-0.0655335932970047,1.2597101926803589,78.79000854492188,23.61,0
-0.1776194721460342,-0.952652871608734,0.1872297674417495,-0.1925238519906997,1.2597724199295044,78.79000854492188,23.61,0
-0.1755614727735519,-0.9528220295906068,0.187326580286026,-0.1522113233804702,1.259812355041504,78.79000854492188,23.61,0
-0.1798385381698608,-0.9529305696487428,0.1873887032270431,0.0384574010968208,1.2584608793258667,78.69686126708984,23.61,0
-0.1825833171606063,-0.9530002474784852,0.1874285787343979,0.1679827719926834,1.2575936317443848,78.6370849609375,23.61,0
-0.1787469834089279,-0.9530449509620668,0.1818563938140869,0.1973660588264465,1.2570370435714722,78.59871673583984,23.61,0
-0.1762850433588028,-0.9530736207962036,0.1838782578706741,0.2233877182006836,1.256679892539978,78.5740966796875,23.61,0
-0.1747051179409027,-0.9530920386314392,0.1851757764816284,0.2293391972780227,1.256450653076172,78.55829620361328,23.61,0
-0.1736912131309509,-0.9531038403511048,0.1804106682538986,0.1901676058769226,1.2563035488128662,78.54815673828125,23.61,0
-0.1730405390262603,-0.9531114101409912,0.1829504817724228,0.197272703051567,1.256209135055542,78.5416488647461,23.61,0
-0.1726229786872863,-0.9531162977218628,0.178982600569725,0.2448232620954513,1.2561485767364502,78.5374755859375,23.61,0
-0.1723550111055374,-0.9531193971633912,0.1764362454414367,0.1786089390516281,1.2561097145080566,78.53479766845703,23.65,0
-0.1721830368041992,-0.9475236535072328,0.1803999245166778,-0.0250995140522718,1.256084680557251,78.5330810546875,23.65,0
-0.1720726788043975,-0.9439325928688048,0.1773458123207092,-0.1486627161502838,1.2560687065124512,78.53197479248047,23.65,0
-0.1775996387004852,-0.9472258687019348,0.1753858476877212,-0.0309168100357055,1.2560584545135498,78.53126525878906,23.65,0
-0.1755487471818924,-0.943741500377655,0.1741280555725097,0.1557055860757827,1.256051778793335,78.53081512451172,23.65,0
-0.1742326021194458,-0.9471032023429872,0.1733208745718002,0.1285834908485412,1.256047606468201,78.53052520751953,23.65,0
-0.1789857447147369,-0.9492605328559875,0.1784006506204605,-0.1037764400243759,1.256044864654541,78.53033447265625,23.65,0
-0.1820360422134399,-0.9506450295448304,0.1816605627536773,-0.2958825826644897,1.2560430765151978,78.53021240234375,23.65,0
-0.1839935481548309,-0.9515334963798524,0.1837525814771652,-0.329600840806961,1.2546647787094116,78.53013610839844,23.65,0
-0.1852497607469558,-0.9521036744117736,0.1850951164960861,-0.2616749107837677,1.2537802457809448,78.53009033203125,23.65,0
-0.1804581582546234,-0.946871817111969,0.1859566867351532,-0.0998589619994163,1.2532126903533936,78.53005981445312,23.65,0
-0.1773831695318222,-0.949112057685852,0.1809118092060089,0.1687836647033691,1.2528483867645264,78.53003692626953,23.65,0
-0.1754098236560821,-0.9505497217178344,0.1776743084192276,0.4665732085704803,1.2526146173477173,78.53002166748047,23.65,0
-0.174143448472023,-0.9514723420143129,0.1755966693162918,0.7114160060882568,1.2524646520614624,78.53001403808594,23.65,0
-0.1733307540416717,-0.9520643949508668,0.1742633581161499,0.8398814797401428,1.2523683309555054,78.5300064086914,23.65,0
-0.1784069985151291,-0.9524443745613098,0.1734077036380767,0.7431944012641907,1.252306580543518,78.5300064086914,23.65,0
-0.1816646307706833,-0.952688217163086,0.1728585958480835,0.4482787847518921,1.2527263164520264,78.5300064086914,23.65,0
-0.1837551891803741,-0.9472469091415404,0.1725062131881714,0.2052802741527557,1.2529956102371216,78.5300064086914,23.65,0
-0.185096800327301,-0.9493528008461,0.1722800731658935,0.1424847841262817,1.2531684637069702,78.5300064086914,23.65,0
-0.1803599894046783,-0.9507042169570924,0.1721349507570266,0.0663605034351348,1.2532793283462524,78.5300064086914,23.65,0
-0.1773201823234558,-0.9515714645385742,0.1720418184995651,-0.1580379009246826,1.2533504962921145,78.5300064086914,23.65,0
-0.1753694117069244,-0.9521280527114868,0.1719820499420166,-0.3665302395820617,1.2533961534500122,78.5300064086914,23.65,0
-0.1741175055503845,-0.952485203742981,0.1719436943531036,-0.4215119481086731,1.2534254789352417,78.5300064086914,23.65,0
-0.1733141094446182,-0.9527144432067872,0.1719190776348114,-0.3994748294353485,1.2534443140029907,78.5300064086914,23.65,0
-0.1727985441684723,-0.9528615474700928,0.1775010675191879,-0.399662971496582,1.2525382041931152,78.58732604980469,23.65,0
-0.1724676787853241,-0.9529559016227722,0.1810832619667053,-0.4176965951919555,1.2519567012786863,78.62410736083984,23.65,0
-0.1778531223535537,-0.953016459941864,0.1833821088075637,-0.4650952816009521,1.2515835762023926,78.64771270751953,23.65,0
-0.1813091933727264,-0.9530553221702576,0.1848573684692382,-0.499095618724823,1.251344084739685,78.6628646850586,23.65,0
-0.1835270971059799,-0.9530802965164183,0.1802063435316085,-0.3668643236160278,1.251190423965454,78.6725845336914,23.65,0
-0.1849504262208938,-0.953096330165863,0.1772215813398361,-0.0742165073752403,1.251091718673706,78.67882537841797,23.65,0
-0.1802660524845123,-0.9531065821647644,0.1753061264753341,0.1028402894735336,1.2510284185409546,78.68283081054688,23.65,0
-0.1772598922252655,-0.9531131982803344,0.1740768998861313,0.0337537974119186,1.2509877681732178,78.6854019165039,23.65,0
-0.175330713391304,-0.9531174302101136,0.1732880473136901,-0.0786508694291114,1.2505028247833252,78.68704986572266,23.65,0
-0.1740926802158355,-0.9531201124191284,0.1727818101644516,-0.0003175391466356,1.250191569328308,78.6881103515625,23.65,0
-0.173298180103302,-0.9531218409538268,0.1724569350481033,0.2469939291477203,1.249991774559021,78.68878936767578,23.65,0
-0.1727883219718933,-0.9475252032279968,0.1722484529018402,0.4737731516361236,1.249863624572754,78.68922424316406,23.65,0
-0.1724611222743988,-0.9495313763618468,0.1721146553754806,0.5225774645805359,1.249781370162964,78.68950653076172,23.65,0
-0.1722511351108551,-0.9508188366889954,0.1720287948846817,0.4070116579532623,1.2497285604476929,78.68968200683594,23.65,0
-0.1721163839101791,-0.951645016670227,0.1719736903905868,0.2826921045780182,1.2496947050094604,78.6897964477539,23.65,0
-0.1720299124717712,-0.9521752595901488,0.1719383299350738,0.2745624780654907,1.2496730089187622,78.68987274169922,23.65,0
-0.1719744205474853,-0.9525154829025269,0.1719156354665756,0.3409968614578247,1.2491997480392456,78.6899185180664,23.65,0
-0.1775365769863128,-0.952733874320984,0.17749884724617,0.3406397402286529,1.2488960027694702,78.68994903564453,23.65,0
-0.1811060458421707,-0.9528740048408508,0.1810818314552307,0.2221855521202087,1.248701095581055,78.68997192382812,23.65,0
-0.1833967268466949,-0.9529639482498168,0.1777834147214889,0.1533336192369461,1.248576045036316,78.68997955322266,23.65,0
-0.1848667562007904,-0.9530216455459596,0.1756666749715805,0.2345385551452636,1.2484958171844482,78.68998718261719,23.65,0
-0.1858101338148117,-0.953058660030365,0.1743082851171493,0.2723209261894226,1.2484443187713623,78.68999481201172,23.65,0
-0.1864155381917953,-0.9530824422836304,0.1734365373849868,0.1031083837151527,1.2484112977981567,78.68999481201172,23.65,0
-0.1868040561676025,-0.9530977010726928,0.178474873304367,-0.1774461269378662,1.2483900785446167,78.68999481201172,23.65,0
-0.1814556121826172,-0.953107476234436,0.1817081868648529,-0.4363065063953399,1.2497535943984983,78.68999481201172,23.65,0
-0.1780232787132263,-0.9531137347221376,0.1837831437587738,-0.4985335171222687,1.2506285905838013,78.68999481201172,23.65,0
-0.1758206039667129,-0.9531177878379822,0.1851147413253784,-0.2196179926395416,1.2511900663375854,78.68999481201172,23.65,0
-0.1744070649147033,-0.9531203508377076,0.1803715080022812,0.1420852988958358,1.2515504360198977,78.68999481201172,23.65,0
-0.1734999269247055,-0.9531220197677612,0.1829253435134887,0.1449207961559295,1.251781702041626,78.68999481201172,23.65,0
-0.1785155534744262,-0.9531230926513672,0.1845642477273941,-0.1147875413298606,1.2519301176071167,78.68999481201172,23.65,0
-0.1817342936992645,-0.9475259780883788,0.1856160014867782,-0.2205496281385421,1.2520253658294678,78.68999481201172,23.65,0
-0.1782021224498748,-0.9495318531990052,0.1862909644842147,-0.1128754541277885,1.252086520195007,78.68999481201172,23.65,0
-0.1815331578254699,-0.9508191347122192,0.1867241114377975,0.070866048336029,1.251666784286499,79.49607849121094,23.65,0
-0.1836708188056945,-0.9516452550888062,0.1870020776987075,0.2568497061729431,1.2513974905014038,80.01337432861328,23.65,0
-0.1794448792934417,-0.9465776085853576,0.1871804594993591,0.3260472416877746,1.2512246370315552,80.34534454345703,23.65,0
-0.176732912659645,-0.9433254599571228,0.1816971600055694,0.2450641095638275,1.251113772392273,80.55838775634766,23.65,0
-0.1805903017520904,-0.9412384629249572,0.1781782954931259,0.0999468341469764,1.2510426044464111,80.69510650634766,23.65,0
-0.1830657571554184,-0.9454969167709352,0.1759200990200042,-0.1114060953259468,1.2509969472885132,80.78284454345703,23.65,0
-0.1790565848350525,-0.948229730129242,0.174470916390419,-0.3903432488441467,1.2509676218032837,80.83914947509766,23.65,0
-0.1764837205410003,-0.9443857073783876,0.1735409051179886,-0.5156104564666748,1.250948786735535,80.87528228759766,23.65,0
-0.1748326122760772,-0.9475166201591492,0.1729440838098526,-0.4061231911182403,1.2486413717269895,80.89846801757812,23.65,0
-0.1737730205059051,-0.9495258927345276,0.1781588494777679,-0.3394431471824646,1.24716055393219,80.91334533691406,23.65,0
-0.1730930358171463,-0.9508153200149536,0.1815053820610046,-0.5044411420822144,1.2462102174758911,80.92289733886719,23.65,0
-0.1726566702127456,-0.9516427516937256,0.1836529970169067,-0.710639476776123,1.245600342750549,80.92902374267578,23.65,0
-0.1723766326904297,-0.9521737694740297,0.1850312203168869,-0.7211580872535706,1.245208978652954,80.9329605102539,23.65,0
-0.1721969246864318,-0.9525145292282104,0.1859156787395477,-0.455632597208023,1.2449578046798706,80.93548583984375,23.65,0
-0.1776793599128723,-0.9527332186698914,0.1864832788705825,0.0228678677231073,1.244796633720398,80.93710327148438,23.65,0
-0.1755999028682708,-0.9528735876083374,0.186847522854805,0.5019055604934692,1.2446932792663574,80.93814086914062,23.65,0
-0.1742654293775558,-0.952963650226593,0.1870812773704528,0.7484205961227417,1.246922254562378,80.93880462646484,23.65,0
-0.1734090447425842,-0.9530214667320251,0.1872312873601913,0.7418212890625,1.2483526468276978,80.9392318725586,23.65,0
-0.1728594601154327,-0.9530585408210754,0.1873275488615036,0.6121960878372192,1.2492706775665283,80.93950653076172,23.65,0
-0.1781045496463775,-0.9530823230743408,0.1817915588617324,0.4322805404663086,1.2498598098754885,80.93968200683594,23.65,0
-0.1758727729320526,-0.953097641468048,0.1782388836145401,0.2057612538337707,1.2502378225326538,80.9397964477539,23.65,0
-0.1744405478239059,-0.9531074166297911,0.175958976149559,-0.036335315555334,1.2504804134368896,80.93987274169922,23.65,0
-0.173521414399147,-0.9475159645080566,0.1800936311483383,-0.2167770117521286,1.250636100769043,80.9399185180664,23.65,0
-0.1729315668344497,-0.9495254158973694,0.1771492511034011,-0.3074960708618164,1.2507359981536863,80.93994903564453,23.65,0
-0.1725530475378036,-0.9508150219917296,0.1808574795722961,-0.4158703982830047,1.2485047578811646,80.93997192382812,23.65,0
-0.1723101288080215,-0.9516425728797911,0.1832372099161148,-0.6394695043563843,1.24707293510437,80.93997955322266,23.65,0
-0.1721542477607727,-0.95217365026474,0.1847643852233886,-0.825953483581543,1.2461540699005127,80.93998718261719,23.65,0
-0.1720542013645172,-0.9525144696235656,0.185744434595108,-0.7378388047218323,1.245564341545105,80.93999481201172,23.65,0
-0.1719900071620941,-0.9527332186698914,0.1863733828067779,-0.3875206410884857,1.2451858520507812,80.93999481201172,23.65,0
-0.1719488054513931,-0.9528735876083374,0.1867769956588745,0.0128395967185497,1.2449430227279663,80.93999481201172,23.65,0
-0.1719223707914352,-0.952963650226593,0.1870360225439071,0.2769328653812408,1.2447872161865234,80.93999481201172,23.65,0
-0.1719053983688354,-0.9530214667320251,0.1816044747829437,0.317440003156662,1.2446871995925903,80.93999481201172,23.65,0
-0.1718945056200027,-0.9530585408210754,0.17811881005764,0.1750541180372238,1.245541214942932,81.71741485595703,23.65,0
-0.1718875169754028,-0.9530823230743408,0.1758819222450256,-0.0237982198596,1.2460893392562866,82.21631622314453,23.65,0
-0.1718830317258834,-0.953097641468048,0.1744464188814163,-0.1729056537151336,1.2464410066604614,82.53648376464844,23.65,0
-0.171880155801773,-0.9531074166297911,0.173525184392929,-0.2435161918401718,1.246666669845581,82.74195098876953,23.65,0
-0.171878308057785,-0.9531137347221376,0.1729339957237243,-0.2637519538402557,1.2468115091323853,82.87380981445312,23.65,0
-0.1718771159648895,-0.9531177878379822,0.1725545972585678,-0.2409123331308365,1.2469044923782349,82.95842742919922,23.65,0
-0.1718763560056686,-0.9531203508377076,0.1779088973999023,-0.0578741170465946,1.2469640970230105,83.01273345947266,23.65,0
-0.1718758642673492,-0.9531220197677612,0.181344985961914,0.3246998488903045,1.247002363204956,83.04757690429688,23.65,0
-0.1662777811288833,-0.958720862865448,0.1947456151247024,0.5809615254402161,1.2465680837631226,83.06993865966797,23.67,0
-0.1626852452754974,-0.9623138904571532,0.2089431434869766,0.4158185720443725,1.2462893724441528,83.08428955078125,23.67,0
-0.1659775376319885,-0.97021746635437,0.2236520797014236,0.1056325286626815,1.246110439300537,83.09349822998047,23.67,0
-0.1792858988046646,-0.9696917533874512,0.2274936437606811,0.1036146357655525,1.2459956407546997,83.09941101074219,23.67,0
-0.1822286695241928,-0.9693543910980223,0.2299589365720749,0.3602651059627533,1.245921969413757,83.10320281982422,23.67,0
-0.1841171681880951,-0.9579423069953918,0.2203454822301864,0.4927254319190979,1.2458746433258057,83.10563659667969,23.67,0
-0.1909268647432327,-0.9506186842918396,0.2085783332586288,0.3950194716453552,1.2458443641662598,83.1072006225586,23.67,0
-0.1952969431877136,-0.9459187984466552,0.2066246420145034,0.2427530288696289,1.245824933052063,83.10820007324219,23.67,0
-0.1981014013290405,-0.942902684211731,0.1997730880975723,0.137872040271759,1.245353102684021,83.10884857177734,23.67,0
-0.1999011486768722,-0.9353693723678588,0.1953761577606201,0.0705654621124267,1.245050311088562,83.10926055908203,23.67,0
-0.2010561227798462,-0.9305348992347716,0.1925544589757919,0.0667803063988685,1.2448559999465942,83.10952758789062,23.67,0
-0.2017973065376281,-0.927432417869568,0.1851458847522735,0.1431678831577301,1.244731307029724,83.10969543457031,23.67,0
-0.2022729665040969,-0.9254414439201356,0.1859892606735229,0.2459276616573333,1.2446513175964355,83.10980224609375,23.67,0
-0.2025782167911529,-0.9241637587547302,0.1865305006504058,0.3011252582073211,1.2445999383926392,83.10987091064453,23.67,0
-0.2027741074562072,-0.9233437776565552,0.1868778318166732,0.261313796043396,1.2445670366287231,83.10991668701172,23.67,0
-0.1973020434379577,-0.922817587852478,0.1926985085010528,0.1462007015943527,1.2445459365844729,83.10994720458984,23.67,0
-0.1993881613016128,-0.9280776977539062,0.2020316570997238,0.011423953808844,1.2436144351959229,83.10997009277344,23.67,0
-0.2007269114255905,-0.931453287601471,0.2080211341381073,-0.118058905005455,1.2430167198181152,83.10997772216797,23.67,0
-0.195988267660141,-0.9336195588111876,0.2174625992774963,-0.2154838442802429,1.2426331043243408,83.1099853515625,23.67,0
-0.1985450536012649,-0.9406075477600098,0.2235215902328491,-0.1920237690210342,1.2423869371414185,83.10999298095703,23.67,0
-0.1945880800485611,-0.939494252204895,0.2330076843500137,-0.0336654148995876,1.2422289848327637,83.10999298095703,23.67,0
-0.1920487284660339,-0.9443775415420532,0.2390953153371811,0.1002030447125434,1.242127537727356,83.10999298095703,23.67,0
-0.1960168927907943,-0.9475113749504088,0.2430019974708557,0.0822174251079559,1.2420624494552612,83.10999298095703,23.67,0
-0.1985634267330169,-0.9439247250556946,0.2399113178253173,-0.0009762255940586,1.2420207262039185,83.10999298095703,23.67,0
-0.1945998668670654,-0.941623032093048,0.2379278838634491,0.002956090029329,1.2447482347488403,83.80501556396484,23.67,0
-0.19765405356884,-0.9401459097862244,0.2310572564601898,0.0986265912652015,1.2464985847473145,84.25104522705078,23.67,0
-0.1996140629053115,-0.9391980171203612,0.2266480922698974,0.1671875566244125,1.2476218938827517,84.53727722167969,23.67,0
-0.1952741146087646,-0.9441874623298644,0.2182207703590393,0.1861080080270767,1.248342752456665,84.72096252441406,23.67,0
-0.1980867534875869,-0.9417916536331176,0.2184103727340698,0.2197455316781997,1.2488054037094116,84.8388442993164,23.67,0
-0.1942939758300781,-0.9402541518211364,0.2185320407152176,0.234166994690895,1.249102234840393,84.91448974609375,23.67,0
-0.1918599754571914,-0.9392674565315248,0.2186101227998733,0.1861006617546081,1.2492927312850952,84.9630355834961,23.67,0
-0.1902979761362075,-0.9386342763900756,0.2186602354049682,0.1731673330068588,1.2494150400161743,84.99419403076172,23.67,0
-0.1892955750226974,-0.9382278919219972,0.2186923921108245,0.218606099486351,1.2490341663360596,85.01419067382812,23.67,0
-0.188652291893959,-0.9379671216011048,0.218713030219078,0.125958502292633,1.2487897872924805,85.02702331542969,23.67,0
-0.1882394701242447,-0.9377997517585754,0.2187262773513794,-0.1806951165199279,1.2486329078674316,85.0352554321289,23.67,0
-0.1879745423793792,-0.9376923441886902,0.2187347710132599,-0.4777998626232147,1.2485322952270508,85.04054260253906,23.67,0
-0.1878045350313186,-0.9376234412193298,0.2187402248382568,-0.5394918322563171,1.2484676837921145,85.04393005371094,23.67,0
-0.1932932138442993,-0.9375792145729064,0.2187437266111374,-0.3677102625370025,1.2484261989593506,85.04610443115234,23.67,0
-0.1968155205249786,-0.9375508427619934,0.2187459766864776,-0.1894018054008484,1.2483996152877808,85.04750061035156,23.67,0
-0.1934781670570373,-0.937532603740692,0.2187474220991134,-0.2182767242193222,1.248382568359375,85.04840087890625,23.67,0
-0.1969342231750488,-0.9375209212303162,0.2187483459711074,-0.3801099956035614,1.2465355396270752,85.0489730834961,23.67,0
-0.1991521120071411,-0.9375134110450744,0.2187489420175552,-0.4051486253738403,1.2453502416610718,85.0493392944336,23.67,0
-0.2005754262208938,-0.9375085830688475,0.218749314546585,-0.242088183760643,1.2445895671844482,85.04957580566406,23.67,0
-0.2014888375997543,-0.9375054836273192,0.2187495529651641,-0.0478809848427772,1.2441014051437378,85.04972839355469,23.67,0
-0.2020750045776367,-0.9375035166740416,0.2187497168779373,0.0982454642653465,1.2437881231307983,85.0498275756836,23.67,0
-0.2024511694908142,-0.9375022649765016,0.2187498211860656,0.2170990407466888,1.2435871362686155,85.04988861083984,23.67,0
-0.2026925683021545,-0.9375014305114746,0.2187498807907104,0.3041201531887054,1.2434581518173218,85.0499267578125,23.67,0
-0.2028474956750869,-0.9375008940696716,0.218749925494194,0.2775660455226898,1.243375301361084,85.04995727539062,23.67,0
-0.2029469162225723,-0.9375005960464478,0.2187499552965164,0.0742312222719192,1.245158314704895,85.04997253417969,23.67,0
-0.2030107229948043,-0.9375003576278688,0.2187499701976776,-0.1923952400684356,1.2463024854660034,85.04998016357422,23.67,0
-0.197453886270523,-0.9375002384185792,0.2187499850988388,-0.2954318225383758,1.2470368146896362,85.04998779296875,23.67,0
-0.1994855999946594,-0.9375001788139344,0.2187499850988388,-0.2182517349720001,1.2475080490112305,85.04999542236328,23.67,0
-0.2007894366979599,-0.9319023489952089,0.2187499850988388,-0.1794697344303131,1.2478103637695312,85.04999542236328,23.67,0
-0.2016261667013168,-0.9339077472686768,0.2187499850988388,-0.3086324334144592,1.24800443649292,85.04999542236328,23.67,0
-0.2021631300449371,-0.9351946711540222,0.2187499850988388,-0.5204943418502808,1.2481290102005005,85.04999542236328,23.67,0
-0.202507734298706,-0.93602055311203,0.2187499850988388,-0.6242119073867798,1.2482088804244995,85.04999542236328,23.67,0
-0.2027288675308227,-0.9365505576133728,0.2187499850988388,-0.4435741901397705,1.2468830347061155,85.6590347290039,23.67,0
-0.2028707861900329,-0.9312929511070251,0.213152214884758,-0.0446277894079685,1.2460321187973022,86.04988098144531,23.67,0
-0.2029618620872497,-0.9335166811943054,0.2095598876476287,0.2758793830871582,1.2454861402511597,86.30070495605469,23.67,0
-0.203020304441452,-0.9349437355995178,0.2072545439004898,0.3884154558181762,1.2451356649398804,86.461669921875,23.67,0
-0.1974600404500961,-0.9358595609664916,0.2113728821277618,0.4176437258720398,1.2449108362197876,86.5649642944336,23.67,0
-0.1882940083742141,-0.936447262763977,0.2140157967805862,0.4292356073856354,1.2447664737701416,86.63125610351562,23.67,0
-0.1824117749929428,-0.9424222111701964,0.221309632062912,0.3865185379981994,1.2446738481521606,86.67379760742188,23.67,0
-0.1842346638441085,-0.9462565779685974,0.2203926295042038,0.366270363330841,1.2446144819259644,86.70109558105469,23.67,0
-0.1910022646188736,-0.94871723651886,0.2198041379451751,0.385519415140152,1.2459534406661987,86.71861267089844,23.69,0
-0.1337698101997375,-0.9111119508743286,0.2026331573724746,0.2868124842643738,1.2468128204345703,86.7298583984375,23.69,0
-0.1250301897525787,-0.9037723541259766,0.1972115933895111,0.0837476179003715,1.2473642826080322,86.73707580566406,23.69,0
-0.1474104672670364,-0.9270510673522948,0.2105256617069244,0.0501618273556232,1.2477182149887085,86.74170684814453,23.69,0
-0.1729683876037597,-0.9867722392082214,0.2078743129968643,0.23639777302742,1.2479453086853027,86.74467468261719,23.69,0
-0.1949677765369415,-0.9859133958816528,0.1949772834777832,0.3380004167556762,1.2480909824371338,86.74658203125,23.69,0
-0.136314645409584,-0.9853622317314148,0.2258851379156112,0.1524228453636169,1.2481845617294312,86.747802734375,23.69,0
-0.1546521931886673,-0.9850085377693176,0.2233289182186126,-0.163711816072464,1.2482445240020752,86.74858856201172,23.69,0
-0.1216379702091217,-0.92880380153656,0.2496773600578308,-0.3200153708457947,1.2450698614120483,86.74909210205078,23.69,0
-0.1732224076986313,-0.9375170469284058,0.2777818143367767,-0.2411932051181793,1.243032455444336,86.74942016601562,23.69,0
-0.2063263356685638,-0.9375109672546388,0.2622309923171997,-0.1189581602811813,1.241724967956543,86.74962615966797,23.69,0
