acc_x,acc_y,acc_z,bvp,eda,hr,temp,label
0.0,0.0,0.0,0.0,0.0,0.0,24.69,1
-0.0442708320915699,-0.1536458283662796,0.0442708320915699,-0.1649999916553497,0.1995164901018142,19.41666603088379,24.69,1
-0.1078506112098693,-0.3555640280246734,0.1036585420370101,-0.4829268455505371,0.4671605825424194,45.463417053222656,24.69,1
-0.1531872898340225,-0.5262147188186646,0.160299003124237,-0.8902325630187988,0.6999648809432983,68.1196060180664,24.69,1
-0.2022774517536163,-0.6507136225700378,0.2069594860076904,-1.4265354871749878,0.8698081374168396,84.64851379394531,24.69,1
-0.2245341092348098,-0.7350046038627625,0.2165917158126831,-2.3728630542755127,0.9847992062568665,95.83928680419922,24.69,1
-0.222478449344635,-0.8014177680015564,0.1729341596364975,-3.729461669921875,1.060249924659729,103.18203735351562,24.69,1
-0.2546231150627136,-0.855588972568512,0.1725559532642364,-5.19724178314209,1.1091156005859375,107.93757629394533,24.69,1
-0.2641494572162628,-0.873714029788971,0.1779025048017501,-6.940573692321777,1.127299427986145,111.00096130371094,24.67,1
-0.2646777927875519,-0.8965530395507812,0.1757443100214004,-9.693827629089355,1.1389869451522827,112.96993255615234,24.67,1
-0.2650170624256134,-0.9056227207183838,0.1799549013376236,-13.750579833984377,1.1464921236038208,114.23431396484376,24.67,1
-0.2764293253421783,-0.9114446640014648,0.1770604848861694,-18.41444206237793,1.151309847831726,115.04593658447266,24.67,1
-0.2725587487220764,-0.9207788109779358,0.1808003783226013,-22.99120330810547,1.1544018983840942,115.5668487548828,24.67,1
-0.2812700867652893,-0.9211715459823608,0.1776028424501419,-27.966890335083008,1.1563862562179563,115.90115356445312,24.67,1
-0.270067423582077,-0.9214235544204712,0.1755508184432983,-34.427345275878906,1.1576597690582275,116.11569213867188,24.67,1
-0.3076602220535278,-0.91038978099823,0.1574406623840332,-42.28486251831055,1.1584770679473877,116.2533721923828,24.67,1
-0.3037963509559631,-0.936895489692688,0.1402207911014557,-50.13970184326172,1.1479843854904177,116.34172821044922,24.67,1
-0.2957189679145813,-0.9483076333999634,0.1347678303718567,-57.616641998291016,1.1412508487701416,116.39842987060548,24.67,1
-0.2737420201301574,-0.944435715675354,0.1424639821052551,-66.40589904785156,1.136929631233215,116.434814453125,24.67,1
-0.2596384882926941,-0.9475486874580384,0.1474029272794723,-77.50977325439453,1.1341564655303955,116.45816802978516,24.67,1
-0.2561854124069214,-0.9327531456947328,0.1449746787548065,-89.09590148925781,1.132376790046692,116.47315216064452,24.67,1
-0.2651650011539459,-0.9176604151725768,0.1322208195924759,-99.3578643798828,1.1312347650527954,116.48277282714844,24.67,1
-0.2765253484249115,-0.9079747796058656,0.1184383556246757,-109.82691955566406,1.1305018663406372,116.48894500732422,24.67,1
-0.2894135415554046,-0.9017590880393982,0.1095935627818107,-123.82514190673828,1.1300315856933594,116.49290466308594,24.67,1
-0.2976844310760498,-0.8977702260017395,0.1095152646303176,-143.3698272705078,1.149009346961975,116.49544525146484,24.67,1
-0.3141877651214599,-0.9064059257507324,0.1094650104641914,-166.49183654785156,1.1611882448196411,116.49707794189452,24.67,1
-0.3303764462471008,-0.9119478464126588,0.1206283122301101,-184.052963256836,1.169003963470459,116.49812316894533,24.67,1
-0.3463631570339203,-0.9155043363571168,0.1277922838926315,-182.6941070556641,1.1740195751190186,116.49879455566406,24.67,1
-0.3454269766807556,-0.8953955769538879,0.1211941540241241,-155.13546752929688,1.1772383451461792,116.49922943115234,24.67,1
-0.3336306512355804,-0.8936864733695984,0.1169598549604415,-103.70205688476562,1.1793038845062256,116.49950408935548,24.67,1
-0.3036693334579468,-0.9765563011169434,0.1086447462439537,-33.99872970581055,1.1806294918060305,116.49967956542967,24.67,1
-0.2508552372455597,-1.0129441022872925,0.1256996840238571,45.32978439331055,1.1814801692962646,116.49979400634766,24.67,1
-0.1889733225107193,-1.0362956523895264,0.1590356677770614,118.46456146240234,1.1806492805480957,108.79733276367188,24.67,1
-0.1268699765205383,-1.040085792541504,0.2196131944656372,170.9046630859375,1.180116057395935,103.85433197021484,24.67,1
-0.0982111692428588,-1.0145292282104492,0.2640861570835113,201.57699584960932,1.1797739267349243,100.68219757080078,24.67,1
-0.1246017962694168,-0.9421507120132446,0.2590396702289581,218.534408569336,1.1795543432235718,98.6465072631836,24.67,1
-0.1975155174732208,-0.8677135109901428,0.2110189497470855,227.8618621826172,1.1794134378433228,97.34011840820312,24.67,1
-0.2611006796360016,-0.814346194267273,0.1634086817502975,233.4894256591797,1.1793229579925537,96.5017547607422,24.67,1
-0.3242970705032348,-0.8080869913101196,0.1160618364810943,240.08514404296875,1.1792649030685425,95.96373748779295,24.67,1
-0.3648528754711151,-0.8096680045127869,0.0856773555278778,249.00392150878903,1.1792277097702026,95.61846923828124,24.67,1
-0.3516948223114013,-0.8218781352043152,0.0717761218547821,256.8197021484375,1.1782855987548828,95.39689636230467,24.67,1
-0.3264574408531189,-0.84650719165802,0.0796484276652336,261.67779541015625,1.1776809692382812,95.25470733642578,24.67,1
-0.2990659773349762,-0.8735082745552063,0.0958959683775901,267.2279968261719,1.1772929430007937,95.16345977783205,24.67,1
-0.2702921628952026,-0.9020315408706664,0.1231160312891006,277.4462280273437,1.177043914794922,95.10489654541016,24.67,1
-0.2462290227413177,-0.9315317273139954,0.1405843049287796,288.6180419921875,1.1768841743469238,95.06731414794922,24.67,1
-0.2307866811752319,-0.9728543162345886,0.1294033378362655,289.01641845703125,1.1767816543579102,95.04319763183594,24.67,1
-0.2264744490385055,-1.0609482526779177,0.0998369380831718,268.88720703125,1.176715850830078,95.02772521972656,24.67,1
-0.2349026501178741,-1.162264108657837,0.0752651467919349,228.83143615722656,1.1766736507415771,95.01779174804688,24.67,1
-0.2571047246456146,-1.165707230567932,0.0650941655039787,175.4971160888672,1.1766465902328491,95.01142120361328,24.67,1
-0.2825482785701751,-1.1343302726745603,0.0585670098662376,112.31584167480467,1.1766291856765747,95.00733184814452,24.67,1
-0.3100720345973968,-1.035825490951538,0.0599760338664054,38.430294036865234,1.176617980003357,95.00470733642578,24.67,1
-0.3613218367099762,-1.0677729845046997,0.0608802624046802,-43.51406478881836,1.176610827445984,95.00302124023438,24.67,1
-0.3830154538154602,-1.0826772451400757,0.0614605471491813,-121.30107879638672,1.1766061782836914,95.00193786621094,24.67,1
-0.3577527701854706,-1.103437423706055,0.0562351644039154,-178.70071411132812,1.1766031980514526,95.0012435913086,24.67,1
-0.3079539835453033,-1.1111624240875244,0.0752729102969169,-208.3677673339844,1.1766012907028198,95.00080108642578,24.67,1
-0.2200182378292083,-1.09372878074646,0.0986857935786247,-215.3724975585937,1.1766000986099243,95.0005111694336,24.67,1
-0.124401718378067,-1.026563048362732,0.1472974717617035,-208.553955078125,1.174763321876526,95.00032806396484,24.67,1
-0.0854316353797912,-0.961068868637085,0.1617003381252288,-194.4945068359375,1.1735845804214478,95.00021362304688,24.67,1
-0.0380317829549312,-0.8742563128471375,0.1821388155221939,-178.2100830078125,1.1728280782699585,95.00013732910156,24.67,1
-0.0747865810990333,-0.8017516732215881,0.1728639453649521,-162.28550720214844,1.1723426580429075,95.00009155273438,24.67,1
-0.1655469834804535,-0.7720156908035278,0.1445207744836807,-145.72845458984375,1.1720311641693115,95.00006103515624,24.67,1
-0.2517806589603424,-0.8201061487197876,0.092745117843151,-127.41130065917967,1.1718312501907349,95.00003814697266,24.67,1
-0.2791315913200378,-0.8733589053153992,0.065116249024868,-109.10387420654295,1.171702861785889,95.0000228881836,24.67,1
-0.2854883074760437,-0.9075334668159484,0.0753745064139366,-93.2961654663086,1.171620488166809,95.00001525878906,24.67,1
-0.283969908952713,-0.9238669872283936,0.093153215944767,-79.86646270751953,1.1706494092941284,90.96961212158205,24.67,1
-0.2773976922035217,-0.9567399621009828,0.1045625656843185,-66.95970916748047,1.1700263023376465,88.38313293457031,24.67,1
-0.3011689186096191,-0.9778359532356262,0.1118844300508499,-54.223758697509766,1.1696263551712036,86.72327423095703,24.67,1
-0.3500105738639831,-1.0025696754455566,0.1109854057431221,-43.20599365234375,1.1693696975708008,85.65807342529297,24.67,1
-0.4037454128265381,-1.0184423923492432,0.1104084625840187,-34.80270767211914,1.1692050695419312,84.97449493408203,24.67,1
-0.4662182331085205,-1.0174330472946167,0.1100382134318351,-28.10590362548828,1.1690993309020996,84.53581237792969,24.67,1
-0.5231029987335205,-0.9999919533729552,0.1265939325094223,-21.974000930786133,1.1690315008163452,84.25428771972656,24.67,1
-0.5540105700492859,-0.9887992739677428,0.1372184455394745,-16.43390655517578,1.1689879894256592,84.07362365722656,24.67,1
-0.5682474970817566,-0.9928120374679564,0.1440366506576538,-12.05459976196289,1.1694190502166748,83.95767974853516,24.69,1
-0.5605906248092651,-0.9897894263267516,0.1484121680259704,-8.803555488586426,1.1696956157684326,83.8832778930664,24.69,1
-0.5444813370704651,-0.971056342124939,0.1512201279401779,-6.140428066253662,1.1698731184005735,83.83553314208984,24.69,1
-0.506154477596283,-0.9086545705795288,0.1474243402481079,-3.81160044670105,1.1699869632720947,83.80489349365234,24.69,1
-0.4871562719345093,-0.8182287216186523,0.1281951069831848,-2.055565118789673,1.1700600385665894,83.78522491455078,24.69,1
-0.4861598610877991,-0.743405282497406,0.1158548891544342,-1.0325373411178589,1.1701070070266724,83.7726058959961,24.69,1
-0.5135092735290527,-0.6729968190193176,0.1135334223508834,-0.580223798751831,1.1701371669769287,83.7645034790039,24.69,1
-0.5366583466529846,-0.6222149729728699,0.1120436340570449,-0.4726663529872894,1.170156478881836,83.75930786132812,24.69,1
-0.5739051699638367,-0.5616372227668762,0.1334786713123321,-0.5541103482246399,1.1692509651184082,83.75597381591797,24.69,1
-0.6425902247428894,-0.5003708004951477,0.1584299951791763,-0.6851930618286133,1.1686699390411377,83.75382995605469,24.69,1
-0.7146572470664978,-0.4610535502433777,0.1632467657327652,-0.7764796018600464,1.1682970523834229,83.75245666503906,24.69,1
-0.811285674571991,-0.4526153206825256,0.1719356775283813,-0.7849059700965881,1.1680576801300049,83.75157928466797,24.69,1
-0.8676984310150146,-0.452797919511795,0.2055005878210067,-0.6004370450973511,1.1679041385650637,83.75101470947266,24.69,1
-0.9039009213447572,-0.508892834186554,0.2382361590862274,-0.1847016811370849,1.167805552482605,83.75064849853516,24.69,1
-0.9719157814979552,-0.5952712893486023,0.2592439651489258,0.2683872878551483,1.1677422523498535,83.75041961669922,24.69,1
-0.9875749349594116,-0.6674973368644714,0.2727255821228027,0.5412407517433167,1.1677017211914062,83.7502670288086,24.69,1
-0.9808307886123656,-0.6970545649528503,0.275779515504837,0.659021258354187,1.167216420173645,83.75016784667969,24.69,1
-0.9653072357177734,-0.7160226702690125,0.2665438055992126,0.6951976418495178,1.1669049263000488,83.75010681152344,24.69,1
-0.9049651026725768,-0.7058042287826538,0.2494213134050369,0.593023419380188,1.1667050123214722,83.75006866455078,24.69,1
-0.8270565867424011,-0.7048443555831909,0.2328353077173233,0.4020637571811676,1.1665767431259155,83.75004577636719,24.69,1
-0.7546682953834534,-0.704228401184082,0.2165935933589935,0.2974297106266022,1.1664944887161257,83.75003051757812,24.69,1
-0.7250069975852966,-0.7150286436080933,0.2061705887317657,0.2553596198558807,1.1664416790008545,83.7500228881836,24.69,1
-0.7003743052482605,-0.7331551909446716,0.193883940577507,0.0456501059234142,1.166407823562622,83.75001525878906,24.69,1
-0.6565775871276855,-0.7391899824142456,0.1804012954235077,-0.3827005922794342,1.1663860082626345,83.75000762939453,24.69,1
-0.6004824638366699,-0.7206716537475586,0.1773466914892196,-0.7829815745353699,1.1659131050109863,81.3317642211914,24.69,1
-0.5532883405685425,-0.7087876796722412,0.1809841841459274,-0.9252164363861084,1.16560959815979,79.77987670898438,24.69,1
-0.511806309223175,-0.6843678951263428,0.1889162957668304,-0.9233475923538208,1.165414810180664,78.78396606445312,24.69,1
-0.4851855039596557,-0.6742944717407227,0.1884088963270187,-1.0188778638839722,1.1652898788452148,78.14484405517578,24.69,1
-0.4625040292739868,-0.6678299307823181,0.1880832761526107,-1.1518352031707764,1.1652096509933472,77.73469543457031,24.69,1
-0.4423505961894989,-0.6804746389389038,0.199069857597351,-1.1332648992538452,1.1651581525802612,77.47148895263672,24.69,1
-0.4238195121288299,-0.7277737259864807,0.2117181867361068,-1.0389482975006104,1.1651251316070557,77.30257415771484,24.69,1
-0.3839384615421295,-0.830898642539978,0.2254329323768615,-0.9820038676261902,1.1651039123535156,77.19417572021484,24.69,1
-0.3415517807006836,-0.897078275680542,0.2398320436477661,-0.8666435480117798,1.1627949476242063,77.1246109008789,24.69,1
-0.3031548857688904,-0.9451463222503662,0.2490725666284561,-0.5812399983406067,1.1613131761550903,77.07997131347656,24.69,1
-0.2897095084190368,-1.0431668758392334,0.2326115071773529,-0.1473040878772735,1.1603622436523438,77.05132293701172,24.69,1
-0.2978743612766266,-1.0948753356933594,0.222047746181488,0.3174648880958557,1.1597520112991333,77.0329360961914,24.69,1
-0.3367007672786712,-0.9881144762039183,0.2152685225009918,0.6300572156906128,1.159360408782959,77.02113342285156,24.69,1
-0.3728128671646118,-0.8580259680747986,0.2053202390670776,0.7303488254547119,1.159109115600586,77.01356506347656,24.69,1
-0.418378621339798,-0.841715931892395,0.1709471344947815,0.8305359482765198,1.1589478254318235,77.00870513916016,24.69,1
-0.4700112044811249,-0.976791262626648,0.1208995804190635,1.0954545736312866,1.1588443517684937,77.00558471679688,24.69,1
-0.4751571416854858,-1.080268144607544,0.0719886124134063,1.4087671041488647,1.159696102142334,77.00358581542969,24.69,1
-0.3721017837524414,-1.090695858001709,0.0629914700984954,1.5955027341842651,1.160242795944214,77.00230407714844,24.69,1
-0.2835757136344909,-1.0749967098236084,0.0852064937353134,1.632939696311951,1.1605936288833618,77.00148010253906,24.69,1
-0.2379603087902069,-1.0201396942138672,0.1442450135946273,1.4921660423278809,1.1608186960220337,77.00094604492188,24.69,1
-0.2702624797821045,-0.9793378710746764,0.1709369868040084,1.0865590572357178,1.1609631776809692,77.0006103515625,24.69,1
-0.3189810514450073,-0.9531536102294922,0.1768708080053329,0.5038319826126099,1.1610559225082395,77.0003890991211,24.69,1
-0.3838324546813965,-0.9307522773742676,0.1750810146331787,-0.0134317213669419,1.1611154079437256,77.00025177001953,24.69,1
-0.4310481250286102,-0.9275719523429872,0.1739324331283569,-0.32388636469841,1.1611535549163818,77.00016021728516,24.69,1
-0.4389573335647583,-0.925530970096588,0.1843908876180648,-0.3941455483436584,1.1593420505523682,77.0000991821289,24.69,1
-0.416044145822525,-0.9522100687026978,0.2078958451747894,-0.2744353711605072,1.158179521560669,77.00006103515625,24.69,1
-0.3957419991493225,-0.9749289751052856,0.2285777479410171,-0.2191077321767807,1.1574335098266602,77.00003814697266,24.69,1
-0.3883110284805298,-1.011899709701538,0.2250568866729736,-0.3949735760688782,1.1569547653198242,77.0000228881836,24.69,1
-0.3891400396823883,-1.0636142492294312,0.2060040682554245,-0.5185819268226624,1.1566474437713623,77.00001525878906,24.69,1
-0.3784765005111694,-1.186366081237793,0.1545926481485366,-0.2539793848991394,1.156450271606445,77.00000762939453,24.69,1
-0.3660354614257812,-1.2091634273529053,0.0824153423309326,0.2382591068744659,1.1563236713409424,77.00000762939453,24.69,1
-0.352453738451004,-1.240586757659912,0.0249005500227212,0.6795396208763123,1.1562424898147583,77.00000762939453,24.69,1
-0.3549333214759826,-1.187981367111206,-0.0344002321362495,1.1096136569976809,1.154813289642334,75.26962280273438,24.69,1
-0.3733178973197937,-1.131831169128418,-0.0948471575975418,1.4644269943237305,1.1538960933685305,74.1591567993164,24.69,1
-0.4075071811676025,-1.140579342842102,-0.156029611825943,1.4126849174499512,1.1533074378967283,73.44652557373047,24.69,1
-0.4238501191139221,-1.2077690362930298,-0.2120863050222396,0.9961442351341248,1.152929663658142,72.98919677734375,24.69,1
-0.4063491821289062,-1.2564852237701416,-0.2480602711439132,0.7359975576400757,1.1526873111724854,72.69570922851562,24.69,1
-0.3335425853729248,-1.2317707538604736,-0.2655485272407532,0.8592390418052673,1.1525317430496216,72.50736999511719,24.69,1
-0.2644284069538116,-1.2047148942947388,-0.2711736857891083,1.1031267642974854,1.152431845664978,72.38650512695312,24.69,1
-0.2032815814018249,-1.1985474824905396,-0.2523925006389618,1.2345619201660156,1.1523678302764893,72.3089370727539,24.69,1
-0.1752366125583648,-1.1777963638305664,-0.223546490073204,1.2472578287124634,1.1541627645492554,72.25916290283203,24.67,1
-0.1684345155954361,-1.170077204704285,-0.1994370073080063,1.1407629251480105,1.1553146839141846,72.22721862792969,24.67,1
-0.1696670949459076,-1.1875145435333252,-0.1727693825960159,0.8682138323783875,1.156053900718689,72.20671844482422,24.67,1
-0.1760558634996414,-1.1763137578964231,-0.1500578671693802,0.4425272345542907,1.1565282344818115,72.19356536865234,24.67,1
-0.1745580434799194,-1.16912579536438,-0.1298851519823074,0.0296256449073553,1.1568326950073242,72.18511962890625,24.67,1
-0.1847923696041107,-1.175708532333374,-0.1169394627213478,-0.2066902369260788,1.157028079032898,72.17970275878906,24.67,1
-0.1913601756095886,-1.1743351221084597,-0.0918383374810218,-0.2759449183940887,1.1571533679962158,72.17622375488281,24.67,1
-0.195575013756752,-1.167855978012085,-0.0645343363285064,-0.2093287408351898,1.1572338342666626,72.17399597167969,24.67,1
-0.198279857635498,-1.146904706954956,-0.0414144210517406,0.148688331246376,1.155449390411377,72.17256164550781,24.67,1
-0.2168089896440506,-1.0047105550765991,0.012607030570507,0.8262650370597839,1.154304265975952,72.17164611816406,24.67,1
-0.2454932481050491,-0.8462852835655212,0.0920570790767669,1.4939621686935425,1.1535693407058716,72.17105865478516,24.67,1
-0.2862922549247741,-0.6886393427848816,0.165434643626213,1.836470007896424,1.1530977487564087,72.1706771850586,24.67,1
-0.2900836169719696,-0.7442089319229126,0.1845352798700332,1.834152102470398,1.1527950763702393,72.1704330444336,24.67,1
-0.2645277976989746,-0.8358480334281921,0.1911951899528503,1.5138154029846191,1.152600884437561,72.17028045654297,24.67,1
-0.225736454129219,-0.9114500284194946,0.2066646814346313,0.8819152116775513,1.1524763107299805,72.17018127441406,24.67,1
-0.200842410326004,-0.959967076778412,0.2277876585721969,0.1396359354257583,1.152396321296692,72.17011260986328,24.67,1
-0.1848668456077575,-0.9967002868652344,0.2525387108325958,-0.4262805879116058,1.1500495672225952,72.17007446289062,24.67,1
-0.1970057487487793,-1.0202735662460327,0.2852158546447754,-0.7070540189743042,1.1485435962677002,72.1700439453125,24.67,1
-0.2159913331270218,-1.0409992933273315,0.30618616938591,-0.7439351677894592,1.147577166557312,72.17002868652344,24.67,1
-0.250566303730011,-1.0487021207809448,0.3084481358528137,-0.6278829574584961,1.1469569206237793,72.1700210571289,24.67,1
-0.2839500606060028,-1.0312541723251345,0.2875086367130279,-0.4566777646541595,1.1465588808059692,72.17001342773438,24.67,1
-0.322167158126831,-0.99766606092453,0.2740708887577057,-0.3073998093605041,1.1463035345077517,72.17000579833984,24.67,1
-0.3746815621852875,-0.9537200331687928,0.2654473185539245,-0.2008540779352188,1.1461396217346191,72.17000579833984,24.67,1
-0.4083822965621948,-0.9255179762840272,0.254315435886383,-0.0823231115937233,1.1460344791412354,72.17000579833984,24.67,1
-0.4132161736488342,-0.9242128729820251,0.2247805297374725,0.1979500651359558,1.1468851566314695,70.93043518066406,24.67,1
-0.4051227271556854,-0.9625597596168518,0.1946311742067337,0.7432359457015991,1.1474311351776123,70.13494873046875,24.67,1
-0.4055265784263611,-1.0319507122039795,0.1696852743625641,1.437096357345581,1.147781491279602,69.62445068359375,24.67,1
-0.4057857394218445,-1.1380573511123655,0.1368831098079681,2.054339647293091,1.1480063199996948,69.29684448242188,24.67,1
-0.411549836397171,-1.2005527019500732,0.0934414714574813,2.461198568344116,1.1481505632400513,69.08660125732422,24.67,1
-0.4040533602237701,-1.218267560005188,0.0375742614269256,2.6828887462615967,1.1482431888580322,68.9516830444336,24.67,1
-0.3880470097064972,-1.072898268699646,-0.0150714227929711,2.7642531394958496,1.1483025550842283,68.86509704589844,24.67,1
-0.3777750432491302,-0.9964019656181335,-0.0600519403815269,2.5477750301361084,1.1483407020568848,68.80953216552734,24.67,1
-0.3767808675765991,-0.969702124595642,-0.0945156216621398,1.7532403469085691,1.148365139961243,68.77387237548828,24.67,1
-0.3985339701175689,-0.95256769657135,-0.1166324317455291,0.4050310254096985,1.1483808755874634,68.75099182128906,24.67,1
-0.4180916249752044,-0.9303762316703796,-0.1252279579639434,-1.1086182594299316,1.1483910083770752,68.7363052368164,24.67,1
-0.4194470345973968,-0.9049395322799684,-0.12514628469944,-2.409588098526001,1.148397445678711,68.72688293457031,24.67,1
-0.3755346834659576,-0.883017897605896,-0.113898329436779,-3.312544584274292,1.1484016180038452,68.72083282470703,24.67,1
-0.3305609226226806,-0.8633521199226379,-0.1066800355911254,-3.745124578475952,1.148404240608215,68.71694946289062,24.67,1
-0.3072971403598785,-0.8563295006752014,-0.102047748863697,-3.804192543029785,1.148405909538269,68.71446228027344,24.67,1
-0.2979655563831329,-0.8742138743400574,-0.0990750193595886,-3.731039047241211,1.148406982421875,68.71286010742188,24.67,1
-0.2863793075084686,-0.908082127571106,-0.0971672907471656,-3.6840932369232178,1.1456533670425415,68.71183776855469,24.67,1
-0.2733461558818817,-0.9578057527542114,-0.1015407964587211,-3.621722936630249,1.1438863277435305,68.711181640625,24.67,1
-0.2481888979673385,-1.028899908065796,-0.0931519120931625,-3.474220037460327,1.1427522897720337,68.71075439453125,24.67,1
-0.215251088142395,-1.068926215171814,-0.0765728577971458,-3.261336326599121,1.1420245170593262,68.71048736572266,24.67,1
-0.1885157227516174,-1.0666239261627195,-0.0491400510072708,-3.020824909210205,1.1415574550628662,68.71031188964844,24.67,1
-0.1825540512800216,-1.070744276046753,-0.0427308045327663,-2.7375059127807617,1.1412577629089355,68.71019744873047,24.67,1
-0.2179126143455505,-1.2133328914642334,-0.0778021365404129,-2.3837244510650635,1.14106547832489,68.71012878417969,24.67,1
-0.3189725577831268,-1.075329303741455,-0.0275378357619047,-2.016967535018921,1.140942096710205,68.7100830078125,24.67,1
-0.3894247710704803,-0.8748109936714172,0.0327077731490135,-1.7995167970657349,1.1417807340621948,68.71005249023438,24.67,1
-0.4178436398506164,-0.7741187810897827,0.060174386948347,-1.810437679290772,1.1423189640045166,68.71002960205078,24.67,1
-0.4248856902122497,-0.8214557766914368,0.0442142337560653,-1.8819323778152464,1.1426643133163452,68.71002197265625,24.67,1
-0.3566337823867798,-0.9190072417259216,0.0283741503953933,-1.7809280157089231,1.14288592338562,68.71001434326172,24.67,1
-0.2736492156982422,-0.9032413363456726,0.0517955422401428,-1.5190675258636477,1.1430281400680542,68.71000671386719,24.67,1
-0.2203945070505142,-0.9099169969558716,0.0836193636059761,-1.196969747543335,1.14311945438385,68.71000671386719,24.67,1
-0.2421964406967163,-0.9030054807662964,0.1208353862166404,-0.6929121613502502,1.143178105354309,68.71000671386719,24.67,1
-0.2953720986843109,-0.909765601158142,0.133522942662239,0.1858621388673782,1.1432156562805176,68.71000671386719,24.67,1
-0.3686815798282623,-0.8973105549812317,0.1136762127280235,1.3660119771957395,1.1414036750793457,67.78211975097656,24.67,1
-0.4101296365261078,-0.8725243210792542,0.0897441729903221,2.603429317474365,1.1402409076690674,67.18665313720703,24.67,1
-0.4367285966873169,-0.8566179275512695,0.0855815187096595,3.795198440551758,1.1394946575164795,66.80451965332031,24.67,1
-0.4649938344955444,-0.8352145552635193,0.1108990386128425,4.907516956329346,1.139015793800354,66.55928802490234,24.67,1
-0.4831328392028808,-0.8102835416793823,0.1327441334724426,5.721651077270508,1.138708472251892,66.40190887451172,24.67,1
-0.4891756176948547,-0.7718932032585144,0.1411652863025665,5.932431697845459,1.138511300086975,66.30091094970703,24.67,1
-0.493053525686264,-0.7584519982337952,0.1465695053339004,5.555390357971191,1.1383846998214722,66.23609924316406,24.67,1
-0.4955421388149261,-0.7890106439590454,0.1500376164913177,4.955169200897217,1.138303518295288,66.19450378417969,24.67,1
-0.4859436452388763,-0.8925880193710327,0.141067698597908,4.40876579284668,1.1368741989135742,66.16781616210938,24.67,1
-0.4741861224174499,-0.9926446676254272,0.129713550209999,3.975716352462769,1.1359570026397705,66.15068817138672,24.67,1
-0.455445259809494,-1.096039652824402,0.1280248910188675,3.8339478969573975,1.1353683471679688,66.13969421386719,24.67,1
-0.4490162432193756,-1.1344038248062134,0.1493322998285293,4.108391761779785,1.1349905729293823,66.13263702392578,24.67,1
-0.4616837799549103,-1.1310348510742188,0.1574083864688873,4.438564777374268,1.1347482204437256,66.12811279296875,24.67,1
-0.4810086190700531,-1.0505039691925049,0.1290045082569122,4.31010627746582,1.1345926523208618,66.12520599365234,24.67,1
-0.5158013105392456,-0.998823881149292,0.0995809882879257,3.597135543823242,1.1344927549362185,66.12334442138672,24.67,1
-0.5717158913612366,-0.9656586050987244,0.0806986689567565,2.415911674499512,1.1344287395477295,66.12214660644531,24.67,1
-0.5852075815200806,-0.9443750381469728,0.0853744074702262,0.8231303095817566,1.134846568107605,66.12137603759766,24.67,1
-0.5602790713310242,-0.9363142251968384,0.0939728021621704,-1.0194350481033323,1.135114669799805,66.12088775634766,24.67,1
-0.4659125804901123,-0.8975546360015869,0.1274796277284622,-2.717778444290161,1.1352866888046265,66.12056732177734,24.67,1
-0.3773647248744964,-0.8390942811965942,0.1657757014036178,-3.83633804321289,1.1353970766067505,66.120361328125,24.67,1
-0.3037464916706085,-0.7511978149414062,0.2071452438831329,-4.256811618804932,1.1354680061340332,66.12023162841797,24.67,1
-0.3068825006484985,-0.6891931891441345,0.2336938381195068,-4.343935489654541,1.1355135440826416,66.12014770507812,24.67,1
-0.3312861025333404,-0.6494021415710449,0.2395356446504593,-4.503741264343262,1.1355427503585815,66.1200942993164,24.67,1
-0.3861313462257385,-0.6406598687171936,0.2264912575483322,-4.606295585632324,1.135561466217041,66.12006378173828,24.67,1
-0.4157300889492035,-0.6630384922027588,0.212522342801094,-4.303103923797607,1.1337374448776243,66.12004089355469,24.67,1
-0.4123337864875793,-0.7221819758415222,0.2147534489631652,-3.728779792785645,1.1325669288635254,66.12002563476562,24.67,1
-0.398958683013916,-0.8217123746871948,0.2385763376951217,-3.2384040355682373,1.1318156719207764,66.1200180053711,24.67,1
-0.3791797459125519,-0.9247696995735168,0.2594622671604156,-2.8162319660186768,1.131333589553833,66.12001037597656,24.67,1
-0.3329001367092132,-0.9909059405326844,0.2560723423957824,-2.290943384170532,1.1310242414474487,66.12001037597656,24.67,1
-0.3087983131408691,-1.0557395219802856,0.2427013367414474,-1.7782970666885376,1.1308256387710571,66.12001037597656,24.67,1
-0.3213200271129608,-1.1813125610351562,0.2005339413881302,-1.477970838546753,1.1306982040405271,66.12001037597656,24.67,1
-0.4133223593235016,-1.1499426364898682,0.2238533049821853,-1.3425599336624146,1.1306164264678955,66.12001037597656,24.67,1
-0.4667663872241974,-1.057040095329285,0.2388183325529098,-1.241330623626709,1.1301050186157229,65.39990997314453,24.67,1
-0.4114992916584015,-1.0981805324554443,0.1812487244606018,-1.1799501180648804,1.1297768354415894,64.93778991699219,24.67,1
-0.3536409437656402,-1.1637665033340454,0.1331083178520202,-1.2444543838500977,1.1295661926269531,64.64122772216797,24.67,1
-0.3109130263328552,-1.1946603059768677,0.13580122590065,-1.4004918336868286,1.1294310092926023,64.45091247558594,24.67,1
-0.277894914150238,-1.119323968887329,0.1431271582841873,-1.4791322946548462,1.1293443441390991,64.32878112792969,24.67,1
-0.2511080205440521,-1.0317931175231934,0.136632964015007,-1.2895666360855105,1.129288673400879,64.25040435791016,24.67,1
-0.261906623840332,-0.9364363551139832,0.1100742667913436,-0.7380052208900452,1.1292529106140137,64.20010375976562,24.67,1
-0.291227638721466,-0.8752418756484985,0.0818348750472068,-0.0042919055558741,1.12923002243042,64.1678237915039,24.67,1
-0.3548263609409332,-0.8415685892105103,0.0469191372394561,0.5382146239280701,1.1296743154525757,64.14710998535156,24.69,1
-0.4012381434440613,-0.8311545252799988,0.0133166778832674,0.7430610656738281,1.1299593448638916,64.1338119506836,24.69,1
-0.4310225546360016,-0.8244714140892029,-0.0082474453374743,0.7383818626403809,1.130142331123352,64.12528228759766,24.69,1
-0.4669297933578491,-0.808987021446228,-0.0220860578119754,0.5634153485298157,1.1302597522735596,64.11980438232422,24.69,1
-0.4955707788467407,-0.8046478033065796,-0.0309668835252523,0.164525881409645,1.1303350925445557,64.11629486083984,24.69,1
-0.5475375652313232,-0.8018631339073181,-0.0422638617455959,-0.3135780990123749,1.1303834915161133,64.1140365600586,24.69,1
-0.5976801514625549,-0.8280649781227112,-0.0551113858819007,-0.6956318020820618,1.1304144859313965,64.11258697509766,24.69,1
-0.6242610216140747,-0.86167311668396,-0.0689539611339569,-0.9802201986312866,1.1304343938827517,64.11166381835938,24.69,1
-0.6693079471588135,-0.9000342488288879,-0.0778373330831527,-1.0625405311584473,1.1290700435638428,64.11106872558594,24.69,1
-0.7094120383262634,-0.8966633081436157,-0.0667448416352272,-0.5493220686912537,1.1281944513320925,64.11068725585938,24.69,1
-0.712757408618927,-0.8161311745643616,0.0075469696894288,0.7365797162055969,1.12763249874115,64.11044311523438,24.69,1
-0.7149043083190918,-0.8540146946907043,0.0608209520578384,2.224573850631714,1.1272718906402588,64.11028289794922,24.69,1
-0.6994887590408325,-0.9399017095565796,0.1118024513125419,2.9537806510925293,1.1270405054092407,64.11018371582031,24.69,1
-0.6448137164115906,-0.9782257080078124,0.2004971802234649,2.529682159423828,1.1268919706344604,64.11011505126953,24.69,1
-0.5537486672401428,-0.969233214855194,0.2742096781730652,1.3977020978927612,1.1267967224121094,64.11007690429688,24.69,1
-0.4393306374549866,-0.8906912803649902,0.3662963211536407,0.2377708256244659,1.1267355680465698,64.11004638671875,24.69,1
-0.4050881564617157,-0.8402875661849976,0.4421855509281158,-0.5782577991485596,1.1253191232681274,64.11003112792969,24.69,1
-0.383113294839859,-0.8303324580192566,0.4796913266181946,-0.9478872418403624,1.1244101524353027,64.11002349853516,24.69,1
-0.3466199934482574,-0.8631282448768616,0.4645759761333465,-0.8411668539047241,1.1238268613815308,64.11001586914062,24.69,1
-0.3008095920085907,-0.878576934337616,0.4492780268192291,-0.4824912548065185,1.1234525442123413,64.1100082397461,24.69,1
-0.2490200251340866,-0.849306583404541,0.4226673543453216,-0.4206949472427368,1.1232123374938965,64.1100082397461,24.69,1
-0.2157844603061676,-0.8305225968360901,0.37760129570961,-0.8933459520339966,1.123058199882507,64.1100082397461,24.69,1
-0.2000535577535629,-0.8184680938720703,0.3262893855571747,-1.504767656326294,1.1229592561721802,64.1100082397461,24.69,1
-0.1955561488866806,-0.8443188667297363,0.231784850358963,-1.9580466747283936,1.1228957176208496,64.1100082397461,24.69,1
-0.1870722025632858,-0.8944950103759766,0.1431484073400497,-2.327751874923706,1.1228549480438232,63.92729187011719,24.69,1
-0.1984210163354873,-0.9770751595497132,0.047082208096981,-2.357218027114868,1.1228288412094116,63.810035705566406,24.69,1
-0.2448884546756744,-1.0580592155456543,-0.0201653204858303,-1.5413874387741089,1.122812032699585,63.73478698730469,24.69,1
-0.2915019094944,-1.1604100465774536,-0.0689186826348304,-0.0577040649950504,1.1228013038635254,63.68649673461914,24.69,1
-0.3661979138851166,-1.1869086027145386,-0.1114013344049453,1.4067468643188477,1.1227943897247314,63.65550994873047,24.69,1
-0.408535748720169,-1.0919582843780518,-0.0994798392057418,2.5579190254211426,1.122789978981018,63.635623931884766,24.69,1
-0.3965213000774383,-0.9470580220222472,-0.0246560145169496,3.5295424461364746,1.1227871179580688,63.622859954833984,24.69,1
-0.3608222603797912,-0.97162264585495,0.0177638344466686,4.310708045959473,1.1227853298187256,63.61466979980469,24.69,1
-0.3491082191467285,-1.0377668142318726,0.0169975813478231,4.77618932723999,1.120948076248169,63.609413146972656,24.69,1
-0.3359930515289306,-1.0578231811523438,-0.0058852545917034,4.978178977966309,1.1197689771652222,63.60604095458984,24.69,1
-0.2939898371696472,-1.0259120464324951,-0.0149723663926124,5.011074542999268,1.1190123558044434,63.60387802124024,24.69,1
-0.2670345902442932,-0.9774444103240968,-0.0096084028482437,4.699005603790283,1.118526816368103,63.60248947143555,24.69,1
-0.2665295898914337,-0.9743295907974244,-0.0117638939991593,3.8431262969970703,1.1182152032852173,63.60159683227539,24.69,1
-0.2774010598659515,-0.9779284596443176,-0.0243427138775587,2.5916874408721924,1.118015170097351,63.60102462768555,24.69,1
-0.2899755239486694,-0.9802379608154296,-0.0604039467871189,1.2261215448379517,1.1178867816925049,63.60065841674805,24.69,1
-0.3036428689956665,-0.998513400554657,-0.1003392934799194,-0.1052071452140808,1.1178044080734253,63.60042190551758,24.69,1
-0.3292070925235748,-0.9822526574134828,-0.1259675025939941,-1.2354354858398438,1.1177515983581543,63.60026931762695,24.69,1
-0.3624060750007629,-0.9550241231918336,-0.1312186568975448,-1.9750813245773315,1.117717742919922,63.60017395019531,24.69,1
-0.3893090486526489,-0.965539276599884,-0.1233929991722107,-2.3601789474487305,1.117695927619934,63.60011291503906,24.69,1
-0.3897804915904999,-0.9946784377098083,-0.1015776246786117,-2.592982292175293,1.1176819801330566,63.60007095336914,24.69,1
-0.3732897341251373,-1.024573802947998,-0.0875777676701545,-2.778207778930664,1.1176730394363403,63.60004425048828,24.69,1
-0.3515113592147827,-1.0605522394180298,-0.0506045967340469,-2.882744550704956,1.117667317390442,63.60002899169922,24.69,1
-0.3655241131782532,-0.98847895860672,0.0346981771290302,-2.8996741771698,1.1176636219024658,63.60001754760742,24.69,1
-0.3745166957378387,-0.8806509971618652,0.1174294576048851,-2.9642772674560547,1.1176612377166748,63.60000991821289,24.69,1
-0.3467009663581848,-0.8394420742988586,0.1705216318368911,-3.249351024627685,1.1158232688903809,63.600006103515625,24.69,1
-0.3176548779010772,-0.947343111038208,0.1877998113632202,-3.650831937789917,1.1146438121795654,63.60000228881836,24.69,1
-0.2150481641292572,-1.128543257713318,0.2100834995508194,-3.672029256820679,1.113886833190918,63.60000228881836,24.69,1
-0.1492010802030563,-1.0936871767044067,0.3083505034446716,-2.7935712337493896,1.1134010553359983,63.60000228881836,24.69,1
-0.0789553448557853,-1.060123085975647,0.4049992561340332,-1.008169174194336,1.1130893230438232,63.60000228881836,24.69,1
-0.0114845717325806,-1.0161924362182615,0.4726206362247467,1.183711290359497,1.112889289855957,63.60000228881836,24.69,1
0.0542053841054439,-0.9880002737045288,0.5048205852508545,3.317596673965454,1.1127609014511108,63.60000228881836,24.69,1
0.1019591838121414,-1.0034948587417605,0.4807024896144867,5.04884147644043,1.1126785278320312,63.60000228881836,24.69,1
0.1158115044236183,-0.9686561822891236,0.4316382110118866,6.002221584320068,1.1103307008743286,64.55654907226562,24.69,1
0.1079078018665313,-0.9351031184196472,0.3833582699298858,6.116068363189697,1.1088240146636963,65.17040252685547,24.69,1
0.0972378849983215,-0.9303640723228456,0.3131905496120453,5.898940086364746,1.10785710811615,65.56433868408203,24.69,1
0.0847927778959274,-0.9329205751419068,0.2457698583602905,5.7667646408081055,1.107236623764038,65.81714630126953,24.69,1
0.0824039950966835,-0.9345611929893494,0.1465253978967666,5.517143726348877,1.106838345527649,65.97938537597656,24.69,1
0.0696754604578018,-0.9747984409332277,0.0828360170125961,4.798069477081299,1.106582760810852,66.08349609375,24.69,1
0.0391159243881702,-1.028609275817871,0.0531593859195709,3.680997371673584,1.1064187288284302,66.15031433105469,24.69,1
0.03070012293756,-1.107924222946167,0.0285168588161468,2.5019726753234863,1.1063134670257568,66.19319152832031,24.69,1
0.0197015721350908,-1.2203994989395142,-0.0152861680835485,1.4372409582138062,1.1094591617584229,66.22071075439453,24.67,1
-0.054529957473278,-1.2813841104507446,-0.0377986542880535,0.4530210793018341,1.1114778518676758,66.23836517333984,24.67,1
-0.1077652499079704,-1.085413932800293,0.0261229705065488,-0.4902786314487457,1.112773299217224,66.24969482421875,24.67,1
-0.1195375025272369,-0.9036738276481628,0.0783397331833839,-1.392987847328186,1.1136046648025513,66.25696563720703,24.67,1
-0.1270922571420669,-0.9381834268569946,0.1398383229970932,-2.147840976715088,1.1141382455825806,66.26163482666016,24.67,1
-0.1487337946891784,-1.0386985540390017,0.1960978955030441,-2.4459681510925293,1.1144806146621704,66.26463317871094,24.67,1
-0.1178398877382278,-1.0080411434173584,0.2266042828559875,-2.0497467517852783,1.1147003173828125,66.26655578613281,24.67,1
-0.1092095002532005,-0.9099981784820556,0.2461815178394317,-1.1900193691253662,1.114841341972351,66.26779174804688,24.67,1
-0.1148665696382522,-0.847079873085022,0.2587450742721557,-0.4520018100738525,1.1117186546325684,66.26858520507812,24.67,1
-0.1464858204126358,-0.8570824861526489,0.2500143051147461,-0.2076694965362548,1.1097146272659302,66.26908874511719,24.67,1
-0.1779727786779403,-0.8690993189811707,0.2332158535718917,-0.2586604654788971,1.1084285974502563,66.26941680908203,24.67,1
-0.2037770748138427,-0.8656154870986938,0.2000444829463958,-0.1767411231994629,1.1076033115386963,66.26962280273438,24.67,1
-0.2483256608247757,-0.8745753169059753,0.1731592267751693,0.037045881152153,1.1070736646652222,66.26976013183594,24.67,1
-0.2937076985836029,-0.8691297173500061,0.1615035980939865,-0.0514601729810237,1.106733798980713,66.26984405517578,24.67,1
-0.3396246135234833,-0.8208528161048889,0.1764147728681564,-0.6958006620407104,1.106515645980835,66.2698974609375,24.67,1
-0.3914825320243835,-0.8122625946998596,0.1971794664859771,-1.7255042791366575,1.1063756942749023,66.26993560791016,24.67,1
-0.4415552914142608,-0.9243031144142152,0.2384939193725586,-2.798304796218872,1.1062859296798706,66.26995849609375,24.67,1
-0.4401024580001831,-1.0689753293991089,0.2706049382686615,-3.5978264808654785,1.106228232383728,66.26997375488281,24.67,1
-0.4223767817020416,-1.1618176698684692,0.3080052733421325,-3.949697494506836,1.1061912775039673,66.26998138427734,24.67,1
-0.4277947843074798,-1.1206386089324951,0.3432022035121918,-3.913980007171631,1.106167554855347,66.26998901367188,24.67,1
-0.4704561829566955,-1.1277989149093628,0.3713873326778412,-3.686851978302002,1.1061522960662842,66.26998901367188,24.67,1
-0.4922360181808471,-1.059622883796692,0.4286593496799469,-3.433616876602173,1.106142520904541,66.26998901367188,24.67,1
-0.4950175285339355,-1.0158714056015017,0.4542176723480224,-3.2424445152282715,1.1061362028121948,66.26998901367188,24.67,1
-0.4856069982051849,-1.0101853609085083,0.4538262188434601,-2.9800407886505127,1.10613214969635,66.26998901367188,24.67,1
-0.4347856640815735,-1.0457208156585691,0.4367816746234894,-2.3279974460601807,1.1065884828567505,67.06890869140625,24.67,1
-0.3797803521156311,-1.0909165143966677,0.4146479368209839,-1.0819785594940186,1.1068813800811768,67.58161163330078,24.67,1
-0.3108944594860077,-1.0751383304595947,0.4004437625408172,0.5846279263496399,1.1070693731307983,67.91062927246094,24.67,1
-0.2610896825790405,-1.0202305316925049,0.3857305645942688,2.205876588821411,1.1071900129318235,68.12177276611328,24.67,1
-0.2235300689935684,-0.9682006239891052,0.3706907033920288,3.2928740978240967,1.1072673797607422,68.25727844238281,24.67,1
-0.1994264721870422,-0.8956263661384583,0.3498434424400329,3.628606557846069,1.1073170900344849,68.34423828125,24.67,1
-0.1839581727981567,-0.8378568291664124,0.3308671116828918,3.4714725017547607,1.107348918914795,68.40003967285156,24.67,1
-0.168433740735054,-0.8007836937904358,0.3018958568572998,3.227329730987549,1.1073694229125977,68.43585205078125,24.67,1
-0.1528732776641845,-0.7881878018379211,0.2721082270145416,2.963175773620605,1.105546474456787,68.45883178710938,24.65,1
-0.142887458205223,-0.7857022881507874,0.2473944574594497,2.485555410385132,1.1043765544891355,68.47357940673828,24.65,1
-0.1420769095420837,-0.8176938891410828,0.2147412598133087,1.6882333755493164,1.103625774383545,68.48304748535156,24.65,1
-0.1471545249223709,-0.8438220024108887,0.1881885528564453,0.5818504095077515,1.1031439304351809,68.48912048339844,24.65,1
-0.1728041470050811,-0.8381984233856201,0.1711485534906387,-0.6762965321540833,1.1028348207473757,68.4930191040039,24.65,1
-0.1948623657226562,-0.8961650729179382,0.143419936299324,-1.734483242034912,1.102636456489563,68.49552154541016,24.65,1
-0.2258113920688629,-0.9669513702392578,0.1200275346636772,-2.3490800857543945,1.1025091409683228,68.49712371826172,24.65,1
-0.2792593538761139,-0.9396068453788756,0.1497978270053863,-2.6969194412231445,1.102427363395691,68.49815368652344,24.65,1
-0.3303524851799011,-0.8604832291603088,0.2192826569080352,-3.0240373611450195,1.1005384922027588,68.49881744384766,24.65,1
-0.4191188514232635,-0.7873151302337646,0.3422428667545318,-3.241128206253052,1.0993263721466064,68.4992446899414,24.65,1
-0.397715151309967,-0.8691088557243347,0.4043583273887634,-3.1224989891052246,1.098548412322998,68.49951171875,24.65,1
-0.322403997182846,-0.9607837796211244,0.4386226832866668,-2.655869007110596,1.0980491638183594,68.49968719482422,24.65,1
-0.2348891943693161,-1.0028221607208252,0.4718071222305298,-2.0160679817199707,1.0977288484573364,68.49980163574219,24.65,1
-0.2067161053419113,-1.018604397773743,0.4875051975250244,-1.4012736082077026,1.097523212432861,68.49987030029297,24.65,1
-0.2446139901876449,-1.0399280786514282,0.4975793361663818,-0.9350824952125548,1.0973912477493286,68.49991607666016,24.65,1
-0.2913257777690887,-1.059210181236267,0.4872510135173797,-0.5964995622634888,1.0973066091537476,68.49994659423828,24.65,1
-0.3157049119472503,-1.0603888034820557,0.4638295769691467,-0.3469733297824859,1.096793293952942,68.49996948242188,24.65,1
-0.342545598745346,-1.0611451864242554,0.4152123928070068,-0.308649331331253,1.096463918685913,68.4999771118164,24.65,1
-0.3709659576416015,-1.0560327768325806,0.3672193586826324,-0.5455832481384277,1.0962525606155396,68.49998474121094,24.65,1
-0.3948022723197937,-0.9855786561965942,0.308431327342987,-0.941248893737793,1.0961169004440308,68.49999237060547,24.65,1
-0.4045012891292572,-0.9459630250930786,0.2427156716585159,-1.456692457199097,1.0960298776626587,68.49999237060547,24.65,1
-0.4051277637481689,-0.9485288858413696,0.1949453651905059,-2.1099061965942383,1.0959739685058594,68.49999237060547,24.65,1
-0.3943342566490173,-0.9781643748283386,0.1418980360031128,-2.686734437942505,1.0959380865097046,68.49999237060547,24.65,1
-0.3874076008796692,-1.0027804374694824,0.0966597646474838,-2.874198198318481,1.0959150791168213,68.49999237060547,24.65,1
-0.3829624950885772,-1.0633598566055298,0.0284440275281667,-2.518019199371338,1.095900297164917,69.28457641601562,24.65,1
-0.3857076466083526,-1.135822892189026,-0.0377240031957626,-1.5478508472442627,1.0958908796310425,69.78807830810547,24.65,1
-0.3986648619174957,-1.215912103652954,-0.0969801619648933,-0.0654345229268074,1.0958847999572754,70.11119842529297,24.65,1
-0.4237733781337738,-1.1833420991897583,-0.1462029069662094,1.4913502931594849,1.0958808660507202,70.31855773925781,24.65,1
-0.428691029548645,-1.1344517469406128,-0.2057801038026809,2.680281639099121,1.0958783626556396,70.45162963867188,24.65,1
-0.4150535762310028,-1.181445598602295,-0.277599960565567,3.396695852279663,1.0958768129348757,70.53702545166016,24.65,1
-0.3951063156127929,-1.2339946031570437,-0.3236898183822632,3.655824899673462,1.0958757400512695,70.59182739257812,24.65,1
-0.3375231027603149,-1.3516840934753418,-0.353267639875412,3.435200929641724,1.0958751440048218,70.62699890136719,24.65,1
-0.2669828832149505,-1.3376461267471311,-0.3330645561218261,2.9389421939849854,1.096333622932434,70.64956665039062,24.67,1
-0.2217142134904861,-1.3286373615264893,-0.3145016133785248,2.5989763736724854,1.0966278314590454,70.66405487060547,24.67,1
-0.2038589417934417,-1.3172582387924194,-0.3025889694690704,2.581430196762085,1.0968166589736938,70.67334747314453,24.67,1
-0.1979982256889343,-1.2987602949142456,-0.2949441075325012,2.563004970550537,1.096937894821167,70.67931365966797,24.67,1
-0.1998349279165268,-1.2812916040420532,-0.2844403088092804,2.171427726745605,1.097015619277954,70.68314361572266,24.67,1
-0.1954158395528793,-1.2700811624526978,-0.2609062492847442,1.4293230772018433,1.097065567970276,70.68560028076172,24.67,1
-0.1869821548461914,-1.262886881828308,-0.2346079051494598,0.5948255062103271,1.097097635269165,70.68717956542969,24.67,1
-0.1703743487596511,-1.2694655656814575,-0.1897422671318054,-0.1843222379684448,1.0971181392669678,70.68819427490234,24.67,1
-0.1541186422109604,-1.2904807329177856,-0.1497545391321182,-0.9136192202568054,1.092540979385376,70.6888427734375,24.67,1
-0.1436866670846939,-1.3207603693008425,-0.1072993949055671,-1.6037596464157104,1.0896036624908447,70.68925476074219,24.67,1
-0.1425898075103759,-1.312203288078308,-0.0744563490152359,-2.222198247909546,1.0877186059951782,70.68952178955078,24.67,1
-0.141885906457901,-1.2563318014144895,-0.0421840250492095,-2.769544839859009,1.086508870124817,70.689697265625,24.67,1
-0.1694230437278747,-1.080532431602478,0.0289064645767211,-3.246190309524536,1.0857325792312622,70.68980407714844,24.67,1
-0.2262792140245437,-0.889345645904541,0.1137126684188842,-3.605812788009644,1.0852344036102295,70.68987274169922,24.67,1
-0.2683640122413635,-0.7890440225601196,0.1737341880798339,-3.7613637447357178,1.0849146842956543,70.6899185180664,24.67,1
-0.2897738516330719,-0.8198384046554565,0.2402414083480835,-3.685641050338745,1.0847095251083374,70.68994903564453,24.67,1
-0.2979156672954559,-0.8675893545150757,0.3053130209445953,-3.379101037979126,1.0854960680007937,70.68997192382812,24.67,1
-0.247162863612175,-0.9038309454917908,0.3470722436904907,-2.605586767196656,1.0860008001327517,70.68997955322266,24.67,1
-0.2313859611749649,-0.9382842183113098,0.3346864879131317,-0.9484354257583618,1.086324691772461,70.68998718261719,24.67,1
-0.249250128865242,-0.9715899229049684,0.315542459487915,1.6017979383468628,1.0865325927734375,70.68999481201172,24.67,1
-0.3222898542881012,-0.9985613822937012,0.3144524693489074,4.2486772537231445,1.0866659879684448,70.68999481201172,24.67,1
-0.3971514105796814,-1.0102723836898804,0.3193507492542267,6.07626485824585,1.0867515802383425,70.68999481201172,24.67,1
-0.4563888013362884,-0.989798903465271,0.3057008683681488,6.948168754577637,1.0868065357208252,70.68999481201172,24.67,1
-0.5055994987487793,-0.9542691111564636,0.2801478505134582,7.3142476081848145,1.0868418216705322,70.68999481201172,24.67,1
-0.5371800661087036,-0.9258703589439392,0.2637493908405304,7.463193893432617,1.085028052330017,71.31336212158203,24.67,1
-0.5630444288253784,-0.902047872543335,0.2532258033752441,7.336659431457519,1.0838640928268433,71.71340942382812,24.67,1
-0.5684471726417542,-0.8979555368423462,0.2408745884895324,6.839878082275391,1.083117127418518,71.97013092041016,24.67,1
-0.566316545009613,-0.9065248370170592,0.2105571925640106,6.023094654083252,1.0826377868652344,72.13488006591797,24.67,1
-0.5649492144584656,-0.9344152212142944,0.1855034530162811,5.040360450744629,1.0823301076889038,72.24060821533203,24.67,1
-0.5528762340545654,-1.0194870233535769,0.1638276278972625,4.062188148498535,1.0821326971054075,72.30845642089844,24.67,1
-0.5451284646987915,-1.0572878122329712,0.1107329130172729,3.144264936447144,1.0820059776306152,72.35199737548828,24.67,1
-0.5569497346878052,-1.0871440172195437,0.0598664619028568,2.2470932006835938,1.0819246768951416,72.37994384765625,24.67,1
-0.5701336860656738,-1.0111417770385742,0.0048322039656341,1.3739861249923706,1.0818724632263184,72.39788055419922,24.67,1
-0.5673988461494446,-0.8784013390541077,-0.058474488556385,0.4912444651126861,1.0818389654159546,72.40938568115234,24.67,1
-0.571241557598114,-0.8212050199508667,-0.1382855027914047,-0.5374006628990173,1.0818175077438354,72.4167709350586,24.67,1
-0.6072942614555359,-0.8348796963691711,-0.2062969356775283,-1.7743204832077026,1.0818036794662476,72.4215087890625,24.67,1
-0.6360285878181458,-0.8604486584663391,-0.2499427646398544,-3.1126558780670166,1.0817948579788208,72.42455291748047,24.67,1
-0.5984908938407898,-0.8432706594467163,-0.2555610537528991,-4.372771263122559,1.0817891359329224,72.42650604248047,24.67,1
-0.5576080083847046,-0.8322468400001526,-0.2479709833860397,-5.374899864196777,1.0817855596542358,72.4277572631836,24.67,1
-0.4865895211696625,-0.8307701349258423,-0.2207090258598327,-5.978599548339844,1.0817831754684448,72.42855834960938,24.67,1
-0.4410139620304107,-0.8242247104644775,-0.1920183151960373,-6.197638511657715,1.0817816257476809,72.4290771484375,24.67,1
-0.4117662012577057,-0.8200242519378662,-0.173606276512146,-6.15549373626709,1.0817806720733645,72.42940521240234,24.67,1
-0.3985944390296936,-0.8453174829483032,-0.1505949348211288,-6.053213596343994,1.0817800760269165,72.42961883544922,24.67,1
-0.3901415467262268,-0.8839403390884399,-0.1302298009395599,-6.123713970184326,1.081779718399048,72.42975616455078,24.67,1
-0.3791191875934601,-0.9311173558235168,-0.1059650853276252,-6.337337970733643,1.0817794799804688,72.42984008789062,24.67,1
-0.3496545851230621,-0.9557951092720032,-0.0847956165671348,-6.399195671081543,1.0817793607711792,72.42990112304688,24.67,1
-0.3195503652095794,-0.9660340547561646,-0.060014721006155,-6.180946826934815,1.0817792415618896,72.42993927001953,24.67,1
-0.277840107679367,-1.0117892026901243,-0.0441117696464061,-5.800854682922363,1.0817791223526,72.42996215820312,24.67,1
-0.2454750835895538,-1.119521141052246,-0.0395039431750774,-5.263162136077881,1.0813201665878296,72.42997741699219,24.67,1
-0.2806828022003174,-1.0822995901107788,0.0194308403879404,-4.577757358551025,1.0810256004333496,72.42998504638672,24.67,1
-0.3592548370361328,-0.9296640753746032,0.0964362099766731,-3.983853340148926,1.080836534500122,72.42999267578125,24.67,1
-0.3928845226764679,-0.8652980327606201,0.1402560472488403,-3.6815364360809326,1.080715298652649,72.42999267578125,24.67,1
-0.3808794915676117,-0.9639359712600708,0.1291926801204681,-3.677403450012207,1.0806374549865725,72.42999267578125,24.67,1
-0.3563820123672485,-0.9992472529411316,0.1276906281709671,-3.8646275997161865,1.0805875062942505,72.42999267578125,24.67,1
-0.2846831977367401,-0.9771258234977722,0.1491177827119827,-3.698171377182007,1.080555438995361,72.42999267578125,24.67,1
-0.2050843834877014,-0.9405384659767152,0.1684662699699401,-2.2765440940856934,1.080534815788269,72.42999267578125,24.67,1
-0.1763935536146164,-0.9170588254928588,0.1752852499485016,0.5846957564353943,1.0791444778442385,72.9673843383789,24.67,1
-0.2083613872528076,-0.9019909501075744,0.1628679484128952,3.818078994750977,1.078252196311951,73.31224822998047,24.67,1
-0.256865382194519,-0.8979189991950989,0.1437036991119384,6.211927890777588,1.0776796340942385,73.53356170654297,24.67,1
-0.3159813284873962,-0.8897081017494202,0.1202096343040466,7.565450668334961,1.0773122310638428,73.67559051513672,24.67,1
-0.3595163226127624,-0.8788410425186157,0.093936949968338,8.373160362243652,1.077076435089111,73.76673126220703,24.67,1
-0.3874545693397522,-0.8774649500846863,0.0714788734912872,8.941658020019531,1.0769250392913818,73.82522583007812,24.67,1
-0.4109815061092376,-0.84859299659729,0.0626643523573875,9.259913444519045,1.076827883720398,73.86276245117188,24.67,1
-0.4148841798305511,-0.8412601947784424,0.0514099225401878,9.403247833251951,1.076765537261963,73.88684844970703,24.67,1
-0.3949975967407226,-0.898129940032959,0.0385897047817707,9.466570854187012,1.0785616636276243,73.90230560302734,24.65,1
-0.3766377568244934,-0.9682123064994812,0.0303624253720045,9.23134994506836,1.079714298248291,73.91222381591797,24.65,1
-0.359257698059082,-1.0635671615600586,0.0250826310366392,8.435534477233887,1.0804539918899536,73.91859436035156,24.65,1
-0.3257130682468414,-1.1527491807937622,0.0496832355856895,7.387439727783203,1.0809286832809448,73.92268371582031,24.65,1
-0.3209793865680694,-1.204383373260498,0.0766660347580909,6.73991060256958,1.081233263015747,73.92530822753906,24.65,1
-0.3235393464565277,-1.153552532196045,0.0715909451246261,6.657543659210205,1.0814287662506104,73.92698669433594,24.65,1
-0.3195844292640686,-1.1489211320877075,0.0235518496483564,6.6405110359191895,1.081554293632507,73.92807006835938,24.65,1
-0.3114486038684845,-1.1739377975463867,-0.0072768768295645,5.948890686035156,1.081634759902954,73.92876434326172,24.65,1
-0.3174230456352234,-1.1564054489135742,0.00092789408518,4.079183578491211,1.0816863775253296,73.92920684814453,24.65,1
-0.3212571144104004,-1.1171653270721436,0.0173887927085161,1.2564064264297483,1.0817195177078247,73.92948913574219,24.65,1
-0.2509465217590332,-1.0807877779006958,0.0447457730770111,-1.6298623085021973,1.0817408561706543,73.92967224121094,24.65,1
-0.1722385883331298,-1.0406494140625,0.0902907773852348,-3.9084296226501465,1.0817545652389526,73.9297866821289,24.65,1
-0.1161305829882621,-0.992499828338623,0.136312261223793,-5.553394317626953,1.0817632675170898,73.92986297607422,24.65,1
-0.113710343837738,-0.933611273765564,0.1714439839124679,-6.626951217651367,1.0817688703536987,73.9299087524414,24.65,1
-0.1289504915475845,-0.9014177918434144,0.1883917152881622,-7.029292106628418,1.0817724466323853,73.92993927001953,24.65,1
-0.1443285197019577,-0.9031489491462708,0.1880722492933273,-6.922068595886231,1.0817748308181765,73.92996215820312,24.65,1
-0.1430017054080963,-0.9154554605484008,0.1878672391176223,-6.674129962921143,1.0790220499038696,73.92997741699219,24.65,1
-0.1309546828269958,-0.9177553057670592,0.1989312171936035,-6.332305431365967,1.0772554874420166,73.92998504638672,24.65,1
-0.1120280474424362,-0.9416223168373108,0.2172269970178604,-5.743937015533447,1.076121807098389,73.92999267578125,24.65,1
-0.094284251332283,-0.968134343624115,0.2233704030513763,-5.115575790405273,1.0753942728042605,73.92999267578125,24.65,1
-0.1108861714601516,-1.041126012802124,0.1937262415885925,-4.823389530181885,1.0749273300170898,73.92999267578125,24.65,1
-0.1943113952875137,-1.0991634130477903,0.1747023165225982,-4.732610702514648,1.0746276378631592,73.92999267578125,24.65,1
-0.2870333194732666,-1.197983980178833,0.151298314332962,-4.330426692962647,1.0744353532791138,73.92999267578125,24.65,1
-0.3801235556602478,-1.1270546913146973,0.175463393330574,-3.456125259399414,1.0743119716644287,73.92999267578125,24.65,1
-0.4230701923370361,-1.070340871810913,0.1909711509943008,-2.429314136505127,1.075150966644287,74.3563232421875,24.65,1
-0.4282397925853729,-1.0843251943588257,0.1841298043727874,-1.5339159965515137,1.075689435005188,74.62992095947266,24.65,1
-0.4595462083816528,-1.087701678276062,0.1797394305467605,-0.726433515548706,1.0760350227355957,74.80549621582031,24.65,1
-0.474039077758789,-1.0618796348571775,0.176921933889389,0.0926985591650009,1.0762567520141602,74.91816711425781,24.65,1
-0.4609486758708954,-0.9669397473335266,0.1695160567760467,0.8046643137931824,1.0763990879058838,74.990478515625,24.65,1
-0.4805368781089782,-0.8780239224433899,0.159165620803833,1.3332144021987915,1.0764904022216797,75.03688049316406,24.65,1
-0.5099008083343506,-0.8265606164932251,0.141327753663063,1.8909446001052856,1.076549053192139,75.06665802001953,24.65,1
-0.5399404168128967,-0.8047299981117249,0.1074893400073051,2.485313653945923,1.0765866041183472,75.08576965332031,24.65,1
-0.5536203384399414,-0.7795248031616211,0.0801760181784629,2.6804516315460205,1.0747747421264648,75.09803771972656,24.67,1
-0.5623993277549744,-0.7465562224388123,0.0514523535966873,2.2539632320404053,1.0736119747161863,75.10590362548828,24.67,1
-0.5736309289932251,-0.7086055874824524,0.0386169329285621,1.521697998046875,1.0728657245635986,75.11095428466797,24.67,1
-0.6088275909423828,-0.6786532402038574,0.0191843509674072,0.8260700106620789,1.0723868608474731,75.11419677734375,24.67,1
-0.6426103711128235,-0.681822657585144,0.0011158633278682,0.2900916039943695,1.0720795392990112,75.11627960205078,24.67,1
-0.6754857301712036,-0.6950521469116211,-0.0048816776834428,-0.018042704090476,1.0718823671340942,75.11761474609375,24.67,1
-0.6909855008125305,-0.7707153558731079,-0.0031327798496931,-0.2480287700891494,1.0717557668685913,75.11846923828125,24.67,1
-0.6841390132904053,-0.7856850028038025,0.0091851111501455,-0.6893917918205261,1.0716745853424072,75.1190185546875,24.67,1
-0.6965386867523193,-0.75050950050354,0.0450788959860801,-1.1517618894577026,1.070704221725464,75.11936950683594,24.67,1
-0.7044960856437683,-0.7895113825798035,0.0513201393187046,-1.0938094854354858,1.0700814723968506,75.11959838867188,24.67,1
-0.7207981944084167,-0.8649204969406128,0.0497276335954666,-0.4798242747783661,1.0696818828582764,75.11974334716797,24.67,1
-0.7032710909843445,-0.9245092868804932,0.0599012039601802,0.1578112244606018,1.0694254636764526,75.11983489990234,24.67,1
-0.6584365367889404,-0.9067721962928772,0.0832233354449272,0.477444589138031,1.069260835647583,75.1198959350586,24.67,1
-0.6296643018722534,-0.8562051653862,0.1317767798900604,0.517768383026123,1.069155216217041,75.11993408203125,24.67,1
-0.6111999750137329,-0.8573407530784607,0.168533369898796,0.2462921291589737,1.0690873861312866,75.11995697021484,24.67,1
-0.5881550908088684,-0.8524717688560486,0.1921216249465942,-0.4438165724277496,1.0690438747406006,75.1199722290039,24.67,1
-0.5341817736625671,-0.8605426549911499,0.2128569930791854,-1.3345105648040771,1.0671799182891846,75.11997985839844,24.67,1
-0.4827514886856079,-0.8545265793800354,0.2261637598276138,-1.952680230140686,1.065983772277832,75.11998748779297,24.67,1
-0.376975417137146,-0.8338724374771118,0.2347032725811004,-2.0699450969696045,1.065216064453125,75.1199951171875,24.67,1
-0.275507777929306,-0.8262156248092651,0.2681723237037658,-1.8084367513656616,1.0647233724594116,75.1199951171875,24.67,1
-0.2215872257947921,-0.8324974179267883,0.2952485978603363,-1.32893168926239,1.064407229423523,75.1199951171875,24.67,1
-0.1925818920135498,-0.8477243185043335,0.3014290332794189,-0.7990932464599609,1.0642043352127075,75.1199951171875,24.67,1
-0.1795657128095626,-0.8854849338531494,0.2941997349262237,-0.5629680752754211,1.064074158668518,75.1199951171875,24.67,1
-0.1432238072156906,-0.948901891708374,0.2671692967414856,-0.7804418206214905,1.063990592956543,75.1199951171875,24.67,1
-0.1422927677631378,-1.023185968399048,0.1714538782835006,-1.0597244501113892,1.061182737350464,75.5391616821289,24.67,1
-0.1472930461168289,-1.1492259502410889,0.0932359099388122,-0.9595110416412354,1.0593807697296145,75.80815887451172,24.67,1
-0.2064796835184097,-1.3028823137283323,0.0262467935681343,-0.6480021476745605,1.0582244396209717,75.98078155517578,24.67,1
-0.2780489027500152,-1.3846967220306396,5.035808135289699e-05,-0.5197451710700989,1.057482361793518,76.09156036376953,24.67,1
-0.323977917432785,-1.179702877998352,0.0784011632204055,-0.412359207868576,1.0570061206817627,76.16265106201172,24.67,1
-0.2638881206512451,-1.0257586240768433,0.1566710621118545,0.1473677903413772,1.0567004680633545,76.2082748413086,24.67,1
-0.17494598031044,-1.010932683944702,0.1845090836286544,1.1908403635025024,1.0565043687820437,76.23755645751953,24.67,1
-0.0898791626095771,-1.0406025648117063,0.1407984048128128,2.487431764602661,1.0563784837722778,76.25634765625,24.67,1
-0.052081499248743,-1.0260564088821411,0.0959540829062461,3.9679555892944336,1.0572155714035034,76.26840209960938,24.65,1
-0.0949984267354011,-0.9439504146575928,0.061577808111906,5.290658473968506,1.0577527284622192,76.27613830566406,24.65,1
-0.1729200184345245,-0.8520750999450684,0.039517093449831,5.7991485595703125,1.0580974817276,76.2811050415039,24.65,1
-0.2173278331756591,-0.8043103814125061,0.025359796360135,5.462691307067871,1.0583187341690063,76.28429412841797,24.65,1
-0.229032889008522,-0.7960488200187683,0.0162744577974081,4.949419021606445,1.058460712432861,76.28633880615234,24.65,1
-0.236544519662857,-0.7907470464706421,0.0048462352715432,4.566291809082031,1.058551788330078,76.28765106201172,24.65,1
-0.2413650453090667,-0.7929424047470093,-0.0192810632288455,4.073225021362305,1.058610200881958,76.28849029541016,24.65,1
-0.2556541264057159,-0.7663624286651611,-0.0347645729780197,3.3842151165008545,1.0586477518081665,76.28903198242188,24.65,1
-0.2704218029975891,-0.7493048906326294,-0.0447009988129138,2.6482770442962646,1.0600489377975464,76.28937530517578,24.65,1
-0.3078877329826355,-0.8223249912261963,-0.0398820750415325,1.8750579357147217,1.060948133468628,76.28959655761719,24.65,1
-0.3487245440483093,-0.9027717113494872,-0.0367895700037479,1.0349231958389282,1.0615252256393433,76.28974151611328,24.65,1
-0.4085178971290588,-1.0103754997253418,-0.0124138807877898,0.2879836559295654,1.0618956089019775,76.28983306884766,24.65,1
-0.4356942772865295,-1.0850272178649902,0.0144245838746428,-0.1841939389705658,1.0621333122253418,76.2898941040039,24.65,1
-0.4699278473854065,-1.1553255319595337,0.0428435131907463,-0.4728800356388092,1.0622857809066772,76.28993225097656,24.65,1
-0.5086902976036072,-1.1108745336532593,0.1002655625343322,-0.8802618980407715,1.0623836517333984,76.28995513916016,24.65,1
-0.5055769085884094,-0.9871862530708312,0.1539090573787689,-1.5286142826080322,1.0624464750289917,76.28997039794922,24.65,1
-0.4531989693641662,-1.0029723644256592,0.2163232415914535,-2.2384607791900635,1.059273600578308,76.28997802734375,24.65,1
-0.3971947133541107,-1.2034273147583008,0.2507793009281158,-2.848050117492676,1.0572373867034912,76.28998565673828,24.65,1
-0.3556566536426544,-1.2984812259674072,0.2784889936447143,-3.421960592269897,1.055930733680725,76.28999328613281,24.65,1
-0.3345976769924164,-1.3035035133361816,0.3130647838115692,-3.95864462852478,1.055092215538025,76.28999328613281,24.65,1
-0.3042899072170257,-1.2955310344696045,0.3184602260589599,-4.170502185821533,1.054554104804993,76.28999328613281,24.65,1
-0.2064712941646576,-1.2736214399337769,0.3331182599067688,-3.9267070293426514,1.054208755493164,76.28999328613281,24.65,1
-0.0765236467123031,-1.225974440574646,0.3649160265922546,-3.5552990436553955,1.0539871454238892,76.28999328613281,24.65,1
0.0068692723289132,-1.1394195556640625,0.3797242343425751,-3.3348634243011475,1.053844928741455,76.28999328613281,24.65,1
0.026799401268363,-1.0222980976104736,0.3444451093673706,-3.0357673168182373,1.0546718835830688,76.66258239746094,24.65,1
0.0395894087851047,-0.9415385723114014,0.2994138896465301,-2.403167724609375,1.0552024841308594,76.90168762207031,24.65,1
-0.0025826669298112,-0.872918426990509,0.2145376950502395,-1.5995359420776367,1.055543065071106,77.05513763427734,24.65,1
-0.0464396029710769,-0.8232842087745667,0.1376779377460479,-0.8151181936264038,1.0557615756988523,77.15361022949219,24.65,1
-0.0801822319626808,-0.7914317846298218,0.0827559977769851,-0.0072049843147397,1.0559018850326538,77.21680450439453,24.65,1
-0.1018363088369369,-0.7765885591506958,0.0363147109746933,0.7727952003479004,1.0559918880462646,77.25735473632812,24.65,1
-0.1101348772644996,-0.7726607918739319,0.0121091427281498,1.3915793895721436,1.0560495853424072,77.28337860107422,24.65,1
-0.1322537362575531,-0.8093245625495911,-0.0090223718434572,1.8997392654418943,1.0560866594314575,77.30007934570312,24.65,1
-0.1856327801942825,-0.9616020917892456,-0.0561700090765953,2.365567445755005,1.055651068687439,77.31079864501953,24.67,1
-0.25347501039505,-1.1320961713790894,-0.0976221933960914,2.592857599258423,1.055371642112732,77.31768035888672,24.67,1
-0.3138055801391601,-1.2023249864578247,-0.0962349474430084,2.362549066543579,1.055192232131958,77.32209777832031,24.67,1
-0.3413267135620117,-1.2417960166931152,-0.0729535967111587,1.7848411798477173,1.055077075958252,77.3249282836914,24.67,1
-0.3086082339286804,-1.267126202583313,-0.0188285466283559,1.156156063079834,1.05500328540802,77.32674407958984,24.67,1
-0.2652202844619751,-1.316968321800232,-0.0008875279454514,0.6810506582260132,1.0549558401107788,77.32791137695312,24.67,1
-0.2653652727603912,-1.3265631198883057,-0.0173628870397806,0.3833204805850982,1.0549254417419434,77.32865905761719,24.67,1
-0.2766538560390472,-1.226362705230713,-0.0727180168032646,0.1098551601171493,1.054905891418457,77.32913970947266,24.67,1
-0.272702693939209,-1.1396688222885132,-0.1250350773334503,-0.3307497501373291,1.0539755821228027,77.3294448852539,24.67,1
-0.2589715123176574,-1.0672403573989868,-0.1586091518402099,-0.910858392715454,1.0533785820007324,77.32964324951172,24.67,1
-0.2669529616832733,-1.0095643997192385,-0.1633617430925369,-1.469432711601257,1.0529954433441162,77.32977294921875,24.67,1
-0.2888683080673218,-0.9557579159736632,-0.1664116829633712,-1.9747791290283203,1.052749514579773,77.3298568725586,24.67,1
-0.3141278624534607,-0.9156302213668824,-0.1627711802721023,-2.4388017654418945,1.0525916814804075,77.32991027832031,24.67,1
-0.3359357714653015,-0.8898785710334778,-0.1604349166154861,-2.793905973434448,1.052490472793579,77.32994079589844,24.67,1
-0.3667241632938385,-0.8565593361854553,-0.1477400958538055,-3.0970256328582764,1.052425503730774,77.32996368408203,24.67,1
-0.4032756984233856,-0.9023502469062804,-0.1339955031871795,-3.6068170070648193,1.0523837804794312,77.3299789428711,24.67,1
-0.4323301315307617,-0.9429317712783812,-0.1139794737100601,-4.417619228363037,1.051438808441162,77.32998657226562,24.67,1
-0.4565733671188354,-1.008159041404724,-0.0787432417273521,-5.263959884643555,1.0508323907852173,77.32999420166016,24.67,1
-0.4945223927497864,-1.1003981828689575,-0.0337395556271076,-5.739023685455322,1.050443172454834,77.32999420166016,24.67,1
-0.5300714373588562,-1.098016381263733,0.0511189624667167,-5.646226406097412,1.050193428993225,77.32999420166016,24.67,1
-0.5081025958061218,-0.9677391052246094,0.1391629129648208,-5.189008712768555,1.0500330924987793,77.32999420166016,24.67,1
-0.4884064495563507,-0.9401124119758606,0.2068600058555603,-4.945748805999756,1.049930214881897,77.32999420166016,24.67,1
-0.4309844076633453,-1.1295008659362793,0.2447063326835632,-5.083409786224365,1.0498641729354858,77.32999420166016,24.67,1
-0.3493520617485046,-1.2454416751861572,0.2577983736991882,-4.32626485824585,1.049821853637695,77.32999420166016,24.67,1
-0.2745740115642547,-1.207890272140503,0.2550045549869537,-0.9599818587303162,1.048417568206787,77.66317749023438,24.67,1
-0.2377813160419464,-1.1669986248016355,0.281200498342514,4.567925930023193,1.0475163459777832,77.87699127197266,24.67,1
-0.2197676599025726,-1.123963475227356,0.3036093413829803,9.487545013427734,1.0469379425048828,78.01420593261719,24.67,1
-0.2138053029775619,-1.0179771184921265,0.2900011539459228,11.6917085647583,1.0465668439865112,78.10226440429688,24.67,1
-0.2043812274932861,-0.9275700449943542,0.275670439004898,11.443899154663086,1.0463286638259888,78.15877532958984,24.67,1
-0.1815400719642639,-0.891943097114563,0.2552782595157623,10.163522720336914,1.046175837516785,78.19503784179688,24.67,1
-0.1724797189235687,-0.8690797686576843,0.2365939617156982,9.015836715698242,1.0460777282714844,78.21831512451172,24.67,1
-0.1610675305128097,-0.8600051999092102,0.224603459239006,8.537262916564941,1.0460147857666016,78.2332534790039,24.67,1
-0.1481460630893707,-0.8709749579429626,0.211310863494873,8.441514015197754,1.0464333295822144,78.24283599853516,24.65,1
-0.1398538053035736,-0.8836125135421753,0.2027804404497146,7.842681407928467,1.0467019081115725,78.24898529052734,24.65,1
-0.1345323175191879,-0.9085158705711364,0.1917083263397216,6.107754230499268,1.0468742847442627,78.2529296875,24.65,1
-0.1535083949565887,-0.9356929659843444,0.1734073311090469,3.504026412963867,1.0469849109649658,78.25546264648438,24.65,1
-0.1712839156389236,-0.9923180937767028,0.1504672616720199,0.8765560388565063,1.0470558404922483,78.25708770751953,24.65,1
-0.2218756526708603,-1.1238189935684204,0.1021590009331703,-1.1606955528259275,1.047101378440857,78.25813293457031,24.65,1
-0.2823313772678375,-1.1914154291152954,0.0767553150653839,-2.5970592498779297,1.0471305847167969,78.25880432128906,24.65,1
-0.3659105896949768,-1.1004482507705688,0.1164304390549659,-3.594068765640259,1.047149419784546,78.25923156738281,24.65,1
-0.4475357830524444,-0.9916908144950868,0.2146627157926559,-4.047598361968994,1.0480797290802002,78.25950622558594,24.65,1
-0.511113703250885,-0.9722765684127808,0.2721047699451446,-3.786930799484253,1.0486767292022705,78.25968170166016,24.65,1
-0.5071321129798889,-0.9822086691856384,0.1914145052433014,-2.974785804748535,1.0490598678588867,78.25979614257812,24.65,1
-0.4430014491081238,-0.9829847812652588,0.1004477143287658,-2.023688793182373,1.0493056774139404,78.25987243652344,24.65,1
-0.2842928171157837,-0.9722872972488404,0.0588637851178646,-1.2055400609970093,1.049463391304016,78.25991821289062,24.65,1
-0.2104316353797912,-0.9318355917930604,0.0713620334863662,-0.5730219483375549,1.0495645999908447,78.25994873046875,24.65,1
-0.1910206526517868,-0.9058760404586792,0.0905782431364059,-0.238759770989418,1.04962956905365,78.25997161865234,24.65,1
-0.2457370907068252,-0.917205572128296,0.1085078716278076,-0.3287684917449951,1.049671292304993,78.25997924804688,24.65,1
-0.2976442873477936,-0.9244762063026428,0.1144163012504577,-0.7877793908119202,1.047861933708191,78.2599868774414,24.65,1
-0.3309553265571594,-0.9067509770393372,0.112610213458538,-1.394030213356018,1.0467008352279663,78.25999450683594,24.65,1
-0.3523324429988861,-0.8729848265647888,0.1058534011244773,-1.972963571548462,1.0459556579589844,78.25999450683594,24.65,1
-0.4052354693412781,-0.8401201367378235,0.0959194898605346,-2.552278995513916,1.0454775094985962,78.25999450683594,24.65,1
-0.4559789001941681,-0.8638116717338562,0.0895444825291633,-3.3682897090911865,1.0451706647872925,78.25999450683594,24.65,1
-0.4773475527763366,-0.8958088755607605,0.079855591058731,-4.540404796600342,1.0449737310409546,78.25999450683594,24.65,1
-0.4574740827083587,-0.9331361055374146,0.0624422691762447,-5.761918067932129,1.0448473691940308,78.25999450683594,24.65,1
-0.4279271066188812,-0.9626883864402772,0.0512674041092395,-6.617466449737549,1.0447663068771362,78.25999450683594,24.65,1
-0.3977700173854828,-1.065619945526123,0.0552915669977664,-6.973049163818359,1.0437960624694824,78.5609359741211,24.65,1
-0.3784169256687164,-1.0868933200836182,0.0466784946620464,-6.907470226287842,1.0431734323501587,78.75405883789062,24.65,1
-0.3771927952766418,-1.1565231084823608,0.0131622459739446,-6.553701400756836,1.0427738428115845,78.87799072265625,24.65,1
-0.3987983167171478,-1.139631986618042,-0.0307376496493816,-5.929007053375244,1.0425174236297607,78.95752716064453,24.65,1
-0.4182612597942352,-1.1679766178131104,-0.098094493150711,-4.485584735870361,1.0423527956008911,79.0085678100586,24.65,1
-0.4139581322669983,-1.236546516418457,-0.191700205206871,-1.4885505437850952,1.0422471761703491,79.04132080078125,24.65,1
-0.383207768201828,-1.31413733959198,-0.2461731880903244,2.4768412113189697,1.0421793460845947,79.06233978271484,24.65,1
-0.3354850709438324,-1.3247462511062622,-0.2531419396400451,5.465840816497803,1.0421358346939087,79.0758285522461,24.65,1
-0.2768705189228058,-1.2699790000915527,-0.2240274399518966,6.459704399108887,1.0416489839553833,79.08448791503906,24.65,1
-0.2392550855875015,-1.2180391550064087,-0.1885501146316528,6.216195106506348,1.0413365364074707,79.09004211425781,24.65,1
-0.2263112068176269,-1.1847071647644043,-0.1713805794715881,5.526121139526367,1.0411360263824463,79.09361267089844,24.65,1
-0.2180045694112777,-1.1745121479034424,-0.1715577095746994,4.395416736602783,1.041007399559021,79.09590148925781,24.65,1
-0.2070760726928711,-1.184762954711914,-0.1828669309616089,3.050010204315185,1.0409247875213623,79.09736633300781,24.65,1
-0.1888672411441803,-1.208134651184082,-0.1845267564058303,2.0576331615448,1.0408718585968018,79.09831237792969,24.65,1
-0.1771818697452545,-1.245524287223816,-0.1576030701398849,1.5067644119262695,1.0408378839492798,79.09891510009766,24.65,1
-0.1696828752756118,-1.258323311805725,-0.1291294544935226,1.095927357673645,1.040816068649292,79.09930419921875,24.65,1
-0.1592726707458496,-1.227352499961853,-0.0884656235575676,0.825110673904419,1.0385067462921145,79.09955596923828,24.65,1
-0.1637875437736511,-1.196281671524048,-0.0623699203133583,0.9773305058479308,1.037024736404419,79.09971618652344,24.65,1
-0.1778804808855056,-1.1315600872039795,-0.0456231981515884,1.519255757331848,1.0360736846923828,79.09981536865234,24.65,1
-0.2205111682415008,-0.9444833397865297,0.0211016274988651,1.917188286781311,1.0354633331298828,79.09988403320312,24.65,1
-0.2646624147891998,-0.7404616475105286,0.0919106528162956,1.6960759162902832,1.035071611404419,79.09992218017578,24.65,1
-0.2985939085483551,-0.5871411561965942,0.1653406769037246,1.0167924165725708,1.0348201990127563,79.0999526977539,24.65,1
-0.3259669542312622,-0.5839110612869263,0.212463840842247,0.4447294473648071,1.034658908843994,79.09996795654297,24.65,1
-0.3155445456504822,-0.7049891948699951,0.2650958597660064,0.4072093367576599,1.034555435180664,79.0999755859375,24.65,1
-0.269671618938446,-0.7938857078552246,0.3100676238536834,1.0709855556488037,1.0335707664489746,79.09998321533203,24.65,1
-0.1954508125782013,-0.8957166075706482,0.3277323544025421,2.1776483058929443,1.032938838005066,79.09999084472656,24.65,1
-0.1254290789365768,-1.0058479309082031,0.3166774809360504,3.0024831295013428,1.0325332880020142,79.09999084472656,24.65,1
-0.0972864851355552,-1.0653283596038818,0.3095830976963043,3.087575435638428,1.0322730541229248,79.09999084472656,24.65,1
-0.1352039277553558,-1.109097242355347,0.3162258863449096,2.715856075286865,1.0321060419082642,79.09999084472656,24.65,1
-0.1931238174438476,-1.1259900331497192,0.3260866105556488,2.337587594985962,1.031998872756958,79.09999084472656,24.65,1
-0.258282333612442,-1.0976464748382568,0.3436101973056793,1.9981071949005127,1.0319300889968872,79.09999084472656,24.65,1
-0.3224884271621704,-1.0290772914886477,0.3604536056518554,1.490059494972229,1.0318859815597534,79.09999084472656,24.65,1
-0.3692899644374847,-0.9626823663711548,0.3656649589538574,0.7018715739250183,1.0313987731933594,79.35435485839844,24.65,1
-0.399324506521225,-0.9312694668769836,0.352215975522995,-0.2732595205307007,1.0310860872268677,79.51759338378906,24.65,1
-0.4074033796787262,-0.939099371433258,0.3267918825149536,-1.1354925632476809,1.0308854579925537,79.62235260009766,24.65,1
-0.3734035193920135,-0.9665152430534364,0.2880850732326507,-1.595677137374878,1.0307567119598389,79.6895751953125,24.65,1
-0.3291932642459869,-0.9897069334983826,0.229658618569374,-1.6867902278900146,1.0306740999221802,79.73271942138672,24.65,1
-0.2952238917350769,-1.0437744855880735,0.1697727739810943,-1.5947932004928589,1.03062105178833,79.76040649414062,24.65,1
-0.2846198678016662,-1.1344496011734009,0.1145481690764427,-1.3637911081314087,1.0305869579315186,79.7781753540039,24.65,1
-0.2946081459522247,-1.2038352489471436,0.0735104233026504,-0.8966980576515198,1.0305651426315308,79.7895736694336,24.65,1
-0.3290069103240967,-1.192385196685791,0.0303814355283975,-0.1777832806110382,1.0314693450927734,79.79689025878906,24.67,1
-0.3790709376335144,-1.0171040296554563,-0.0700673386454582,0.6203368902206421,1.0320496559143066,79.80158233642578,24.67,1
-0.4223946928977966,-0.966194212436676,-0.1793117672204971,1.207758545875549,1.0324220657348633,79.80459594726562,24.67,1
-0.4445995986461639,-1.0062942504882812,-0.2830052077770233,1.258717656135559,1.032660961151123,79.80653381347656,24.67,1
-0.4588494300842285,-1.0488214492797852,-0.360745221376419,0.6429740190505981,1.032814383506775,79.80777740478516,24.67,1
-0.4400052726268768,-1.048124074935913,-0.3938409686088562,-0.3827081322669983,1.0329127311706543,79.8085708618164,24.67,1
-0.3775322139263153,-1.0364810228347778,-0.3982866108417511,-1.3561984300613403,1.0329759120941162,79.80908203125,24.67,1
-0.3206472992897033,-1.0234113931655884,-0.3843462467193603,-2.0561625957489014,1.0330164432525637,79.80941009521484,24.67,1
-0.2729462683200836,-1.003828525543213,-0.3362156748771667,-2.612836599349976,1.0321242809295654,79.80962371826172,24.67,1
-0.2423344999551773,-0.99126136302948,-0.2941327095031738,-3.2387712001800537,1.031551718711853,79.80976104736328,24.67,1
-0.2114940732717514,-1.0111854076385498,-0.2391374111175537,-3.966474294662476,1.0311843156814575,79.80984497070312,24.67,1
-0.1917024701833725,-1.0351669788360596,-0.1870512664318084,-4.680669784545898,1.030948519706726,79.80989837646484,24.67,1
-0.1845991313457489,-1.0561548471450806,-0.1536253839731216,-5.189155578613281,1.0307971239089966,79.8099365234375,24.67,1
-0.1800406128168106,-1.0864169597625732,-0.1321745812892913,-5.372169494628906,1.0306999683380127,79.8099594116211,24.67,1
-0.1771152168512344,-1.105837345123291,-0.1128109097480773,-5.296158313751221,1.0306376218795776,79.80997467041016,24.67,1
-0.1752378642559051,-1.1294958591461182,-0.1115799695253372,-5.1040754318237305,1.030597686767578,79.80998229980469,24.67,1
-0.1852286458015442,-1.1390807628631592,-0.1107900217175483,-4.909156322479248,1.028735876083374,79.80998992919922,24.67,1
-0.2140312492847442,-1.0500695705413818,-0.0766964331269264,-4.834224224090576,1.027541160583496,79.80998992919922,24.67,1
-0.2940906286239624,-0.8586007356643677,0.0179539341479539,-4.997509479522705,1.0267744064331057,79.80998992919922,24.67,1
-0.3734569847583771,-0.7525203824043274,0.0842928662896156,-5.413980484008789,1.0262824296951294,79.80998992919922,24.67,1
-0.4299875199794769,-0.863572895526886,0.0876809582114219,-5.964271068572998,1.0259666442871094,79.80998992919922,24.67,1
-0.4270811378955841,-0.9124489426612854,0.0898552387952804,-6.392650127410889,1.025763988494873,79.80998992919922,24.67,1
-0.3804337978363037,-0.9326192140579224,0.0968483388423919,-6.363039970397949,1.0256339311599731,79.80998992919922,24.67,1
-0.2497382909059524,-0.9455633163452148,0.1293249875307083,-5.391072750091553,1.0255504846572876,79.80998992919922,24.67,1
-0.1546698957681656,-0.9370768070220948,0.1613621711730957,-2.796903610229492,1.0241197347640991,80.05718994140625,24.67,1
-0.138442650437355,-0.9484239816665648,0.1819217950105667,1.572729229927063,1.023201584815979,80.21582794189453,24.67,1
-0.1896044611930847,-0.9669014811515808,0.1839202344417572,6.508540630340576,1.0226123332977295,80.31763458251953,24.67,1
-0.2504260540008545,-0.9675637483596802,0.174007162451744,10.335254669189451,1.0222342014312744,80.38296508789062,24.67,1
-0.3286422491073608,-0.962390959262848,0.1564499735832214,12.457839965820312,1.0219916105270386,80.42489624023438,24.67,1
-0.3900324702262878,-0.9478757977485656,0.1451827883720398,13.314849853515623,1.0218359231948853,80.4518051147461,24.67,1
-0.4518202543258667,-0.9105719327926636,0.1323543787002563,13.409841537475586,1.0217360258102417,80.46907043457031,24.67,1
-0.4914721250534057,-0.9090235829353333,0.0961329713463783,13.051640510559082,1.0216718912124634,80.48014831542969,24.67,1
-0.5001250505447388,-0.9248232245445251,0.0672903805971145,12.481423377990724,1.0239261388778689,80.48725891113281,24.67,1
-0.4664936065673828,-0.9349625706672668,0.0375853180885314,11.79305934906006,1.0253727436065674,80.4918212890625,24.67,1
-0.4281175434589386,-0.9582627415657043,0.0185223184525966,10.967970848083496,1.026301026344299,80.4947509765625,24.67,1
-0.3699033558368683,-1.051584243774414,0.0006910089869052,10.090967178344728,1.026896834373474,80.49662780761719,24.67,1
-0.3157515227794647,-1.1730481386184692,0.0004434497968759,9.402766227722168,1.0272791385650637,80.49783325195312,24.67,1
-0.2865977585315704,-1.1726278066635132,0.0002845805429387,9.061429977416992,1.027524471282959,80.49861145019531,24.67,1
-0.284681886434555,-1.10518479347229,-0.0334040187299251,8.734903335571289,1.0276819467544556,80.49910736083984,24.67,1
-0.2834523916244507,-1.112283706665039,-0.0774145200848579,7.335942268371582,1.0277830362319946,80.49942779541016,24.67,1
-0.3274455666542053,-1.1448283195495603,-0.1168534755706787,3.905288696289064,1.0269296169281006,80.4996337890625,24.67,1
-0.3948622643947601,-1.126529097557068,-0.1589564532041549,-0.9617438316345216,1.0263819694519043,80.49976348876953,24.67,1
-0.4101375639438629,-1.1035901308059692,-0.1915734857320785,-5.403512954711914,1.0260305404663086,80.49984741210938,24.67,1
-0.358364850282669,-1.060880422592163,-0.1957118958234787,-8.196662902832031,1.0258049964904783,80.4999008178711,24.67,1
-0.3083467781543731,-1.0166784524917605,-0.1815743744373321,-9.46967315673828,1.025660276412964,80.49993896484375,24.67,1
-0.2538569569587707,-0.9771166443824768,-0.1445128470659256,-9.7420654296875,1.0255674123764038,80.49996185302734,24.67,1
-0.2244863063097,-0.9461303353309632,-0.1095333471894264,-9.404563903808594,1.0255078077316284,80.4999771118164,24.67,1
-0.205637902021408,-0.94863623380661,-0.0814877450466156,-8.836881637573242,1.0254695415496826,80.49998474121094,24.67,1
-0.1823465377092361,-0.9670376777648926,-0.0410985946655273,-8.228960990905762,1.0245267152786257,80.49999237060547,24.67,1
-0.1618017107248306,-0.9732488989830016,0.0072119343094527,-7.534313678741455,1.0239217281341553,80.49999237060547,24.67,1
-0.1710083186626434,-1.0388103723526,0.0494103990495204,-6.705193042755127,1.0235334634780884,80.49999237060547,24.67,1
-0.1713188141584396,-1.0640907287597656,0.0876864939928054,-5.786193370819092,1.0232843160629272,80.49999237060547,24.67,1
-0.1771158427000045,-1.0523252487182615,0.1122498884797096,-4.952816963195801,1.0231244564056396,80.49999237060547,24.67,1
-0.1976293623447418,-1.0559704303741455,0.1448065787553787,-4.353517532348633,1.0230218172073364,80.49999237060547,24.67,1
-0.2275870889425277,-1.0303208827972412,0.1656996011734008,-3.89010500907898,1.0229560136795044,80.49999237060547,24.67,1
-0.2859966456890106,-1.064240336418152,0.2070964127779007,-3.4064197540283203,1.022913694381714,80.49999237060547,24.67,1
-0.3682627379894256,-0.990845799446106,0.2952380180358886,-3.024366855621338,1.0228866338729858,80.67912292480469,24.67,1
-0.3706763982772827,-0.9885275959968568,0.3238133490085602,-2.8436737060546875,1.0228692293167114,80.79408264160156,24.67,1
-0.2602698802947998,-1.0374199151992798,0.3029669225215912,-2.6524810791015625,1.0228580236434937,80.86785125732422,24.67,1
-0.1726240068674087,-1.0631983280181885,0.283991128206253,-2.354238510131836,1.0228508710861206,80.91519165039062,24.67,1
-0.1107801496982574,-1.0125682353973389,0.2998024225234985,-2.116270065307617,1.022846221923828,80.94557189941406,24.67,1
-0.0990811958909034,-0.9464900493621826,0.3211447596549988,-1.7163578271865845,1.0228432416915894,80.96507263183594,24.67,1
-0.1027690321207046,-0.8760960102081299,0.3292432725429535,-0.5712385177612305,1.0228413343429563,80.97758483886719,24.67,1
-0.1555156409740448,-0.8141278624534607,0.2952559888362884,1.403204321861267,1.022840142250061,80.9856185913086,24.67,1
-0.2117564678192138,-0.7799580097198486,0.2566515803337097,3.540853977203369,1.0214622020721436,80.99076843261719,24.67,1
-0.2758374810218811,-0.7580297589302063,0.2150841802358627,5.120463848114014,1.020577907562256,80.99407196044922,24.67,1
-0.3225587606430053,-0.7271641492843628,0.1772130727767944,5.754413604736328,1.020010471343994,80.9961929321289,24.67,1
-0.3469440042972564,-0.6961608529090881,0.1529095768928527,5.365914344787598,1.0196462869644165,80.99755859375,24.67,1
-0.3513975143432617,-0.7378402352333069,0.1149218901991844,4.317683219909668,1.019412636756897,80.9984359741211,24.67,1
-0.3486577272415161,-0.7925765514373779,0.068152479827404,3.268818616867065,1.019262671470642,80.99899291992188,24.67,1
-0.3580950498580932,-0.9340608716011048,-0.0066436338238418,2.5778048038482666,1.019166350364685,80.99935150146484,24.67,1
-0.3809446990489959,-1.1032261848449707,-0.0546434707939624,2.145099639892578,1.0191045999526978,80.99958038330078,24.67,1
-0.4124016165733337,-1.183797836303711,-0.068653680384159,1.8244234323501587,1.019983172416687,80.9997329711914,24.67,1
-0.4605777263641357,-1.1291464567184448,-0.0440579801797866,1.7117788791656494,1.0205470323562622,80.99983215332031,24.67,1
-0.4914943873882293,-0.9933143854141236,-0.0114805521443486,1.9583393335342407,1.0209088325500488,80.99989318847656,24.67,1
-0.4665527045726776,-1.0292961597442627,-0.0241608805954456,2.3494350910186768,1.0211410522460938,80.99993133544922,24.67,1
-0.4337532520294189,-1.1867338418960571,-0.0378961600363254,2.303064107894897,1.0212900638580322,80.99995422363281,24.67,1
-0.4071066677570343,-1.181410551071167,-0.0187218002974987,1.5532081127166748,1.021385669708252,80.99996948242188,24.67,1
-0.3340286910533905,-1.0884299278259275,0.055158719420433,0.398469477891922,1.0214470624923706,80.9999771118164,24.67,1
-0.2759359180927276,-1.0175647735595703,0.1305598616600036,-0.8727965950965881,1.0214864015579224,80.99998474121094,24.67,1
-0.2498508542776107,-1.0112720727920532,0.2013390660285949,-2.279747009277344,1.020593523979187,80.99999237060547,24.67,1
-0.2722953855991363,-0.9848426580429076,0.2299677580595016,-3.8131799697875977,1.0200204849243164,80.99999237060547,24.67,1
-0.2922967672348022,-0.95668625831604,0.2371444553136825,-5.266566276550293,1.0196527242660522,80.99999237060547,24.67,1
-0.2771436274051666,-0.949812650680542,0.2361522763967514,-6.374812126159668,1.0194166898727417,80.99999237060547,24.67,1
-0.2450281232595443,-0.9677926301956176,0.2411133348941803,-6.9104743003845215,1.0192652940750122,80.99999237060547,24.67,1
-0.1796360462903976,-0.9625378251075744,0.2554925978183746,-6.777749061584473,1.0191681385040283,80.99999237060547,24.67,1
-0.1320734024047851,-0.9255789518356324,0.2591226100921631,-6.176682949066162,1.0191057920455933,80.99999237060547,24.67,1
-0.1071482077240943,-0.9018608927726746,0.2390610426664352,-5.597494125366211,1.0190657377243042,80.99999237060547,24.67,1
-0.1079459711909294,-0.9146288633346558,0.1870022565126419,-5.422845840454102,1.0172039270401,81.1361312866211,24.67,1
-0.1476423591375351,-0.9732025861740112,0.1088117361068725,-5.479147434234619,1.0160092115402222,81.22349548339844,24.67,1
-0.1899105310440063,-1.0555740594863892,0.0362424626946449,-5.250168323516846,1.0152424573898315,81.2795639038086,24.67,1
-0.2786113321781158,-1.1532175540924072,-0.0271216407418251,-4.626739978790283,1.0147504806518557,81.31554412841797,24.67,1
-0.3635232746601105,-1.2270749807357788,-0.0677850767970085,-4.033200263977051,1.0144346952438354,81.33863830566406,24.67,1
-0.4292104244232178,-1.1457237005233765,-0.0602938830852508,-3.813516616821289,1.0142320394515991,81.35345458984375,24.67,1
-0.448973536491394,-1.031941533088684,-0.0330953709781169,-3.7011969089508057,1.0141019821166992,81.36296081542969,24.67,1
-0.450460821390152,-1.0037049055099487,0.0179457180202007,-2.794376373291016,1.0140185356140137,81.36906433105469,24.67,1
-0.4234264194965362,-1.0583553314208984,0.033907625824213,-0.2169366031885147,1.0158010721206665,81.37297821044922,24.67,1
-0.4004795253276825,-1.0990246534347534,0.0217599626630544,3.912675857543945,1.0169450044631958,81.37549591064453,24.67,1
-0.3633624315261841,-1.0411572456359863,0.008366516791284,8.296789169311523,1.0176790952682495,81.37710571289062,24.67,1
-0.3339450359344482,-0.9704346060752868,0.0109669230878353,11.46851921081543,1.0181502103805542,81.37814331054688,24.67,1
-0.3206644058227539,-0.9026578068733216,0.0350268110632896,12.8160982131958,1.018452525138855,81.3788070678711,24.67,1
-0.3569238781929016,-0.8591625690460205,0.050467062741518,12.555968284606934,1.018646478652954,81.37923431396484,24.67,1
-0.3913886547088623,-0.8368476033210754,0.0491801798343658,11.167373657226562,1.0187709331512451,81.37950897216797,24.67,1
-0.4358972609043121,-0.8225271105766296,0.0259632337838411,9.151324272155762,1.018850803375244,81.37968444824219,24.67,1
-0.4812536537647247,-0.8021414875984192,0.0110639352351427,7.033547401428223,1.0156888961791992,81.37979888916016,24.67,1
-0.5383496284484863,-0.7554725408554077,-0.009693126194179,5.151424407958984,1.0136597156524658,81.37986755371094,24.67,1
-0.5973816514015198,-0.7199253439903259,-0.0286115873605012,3.474268674850464,1.0123575925827026,81.37991333007812,24.67,1
-0.6464605331420898,-0.6747220754623413,-0.0575456917285919,1.8964060544967647,1.0115219354629517,81.37994384765625,24.67,1
-0.7227387428283691,-0.645713210105896,-0.0873094797134399,0.496906578540802,1.0109856128692627,81.37996673583984,24.67,1
-0.777287483215332,-0.6438903212547302,-0.1064101681113243,-0.5839229822158813,1.0106414556503296,81.37997436523438,24.67,1
-0.845880389213562,-0.6595138311386108,-0.0738856941461563,-1.4280054569244385,1.010420560836792,81.3799819946289,24.67,1
-0.873106062412262,-0.6303556561470032,0.0309532508254051,-2.241964817047119,1.010278820991516,81.37998962402344,24.67,1
-0.851393461227417,-0.5836547613143921,0.1206239536404609,-3.0186798572540283,1.0088107585906982,81.37998962402344,24.67,1
-0.7814818620681763,-0.592869222164154,0.2005605548620224,-3.492052793502808,1.0078686475753784,81.37998962402344,24.67,1
-0.68063884973526,-0.6939446926116943,0.2574570178985595,-3.5486385822296143,1.0072640180587769,81.37998962402344,24.67,1
-0.5151636600494385,-0.960328996181488,0.2995676696300506,-3.430901288986206,1.006875991821289,81.37998962402344,24.67,1
-0.4033734500408172,-1.0473124980926514,0.3713740706443786,-3.3696746826171875,1.0066269636154177,81.37998962402344,24.67,1
-0.3372307121753692,-1.075144648551941,0.4174552857875824,-3.183497190475464,1.0064672231674194,81.37998962402344,24.67,1
-0.2667952179908752,-1.0258324146270752,0.4134409129619598,-2.433485984802246,1.0063647031784058,81.37998962402344,24.67,1
-0.1824093610048294,-0.9885888695716858,0.3940714001655578,-0.9884591698646544,1.0062988996505735,81.37998962402344,24.67,1
-0.0946687310934066,-0.9646881222724916,0.3592500686645508,0.5729917287826538,1.0067156553268433,81.53046417236328,24.67,1
-0.0887418165802955,-0.9437522292137146,0.3145126402378082,1.4281554222106934,1.0069830417633057,81.62702941894531,24.67,1
-0.0961338132619857,-0.9191212058067322,0.2578138411045074,1.432398796081543,1.0071545839309692,81.68899536132812,24.67,1
-0.112073116004467,-0.8865211009979248,0.1766456365585327,1.1700114011764526,1.0072647333145142,81.72876739501953,24.67,1
-0.1223020479083061,-0.8767958283424377,0.1021654531359672,1.098355770111084,1.0073354244232178,81.75428771972656,24.67,1
-0.1288663893938064,-0.8873479962348938,0.0207817088812589,1.1741788387298584,1.007380723953247,81.77066802978516,24.67,1
-0.1442745476961136,-0.9277064204216005,-0.0426412411034107,1.258663535118103,1.0074098110198977,81.78118133544922,24.67,1
-0.1541626155376434,-0.9592038989067078,-0.0721468925476074,1.291385531425476,1.007428526878357,81.78792572021484,24.67,1
-0.1605082154273986,-1.0969704389572144,-0.1022774651646614,1.1475861072540283,1.0065226554870603,81.79225158691406,24.69,1
-0.1701782196760177,-1.2693476676940918,-0.1496024131774902,0.7257069945335388,1.0059412717819214,81.79502868652344,24.69,1
-0.2323616296052932,-1.307198405265808,-0.2023639380931854,0.1074593961238861,1.005568265914917,81.79681396484375,24.69,1
-0.2946584522724151,-1.0963822603225708,-0.1298655271530151,-0.6439712643623352,1.005328893661499,81.79795837402344,24.69,1
-0.3122458755970001,-0.9163104295730592,-0.0385580249130725,-1.4593758583068848,1.005175232887268,81.79869079589844,24.69,1
-0.3067391514778137,-0.963086187839508,0.0704178512096405,-1.9360820055007928,1.0050766468048096,81.79916381835938,24.69,1
-0.2808141410350799,-1.0546796321868896,0.1067656427621841,-1.5756454467773438,1.005013346672058,81.7994613647461,24.69,1
-0.2193947732448578,-1.0126991271972656,0.0573204942047596,-0.5203457474708557,1.0049726963043213,81.79965209960938,24.69,1
-0.163186028599739,-0.9297807216644288,0.0367849953472614,0.4614038169384002,1.00311017036438,81.79977416992188,24.69,1
-0.138310045003891,-0.8821662664413452,0.0403998158872127,0.844236433506012,1.0019149780273438,81.79985809326172,24.69,1
-0.1671282649040222,-0.8684033751487732,0.0427195988595485,0.7782323360443115,1.001147985458374,81.79991149902344,24.69,1
-0.1968176960945129,-0.8651688694953918,0.0386105291545391,0.5674936771392822,1.0006557703018188,81.79994201660156,24.69,1
-0.2382617592811584,-0.8742887377738953,0.0191802401095628,0.2817855179309845,1.0003398656845093,81.79996490478516,24.69,1
-0.2760537266731262,-0.8801413178443909,0.0011132259387522,-0.1093549132347107,1.0001370906829834,81.79998016357422,24.69,1
-0.3003064393997192,-0.8838971853256226,-0.0048833703622221,-0.6362246870994568,1.0000070333480835,81.79998779296875,24.69,1
-0.332663744688034,-0.9198940992355348,-0.0143294148147106,-1.2931885719299316,0.9999235272407532,81.79999542236328,24.69,1
-0.3646243512630462,-0.95419043302536,-0.0091957934200763,-1.8330150842666624,0.9998699426651,81.79999542236328,24.69,1
-0.3963303864002228,-1.0153841972351074,0.016489764675498,-2.0253939628601074,0.9998355507850648,81.79999542236328,24.69,1
-0.3942863941192627,-1.2057948112487793,0.0049844067543745,-2.227668285369873,0.9998134970664978,81.79999542236328,24.69,1
-0.4041702151298523,-1.3167937994003296,0.0087964795529842,-3.0632436275482178,0.9997993111610411,81.79999542236328,24.69,1
-0.404915302991867,-1.2256910800933838,0.0728183686733245,-4.516607284545898,0.9997902512550354,81.79999542236328,24.69,1
-0.4053934812545776,-1.0664666891098022,0.1586861312389373,-5.893531799316406,0.9997844099998474,81.79999542236328,24.69,1
-0.4560803174972534,-0.9251012206077576,0.2417799830436706,-6.719841480255127,0.9997806549072266,81.79999542236328,24.69,1
-0.4718148708343506,-0.9687275886535645,0.2503226399421692,-7.135477066040039,0.9997782707214355,81.79999542236328,24.69,1
-0.4427279829978943,-1.0583000183105469,0.2558048367500305,-7.033202648162842,0.9988588690757751,81.9397201538086,24.69,1
-0.3568884134292602,-1.0430114269256592,0.3041051924228668,-5.290923595428467,0.9982688426971436,82.02938842773438,24.69,1
-0.2962037324905395,-1.0052111148834229,0.3406993448734283,-0.8123733401298523,0.9978902339935304,82.08692932128906,24.69,1
-0.2740531265735626,-0.9585620164871216,0.3529878258705139,5.82340669631958,0.997647225856781,82.12385559082031,24.69,1
-0.2654359042644501,-0.9118319749832152,0.3384827673435211,12.535932540893556,0.9974913001060486,82.14755249023438,24.69,1
-0.2487103193998336,-0.8706477880477905,0.3179787099361419,17.277137756347656,0.9973912239074708,82.16275787353516,24.69,1
-0.2267812639474868,-0.8386203646659851,0.2992225885391235,18.92256546020508,0.9973270297050476,82.17251586914062,24.69,1
-0.2015129029750824,-0.8180670142173767,0.2871859967708587,17.528024673461914,0.9972858428955078,82.17877960205078,24.69,1
-0.1796993464231491,-0.8104748129844666,0.273863822221756,14.31516170501709,0.9972593784332277,82.18280029296875,24.65,1
-0.1712984442710876,-0.8056025505065918,0.2541188895702362,10.687746047973633,0.9972423911094666,82.18537902832031,24.65,1
-0.1715050041675567,-0.8024758100509644,0.2358499467372894,7.177629470825195,0.9972314834594728,82.1870346069336,24.65,1
-0.1940286606550216,-0.8452515006065369,0.2185282111167907,3.642476320266724,0.997224509716034,82.18809509277344,24.65,1
-0.214080810546875,-0.895093560218811,0.2074121236801147,0.098421961069107,0.9972200393676758,82.18878173828125,24.65,1
-0.2325469106435775,-0.9998503923416138,0.183485135436058,-3.035766363143921,0.9972171783447266,82.18921661376953,24.65,1
-0.2443973869085312,-1.128652811050415,0.1737279444932937,-5.31580114364624,0.9972153306007384,82.18949890136719,24.65,1
-0.2631978988647461,-1.110550880432129,0.1786618828773498,-6.639276027679443,0.997214138507843,82.18968200683594,24.65,1
-0.3256429433822632,-0.9757830500602722,0.2266104072332382,-7.320224761962891,0.9976723194122314,82.1897964477539,24.65,1
-0.4328898787498474,-0.9284812211990356,0.2909676432609558,-7.778714179992676,0.9979663491249084,82.18987274169922,24.65,1
-0.5129103064537048,-0.9708966612815856,0.3546595275402069,-8.001294136047363,0.9981550574302672,82.1899185180664,24.65,1
-0.457905113697052,-0.9533342719078064,0.3731422126293182,-7.495687484741211,0.9982761144638062,82.18994903564453,24.65,1
-0.3722259998321533,-0.947661519050598,0.3738077878952026,-6.082115173339844,0.9983538389205932,82.18997192382812,24.65,1
-0.3228398263454437,-0.9272277355194092,0.3686371445655823,-4.383216381072998,0.9984037280082704,82.18997955322266,24.65,1
-0.3079399466514587,-0.908516764640808,0.3653189241886139,-3.124579906463623,0.9984357357025146,82.18998718261719,24.65,1
-0.3375625014305115,-0.9244980216026306,0.3352006077766418,-2.363433122634888,0.9984562397003174,82.18999481201172,24.65,1
-0.3509747684001922,-0.945949375629425,0.2878835201263428,-1.8104865550994875,0.9961740374565125,82.18999481201172,24.65,1
-0.3595819771289825,-0.9597156643867492,0.2463225871324539,-1.4018986225128174,0.9947094917297364,82.18999481201172,24.65,1
-0.3595078289508819,-0.9573544859886168,0.1972600817680359,-1.2077593803405762,0.9937695860862732,82.18999481201172,24.65,1
-0.353862464427948,-0.9502414464950562,0.1545790433883667,-1.262300729751587,0.993166446685791,82.18999481201172,24.65,1
-0.3614351451396942,-0.9456767439842224,0.121591031551361,-1.5767431259155271,0.9927793741226196,82.18999481201172,24.65,1
-0.3606970906257629,-0.9427473545074464,0.1228123232722282,-2.0866355895996094,0.9925309419631958,82.18999481201172,24.65,1
-0.3658212125301361,-0.924074113368988,0.1291938424110412,-2.66821813583374,0.9923715591430664,82.18999481201172,24.65,1
-0.3579140305519104,-0.9232862591743468,0.1332891434431076,-3.145339012145996,0.9922692775726318,82.18999481201172,24.65,1
-0.3472418785095215,-0.9339762330055236,0.1303194910287857,-3.215077638626098,0.9926629066467284,82.32254791259766,24.65,1
-0.3683819770812988,-1.002411961555481,0.0892293229699134,-2.64721155166626,0.9929155111312866,82.4076156616211,24.65,1
-0.3819484710693359,-1.0463300943374634,0.0292733740061521,-1.666584849357605,0.9930776357650756,82.46220397949219,24.65,1
-0.3962524533271789,-1.1192964315414429,-0.0315940044820308,-0.7793295979499817,0.9931816458702089,82.49723815917969,24.65,1
-0.439018577337265,-1.177317500114441,-0.0538618601858615,-0.19919253885746,0.9932484030723572,82.51972198486328,24.65,1
-0.4720611870288849,-1.108194351196289,-0.0569565407931804,0.2483401149511337,0.9932912588119508,82.53414916992188,24.65,1
-0.5044615864753723,-1.1086173057556152,-0.0981269478797912,0.7397476434707642,0.993318736553192,82.54341125488281,24.65,1
-0.5140587091445923,-1.1928553581237793,-0.1413410753011703,1.3130501508712769,0.9933363795280457,82.54935455322266,24.65,1
-0.509022057056427,-1.2693055868148804,-0.1578778624534607,2.006977081298828,0.9928883910179138,82.55316925048828,24.65,1
-0.4554098546504974,-1.2567914724349976,-0.1237080246210098,2.7854788303375244,0.992600917816162,82.55561828613281,24.65,1
-0.3930157721042633,-1.237565040588379,-0.0905842408537864,3.3638932704925537,0.9924164414405824,82.55718994140625,24.65,1
-0.3305837512016296,-1.2364221811294556,-0.0693273022770881,3.3589158058166504,0.9922980666160583,82.55819702148438,24.65,1
-0.2961162328720093,-1.218895435333252,-0.0500880479812622,2.6965277194976807,0.9922220706939696,82.55884552001953,24.65,1
-0.2739969789981842,-1.202049970626831,-0.0433391742408275,1.7448065280914309,0.9921733140945436,82.55925750732422,24.65,1
-0.2486065626144409,-1.191239595413208,-0.0390081368386745,1.0158216953277588,0.9921420216560364,82.55952453613281,24.65,1
-0.2323124557733535,-1.201095461845398,-0.0306309517472982,0.6877216696739197,0.9921219348907472,82.5596923828125,24.65,1
-0.2218558341264724,-1.2130180597305298,0.0027339167427271,0.5129916667938232,0.988895833492279,82.55979919433594,24.65,1
-0.2151453644037246,-1.2094738483428955,0.0353411175310611,0.1894880831241607,0.9868255257606506,82.55986785888672,24.65,1
-0.1996434330940246,-1.1792104244232178,0.078657642006874,-0.2366550117731094,0.9854969382286072,82.5599136352539,24.65,1
-0.2008907347917556,-1.109409213066101,0.1120534688234329,-0.4241473078727722,0.9846442937850952,82.55994415283203,24.65,1
-0.2016911804676056,-1.087005853652954,0.1166916638612747,-0.153968334197998,0.9840971231460572,82.55996704101562,24.65,1
-0.1910093128681183,-0.9998576045036316,0.1476570665836334,0.266614705324173,0.9837459921836852,82.55997467041016,24.65,1
-0.1953498423099517,-0.8935509324073792,0.1843221932649612,0.1496025174856186,0.9835206270217896,82.55998229980469,24.65,1
-0.2149286717176437,-0.7189716696739197,0.241438403725624,-0.6025959253311157,0.9833760261535645,82.55998992919922,24.65,1
-0.2442865669727325,-0.6685122847557068,0.2948856353759765,-0.999331831932068,0.9846603870391846,82.55998992919922,24.65,1
-0.2743223309516907,-0.7089014053344727,0.3291849792003631,-0.1218402087688446,0.9854846000671388,82.55998992919922,24.65,1
-0.3103908598423004,-0.813189685344696,0.3455985486507416,1.6701068878173828,0.9860135316848756,82.55998992919922,24.65,1
-0.3559286594390869,-0.8801158666610718,0.3393385112285614,3.271479845046997,0.9863529801368712,82.55998992919922,24.65,1
-0.37955442070961,-0.9566519260406494,0.2961367666721344,4.051950931549072,0.9865708351135254,82.55998992919922,24.65,1
-0.3947160840034485,-1.0113661289215088,0.290803462266922,3.993930816650391,0.9867106080055236,82.55998992919922,24.65,1
-0.4044459760189056,-1.0352829694747925,0.2985764145851135,3.23301649093628,0.9868003129959106,82.55998992919922,24.65,1
-0.4050922691822052,-1.0450336933135986,0.3091624081134796,2.099841833114624,0.9868578910827636,82.55998992919922,24.65,1
-0.4055070281028747,-1.040095567703247,0.3159559071063995,1.1146903038024902,0.985517680644989,82.67821502685547,24.65,1
-0.3945776522159576,-1.025731086730957,0.3091200292110443,0.4824766516685486,0.98465758562088,82.75408935546875,24.65,1
-0.3931615948677063,-0.9997193813323976,0.2991353869438171,-0.0128060327842831,0.98410564661026,82.80278015136719,24.65,1
-0.3978506028652191,-0.966233253479004,0.2983255982398987,-0.5205264687538147,0.9837514758110046,82.83403015136719,24.65,1
-0.4008597433567047,-0.9391460418701172,0.2866103649139404,-0.9180037379264832,0.9835241436958312,82.85408020019531,24.65,1
-0.3971930742263794,-0.9497518539428712,0.2622988820075989,-1.130090832710266,0.983378291130066,82.86695098876953,24.65,1
-0.3612533509731293,-0.9957424998283386,0.2187082916498184,-1.2626135349273682,0.9832846522331238,82.87520599365234,24.65,1
-0.3157982230186462,-1.025256633758545,0.1851365864276886,-1.3512415885925293,0.9832245707511902,82.88050842285156,24.65,1
-0.2866277396678924,-1.0609904527664185,0.1579944193363189,-1.3794573545455933,0.98180890083313,82.8839111328125,24.65,1
-0.2847011089324951,-1.0839223861694336,0.1405761390924453,-1.426225185394287,0.9809004068374634,82.88609313964844,24.65,1
-0.3226491510868072,-1.1210298538208008,0.0902136713266372,-1.5637153387069702,0.9803173542022704,82.88748931884766,24.65,1
-0.3637953400611877,-1.1056588888168335,0.0522961653769016,-1.7021048069000244,0.9799432158470154,82.88838958740234,24.65,1
-0.4181894659996032,-0.9446547627449036,-0.0280148480087518,-1.8339060544967647,0.97970312833786,82.88896942138672,24.65,1
-0.4754875898361206,-0.9029070734977722,-0.0963471531867981,-2.119112730026245,0.9795490503311156,82.88933563232422,24.65,1
-0.5402470827102661,-0.9824735522270204,-0.1625899970531463,-2.527844190597534,0.9794501662254332,82.88957214355469,24.65,1
-0.576208233833313,-1.050328016281128,-0.2162963896989822,-2.736405849456787,0.9793866872787476,82.88972473144531,24.65,1
-0.554503858089447,-1.037895441055298,-0.2395665049552917,-2.565729856491089,0.9802641868591307,82.88982391357422,24.65,1
-0.4901952445507049,-1.018721342086792,-0.220913290977478,-2.133768081665039,0.9808273315429688,82.88988494873047,24.65,1
-0.432132363319397,-0.995220959186554,-0.1865516304969787,-1.670265793800354,0.981188714504242,82.88992309570312,24.65,1
-0.4172620475292206,-0.9353575706481934,-0.1533047407865524,-1.433720588684082,0.981420636177063,82.88995361328125,24.65,1
-0.4077191352844238,-0.880147397518158,-0.1263710260391235,-1.5792732238769531,0.9815694689750672,82.88996887207031,24.65,1
-0.4015950262546539,-0.8447166681289673,-0.1146842986345291,-1.927043437957764,0.9816649556159972,82.88997650146484,24.65,1
-0.3808715939521789,-0.8611636757850647,-0.1127822026610374,-2.1251442432403564,0.9817262291908264,82.88998413085938,24.65,1
-0.3563769459724426,-0.8885117173194885,-0.111561544239521,-2.0588150024414062,0.9817655682563782,82.8899917602539,24.65,1
-0.3182666003704071,-0.9676376581192015,-0.110778197646141,-1.844285011291504,0.9794954657554626,82.8899917602539,24.65,1
-0.2826140224933624,-1.0408072471618652,-0.104677714407444,-1.620630145072937,0.9780386090278624,82.8899917602539,24.65,1
-0.2429409325122833,-1.048578858375549,-0.0895672291517257,-1.4771013259887695,0.9771037101745604,82.8899917602539,24.65,1
-0.2174810320138931,-1.0703595876693726,-0.1022612899541854,-1.4638094902038574,0.9765037298202516,82.8899917602539,24.65,1
-0.2123378813266754,-1.1123260259628296,-0.1160053759813308,-1.6630688905715942,0.9761186838150024,82.8899917602539,24.65,1
-0.2874061465263366,-1.0664865970611572,-0.0800433456897735,-2.213685989379883,0.9758716225624084,82.8899917602539,24.65,1
-0.397156149148941,-0.9698961973190308,-0.0121827907860279,-3.075766086578369,0.975713074207306,82.8899917602539,24.65,1
-0.5291628837585449,-0.8351389765739441,0.0313662067055702,-3.682738304138184,0.9756113290786744,82.8899917602539,24.65,1
-0.5523017048835754,-0.9221905469894408,-0.0190553925931453,-3.2482657432556152,0.9773820638656616,83.02971649169922,24.65,1
-0.5223686695098877,-1.017239689826965,-0.0626086220145225,-1.5256681442260742,0.9785184264183044,83.119384765625,24.65,1
-0.4303883016109466,-1.0166611671447754,-0.0457763858139514,0.8695229887962341,0.9792476892471312,83.17692565917969,24.65,1
-0.3265784084796905,-1.027485489845276,-0.0069855530746281,2.969083070755005,0.9797157049179076,83.21385192871094,24.65,1
-0.2431658655405044,-0.9840519428253174,0.0682881474494934,4.255556106567383,0.9800160527229308,83.237548828125,24.65,1
-0.2400164753198623,-0.93938547372818,0.1109966933727264,4.980828285217285,0.9802087545394896,83.25275421142578,24.65,1
-0.2547886967658996,-0.9051233530044556,0.1272090375423431,5.740037441253662,0.9803324341773988,83.26251220703125,24.65,1
-0.2978553175926208,-0.8663425445556641,0.1040265336632728,6.714484691619873,0.9804118275642396,83.2687759399414,24.65,1
-0.3366885185241699,-0.8414552807807922,0.0723560154438018,7.576278686523437,0.9781677722930908,83.27279663085938,24.67,1
-0.3728049993515014,-0.8366795778274536,0.0520316995680332,8.00752067565918,0.9767276644706726,83.27537536621094,24.67,1
-0.3959824740886688,-0.822419285774231,0.0557820461690425,7.954670429229736,0.9758034944534302,83.27703094482422,24.67,1
-0.3996608853340149,-0.7964745163917542,0.0693843513727188,7.48009729385376,0.9752103686332704,83.27809143066406,24.67,1
-0.3628370761871338,-0.7686291337013245,0.0893090814352035,6.759964466094971,0.9748297333717346,83.27877807617188,24.67,1
-0.3224123418331146,-0.7731506824493408,0.0964978486299514,5.943150043487549,0.9745854735374452,83.27921295166016,24.67,1
-0.30766561627388,-0.8600189685821533,0.0899156332015991,5.006969451904297,0.9744287133216858,83.27949523925781,24.67,1
-0.3093975782394409,-1.0333192348480225,0.0744960010051727,3.987021207809448,0.9743281602859496,83.27967834472656,24.67,1
-0.3273023664951324,-1.1781200170516968,0.0757961198687553,3.1175224781036377,0.9738043546676636,83.27979278564453,24.67,1
-0.3667815029621124,-1.1814804077148438,0.1046193316578865,2.491459369659424,0.9734681844711304,83.27986907958984,24.67,1
-0.3865191638469696,-1.1668436527252195,0.1287141889333725,1.7851691246032717,0.9732524752616882,83.27991485595703,24.67,1
-0.3991856575012207,-1.1294617652893066,0.1161880046129226,0.5401634573936462,0.973114013671875,83.27994537353516,24.67,1
-0.3961187303066253,-1.1446566581726074,0.0913560986518859,-1.2834261655807495,0.9730251431465148,83.27996826171875,24.67,1
-0.3885527849197387,-1.1544078588485718,0.0754204094409942,-3.019747972488404,0.9729681015014648,83.27997589111328,24.67,1
-0.3725018501281738,-1.1606656312942505,0.0875848978757858,-3.936977624893189,0.9729315042495728,83.27998352050781,24.67,1
-0.3398101925849914,-1.1198992729187012,0.1177824661135673,-4.077780723571777,0.9729080200195312,83.27999114990234,24.67,1
-0.2628528177738189,-1.015368938446045,0.1651503890752792,-3.920942544937134,0.9728929400444032,83.27999114990234,24.67,1
-0.213466003537178,-0.9314940571784972,0.2011461853981018,-3.569512367248535,0.9728832840919496,83.27999114990234,24.67,1
-0.2041634917259216,-0.8776679635047913,0.2186484336853027,-3.021553039550781,0.9728770852088928,83.27999114990234,24.67,1
-0.2373780906200409,-0.826332151889801,0.2242825925350189,-2.569592237472534,0.9728730916976928,83.27999114990234,24.67,1
-0.2698888480663299,-0.7765944600105286,0.2167027294635772,-2.3941919803619385,0.9728705286979676,83.27999114990234,24.67,1
-0.2571657299995422,-0.7558712363243103,0.2062406241893768,-2.3891077041625977,0.9728689193725586,83.27999114990234,24.67,1
-0.2154141366481781,-0.7593656182289124,0.2219177484512329,-2.504069805145264,0.9728678464889526,83.27999114990234,24.67,1
-0.1886203587055206,-0.7616080641746521,0.2375762015581131,-2.7175662517547607,0.97286719083786,83.27999114990234,24.67,1
-0.1770234256982803,-0.7798404693603516,0.2532226741313934,-2.858158588409424,0.9733260273933412,83.36956024169922,24.67,1
-0.1919722855091095,-0.8419209718704224,0.2464703470468521,-2.8516530990600586,0.9736204743385316,83.42704010009766,24.67,1
-0.2127611488103866,-0.8985539674758911,0.2365393191576004,-2.865391254425049,0.9738094806671144,83.46392822265625,24.67,1
-0.2428955733776092,-0.9908755421638488,0.2021772861480713,-2.999597787857056,0.9739307761192322,83.48760223388672,24.67,1
-0.273429661989212,-1.0781110525131226,0.1745279431343078,-3.0749759674072266,0.974008560180664,83.50279235839844,24.67,1
-0.3098179996013641,-1.1340937614440918,0.1455886363983154,-2.8439085483551025,0.9740585088729858,83.51254272460938,24.67,1
-0.3387677073478699,-1.1924114227294922,0.1214192807674408,-2.34094762802124,0.974090576171875,83.518798828125,24.67,1
-0.3797370791435241,-1.1402719020843506,0.1171043291687965,-1.8354649543762207,0.9741111397743224,83.52281188964844,24.67,1
-0.3948332965373993,-1.134800672531128,0.1087374612689018,-1.4143457412719729,0.9713700413703918,83.52538299560547,24.67,1
-0.3877278566360473,-1.164876103401184,0.0921725407242775,-0.8503245115280151,0.9696109890937804,83.52703857421875,24.67,1
-0.3607769012451172,-1.206567883491516,0.0703465789556503,0.0239402092993259,0.9684821367263794,83.5280990600586,24.67,1
-0.3378835618495941,-1.2109322547912598,0.0563399344682693,1.0256496667861938,0.9677577018737792,83.52877807617188,24.67,1
-0.3231919407844543,-1.1129730939865112,0.047351274639368,1.8010445833206177,0.9672927856445312,83.52921295166016,24.67,1
-0.3193614780902862,-0.9885330200195312,0.0359850972890853,2.0550332069396973,0.9669944047927856,83.52949523925781,24.67,1
-0.3225010633468628,-0.9030767679214478,0.0230931639671325,1.677059531211853,0.9668029546737672,83.52967834472656,24.67,1
-0.3469069898128509,-0.8482358455657959,-0.0019734599627554,0.8290425539016724,0.966680109500885,83.52979278564453,24.67,1
-0.3737648427486419,-0.8130421042442322,-0.0236575510352849,-0.0698408931493759,0.9675191044807434,83.52986907958984,24.67,1
-0.4189895391464233,-0.7904567718505859,-0.0375731512904167,-0.5857887864112854,0.9680575132369996,83.52991485595703,24.67,1
-0.4648054838180542,-0.7367783784866333,-0.0353078357875347,-0.6231232285499573,0.9684030413627625,83.52994537353516,24.67,1
-0.5054030418395996,-0.707928478717804,-0.0394518598914146,-0.4070497751235962,0.9686247706413268,83.52996826171875,24.67,1
-0.5538473129272461,-0.7118053436279297,-0.0645023509860038,-0.1967347562313079,0.9687670469284058,83.52997589111328,24.67,1
-0.5905338525772095,-0.7142933011054993,-0.0805783197283744,-0.1155053153634071,0.9688583612442015,83.52998352050781,24.67,1
-0.608479380607605,-0.7438788414001465,-0.0908949449658393,-0.1314458698034286,0.968916952610016,83.52999114990234,24.67,1
-0.6479846835136414,-0.8356361985206604,-0.1199066638946533,-0.0485286340117454,0.9689545631408693,83.52999114990234,24.67,1
-0.6845324635505676,-0.8721296787261963,-0.1329269409179687,0.3056192100048065,0.967142641544342,83.52999114990234,24.67,1
-0.7359755635261536,-0.7779958248138428,-0.0797070860862732,0.8338272571563721,0.9659798741340636,83.52999114990234,24.67,1
-0.7521954774856567,-0.6895972490310669,-0.0231625474989414,1.2946083545684814,0.9652336835861206,83.52999114990234,24.67,1
-0.8017889261245728,-0.8175947070121765,0.0187222547829151,1.511494517326355,0.9647548198699952,83.52999114990234,24.67,1
-0.8056262731552124,-0.9893004894256592,0.0959814861416816,1.4142295122146606,0.9644474983215332,83.52999114990234,24.67,1
-0.7800999879837036,-1.0715025663375854,0.1623553335666656,1.1189430952072144,0.9642502665519714,83.52999114990234,24.67,1
-0.6853498220443726,-1.0850706100463867,0.2721235454082489,0.9831838607788086,0.9641237258911132,83.52999114990234,24.67,1
-0.5797623991966248,-1.0545934438705444,0.3481642305850982,1.1647546291351318,0.9640424847602844,83.52999114990234,24.67,1
-0.3888514637947082,-1.007046103477478,0.3969627618789673,1.3457626104354858,0.9616950154304504,83.605224609375,24.67,1
-0.1767714172601699,-0.9709351658821106,0.4394744038581848,1.107248067855835,0.9601885676383972,83.65351104736328,24.67,1
-0.0294751096516847,-0.9253700971603394,0.4723536968231201,0.2914067804813385,0.9592217803001404,83.68449401855469,24.67,1
0.0146712167188525,-0.8849335312843323,0.4710626304149627,-0.8591040372848511,0.9586013555526732,83.70437622070312,24.67,1
0.003817367600277,-0.8589836955070496,0.4366474747657776,-1.715660572052002,0.9582031965255736,83.7171401977539,24.67,1
-0.0423324257135391,-0.8479283452033997,0.3529862761497497,-1.8318575620651243,0.9579476714134216,83.72532653808594,24.67,1
-0.099937580525875,-0.8408336639404297,0.2657106816768646,-1.5374208688735962,0.9577836990356444,83.73058319091797,24.67,1
-0.142503023147583,-0.8474762439727783,0.1929089128971099,-1.4201198816299438,0.957678496837616,83.73395538330078,24.67,1
-0.1698190718889236,-0.9021190404891968,0.1126022860407829,-1.4200769662857056,0.9580702781677246,83.73612213134766,24.67,1
-0.1817511767148971,-0.9763700366020204,0.0442727915942668,-1.0474615097045898,0.9583216905593872,83.73751068115234,24.67,1
-0.1950062811374664,-1.1135845184326172,-0.0275660157203674,-0.1957179754972458,0.9584830403327942,83.7384033203125,24.67,1
-0.242697075009346,-1.229629635810852,-0.0736680254340171,0.7843737006187439,0.958586573600769,83.73897552490234,24.67,1
-0.2956933677196502,-1.2817096710205078,-0.0920580923557281,1.617546796798706,0.9586530327796936,83.73934173583984,24.67,1
-0.3408989012241363,-1.1024161577224731,-0.0198931638151407,2.3134453296661377,0.958695650100708,83.73957824707031,24.67,1
-0.347518116235733,-0.9705626368522644,0.0600047819316387,2.971405029296875,0.95872300863266,83.73973083496094,24.67,1
-0.3125815093517303,-1.0482821464538574,0.1168764531612396,3.665921211242676,0.958740532398224,83.73983001708984,24.67,1
-0.2621723413467407,-1.081364631652832,0.0862001255154609,4.401810169219971,0.9587517976760864,83.7398910522461,24.67,1
-0.2186270803213119,-1.0522150993347168,0.0441227294504642,4.920635223388672,0.9587590098381042,83.73992919921875,24.67,1
-0.1794866919517517,-0.9607375860214232,0.0171198807656765,4.752026557922363,0.9587636590003968,83.73995208740234,24.67,1
-0.1655641943216323,-0.8852392435073853,0.0053887795656919,3.737431764602661,0.9587666392326356,83.7399673461914,24.67,1
-0.1902161836624145,-0.8367887735366821,0.009055983275175,2.301738977432251,0.9587685465812684,83.73997497558594,24.67,1
-0.2284275144338607,-0.8000982403755188,0.0002138343843398,0.9791455268859864,0.9587697982788086,83.73998260498047,24.67,1
-0.2585471272468567,-0.7765523791313171,-0.0110583221539855,-0.0953210294246673,0.9587705731391908,83.739990234375,24.67,1
-0.2610828280448913,-0.7614420056343079,-0.0294876918196678,-1.0069715976715088,0.9587711095809937,83.739990234375,24.67,1
-0.2627100944519043,-0.7461472749710083,-0.0413146018981933,-1.6600853204727173,0.9578531980514526,83.739990234375,24.67,1
-0.2805477082729339,-0.7643208503723145,-0.0433066561818122,-1.957408547401428,0.9572641253471376,83.739990234375,24.67,1
-0.3199837207794189,-0.815168023109436,-0.0277917198836803,-2.0908923149108887,0.956886112689972,83.739990234375,24.67,1
-0.3620848059654236,-0.870189905166626,-0.0178351253271102,-2.316274881362915,0.956643521785736,83.739990234375,24.67,1
-0.4226895272731781,-1.0230530500411987,-0.0058477823622524,-2.657954216003418,0.9564878344535828,83.739990234375,24.67,1
-0.4503865838050842,-1.1379451751708984,0.0074427784420549,-3.0563530921936035,0.9563879370689392,83.739990234375,24.67,1
-0.4401721060276031,-1.0941230058670044,0.0439607687294483,-3.602210998535156,0.9563238620758056,83.739990234375,24.67,1
-0.3832370638847351,-0.9484472274780272,0.1009825617074966,-4.428993701934815,0.9562827348709106,83.739990234375,24.67,1
-0.3411016464233398,-0.8997430801391602,0.1487714052200317,-5.453970909118652,0.9580923914909364,83.82239532470703,24.67,1
-0.3308548927307129,-1.0923985242843628,0.1738417595624923,-6.380435466766357,0.95925372838974,83.87527465820312,24.67,1
-0.296290248632431,-1.266413688659668,0.1787349283695221,-7.032308101654053,0.9599990248680116,83.90921020507812,24.67,1
-0.2069353461265564,-1.2829244136810305,0.1986684054136276,-7.368243217468262,0.9604772925376892,83.93099212646484,24.67,1
-0.1216036453843116,-1.2039556503295898,0.2562427520751953,-6.938963413238525,0.9607841968536376,83.9449691772461,24.67,1
-0.0556471236050128,-1.1252892017364502,0.2819951176643371,-4.92234468460083,0.9609811902046204,83.95393371582031,24.67,1
0.0258643962442874,-1.0412189960479736,0.3209125995635986,-1.2887730598449707,0.961107611656189,83.95968627929688,24.67,1
0.0781738013029098,-0.9984630942344666,0.3346920311450958,2.6659507751464844,0.9611887335777284,83.96337890625,24.67,1
0.1621229350566864,-0.9430359601974488,0.332339346408844,5.59078311920166,0.9584864974021912,83.96575164794922,24.67,1
0.1656166911125183,-0.9410526752471924,0.2244718074798584,7.256400108337402,0.956752359867096,83.96727752685547,24.67,1
0.1454676836729049,-0.9397798776626588,0.1104664355516433,8.024360656738281,0.9556394815444946,83.96825408935547,24.67,1
0.0821572393178939,-0.905376434326172,-0.0018800622783601,8.069372177124023,0.954925298690796,83.96887969970703,24.67,1
0.0303326901048421,-0.8832982778549194,-0.0739775821566581,7.550123691558838,0.954466998577118,83.96928405761719,24.67,1
-0.0141208721324801,-0.913911998271942,-0.1314411610364914,6.708174228668213,0.9541728496551514,83.96954345703125,24.67,1
-0.0482463836669921,-0.9615470170974731,-0.173915758728981,5.533743381500244,0.9539840817451476,83.9697036743164,24.67,1
-0.058950625360012,-1.0033119916915894,-0.2123690694570541,3.9954774379730233,0.953862965106964,83.96981048583984,24.67,1
-0.0546244420111179,-1.1084831953048706,-0.2482417374849319,2.460172653198242,0.9528673887252808,83.96987915039062,24.67,1
-0.0630436912178993,-1.1983671188354492,-0.2712627351284027,1.3208516836166382,0.9522284865379332,83.96992492675781,24.67,1
-0.1188266575336456,-1.2728427648544312,-0.2356563210487365,0.4499806761741638,0.9518184661865234,83.96995544433594,24.67,1
-0.2050049155950546,-1.1527036428451538,-0.1512306630611419,-0.5316381454467773,0.9515553712844848,83.969970703125,24.67,1
