acc_x,acc_y,acc_z,bvp,eda,hr,temp,label
0.0,0.0,0.0,0.0,0.0,0.0,35.41,1
-0.0390624962747097,-0.1484374850988388,0.0729166641831398,-0.869999885559082,0.3516534864902496,10.354999542236328,35.41,1
-0.091463416814804,-0.3433688879013061,0.170731708407402,-1.5380487442016602,0.8233838081359863,24.245853424072266,35.41,1
-0.1470099687576294,-0.5129256844520569,0.2508305609226227,-0.6552159190177917,1.2337080240249634,36.32850646972656,35.41,1
-0.1661813706159591,-0.6312882900238037,0.29859060049057,1.895236134529113,1.5330616235733032,45.14345169067383,35.41,1
-0.212099552154541,-0.7169144749641418,0.3419055938720703,4.978180408477783,1.735736608505249,51.11154174804688,35.41,1
-0.2477815598249435,-0.7897567749023438,0.3647733926773071,8.53990364074707,1.868720531463623,55.0274658203125,35.41,1
-0.2150977104902267,-0.797877848148346,0.3963217437267303,13.589011192321776,1.9548476934432983,57.563621520996094,35.41,1
-0.2219945639371872,-0.8142895698547363,0.4110541343688965,19.77165031433105,2.008953094482422,59.19734191894531,35.41,1
-0.2432114034891128,-0.8360273838043213,0.4205232560634613,24.7695369720459,2.043729066848755,60.24740219116211,35.41,1
-0.2512393891811371,-0.8443899154663086,0.4377968609333038,26.55341529846192,2.0660605430603027,60.92170333862305,35.41,1
-0.2563926577568054,-0.8441606760025024,0.4432877600193023,25.00108337402344,2.080395460128784,61.35454559326172,35.41,1
-0.2485049664974212,-0.8384159803390503,0.4356167614459991,20.98120307922364,2.0895957946777344,61.6323471069336,35.41,1
-0.2378451973199844,-0.8403269052505493,0.4362914264202118,15.212918281555176,2.095500230789185,61.81063079833984,35.41,1
-0.2477974593639373,-0.8359555006027222,0.4423221349716186,8.7811918258667,2.0992894172668457,61.92504501342773,35.41,1
-0.2541843056678772,-0.8331501483917236,0.4349968135356903,3.070155143737793,2.1017210483551025,61.99847030639648,35.41,1
-0.2638807892799377,-0.8369476199150085,0.4414913654327392,-1.795032978057861,2.169843435287476,62.04559326171875,35.41,1
-0.2645056545734405,-0.844982385635376,0.445659190416336,-6.450575828552246,2.2135603427886963,62.07583236694336,35.41,1
-0.2537111341953277,-0.8501386642456055,0.4483338594436645,-10.247899055480955,2.241615295410156,62.0952377319336,35.41,1
-0.2691749036312103,-0.853447675704956,0.4332570135593414,-11.541961669921877,2.2596194744110107,62.10769271850586,35.41,1
-0.2846964597702026,-0.8443756103515625,0.4179837703704834,-10.000751495361328,2.271173477172852,62.115684509277344,35.41,1
-0.294657289981842,-0.8553470373153687,0.4193778336048126,-6.869311332702637,2.27858829498291,62.12081527709961,35.41,1
-0.284256249666214,-0.8791812062263489,0.4258702397346496,-3.3693814277648926,2.283346652984619,62.12410736083984,35.41,1
-0.283179223537445,-0.8832810521125793,0.4300366938114166,-0.5644463300704956,2.286400318145752,62.126220703125,35.41,1
-0.2992813885211944,-0.880314290523529,0.4383082687854767,1.5042928457260132,2.384300947189331,62.1275749206543,35.41,1
-0.2984192669391632,-0.8784103989601135,0.4380187094211578,3.7776904106140137,2.44712781906128,62.12844467163086,35.41,1
-0.2922682464122772,-0.8603952527046204,0.4322350919246673,6.429624080657959,2.487446546554565,62.12900161743164,35.41,1
-0.293918639421463,-0.848834216594696,0.4285235106945038,8.213881492614746,2.5133206844329834,62.12936019897461,35.41,1
-0.2893800139427185,-0.8414149880409241,0.426141619682312,8.208908081054688,2.529925346374512,62.12958908081055,35.41,1
-0.2920651435852051,-0.8366537690162659,0.4190152883529663,7.02346658706665,2.540581226348877,62.12973785400391,35.41,1
-0.2993860840797424,-0.8503915667533875,0.4088442623615265,5.9223737716674805,2.547419548034668,62.12983322143555,35.41,1
-0.3040842413902282,-0.8648055195808411,0.3911215364933014,5.968096733093262,2.5518081188201904,62.1298942565918,35.41,1
-0.3070992529392242,-0.8740555644035339,0.3461614549160003,6.330618858337402,2.5743632316589355,62.01528930664063,35.41,1
-0.3090341091156006,-0.8799917101860046,0.3061131238937378,5.767932891845703,2.5888378620147705,61.941741943359375,35.41,1
-0.3214713335037231,-0.8726056218147278,0.2692168354988098,4.4825286865234375,2.5981268882751465,61.89454650878906,35.41,1
-0.3294528424739837,-0.879061222076416,0.2511367201805115,4.574769496917725,2.604087829589844,61.8642578125,35.41,1
-0.3345749080181122,-0.8888018131256104,0.239533931016922,6.33927059173584,2.6079132556915283,61.84482192993164,35.41,1
-0.3490574955940246,-0.8894549608230591,0.2544790208339691,6.980813026428223,2.610368251800537,61.83234786987305,35.41,1
-0.3359605073928833,-0.8842763900756836,0.2808632552623749,4.51929235458374,2.61194372177124,61.8243408203125,35.41,1
-0.2939689457416534,-0.9257352352142334,0.3761639595031738,-0.8865607976913452,2.61295485496521,61.8192024230957,35.41,1
-0.2838145196437835,-0.9523411393165588,0.4373224675655365,-8.497183799743652,2.6122264862060547,61.8159065246582,35.41,1
-0.3332757353782654,-0.963817536830902,0.4261905252933502,-20.367265701293945,2.611759185791016,61.81378936767578,35.41,1
-0.4042015075683594,-0.965584635734558,0.3574711680412292,-37.30308151245117,2.611459255218506,61.81243133544922,35.41,1
-0.4329242706298828,-0.9555230736732484,0.2909799516201019,-57.17810821533203,2.611266851425171,61.811561584472656,35.41,1
-0.4233680069446563,-0.9378706216812134,0.2371141463518142,-73.84492492675781,2.6111433506011963,61.81100082397461,35.41,1
-0.3948442637920379,-0.9489333629608154,0.1689595282077789,-69.4903335571289,2.6110641956329346,61.81064224243164,35.41,1
-0.3373549282550812,-0.97282612323761,0.1364173740148544,-40.77587127685547,2.611013174057007,61.8104133605957,35.41,1
-0.238886073231697,-0.9825613498687744,0.1323270201683044,-3.586633443832397,2.61098051071167,61.81026458740234,35.41,1
-0.153303325176239,-0.9608200192451476,0.1408976018428802,22.991287231445312,2.600860595703125,61.8101692199707,35.43,1
-0.1039790213108062,-0.9356721043586732,0.1575932651758194,32.176551818847656,2.594366312026977,61.81010818481445,35.43,1
-0.1059121713042259,-0.9195336103439332,0.1739053577184677,29.33680534362793,2.590198516845703,61.8100700378418,35.43,1
-0.1183483079075813,-0.9147746562957764,0.1843735128641128,22.692272186279297,2.587523937225342,61.8100471496582,35.43,1
-0.1655135303735733,-0.9173184037208556,0.1742980480194091,16.94500732421875,2.5858075618743896,61.81003189086914,35.43,1
-0.1957814544439315,-0.9133530855178832,0.1678321957588195,14.163134574890137,2.5847060680389404,61.810020446777344,35.43,1
-0.2096078842878341,-0.9220039248466492,0.17487832903862,13.40967082977295,2.5839991569519043,61.81001281738281,35.43,1
-0.2184808850288391,-0.9387510418891908,0.2017912417650222,11.299652099609377,2.583545446395874,61.81000900268555,35.43,1
-0.2241750657558441,-0.9550961852073668,0.2246601730585098,7.075920104980469,2.5644333362579346,61.81000518798828,35.43,1
-0.2278292626142501,-0.9599877595901488,0.2449339032173156,3.15446138381958,2.552168369293213,61.81000518798828,35.43,1
-0.2301743179559707,-0.9575291275978088,0.2635422050952911,1.726997971534729,2.544297456741333,61.81000518798828,35.43,1
-0.2428747862577438,-0.9503535628318788,0.2754839360713959,1.154861330986023,2.539246320724488,61.81000518798828,35.43,1
-0.2734163105487823,-0.9457486867904664,0.2831474542617798,-0.8101317286491394,2.5360047817230225,61.81000518798828,35.43,1
-0.2986138761043548,-0.948391318321228,0.2824676632881164,-3.3644609451293945,2.5339245796203613,61.81000518798828,35.43,1
-0.3203819990158081,-0.9500871896743774,0.2820314168930053,-3.8071022033691406,2.5325894355773926,61.81000518798828,35.43,1
-0.3287537693977356,-0.9679688215255736,0.2817514538764953,-1.5905259847640991,2.5317327976226807,61.81000518798828,35.43,1
-0.3789084851741791,-1.0690085887908936,0.3095606863498688,0.7741624712944031,2.509607553482056,61.77417755126953,35.43,1
-0.4502792954444885,-1.1450456380844116,0.327407032251358,1.0270341634750366,2.495408773422241,61.75118637084961,35.43,1
-0.496080994606018,-1.1658530235290527,0.3220664858818054,-0.7882691621780396,2.4862968921661377,61.73643112182617,35.43,1
-0.4750939011573791,-1.1848037242889404,0.290650337934494,-3.1211462020874023,2.4804494380950928,61.72696304321289,35.43,1
-0.4224411845207214,-1.230551838874817,0.2704892754554748,-5.055326461791992,2.4766969680786133,61.72088623046875,35.43,1
-0.3606628179550171,-1.282301425933838,0.2631488442420959,-6.407631874084473,2.4742887020111084,61.71698760986328,35.43,1
-0.2650392949581146,-1.326706886291504,0.2808292806148529,-6.745242118835449,2.472743272781372,61.71448516845703,35.43,1
-0.1756847351789474,-1.3216171264648438,0.2921755611896515,-5.668591499328613,2.4717514514923096,61.7128791809082,35.43,1
-0.1183421239256858,-1.2175909280776978,0.2378814220428466,-3.727340221405029,2.444031476974488,61.71184921264648,35.43,1
-0.0927384868264198,-1.111648440361023,0.1750497072935104,-1.9979090690612795,2.4262423515319824,61.711185455322266,35.43,1
-0.1098941937088966,-1.010074019432068,0.1235323771834373,-0.8092430233955383,2.4148263931274414,61.71076202392578,35.43,1
-0.1600881665945053,-0.9504871964454652,0.0792759656906127,0.1147902682423591,2.4075002670288086,61.710487365722656,35.43,1
-0.1978975385427475,-0.9066500067710876,0.0396792031824588,0.8080937266349792,2.402798652648926,61.71031188964844,35.43,1
-0.1941725462675094,-0.8505289554595947,0.0030727323610335,1.0595569610595703,2.3997814655303955,61.71020126342773,35.43,1
-0.1581954061985016,-0.7977203726768494,-0.0204191952943801,0.7444490194320679,2.397845268249512,61.71012878417969,35.43,1
-0.1239118054509162,-0.7694286108016968,-0.0354949608445167,-0.1707016825675964,2.3966026306152344,61.7100830078125,35.43,1
-0.1131061092019081,-0.7736636996269226,-0.0451697185635566,-1.1234153509140017,2.368262529373169,61.710052490234375,35.41,1
-0.1117694079875946,-0.7931748628616333,-0.0401828736066818,-0.7496039271354675,2.350075483322144,61.71003341674805,35.41,1
-0.1165093705058097,-0.8952603936195374,-0.0369826033711433,1.5036941766738892,2.3384039402008057,61.71002197265625,35.41,1
-0.1363445222377777,-1.0391418933868408,-0.0349288545548915,4.189302444458008,2.330913782119751,61.71001434326172,35.41,1
-0.2274424284696579,-1.2210410833358765,-0.0056220036931335,5.568843841552734,2.3261070251464844,61.71001052856445,35.41,1
-0.3474793434143066,-1.1810358762741089,0.1027498319745063,5.354303359985352,2.3230223655700684,61.71000671386719,35.41,1
-0.4189143478870392,-1.1329717636108398,0.1946877390146255,3.701194286346436,2.321042776107788,61.71000289916992,35.41,1
-0.4087794721126556,-1.1469091176986694,0.2201015502214431,0.5194393396377563,2.319772481918335,61.71000289916992,35.41,1
-0.3798843920230865,-1.1278644800186155,0.2252151221036911,-3.320880889892578,2.3111534118652344,61.71000289916992,35.41,1
-0.2605812549591064,-1.070860505104065,0.2508878111839294,-6.186625480651856,2.305622100830078,61.71000289916992,35.41,1
-0.1672260463237762,-1.0174853801727295,0.2897541522979736,-7.53488302230835,2.302072525024414,61.71000289916992,35.41,1
-0.1129138246178627,-0.9832322597503662,0.3090985715389251,-8.081268310546875,2.299794435501098,61.71000289916992,35.41,1
-0.1228415593504905,-0.9668483138084412,0.3327082693576813,-8.41757583618164,2.298332452774048,61.71000289916992,35.41,1
-0.1739948093891143,-0.9619318246841432,0.3702507019042969,-8.500843048095703,2.297394275665283,61.71000289916992,35.41,1
-0.2236153483390808,-0.9587767124176024,0.3831477165222168,-8.242595672607422,2.296792268753052,61.71000289916992,35.41,1
-0.2778500318527221,-0.9623497128486632,0.391424298286438,-7.865495204925537,2.2964060306549072,61.71000289916992,35.41,1
-0.2958614230155945,-0.9646426439285278,0.391137957572937,-7.644989490509033,2.273664951324463,61.835391998291016,35.41,1
-0.3242134153842926,-0.9381252527236938,0.3573675453662872,-7.714853763580322,2.259070873260498,61.91585922241211,35.41,1
-0.3424080908298492,-0.9546945691108704,0.3468911945819855,-7.770435810089111,2.2497053146362305,61.96749877929688,35.41,1
-0.35968217253685,-0.9877188801765442,0.3401680588722229,-7.0143561363220215,2.243695020675659,62.00063705444336,35.41,1
-0.3595721125602722,-1.0145097970962524,0.3246580064296722,-4.279290199279785,2.239838123321533,62.02190399169922,35.41,1
-0.3595014810562134,-1.0261049270629885,0.3203023076057434,0.9904243350028992,2.237362861633301,62.035552978515625,35.41,1
-0.3482606112957001,-1.0615348815917969,0.3398981690406799,7.944051265716553,2.235774278640747,62.0443115234375,35.41,1
-0.3410468697547912,-1.0786739587783811,0.3300825655460357,15.011021614074709,2.234755039215088,62.04993438720703,35.41,1
-0.3476130664348602,-1.0896728038787842,0.3293812572956085,20.90757369995117,2.2217066287994385,62.05353927612305,35.41,1
-0.3350335359573364,-1.0743402242660522,0.3233334124088287,24.630739212036133,2.2133328914642334,62.05585479736328,35.41,1
-0.3101674020290375,-1.09248948097229,0.3194522559642792,25.48312759399414,2.207959175109864,62.05733871459961,35.41,1
-0.2550253272056579,-1.1601144075393677,0.3057660162448883,23.765953063964844,2.204510450363159,62.058292388916016,35.41,1
-0.2140405476093292,-1.209109902381897,0.2801896333694458,20.786699295043945,2.2022974491119385,62.05890274047852,35.41,1
-0.1821410953998565,-1.2069658041000366,0.2413851022720337,17.48832893371582,2.2008771896362305,62.05929565429688,35.41,1
-0.1784631907939911,-1.1048299074172974,0.1717003881931305,13.426286697387695,2.199965715408325,62.059547424316406,35.41,1
-0.1872984766960144,-1.0001004934310913,0.1325785219669342,7.727739334106445,2.199380874633789,62.05971145629883,35.41,1
-0.2321528643369674,-0.9105001091957092,0.1578523367643356,0.5096593499183655,2.19120192527771,62.059814453125,35.34,1
-0.2945244908332824,-0.8641952872276306,0.2020604759454727,-7.336058616638184,2.185953140258789,62.05988311767578,35.34,1
-0.3233554363250732,-0.84007728099823,0.2248329520225525,-15.143902778625488,2.182584762573242,62.0599250793457,35.34,1
-0.3026730716228485,-0.8190019726753235,0.211458146572113,-22.665912628173828,2.1804232597351074,62.05995178222656,35.34,1
-0.2782047688961029,-0.7942814826965332,0.1972771883010864,-29.90776252746582,2.1790361404418945,62.05997085571289,35.34,1
-0.2513068616390228,-0.7616239786148071,0.1937744319438934,-36.805023193359375,2.1781458854675293,62.05998229980469,35.34,1
-0.2396431267261505,-0.7182751893997192,0.2083198875188827,-42.33830261230469,2.177574634552002,62.05998992919922,35.34,1
-0.2265602350234985,-0.6904564499855042,0.2288498729467392,-44.481292724609375,2.177207946777344,62.05999374389648,35.34,1
-0.2349577099084854,-0.7173861265182495,0.2532203793525696,-41.81897735595703,2.167332649230957,62.05999755859375,35.34,1
-0.2403467297554016,-0.7794502377510071,0.2744577527046203,-34.37833404541016,2.1609952449798584,62.05999755859375,35.34,1
-0.2326095402240753,-0.9592238068580629,0.3272711038589477,-22.914690017700195,2.156928300857544,62.05999755859375,35.34,1
-0.1716665178537368,-1.1473631858825684,0.338772565126419,-9.041276931762695,2.154318332672119,62.05999755859375,35.34,1
-0.1829367578029632,-1.2736979722976685,0.3461535573005676,4.332934856414795,2.1526434421539307,62.05999755859375,35.34,1
-0.2965270578861236,-1.242816925048828,0.4460524022579193,14.800168991088867,2.1515684127807617,62.05999755859375,35.34,1
-0.347031682729721,-1.133434772491455,0.5213572978973389,22.42741203308105,2.150878667831421,62.05999755859375,35.34,1
-0.3122693598270416,-1.113619685173035,0.4633259177207947,28.590370178222656,2.1504359245300293,62.05999755859375,35.34,1
-0.2675697803497314,-1.112099051475525,0.4204869270324707,33.74556350708008,2.151069641113281,62.378849029541016,35.34,1
-0.2612752616405487,-1.06074321269989,0.4097886681556701,37.11477279663086,2.1514763832092285,62.58346939086914,35.34,1
-0.2684313654899597,-0.960612654685974,0.3861298263072967,37.70777130126953,2.1517374515533447,62.71478271484375,35.34,1
-0.2786215245723724,-0.8795613050460815,0.3541536033153534,35.30466079711914,2.151905059814453,62.79905319213867,35.34,1
-0.3299431800842285,-0.8331449627876282,0.3336331248283386,30.7781982421875,2.152012586593628,62.85313034057617,35.34,1
-0.4020628631114959,-0.8201509714126587,0.3484531342983246,25.333328247070312,2.1520814895629883,62.88783645629883,35.34,1
-0.4427473545074463,-0.8230077028274536,0.3747570812702179,19.58210182189941,2.152125835418701,62.91010665893555,35.34,1
-0.3736941516399383,-0.8248410224914551,0.3580507934093475,13.5626220703125,2.1521542072296143,62.92440032958984,35.34,1
-0.3685642182826996,-0.8036264181137085,0.3025474548339844,7.28501033782959,2.142991781234741,62.933570861816406,35.34,1
-0.4884231388568878,-0.7396321296691895,0.2109508663415908,1.4292865991592407,2.1371119022369385,62.93945693969727,35.34,1
-0.5933305621147156,-0.726553201675415,0.1241805776953697,-2.4073963165283203,2.133338451385498,62.94323348999024,35.34,1
-0.6942407488822937,-0.7461487650871277,0.0405075214803218,-3.046027660369873,2.1309168338775635,62.94565963745117,35.34,1
-0.742205798625946,-0.8147017955780029,-0.0243845749646425,-1.2060070037841797,2.1293628215789795,62.94721603393555,35.34,1
-0.7282047867774963,-0.8754885196685791,-0.0660285875201225,1.3254435062408447,2.1283655166625977,62.94821548461914,35.34,1
-0.713621973991394,-1.0152578353881836,-0.0535688959062099,3.268831968307495,2.127725601196289,62.948856353759766,35.34,1
-0.6258947253227234,-1.144138216972351,-0.0511707589030265,3.8675405979156494,2.127314805984497,62.94926452636719,35.34,1
-0.575194239616394,-1.193259596824646,-0.088816188275814,2.811561822891236,2.12567400932312,62.94952774047852,35.37,1
-0.5482553243637085,-1.152011752128601,-0.079388216137886,0.8298379778862,2.124621152877808,62.9496955871582,35.37,1
-0.4581964313983917,-1.1535301208496094,-0.0565445609390735,-0.8467492461204529,2.123945474624634,62.949806213378906,35.37,1
-0.3276307284832001,-1.1768956184387207,-0.0642759129405021,-1.872530460357666,2.123511791229248,62.94987487792969,35.37,1
-0.361394464969635,-1.135912537574768,-0.080433003604412,-2.928483724594116,2.1232335567474365,62.94992065429688,35.37,1
-0.3942576348781585,-1.098416447639465,-0.0740083679556846,-4.75972318649292,2.123054981231689,62.949951171875,35.37,1
-0.3761628866195678,-1.0015825033187866,-0.0698854103684425,-7.611552715301514,2.1229403018951416,62.94997024536133,35.37,1
-0.3701485097408294,-0.9338422417640686,-0.0840328559279441,-11.297466278076172,2.1228668689727783,62.949981689453125,35.37,1
-0.3718865811824798,-0.8791748881340027,-0.0987096428871154,-15.6189603805542,2.106752872467041,62.949989318847656,35.37,1
-0.3730019927024841,-0.8552880883216858,-0.0913350358605384,-20.538209915161133,2.09641170501709,62.94999313354492,35.37,1
-0.3625222444534302,-0.8343611359596252,-0.0754068940877914,-25.403987884521484,2.089775562286377,62.94999694824219,35.37,1
-0.3557969331741333,-0.8209314346313477,-0.053989578038454,-28.236377716064453,2.0855166912078857,62.94999694824219,35.37,1
-0.3682743608951568,-0.8123130202293396,-0.0346474051475524,-26.94436454772949,2.0827836990356445,62.94999694824219,35.37,1
-0.3650861084461212,-0.8067822456359863,-0.0054413871839642,-21.497285842895508,2.081029891967773,62.94999694824219,35.37,1
-0.3518445193767547,-0.8312217593193054,0.024496903643012,-13.982014656066896,2.079904317855835,62.94999694824219,35.37,1
-0.3433468341827392,-0.8581011891365051,0.0493073500692844,-6.543866157531738,2.079181909561157,62.94999694824219,35.37,1
-0.3434912860393524,-0.897741973400116,0.1044136881828308,-0.0114458734169602,2.0782594680786133,63.20077896118164,35.37,1
-0.3379862010478973,-0.9399744868278505,0.150973305106163,5.900321960449219,2.077667474746704,63.36171722412109,35.37,1
-0.3736377656459808,-1.0510435104370115,0.1920481473207473,11.926098823547363,2.077287435531616,63.46499633789063,35.37,1
-0.4077124297618866,-1.1335166692733765,0.2575920224189758,18.333141326904297,2.0770437717437744,63.53127670288086,35.37,1
-0.4127862751483917,-1.1248676776885986,0.3220454156398773,23.98173713684082,2.076887369155884,63.57381057739258,35.37,1
-0.3768579661846161,-1.0297529697418213,0.4025923013687134,26.983312606811523,2.076786994934082,63.601104736328125,35.37,1
-0.331410139799118,-0.9967026710510254,0.4206960201263428,26.788667678833008,2.0767226219177246,63.61862182617188,35.37,1
-0.2742554843425751,-1.025872826576233,0.3819339871406555,24.71483421325684,2.076681137084961,63.62986373901367,35.37,1
-0.2039902508258819,-1.022201418876648,0.3402654230594635,22.05841445922852,2.086753368377685,63.63707733154297,35.37,1
-0.1197136491537094,-1.003051996231079,0.3303182423114776,18.773759841918945,2.093217134475708,63.64170837402344,35.37,1
-0.2167696803808212,-0.9739696979522704,0.3015436232089996,14.197463989257812,2.097365379333496,63.64468002319336,35.37,1
-0.3350324034690857,-0.9609041810035706,0.2606866359710693,8.025594711303711,2.100027322769165,63.64658737182617,35.37,1
-0.438915491104126,-0.924530565738678,0.1896847784519195,0.7258836627006531,2.101735830307007,63.64781188964844,35.37,1
-0.572754979133606,-0.8787969946861267,0.0713488012552261,-5.997136116027832,2.102832078933716,63.64859771728516,35.37,1
-0.552287757396698,-0.8102633953094482,0.0233964566141366,-9.695380210876465,2.1035356521606445,63.64910125732422,35.37,1
-0.4999686181545257,-0.7550869584083557,-0.0129743721336126,-9.41401195526123,2.103987216949463,63.6494255065918,35.37,1
-0.4719910025596618,-0.7196778655052185,-0.0475106239318847,-6.9692583084106445,2.1129987239837646,63.64963150024414,35.37,1
-0.4428410232067108,-0.7305409908294678,-0.0416851341724395,-5.006272315979004,2.118781805038452,63.64976501464844,35.37,1
-0.424134224653244,-0.782294511795044,0.0012377523817121,-4.455891132354736,2.122493028640747,63.64984893798828,35.37,1
-0.3953359723091125,-0.8323003053665161,0.0455765128135681,-4.715308666229248,2.124874830245972,63.64990234375,35.37,1
-0.3656593561172485,-0.909173309803009,0.0852261260151863,-5.078829288482666,2.126403331756592,63.64993667602539,35.37,1
-0.3578101694583893,-1.0088859796524048,0.1106709688901901,-4.918032646179199,2.127384185791016,63.64995956420898,35.37,1
-0.3415774703025818,-1.1008646488189695,0.1381955444812774,-3.704244375228882,2.128013610839844,63.64997482299805,35.37,1
-0.2863780558109283,-1.0871201753616333,0.1614570170640945,-1.965174674987793,2.128417491912842,63.64998626708984,35.37,1
-0.23975870013237,-1.033517599105835,0.1707871109247207,-1.2575534582138062,2.1438252925872803,63.64999008178711,35.37,1
-0.2098410725593567,-1.0774874687194824,0.1599813103675842,-2.429932117462158,2.15371322631836,63.649993896484375,35.37,1
-0.2074349820613861,-1.156084656715393,0.1474489867687225,-4.6081624031066895,2.1600587368011475,63.64999771118164,35.37,1
-0.2338797748088836,-1.1617416143417358,0.1897864341735839,-6.310544013977051,2.164130926132202,63.64999771118164,35.37,1
-0.2732416093349457,-1.098198652267456,0.2057606279850006,-6.98387336730957,2.1667442321777344,63.64999771118164,35.37,1
-0.3096973299980163,-1.0294315814971924,0.1880230754613876,-7.197440147399902,2.1684212684631348,63.64999771118164,35.37,1
-0.3107014000415802,-0.9629097580909728,0.1542490273714065,-7.807394981384277,2.169497489929199,63.64999771118164,35.37,1
-0.3113457560539245,-0.920219898223877,0.1213792413473129,-9.180455207824709,2.1701881885528564,63.64999771118164,35.37,1
-0.3229548335075378,-0.9096173048019408,0.0834919810295105,-10.867685317993164,2.1609911918640137,63.82554626464844,35.37,1
-0.3024159967899322,-0.930802047252655,0.0591781213879585,-11.645933151245115,2.1550891399383545,63.93820190429688,35.37,1
-0.266844242811203,-0.94999498128891,0.0491726621985435,-10.13196086883545,2.151301622390747,64.010498046875,35.37,1
-0.2216252386569976,-0.9679096341133118,0.0539472810924053,-6.036374568939209,2.148870944976806,64.05689239501953,35.37,1
-0.1870085150003433,-0.9961995482444764,0.0626091286540031,-0.7462092041969299,2.147311210632324,64.08666229248047,35.37,1
-0.1647934913635254,-1.0199521780014038,0.0793633535504341,3.8667900562286377,2.1463100910186768,64.10577392578125,35.37,1
-0.1841238141059875,-1.0407930612564087,0.0901152491569519,6.977615833282471,2.145667791366577,64.11803436279297,35.37,1
-0.2133222371339798,-1.0765585899353027,0.1082107499241828,8.913061141967773,2.1452555656433105,64.12590026855469,35.37,1
-0.2712445259094238,-1.0267398357391355,0.1366167217493057,10.577862739562988,2.1495816707611084,64.13095092773438,35.37,1
-0.3140134811401367,-0.938791275024414,0.1660415828227996,13.115092277526855,2.152357816696167,64.13419342041016,35.37,1
-0.324666827917099,-0.8375687003135681,0.19052255153656,17.011110305786133,2.154139518737793,64.13627624511719,35.37,1
-0.3315035104751587,-0.8677720427513123,0.1950374692678451,20.92288589477539,2.155282974243164,64.13761138916016,35.37,1
-0.324695348739624,-0.931937038898468,0.2035326659679412,22.458776473999023,2.15601658821106,64.13846588134766,35.37,1
-0.2979351878166199,-1.0011032819747925,0.2313754856586456,20.60344123840332,2.156487464904785,64.1390151977539,35.37,1
-0.2695665061473846,-1.023099064826965,0.2548411786556244,16.331777572631836,2.156789779663086,64.13936614990234,35.37,1
-0.2569588720798492,-1.003628134727478,0.2922912240028381,10.778148651123049,2.1569836139678955,64.13959503173828,35.37,1
-0.2432702481746673,-0.974339485168457,0.2883356213569641,4.075812816619873,2.151599407196045,64.13973999023438,35.34,1
-0.2120945900678634,-0.9499459266662598,0.2913949191570282,-3.815101623535156,2.148144245147705,64.13983154296875,35.34,1
-0.2144789397716522,-0.9286937713623048,0.2821626365184784,-12.10693645477295,2.1459269523620605,64.139892578125,35.34,1
-0.2328024059534073,-0.9150553345680236,0.2762379050254822,-19.15496063232422,2.144503831863404,64.13993072509766,35.34,1
-0.2669524550437927,-0.9063029885292052,0.2724357545375824,-22.925636291503903,2.1435906887054443,64.13995361328125,35.34,1
-0.2888679802417755,-0.9006862044334412,0.258800208568573,-22.01722526550293,2.1430046558380127,64.13996887207031,35.34,1
-0.2973343431949615,-0.8970816731452942,0.2444519251585006,-16.716007232666016,2.142628669738769,64.13997650146484,35.34,1
-0.2915720045566559,-0.88917076587677,0.2240484654903412,-8.846519470214844,2.1423873901367188,64.13998413085938,35.34,1
-0.2878740727901459,-0.8728984594345093,0.2053569257259369,-0.5111129283905029,2.130756139755249,64.1399917602539,35.34,1
-0.2855009436607361,-0.8624557852745056,0.1877640038728714,6.851478576660156,2.1232917308807373,64.1399917602539,35.34,1
-0.2951735556125641,-0.8725476264953613,0.182071641087532,12.583069801330566,2.118501663208008,64.1399917602539,35.34,1
-0.3013808727264404,-0.8734261989593506,0.1784186214208603,16.705514907836914,2.1154274940490723,64.1399917602539,35.34,1
-0.2997666001319885,-0.929967761039734,0.1592810004949569,19.537357330322266,2.113454818725586,64.1399917602539,35.34,1
-0.3099262118339538,-1.0278284549713137,0.1469995677471161,21.200618743896484,2.1121888160705566,64.1399917602539,35.34,1
-0.3612282574176788,-1.1242164373397827,0.1839002519845962,21.63747215270996,2.1113762855529785,64.1399917602539,35.34,1
-0.3885531723499298,-1.0517261028289795,0.1516032367944717,20.86454200744629,2.1108548641204834,64.1399917602539,35.34,1
-0.3948931992053985,-1.072379231452942,0.1140835508704185,18.802934646606445,2.107306957244873,64.33345031738281,35.34,1
-0.3877663016319275,-1.130415439605713,0.1012011244893074,15.20497703552246,2.105030298233032,64.45760345458984,35.34,1
-0.3943882286548614,-1.1732574701309204,0.0985317006707191,9.994129180908203,2.103569269180298,64.53727722167969,35.34,1
-0.376246690750122,-1.1559689044952393,0.0856230705976486,3.4329540729522705,2.1026315689086914,64.58840942382812,35.34,1
-0.364604502916336,-1.100091814994812,0.0605457313358783,-4.048522472381592,2.102029800415039,64.62122344970703,35.34,1
-0.4075132012367248,-1.0474398136138916,0.0556480884552001,-11.790997505187988,2.1016435623168945,64.64228057861328,35.34,1
-0.5022228360176086,-0.996857523918152,0.0637006089091301,-18.945043563842773,2.101395845413208,64.65579223632812,35.34,1
-0.5294153690338135,-0.9643967151641846,0.0408793836832046,-24.68968772888184,2.101236820220948,64.66446685791016,35.34,1
-0.4237149357795715,-0.9547607898712158,0.0094407116994261,-28.003681182861328,2.0882816314697266,64.67002868652344,35.34,1
-0.2775136232376098,-0.9821636080741882,0.0340473763644695,-27.70859146118164,2.079967737197876,64.67359924316406,35.34,1
-0.1557011753320694,-1.0053468942642212,0.0666318386793136,-23.67869758605957,2.074632167816162,64.67589569091797,35.34,1
-0.0887245014309883,-0.9866380095481871,0.104335993528366,-17.664018630981445,2.071208238601685,64.6773681640625,35.34,1
-0.0009605364757589,-1.0082184076309204,0.1509234458208084,-11.937623023986816,2.069010972976685,64.67831420898438,35.34,1
0.0721546560525894,-1.0500563383102417,0.1640272736549377,-7.281126022338867,2.067600965499878,64.67891693115234,35.34,1
0.0630980283021926,-1.0545144081115725,0.1220565885305404,-3.117769718170166,2.0666959285736084,64.67930603027344,35.34,1
0.0069060362875461,-1.0237886905670166,0.072731114923954,0.8115167021751404,2.066115140914917,64.67955780029297,35.34,1
-0.0683391690254211,-1.048852801322937,0.05787019059062,3.963639736175537,2.065742492675781,64.67971801757812,35.34,1
-0.1110294386744499,-1.0537420511245728,0.0595288537442684,5.918422222137451,2.0655033588409424,64.67981719970703,35.34,1
-0.1720122396945953,-1.0400863885879517,0.0941799357533454,6.886282920837402,2.065349817276001,64.67988586425781,35.34,1
-0.2391363680362701,-0.9921385049819946,0.1388081014156341,7.364097118377685,2.065251350402832,64.67992401123047,35.34,1
-0.2710172235965729,-0.9669660925865172,0.1618501096963882,7.932258605957031,2.06518816947937,64.6799545288086,35.34,1
-0.2690854072570801,-1.0459740161895752,0.1822349280118942,9.016969680786133,2.065147638320923,64.67996978759766,35.34,1
-0.2286612689495086,-1.1302634477615356,0.2177078276872635,10.300617218017578,2.065121650695801,64.67997741699219,35.34,1
-0.1019594445824623,-1.0947911739349363,0.3300366997718811,10.723139762878418,2.065104961395264,64.67998504638672,35.34,1
-0.115811675786972,-1.04403817653656,0.3349495828151703,9.600668907165527,2.05132269859314,64.67999267578125,35.34,1
-0.1023101359605789,-0.9890767335891724,0.3213090896606445,7.379232406616211,2.042478084564209,64.67999267578125,35.34,1
-0.0880478546023368,-0.9370123147964478,0.3013598322868347,4.821548461914063,2.036802053451538,64.67999267578125,35.34,1
-0.1124817878007888,-0.9036003947257996,0.2773620188236236,1.8868643045425413,2.0331594944000244,64.67999267578125,35.34,1
-0.1617487221956253,-0.8709629774093628,0.2507660388946533,-2.06717586517334,2.0308220386505127,64.67999267578125,35.34,1
-0.2269520610570907,-0.838822603225708,0.2225027233362198,-6.876004219055176,2.0293219089508057,64.67999267578125,35.34,1
-0.2799913585186004,-0.8125990033149719,0.1931694149971008,-10.682130813598633,2.0283591747283936,64.67999267578125,35.34,1
-0.3196266889572143,-0.8125635385513306,0.1743449866771698,-11.139937400817873,2.0277414321899414,64.67999267578125,35.34,1
-0.3450623750686645,-0.8405296206474304,0.1734600961208343,-7.822494983673096,2.023672580718994,64.90211486816406,35.34,1
-0.3725810647010803,-0.892063319683075,0.1896855533123016,-2.7271785736083984,2.021061420440674,65.04466247558594,35.34,1
-0.3902409970760345,-0.9587213397026062,0.2056958824396133,1.8180991411209104,2.019385576248169,65.13613891601562,35.34,1
-0.4127696752548218,-1.0070964097976685,0.2215681672096252,4.9069600105285645,2.018310308456421,65.1948471069336,35.34,1
-0.438422828912735,-1.0717273950576782,0.2541451752185821,6.778153419494629,2.017620086669922,65.2325210571289,35.34,1
-0.4436900019645691,-1.163583755493164,0.3254311978816986,7.867918014526367,2.017177104949951,65.25669860839844,35.34,1
-0.379896879196167,-1.1497608423233032,0.4159606695175171,8.384554862976074,2.016892910003662,65.27220916748047,35.34,1
-0.294175922870636,-1.146487832069397,0.4236772954463959,8.30052375793457,2.0167105197906494,65.28216552734375,35.34,1
-0.2335673719644546,-1.1779741048812866,0.4342271685600281,7.651889801025391,2.017970561981201,65.28855895996094,35.34,1
-0.2058678418397903,-1.2261689901351929,0.4242041409015655,6.6875,2.0187792778015137,65.29265594482422,35.34,1
-0.2216785252094268,-1.2682932615280151,0.4009786248207092,5.556301593780518,2.0192983150482178,65.2952880859375,35.34,1
-0.2262271344661712,-1.2337507009506226,0.3748782575130462,4.1353440284729,2.0196313858032227,65.2969741821289,35.34,1
-0.2515372633934021,-1.122018814086914,0.3525307774543762,2.363637208938598,2.0198450088500977,65.29805755615234,35.34,1
-0.2677798569202423,-1.0167291164398191,0.349384993314743,0.4886472225189209,2.019982099533081,65.29875183105469,35.34,1
-0.2110301256179809,-0.9099758267402648,0.3417684435844421,-1.1516878604888916,2.020070075988769,65.29920196533203,35.34,1
-0.1410247683525085,-0.8302721977233887,0.3480761349201202,-2.5052967071533203,2.0201265811920166,65.29949188232422,35.34,1
-0.1464793235063552,-0.7791229486465454,0.2905485332012176,-3.929264307022095,2.009604930877685,65.29967498779297,35.34,1
-0.1555775105953216,-0.7239072322845459,0.2032506465911865,-6.190133094787598,2.0028529167175293,65.29978942871094,35.34,1
-0.1614162027835846,-0.6828752160072327,0.1416301131248474,-10.105840682983398,1.998519778251648,65.29986572265625,35.34,1
-0.1819564700126648,-0.6733365058898926,0.0908900573849678,-15.370134353637695,1.9957389831542969,65.29991149902344,35.34,1
-0.1783447116613388,-0.6840084791183472,0.0639257803559303,-19.801733016967773,1.9939545392990112,65.29994201660156,35.34,1
-0.2040157616138458,-0.7076504230499268,0.0522194355726242,-20.983362197875977,1.9928092956542969,65.29996490478516,35.34,1
-0.2372832894325256,-0.7508113384246826,0.0615002997219562,-18.7322998046875,1.9920743703842163,65.29998016357422,35.34,1
-0.2530346810817718,-0.7953028678894043,0.0674562230706214,-14.847963333129885,1.9916027784347528,65.29998779296875,35.34,1
-0.2575452625751495,-0.9693971276283264,0.0824739411473274,-10.69290542602539,1.998185873031616,65.29999542236328,35.34,1
-0.2828309834003448,-1.1874785423278809,0.1201003193855285,-6.378443241119385,2.002410411834717,65.29999542236328,35.34,1
-0.3606334328651428,-1.2490617036819458,0.1666378676891327,-2.004676342010498,2.0051214694976807,65.29999542236328,35.34,1
-0.4049647748470306,-1.2717889547348022,0.2244918495416641,1.937832355499268,2.006861448287964,65.29999542236328,35.34,1
-0.4054252207279205,-1.2695807218551636,0.2728147506713867,5.127101421356201,2.0079779624938965,65.29999542236328,35.34,1
-0.3441451787948608,-1.2289791107177734,0.298227846622467,7.585786819458008,2.0086944103240967,65.29999542236328,35.34,1
-0.2768303155899048,-1.1581411361694336,0.2865476310253143,9.55771255493164,2.009154319763184,65.29999542236328,35.34,1
-0.2000448554754257,-1.0511058568954468,0.2398675233125686,11.29608154296875,2.009449481964112,65.29999542236328,35.34,1
-0.1563661396503448,-0.9712212681770324,0.1875198185443878,12.601542472839355,2.017442464828491,65.50778198242188,35.34,1
-0.1507267504930496,-0.9143581986427308,0.1427305191755294,12.633233070373535,2.0225718021392822,65.64112854003906,35.34,1
-0.1918899118900299,-0.8946600556373596,0.1083895564079284,10.679571151733398,2.025863647460937,65.7267074584961,35.34,1
-0.2462949305772781,-0.8932144641876221,0.0807537287473678,6.9610114097595215,2.0279760360717773,65.78162384033203,35.34,1
-0.325991153717041,-0.920275628566742,0.0686164200305938,2.432273626327514,2.029331684112549,65.81686401367188,35.34,1
-0.3995266854763031,-0.9544352889060974,0.0832184925675392,-2.068256139755249,2.0302016735076904,65.83948516845703,35.34,1
-0.4411197900772095,-0.9707592129707336,0.1037848070263862,-6.228250980377197,2.0307600498199463,65.85399627685547,35.34,1
-0.4566162824630737,-0.9700393676757812,0.1337764114141464,-9.915348052978516,2.031118392944336,65.86331176757812,35.34,1
-0.4329743981361389,-0.969577431678772,0.1698166131973266,-12.535877227783203,2.023544788360596,65.86929321289062,35.34,1
-0.4122046232223511,-0.9860743284225464,0.1985429227352142,-12.580345153808594,2.0186843872070312,65.87313079833984,35.34,1
-0.3932780027389526,-1.080627679824829,0.2841511070728302,-8.14499282836914,2.0155653953552246,65.8755874633789,35.34,1
-0.3699364364147186,-1.107719898223877,0.3502850532531738,1.128501534461975,2.013563632965088,65.87716674804688,35.34,1
-0.3381638526916504,-1.0747262239456177,0.3927260041236877,12.70792293548584,2.0122790336608887,65.87818145751953,35.34,1
-0.2897851765155792,-1.0255638360977173,0.425559937953949,22.872434616088867,2.0114545822143555,65.87882995605469,35.34,1
-0.2755318284034729,-1.0276010036468506,0.4410330951213836,29.377519607543945,2.010925531387329,65.8792495727539,35.34,1
-0.2999714910984039,-1.1296682357788086,0.4621584415435791,31.82172584533692,2.0105860233306885,65.8795166015625,35.34,1
-0.3100576996803283,-1.2175601720809937,0.4869110286235809,30.53496360778809,2.0135812759399414,65.87969207763672,35.34,1
-0.2997371256351471,-1.234779715538025,0.4860024750232696,26.162443161010746,2.0155036449432373,65.87979888916016,35.34,1
-0.2931139767169952,-1.2234392166137695,0.4798216521739959,19.523054122924805,2.016737222671509,65.87986755371094,35.34,1
-0.1881036758422851,-1.1601837873458862,0.487050712108612,11.371600151062012,2.017528772354126,65.87991333007812,35.34,1
-0.171094074845314,-1.080405592918396,0.4357121586799621,2.6761162281036377,2.0180368423461914,65.87994384765625,35.34,1
-0.1713738441467285,-1.0292085409164429,0.3971682488918304,-5.25789737701416,2.0183627605438232,65.87996673583984,35.34,1
-0.1827489286661148,-0.968364417552948,0.3220530152320862,-11.574731826782228,2.0185720920562744,65.87997436523438,35.34,1
-0.1620599329471588,-0.9069270491600036,0.2626528441905975,-16.43459129333496,2.0187063217163086,65.8799819946289,35.34,1
-0.1263918280601501,-0.8115223050117493,0.2189354449510574,-20.59589958190918,2.020169734954834,65.87998962402344,35.34,1
-0.1090998724102974,-0.7167103886604309,0.1740868091583252,-24.55253219604492,2.021108865737915,65.87998962402344,35.34,1
-0.070014014840126,-0.6390722393989563,0.1453055441379547,-28.06254768371582,2.021711587905884,65.87998962402344,35.34,1
0.022242322564125,-0.589248538017273,0.1268353760242462,-30.40463829040528,2.0220983028411865,65.87998962402344,35.34,1
0.0534582622349262,-0.5796656608581543,0.0757978707551956,-31.169647216796875,2.0223464965820312,65.87998962402344,35.34,1
-0.0944423824548721,-0.7022647261619568,0.0206538382917642,-30.582231521606445,2.022505760192871,65.87998962402344,35.34,1
-0.2285409271717071,-0.9152883291244508,-0.031527753919363,-28.711328506469727,2.0226078033447266,65.87998962402344,35.34,1
-0.3089998662471771,-1.1079723834991455,-0.081808216869831,-24.66254234313965,2.0226733684539795,65.87998962402344,35.34,1
-0.3270471394062042,-1.382765769958496,-0.1140753254294395,-17.202709197998047,2.0167479515075684,66.0949478149414,35.34,1
-0.4002043604850769,-1.4975368976593018,-0.1011958494782447,-6.450428485870361,2.012945413589477,66.23289489746094,35.34,1
-0.486336886882782,-1.425648212432861,-0.0537461265921592,5.418797969818115,2.010505199432373,66.32142639160156,35.34,1
-0.5304162502288818,-1.3067431449890137,0.0606709979474544,15.600908279418944,2.008939266204834,66.37823486328125,35.34,1
-0.4915305376052856,-1.241632342338562,0.1284995377063751,22.536449432373047,2.007934331893921,66.4146957397461,35.34,1
-0.3994026184082031,-1.1718590259552002,0.1272457987070083,26.098800659179688,2.007289409637451,66.43809509277344,35.34,1
-0.3122913539409637,-1.0711047649383545,0.0984523519873619,26.52197456359864,2.006875514984131,66.45310974121094,35.34,1
-0.2283994853496551,-0.9728598594665528,0.0855721533298492,23.988386154174805,2.006609916687012,66.4627456665039,35.34,1
-0.1745625138282776,-0.9098119735717772,0.0717086046934127,19.037845611572266,2.0101115703582764,66.46892547607422,35.34,1
-0.1735996901988983,-0.8637536764144897,0.0628117769956588,12.615059852600098,2.0123586654663086,66.47289276123047,35.34,1
-0.2121662348508834,-0.8509894609451294,0.0627000778913497,5.666633129119873,2.013800621032715,66.4754409790039,35.34,1
-0.3208826184272766,-0.8595914244651794,0.0626283958554267,-0.8309527635574341,2.014726161956787,66.4770736694336,35.34,1
-0.4242371916770935,-0.8651116490364075,0.079375721514225,-5.778148651123047,2.015320062637329,66.4781265258789,35.34,1
-0.4961619973182678,-0.8574586510658264,0.1628942638635635,-8.591134071350098,2.0157012939453125,66.47879791259766,35.34,1
-0.5311236381530762,-0.8637429475784302,0.2668716311454773,-9.575936317443848,2.0159459114074707,66.47923278808594,35.34,1
-0.4583978354930877,-0.8901669979095459,0.4063693881034851,-8.975519180297852,2.0161027908325195,66.47950744628906,35.34,1
-0.3277599811553955,-0.907124400138855,0.46790212392807,-6.4693217277526855,2.013449192047119,66.47968292236328,35.37,1
-0.1935441642999649,-0.945995569229126,0.4738036692142486,-2.152560949325561,2.011746406555176,66.47979736328125,35.37,1
-0.2081721127033233,-0.9373542070388794,0.4775909185409546,2.795893430709839,2.010653495788574,66.47987365722656,35.37,1
-0.2847327888011932,-0.9486019611358644,0.5136080384254456,6.716701984405518,2.0099523067474365,66.47991943359375,35.37,1
-0.4738093614578247,-0.9950045943260192,0.5255261659622192,8.38019847869873,2.0095021724700928,66.47994995117188,35.37,1
-0.555963397026062,-1.007989764213562,0.4939901232719421,8.007539749145508,2.009213447570801,66.47997283935547,35.37,1
-0.5135229825973511,-1.0555073022842407,0.4401654601097107,7.682406902313232,2.009028196334839,66.47998046875,35.37,1
-0.4750916361808777,-1.0580124855041504,0.360841691493988,9.311615943908691,2.008909225463867,66.47998809814453,35.37,1
-0.433635264635086,-1.0596201419830322,0.3267295956611633,12.134106636047363,2.004242420196533,66.47999572753906,35.37,1
-0.3174665868282318,-1.1166296005249023,0.3272294998168945,13.777037620544434,2.0012476444244385,66.47999572753906,35.37,1
-0.1981340050697326,-1.1588127613067627,0.3387458622455597,13.093827247619627,1.9993257522583008,66.47999572753906,35.37,1
-0.1159554496407508,-1.1634924411773682,0.3741252720355987,10.552410125732422,1.9980924129486084,66.47999572753906,35.37,1
-0.0800113081932067,-1.121713399887085,0.3240586817264557,6.958223342895508,1.9973008632659912,66.47999572753906,35.37,1
-0.0849332958459854,-1.0613152980804443,0.2863310575485229,3.107591152191162,1.996792912483216,66.47999572753906,35.37,1
-0.1552652418613433,-0.9889686703681946,0.3124996125698089,-0.3523138165473938,1.996466875076294,66.47999572753906,35.37,1
-0.1724113672971725,-0.9425407648086548,0.2845108807086944,-3.511316537857056,1.9962576627731323,66.47999572753906,35.37,1
-0.2337947338819503,-0.8959527015686035,0.2217671275138855,-6.97519588470459,1.9878605604171755,66.72003173828125,35.37,1
-0.3011759221553802,-0.8492618203163147,0.1870995759963989,-10.96432399749756,1.9824718236923216,66.87406921386719,35.37,1
-0.3220261931419372,-0.8137004971504211,0.1704497039318084,-15.136475563049316,1.9790135622024536,66.9729232788086,35.37,1
-0.2906244993209839,-0.7684882283210754,0.17655810713768,-18.978260040283203,1.9767943620681765,67.03636169433594,35.37,1
-0.2368860393762588,-0.6946913599967957,0.2140647619962692,-21.99541282653809,1.975370168685913,67.07707214355469,35.37,1
-0.1912042498588562,-0.6361372470855713,0.2437321543693542,-23.62712860107422,1.9744561910629272,67.10320281982422,35.37,1
-0.1674860715866089,-0.6209517121315002,0.285162091255188,-23.27706527709961,1.9738696813583367,67.1199722290039,35.37,1
-0.1746562123298645,-0.6391953825950623,0.3117494285106659,-20.71299362182617,1.973493218421936,67.13072967529297,35.37,1
-0.2016486972570419,-0.7068808674812317,0.3400071859359741,-16.649280548095703,1.9865641593933103,67.13763427734375,35.37,1
-0.2301664650440216,-0.8734685182571411,0.3581413924694061,-12.629888534545898,1.9949523210525515,67.1420669555664,35.37,1
-0.2540653049945831,-1.0419504642486572,0.3697789013385772,-9.570408821105955,2.000335454940796,67.14491271972656,35.37,1
-0.2973910868167877,-1.2452346086502075,0.3492583036422729,-6.550151348114014,2.0037899017333984,67.14673614501953,35.37,1
-0.3643794953823089,-1.3644951581954956,0.3640782237052917,-2.057547092437744,2.006006956100464,67.14790344238281,35.37,1
-0.4353576600551605,-1.2451075315475464,0.4127732217311859,3.6450345516204834,2.007429599761963,67.1486587524414,35.37,1
-0.4361251592636108,-1.151698112487793,0.3992406725883484,8.336404800415039,2.0083425045013428,67.14913940429688,35.37,1
-0.3806399703025818,-1.091753363609314,0.3961540460586548,9.856704711914062,2.0089285373687744,67.14944458007812,35.37,1
-0.2274795025587082,-1.0476864576339722,0.4221620857715606,7.837312698364258,2.0143537521362305,67.14964294433594,35.34,1
-0.1123965978622436,-0.9914180040359496,0.4276570081710815,3.868781805038452,2.0178353786468506,67.14977264404297,35.34,1
-0.1057163104414939,-0.9161237478256226,0.3752055764198303,0.3511289656162262,2.020069599151612,67.14985656738281,35.34,1
-0.1965914517641067,-0.8734019994735718,0.2799697518348694,-1.0823057889938354,2.021503448486328,67.14990997314453,35.34,1
-0.3108876347541809,-0.8515834212303162,0.2076573371887207,-0.3649646043777466,2.02242374420166,67.14994049072266,35.34,1
-0.4682029485702514,-0.8431792855262756,0.1724469512701034,1.5499093532562256,2.0230143070220947,67.14996337890625,35.34,1
-0.5859522223472595,-0.8153948783874512,0.161046490073204,4.186717510223389,2.023393154144287,67.14997863769531,35.34,1
-0.6335280537605286,-0.7751733660697937,0.1761214286088943,7.95676326751709,2.0236363410949707,67.14998626708984,35.34,1
-0.6248750686645508,-0.749361515045166,0.1913934350013733,12.579445838928224,2.0081849098205566,67.14999389648438,35.34,1
-0.6025287508964539,-0.749590277671814,0.2011941373348236,16.40583610534668,1.9982690811157229,67.14999389648438,35.34,1
-0.5490037202835083,-0.8393014669418335,0.2130814343690872,18.44581413269043,1.991905689239502,67.14999389648438,35.34,1
-0.4922633469104767,-0.9304595589637756,0.2263077944517135,19.819440841674805,1.9878220558166504,67.14999389648438,35.34,1
-0.4558506309986114,-1.039339542388916,0.2068068385124206,22.108905792236328,1.985201358795166,67.14999389648438,35.34,1
-0.432483047246933,-1.176385760307312,0.2054877877235412,24.620683670043945,1.983519554138184,67.14999389648438,35.34,1
-0.41748708486557,-1.303518533706665,0.2214346230030059,23.81077766418457,1.9824402332305908,67.14999389648438,35.34,1
-0.4078635275363922,-1.3123339414596558,0.2372661530971527,16.67759132385254,1.9817476272583008,67.14999389648438,35.34,1
-0.3848943710327148,-1.228426814079285,0.2194370478391647,5.343184471130371,1.980844259262085,67.41510772705078,35.34,1
-0.3309696614742279,-1.191373348236084,0.1576153934001922,-3.789941072463989,1.9802645444869995,67.58524322509766,35.34,1
-0.296363890171051,-1.251561164855957,0.0843551605939865,-6.4804768562316895,1.9798924922943115,67.69442749023438,35.34,1
-0.2797536849975586,-1.2286107540130615,0.0429387390613555,-4.330760478973389,1.9796537160873413,67.76449584960938,35.34,1
-0.3586585819721222,-1.113122582435608,-0.0228243581950664,-1.786859393119812,1.9795005321502688,67.80945587158203,35.34,1
-0.4372840821743011,-0.9942266941070556,-0.0874184221029281,-1.94203531742096,1.9794021844863887,67.83831024169922,35.34,1
-0.4653503000736236,-0.929121732711792,-0.1456644982099533,-5.545377254486084,1.9793390035629272,67.85682678222656,35.34,1
-0.4553727209568023,-0.8929389119148254,-0.1942390352487564,-11.569342613220217,1.97929847240448,67.86871337890625,35.34,1
-0.4433719217777252,-0.8809143900871277,-0.2198136001825332,-17.763851165771484,1.9769771099090576,67.8763427734375,35.34,1
-0.4188771545886993,-0.8955888152122498,-0.1970414668321609,-22.00424194335937,1.975487470626831,67.88123321533203,35.34,1
-0.3975600600242615,-0.9106038212776184,-0.1544387489557266,-23.94447898864746,1.9745314121246336,67.8843765258789,35.34,1
-0.3446955382823944,-0.9034462571144104,-0.0991099029779434,-24.67730140686035,1.9739179611206048,67.88639068603516,35.34,1
-0.2939768135547638,-0.8876574039459229,-0.0524074807763099,-24.80365943908692,1.9735242128372192,67.88768005371094,35.34,1
-0.2614284753799438,-0.8663294911384583,-0.0112410066649317,-23.81355857849121,1.973271608352661,67.88851165771484,35.34,1
-0.2573341429233551,-0.8414468765258789,0.0375683642923831,-21.45494842529297,1.973109483718872,67.88904571533203,35.34,1
-0.2603043913841247,-0.8254786729812622,0.0856847316026687,-18.25393486022949,1.9730054140090945,67.88938903808594,35.34,1
-0.3069927394390106,-0.8544155955314636,0.1613452434539795,-14.11106777191162,1.9683482646942136,67.88961029052734,35.31,1
-0.3817368149757385,-0.9009745121002196,0.2154975831508636,-7.816099643707275,1.9653595685958865,67.8897476196289,35.31,1
-0.3961166143417358,-0.9364511370658876,0.2334561049938202,0.913239359855652,1.963441610336304,67.88983917236328,35.31,1
-0.3605625629425049,-1.0151957273483276,0.2841652631759643,9.7001371383667,1.962210774421692,67.88990020751953,35.31,1
-0.3545393347740173,-1.0825228691101074,0.3726852238178253,15.27099323272705,1.9614208936691284,67.88993835449219,35.31,1
-0.3674672842025757,-1.019371747970581,0.4406878054141998,16.972360610961914,1.9609140157699585,67.88996124267578,35.31,1
-0.3925570249557495,-0.9844428300857544,0.3891657888889313,17.455162048339844,1.9605886936187744,67.88997650146484,35.31,1
-0.4198537468910217,-0.9956140518188475,0.3113197088241577,19.56344985961914,1.960379958152771,67.88998413085938,35.31,1
-0.554924488067627,-1.0139787197113037,0.244569256901741,23.28450965881348,1.9689677953720093,67.8899917602539,35.31,1
-0.5576384663581848,-0.9585907459259032,0.3192859292030334,26.019981384277344,1.974478960037232,67.8899917602539,35.31,1
-0.5090001821517944,-0.8950570821762085,0.3224526047706604,25.10284805297852,1.978015661239624,67.8899917602539,35.31,1
-0.4889824688434601,-0.8598825931549072,0.2741048038005829,19.79603385925293,1.980285406112671,67.8899917602539,35.31,1
-0.4761362671852112,-0.8373096585273743,0.2318824231624603,11.543200492858888,1.9817419052124023,67.8899917602539,35.31,1
-0.4846856296062469,-0.8508124947547913,0.1879932135343551,3.0549328327178955,1.98267662525177,67.8899917602539,35.31,1
-0.4901721179485321,-0.870673418045044,0.1486320942640304,-2.775684833526612,1.9832764863967896,67.8899917602539,35.31,1
-0.49929079413414,-0.8946145176887512,0.1065790727734565,-4.1995134353637695,1.983661413192749,67.8899917602539,35.31,1
-0.4771537780761719,-0.9099785685539246,0.1019829586148262,-1.756371259689331,1.983908534049988,68.13360595703125,35.31,1
-0.4405564069747925,-0.914240539073944,0.1158267632126808,2.4626030921936035,1.9840670824050903,68.28994750976562,35.31,1
-0.3946792185306549,-0.9113778471946716,0.1471020132303238,6.943472385406494,1.9841687679290767,68.3902816772461,35.31,1
-0.3596401214599609,-0.8983452320098877,0.1727704405784607,11.16966724395752,1.984234094619751,68.45466613769531,35.31,1
-0.3147629499435425,-0.8955793976783752,0.2060362845659256,14.429930686950684,1.9842759370803835,68.49598693847656,35.31,1
-0.2915611267089844,-0.9161955714225768,0.221786618232727,15.69460391998291,1.9843028783798216,68.52249908447266,35.31,1
-0.2878670990467071,-0.9742079973220824,0.2262964993715286,14.363819122314451,1.9843201637268064,68.53952026367188,35.31,1
-0.3302786648273468,-1.0842081308364868,0.2347884625196457,10.278314590454102,1.9843312501907349,68.5504379272461,35.31,1
-0.3854848444461822,-1.1603976488113403,0.2402381151914596,3.500684976577759,1.9825022220611568,68.55744934082031,35.31,1
-0.4041196703910827,-1.1589117050170898,0.2157465070486068,-5.380765438079834,1.98132848739624,68.56194305419922,35.31,1
-0.3992851078510284,-1.2307292222976685,0.1832358837127685,-15.046279907226562,1.9805752038955688,68.56482696533203,35.31,1
-0.390584796667099,-1.2880131006240845,0.167970210313797,-23.466665267944336,1.9800918102264404,68.56668090820312,35.31,1
-0.357012540102005,-1.2855901718139648,0.1469780355691909,-28.501379013061523,1.9797816276550293,68.56787109375,35.31,1
-0.3242722749710083,-1.2448508739471436,0.1223109140992164,-29.357120513916016,1.9795825481414795,68.56863403320312,35.31,1
-0.2808703482151031,-1.134740114212036,0.0784921050071716,-27.27667617797852,1.979454755783081,68.56912231445312,35.31,1
-0.2474197149276733,-1.0472840070724487,0.0559694878757,-24.175355911254883,1.97937285900116,68.5694351196289,35.31,1
-0.2259530276060104,-1.0079530477523804,0.0471135452389717,-21.17482185363769,1.9756476879119875,68.56964111328125,35.33,1
-0.2177747189998626,-1.0051038265228271,0.0302347615361213,-18.697534561157227,1.9732571840286253,68.56977081298828,35.33,1
-0.218124121427536,-1.0144709348678589,0.0138051556423306,-16.799652099609375,1.9717230796813965,68.56985473632812,35.33,1
-0.2015550285577774,-1.0372754335403442,0.0032615801319479,-14.89742946624756,1.9707385301589968,68.56990814208984,35.33,1
-0.1685308367013931,-1.0015301704406738,-0.0202980041503906,-12.107523918151855,1.9701067209243768,68.56993865966797,35.33,1
-0.158533364534378,-0.9673953056335448,-0.0354171879589557,-8.232064247131348,1.9697012901306152,68.56996154785156,35.33,1
-0.168910875916481,-0.9342939853668212,-0.0339242629706859,-3.839087009429932,1.9694410562515257,68.56997680664062,35.33,1
-0.1923638880252838,-0.9018559455871582,-0.0385639630258083,0.3557820916175842,1.9692740440368648,68.56998443603516,35.33,1
-0.2354035526514053,-0.8754412531852722,-0.0527370050549507,3.753574848175049,1.969166874885559,68.56999206542969,35.33,1
-0.2686217129230499,-0.8752831816673279,-0.0506368987262249,6.113211631774902,1.9690980911254885,68.56999206542969,35.33,1
-0.2899392247200012,-0.908768355846405,-0.0436913967132568,7.595247268676758,1.9690539836883545,68.56999206542969,35.33,1
-0.3148151040077209,-0.9694416522979736,-0.0112453000620007,7.879973411560059,1.9690256118774407,68.56999206542969,35.33,1
-0.3307790160179138,-0.9691938757896424,0.0263700615614652,6.034956455230713,1.9690074920654297,68.56999206542969,35.33,1
-0.3410237431526184,-0.985828161239624,0.0617049820721149,2.1281731128692627,1.9689958095550537,68.56999206542969,35.33,1
-0.3531959950923919,-1.091665267944336,0.0899786800146102,-2.10577654838562,1.968988299369812,68.56999206542969,35.33,1
-0.3610074520111084,-1.1931720972061155,0.1305142045021057,-4.994845390319824,1.96898353099823,68.56999206542969,35.33,1
0.0873993411660194,-1.2359222173690796,0.6267406344413757,-6.1252031326293945,1.9735708236694336,68.82435607910156,35.33,1
-0.0110854236409068,-1.190585732460022,0.7212792038917542,-5.661186695098877,1.97651469707489,68.98759460449219,35.33,1
-0.4045559763908386,-1.0607314109802246,0.5860264897346497,-3.876638889312744,1.978403925895691,69.09235382080078,35.33,1
-0.5339117050170898,-0.9941917061805724,0.4152624905109405,-1.3772052526474,1.9796162843704224,69.15957641601562,35.33,1
-0.6113269925117493,-0.9346970319747924,0.2441004663705825,1.3087252378463743,1.9803943634033203,69.20272064208984,35.33,1
-0.5770410299301147,-0.924505650997162,0.0614874698221683,4.2397284507751465,1.980893611907959,69.23040771484375,35.33,1
-0.5102560520172119,-0.934758722782135,-0.0557030439376831,7.650437831878662,1.981214046478272,69.24817657470703,35.33,1
-0.3834307193756103,-0.9357408285140992,-0.102920301258564,11.354663848876951,1.9814196825027464,69.25957489013672,35.33,1
-0.2684548497200012,-0.8803933262825012,-0.0828416496515274,14.90690803527832,1.970075607299805,69.26689147949219,35.33,1
-0.1946699619293213,-0.8392767310142517,-0.0531630031764507,18.096508026123047,1.962795615196228,69.2715835571289,35.33,1
-0.1361235231161117,-0.807292640209198,0.0050674667581915,20.906497955322266,1.958123683929444,69.27459716796875,35.33,1
-0.1041495651006698,-0.7979626655578613,0.064827524125576,23.08237648010254,1.9551255702972408,69.27653503417969,35.33,1
-0.1284127086400985,-0.8255618810653687,0.1255691796541214,24.005828857421875,1.953201532363892,69.27777862548828,35.33,1
-0.1831678301095962,-0.8600667715072632,0.1365608125925064,23.254981994628903,1.9519667625427248,69.27857208251953,35.33,1
-0.2183065116405487,-0.893405556678772,0.1156257390975952,20.9281063079834,1.9511743783950808,69.27908325195312,35.33,1
-0.2744431495666504,-1.0715382099151611,0.1077885925769805,17.14200210571289,1.950665831565857,69.27941131591797,35.33,1
-0.3104684054851532,-1.2138423919677734,0.1419435888528823,11.728013038635254,1.9576841592788696,69.27962493896484,35.33,1
-0.3223917782306671,-1.1764161586761477,0.1918511688709259,4.839432239532471,1.9621881246566768,69.2797622680664,35.33,1
-0.3412390649318695,-1.096420407295227,0.1790967881679535,-2.50464415550232,1.9650784730911253,69.27984619140625,35.33,1
-0.3701274991035461,-1.0898659229278564,0.1653139740228653,-8.736661911010742,1.966933369636536,69.27989959716797,35.33,1
-0.4334486424922943,-1.119246244430542,0.1564689576625824,-12.696603775024414,1.9681236743927,69.27993774414062,35.33,1
-0.4908778071403503,-1.12690532207489,0.1507927328348159,-14.25265884399414,1.9688875675201416,69.27996063232422,35.33,1
-0.4885481297969818,-1.0982338190078735,0.1191611960530281,-14.11198616027832,1.9693777561187744,69.27997589111328,35.33,1
-0.3806953728199005,-1.035051941871643,0.121252991259098,-13.16905689239502,1.969692349433899,69.27998352050781,35.33,1
-0.2611016929149627,-0.9665165543556212,0.1561820358037948,-12.169856071472168,1.9666811227798464,69.27999114990234,35.33,1
-0.1619622558355331,-0.8945456147193909,0.2009885758161544,-11.6002779006958,1.9647486209869385,69.27999114990234,35.33,1
-0.1095358282327652,-0.8539565801620483,0.2297428399324417,-11.496283531188965,1.9635084867477417,69.27999114990234,35.33,1
-0.1262715309858322,-0.8503000140190125,0.2146090269088745,-11.594345092773438,1.962712645530701,69.27999114990234,35.33,1
-0.1370115429162979,-0.8759422898292542,0.2160925567150116,-11.825655937194824,1.9622019529342647,69.27999114990234,35.33,1
-0.121512770652771,-0.8923980593681335,0.2394357025623321,-12.275033950805664,1.9618741273880005,69.27999114990234,35.33,1
-0.0052088345400989,-0.9141539335250854,0.2544159889221191,-12.656566619873049,1.961663842201233,69.27999114990234,35.33,1
0.1310038566589355,-0.9505066871643066,0.2248450517654419,-12.392685890197754,1.9615288972854608,69.27999114990234,35.33,1
0.1792328953742981,-1.0466068983078003,0.0435326732695102,-11.28112506866455,1.96649181842804,69.59884643554688,35.33,1
0.0086636412888765,-1.063496232032776,-0.0896164998412132,-9.607659339904783,1.969676733016968,69.803466796875,35.33,1
-0.1679711788892746,-1.079932689666748,-0.0799018070101738,-7.57359504699707,1.9717206954956048,69.93477630615234,35.33,1
-0.2477385997772216,-1.1408605575561523,0.0158969145268201,-5.186311721801758,1.9730323553085327,70.01904296875,35.33,1
-0.254146546125412,-1.224742770195007,0.0661794692277908,-2.644004344940185,1.9738740921020508,70.0731201171875,35.33,1
-0.2526610195636749,-1.2002047300338743,0.0872523710131645,-0.2243311703205108,1.974414348602295,70.10782623291016,35.33,1
-0.2237188220024109,-1.0501110553741455,0.0839824229478836,1.7691327333450315,1.9747610092163088,70.13009643554688,35.33,1
-0.1771565079689026,-0.9593873023986816,0.0986772775650024,2.575522899627685,1.9749834537506104,70.14439392089844,35.33,1
-0.1024933010339737,-1.007523775100708,0.1360964626073837,1.98241937160492,1.980634808540344,70.153564453125,35.33,1
-0.0489809773862361,-1.0552083253860474,0.1769032627344131,1.902735948562622,1.984261512756348,70.15945434570312,35.33,1
-0.0594220422208309,-1.0242339372634888,0.2142862677574157,4.753486156463623,1.986588954925537,70.1632308959961,35.33,1
-0.1332958042621612,-0.9371830821037292,0.2438743114471435,10.348220825195312,1.9880825281143188,70.16565704345703,35.33,1
-0.1974970698356628,-0.8757210969924927,0.2628622055053711,16.439237594604492,1.9890409708023071,70.1672134399414,35.33,1
-0.2778821587562561,-0.8474738597869873,0.2582542300224304,21.28673553466797,1.9896560907363887,70.168212890625,35.33,1
-0.3406642377376556,-0.8349441885948181,0.2552970945835113,23.813621520996094,1.990050792694092,70.16885375976562,35.33,1
-0.3697586059570312,-0.83809894323349,0.2478016018867492,22.952505111694336,1.9903041124343872,70.16926574707031,35.33,1
-0.3660385906696319,-0.8401234745979309,0.2373936474323272,18.82448005676269,1.991843819618225,70.16952514648438,35.31,1
-0.3580535352230072,-0.8414226770401001,0.2195188701152801,13.309290885925291,1.9928319454193115,70.16969299316406,35.31,1
-0.3417336344718933,-0.8702453374862671,0.2192434221506118,8.412163734436035,1.993466019630432,70.1697998046875,35.31,1
-0.3368582427501678,-0.9055353999137878,0.230262205004692,4.914794445037842,1.9938730001449585,70.16986846923828,35.31,1
-0.344925045967102,-0.9449758529663086,0.2653222978115082,2.738453388214112,1.9941341876983645,70.16991424560547,35.31,1
-0.3612973988056183,-1.0038731098175049,0.2934196293354034,1.5997483730316162,1.9943017959594729,70.1699447631836,35.31,1
-0.3997931182384491,-1.0864521265029907,0.3170486390590668,1.1126081943511963,1.994409322738648,70.16996765136719,35.31,1
-0.4748774170875549,-1.1954243183135986,0.3769945800304413,0.8322328925132751,1.9944783449172967,70.16997528076172,35.31,1
-0.5006710886955261,-1.209378719329834,0.4042688906192779,0.3549503684043884,1.997735857963562,70.16998291015625,35.31,1
-0.4444529116153717,-1.1567583084106443,0.4049786329269409,-0.646361768245697,1.9998263120651243,70.16999053955078,35.31,1
-0.3188109397888183,-1.1845650672912598,0.4222274422645569,-2.4926917552948,2.0011677742004395,70.16999053955078,35.31,1
-0.2157900631427765,-1.219203233718872,0.438894510269165,-5.450934886932373,2.002028703689575,70.16999053955078,35.31,1
-0.1552749574184417,-1.3142030239105225,0.4663837850093841,-9.172896385192873,2.0025813579559326,70.16999053955078,35.31,1
-0.1276354044675827,-1.3191906213760376,0.4672315120697021,-12.102405548095703,2.0029358863830566,70.16999053955078,35.31,1
-0.1434845775365829,-1.21043598651886,0.4285911023616791,-12.420392990112305,2.0031633377075195,70.16999053955078,35.31,1
-0.1424601078033447,-1.079067945480347,0.3870005905628204,-9.984100341796877,2.003309488296509,70.16999053955078,35.31,1
-0.1362048983573913,-0.9723724126815796,0.3379190862178802,-6.536193370819092,2.002485036849976,70.46734619140625,35.31,1
-0.1657773107290268,-0.8703147172927856,0.2560414373874664,-3.8721208572387695,2.001955986022949,70.65817260742188,35.31,1
-0.1847551763057708,-0.7992221713066101,0.1978992968797683,-2.6926937103271484,2.0016164779663086,70.78063201904297,35.31,1
-0.1857385337352752,-0.742403507232666,0.1549892425537109,-3.032073497772217,2.0013985633850098,70.85922241210938,35.31,1
-0.1583807170391082,-0.6779516935348511,0.1162564978003501,-4.57542085647583,2.001258611679077,70.90966033935547,35.31,1
-0.1408240497112274,-0.6309924721717834,0.0969978272914886,-6.780345439910889,2.001168727874756,70.94202423095703,35.31,1
-0.1519482880830764,-0.6344434022903442,0.0790409445762634,-9.366841316223145,2.0011112689971924,70.9627914428711,35.31,1
-0.1702827364206314,-0.6478535532951355,0.0619194768369197,-12.248363494873049,2.001074314117432,70.97611999511719,35.31,1
-0.1932442784309387,-0.706839382648468,0.0621274523437023,-14.946629524230955,2.006559133529663,70.98467254638672,35.31,1
-0.202381893992424,-0.8454530239105225,0.0566631443798542,-16.645978927612305,2.0100789070129395,70.99016571044922,35.31,1
-0.1914525628089904,-1.035167217254639,0.0363631434738636,-16.58293342590332,2.012337684631348,70.99369049072266,35.31,1
-0.2684053778648376,-1.3752280473709106,0.028933547437191,-14.285451889038086,2.013787269592285,70.9959487915039,35.31,1
-0.4185492098331451,-1.3751463890075684,0.0521545335650444,-10.382074356079102,2.0147175788879395,70.99739837646484,35.31,1
-0.4981095492839813,-1.3023228645324707,0.0726541951298713,-6.70919132232666,2.0153145790100098,70.99832916259766,35.31,1
-0.4316135346889496,-1.300371170043945,0.1641785502433776,-4.538440227508545,2.015697717666626,70.9989242553711,35.31,1
-0.3273646831512451,-1.276727557182312,0.256500244140625,-3.496469497680664,2.01594352722168,70.99931335449219,35.31,1
-0.1988882571458816,-1.1663923263549805,0.2765625715255737,-2.8062973022460938,2.0248234272003174,70.99955749511719,35.29,1
-0.1108417138457298,-1.056401014328003,0.2614485621452331,-2.094691276550293,2.030522108078003,70.99971771240234,35.29,1
-0.1047184765338897,-0.9746193885803224,0.1957715153694152,-0.5202597975730896,2.034179210662842,70.99981689453125,35.29,1
-0.1791577786207199,-0.9277344346046448,0.1144393384456634,3.09106969833374,2.0365259647369385,70.99988555908203,35.29,1
-0.2717108130455017,-0.8920485973358154,0.045451708137989,8.460967063903809,2.038032054901123,70.99992370605469,35.29,1
-0.3870837986469269,-0.8691474795341492,-0.004418353550136,13.583703994750977,2.038998603820801,70.99995422363281,35.29,1
-0.4835146367549896,-0.8600486516952515,-0.0308243185281753,16.7816162109375,2.039618968963623,70.99996948242188,35.29,1
-0.5398005843162537,-0.8821983933448792,0.0194031465798616,18.027772903442383,2.040016889572144,70.9999771118164,35.29,1
-0.514346182346344,-0.9076083898544312,0.1188095286488533,17.928258895874023,2.0228283405303955,70.99998474121094,35.29,1
-0.4588265717029571,-0.9127194881439208,0.1937983781099319,16.667816162109375,2.0117979049682617,70.99999237060547,35.29,1
-0.3560239970684051,-0.9104017615318298,0.2699107825756073,14.490392684936523,2.004719018936157,70.99999237060547,35.29,1
-0.2564645707607269,-0.9257076978683472,0.3523419797420501,12.079178810119627,2.000176191329956,70.99999237060547,35.29,1
-0.1030086800456047,-1.0027034282684326,0.4444260001182556,10.069647789001465,1.997260928153992,70.99999237060547,35.29,1
-0.1668649762868881,-1.119288206100464,0.397162526845932,8.715559959411621,1.9953901767730715,70.99999237060547,35.29,1
-0.4149619340896606,-1.1213345527648926,0.3444404304027557,7.993470191955566,1.9941896200180047,70.99999237060547,35.29,1
-0.7365117073059082,-1.077865481376648,0.4001708328723907,7.644717216491699,1.993419170379639,70.99999237060547,35.29,1
-0.8365061283111572,-1.1339361667633057,0.486315369606018,7.2596917152404785,2.0007286071777344,71.2901840209961,35.29,1
-0.643179178237915,-1.287472367286682,0.6031734943389893,6.632851600646973,2.0054194927215576,71.47640991210938,35.29,1
-0.4351464807987213,-1.3020365238189695,0.633384108543396,5.893819332122803,2.008429765701294,71.59591674804688,35.29,1
-0.2904475033283233,-1.2610028982162476,0.6303804516792297,4.950233459472656,2.010361671447754,71.67261505126953,35.29,1
-0.2087835818529129,-1.1507033109664917,0.5948662161827087,3.015558958053589,2.011601448059082,71.72183227539062,35.29,1
-0.1787674874067306,-1.0407350063323977,0.5049019455909729,-0.8233711123466492,2.012397050857544,71.75341796875,35.29,1
-0.1818959712982177,-0.9645658731460572,0.424776941537857,-6.561449527740479,2.0129075050354004,71.77368927001953,35.29,1
-0.2566747367382049,-0.9380760192871094,0.3453684449195862,-12.941497802734377,2.013235092163086,71.78669738769531,35.29,1
-0.2934678792953491,-0.9266741275787354,0.2888108789920807,-17.98880958557129,2.0074775218963623,71.7950439453125,35.29,1
-0.3002862930297851,-0.9193570017814636,0.274906575679779,-20.2534236907959,2.0037825107574463,71.80039978027344,35.29,1
-0.2598797380924225,-0.8810746669769287,0.2827769219875335,-19.861696243286133,2.001411437988281,71.80384063720703,35.29,1
-0.2171558290719986,-0.8229206204414368,0.2822299003601074,-18.159364700317383,1.9998897314071653,71.80604553222656,35.29,1
-0.1561514288187027,-0.735220730304718,0.2930743992328644,-16.33247947692871,1.9989131689071653,71.80746459960938,35.29,1
-0.1114045456051826,-0.6621466875076294,0.3000337779521942,-14.794666290283203,1.998286485671997,71.8083724975586,35.29,1
-0.0994818955659866,-0.6152519583702087,0.276511013507843,-13.392207145690918,1.9978843927383425,71.80895233154297,35.29,1
-0.1254172772169113,-0.6187442541122437,0.244622141122818,-11.532059669494627,1.9976263046264648,71.809326171875,35.29,1
-0.1644522100687027,-0.6489742994308472,0.2241577059030532,-8.31775188446045,1.9960834980010984,71.8095703125,35.33,1
-0.206295907497406,-0.7411452531814575,0.1942314803600311,-3.098744630813598,1.99509346485138,71.80972290039062,35.33,1
-0.2331487834453582,-0.8730663657188416,0.1638310104608535,3.7829339504241934,1.9944580793380733,71.80982208251953,35.33,1
-0.2727724909782409,-1.153647780418396,0.1219306364655494,10.943451881408691,1.99405038356781,71.80988311767578,35.33,1
-0.3429829180240631,-1.4120776653289795,0.1174324825406074,16.960941314697266,1.993788719177246,71.80992126464844,35.33,1
-0.4496154487133026,-1.4827609062194824,0.1481324732303619,21.087730407714844,1.993620753288269,71.80995178222656,35.33,1
-0.6411970853805542,-1.5113279819488523,0.1958228349685669,22.969396591186523,1.9935129880905151,71.80996704101562,35.33,1
-0.6465899348258972,-1.4233030080795288,0.1760477870702743,22.42147827148437,1.993443846702576,71.80997467041016,35.33,1
-0.4709219336509704,-1.316433668136597,0.2249328196048736,19.443828582763672,1.9984490871429443,71.80998229980469,35.33,1
-0.307808369398117,-1.186275601387024,0.239511102437973,13.979029655456545,2.00166130065918,71.80998992919922,35.33,1
-0.2255225628614425,-1.0859543085098269,0.198486641049385,6.112040996551514,2.003722667694092,71.80998992919922,35.33,1
-0.2286940217018127,-1.010378360748291,0.1217795237898826,-3.23921275138855,2.005045413970948,71.80998992919922,35.33,1
-0.2531203627586365,-0.9618780612945556,0.0557599887251853,-12.15652561187744,2.005894422531128,71.80998992919922,35.33,1
-0.2967846691608429,-0.9027644395828248,-0.0145964212715625,-18.04752349853516,2.006439208984375,71.80998992919922,35.33,1
-0.3304036855697632,-0.8424376249313354,-0.0653448849916458,-18.58221435546875,2.006788730621338,71.80998992919922,35.33,1
-0.3575761914253235,-0.7981256246566772,-0.0979123264551162,-13.50849437713623,2.0070130825042725,71.80998992919922,35.33,1
-0.3918072879314422,-0.8032753467559814,-0.0908233672380447,-5.161632537841797,1.998894214630127,72.09660339355469,35.33,1
-0.4305681586265564,-0.8345690369606018,-0.0526874363422393,3.447881937026977,1.9936840534210205,72.28053283691406,35.33,1
-0.4386493265628814,-0.92742258310318,0.0557526275515556,10.463324546813965,1.9903404712677,72.39856719970703,35.33,1
-0.3710642755031585,-0.9926084280014038,0.1197454407811164,15.19471549987793,1.988194704055786,72.47431182861328,35.33,1
-0.4452453553676605,-1.017647624015808,0.1328234821557998,17.493040084838867,1.986817717552185,72.5229263305664,35.33,1
-0.5824148654937744,-1.0113252401351929,0.1748028546571731,17.44896125793457,1.985934019088745,72.55412292480469,35.33,1
-0.6984312534332275,-1.0184634923934937,0.2073405683040619,15.421595573425291,1.985366940498352,72.57414245605469,35.33,1
-0.8400571942329407,-1.0230443477630615,0.2394169569015503,12.150132179260254,1.9850029945373533,72.58699035644531,35.33,1
-0.8973579406738281,-0.9756041169166564,0.3327727913856506,8.470779418945312,1.9930323362350464,72.5952377319336,35.33,1
-0.8949458003044128,-0.9395619034767152,0.4262698590755462,4.809107780456543,1.9981850385665887,72.60052490234375,35.33,1
-0.8318223357200623,-0.9668120741844176,0.4526842534542084,1.2196866273880005,2.0014917850494385,72.60391998291016,35.33,1
-0.7801177501678467,-1.0066907405853271,0.4304510653018951,-2.215891122817993,2.003613948822021,72.6061019897461,35.33,1
-0.6909589767456055,-1.0770647525787354,0.3825964331626892,-5.370029926300049,2.0049757957458496,72.60749816894531,35.33,1
-0.5777642726898193,-1.1334223747253418,0.3238972127437591,-8.286235809326172,2.005849599838257,72.6083984375,35.33,1
-0.4995246529579162,-1.141600489616394,0.2582385540008545,-11.042584419250488,2.006410360336304,72.60897064208984,35.33,1
-0.4493149816989898,-1.085273265838623,0.2161026149988174,-13.449149131774902,2.006770372390747,72.60933685302734,35.33,1
-0.4002999663352966,-1.0379301309585571,0.1890621930360794,-15.172673225402832,2.0010337829589844,72.60957336425781,35.31,1
-0.3464538753032684,-0.9739614129066468,0.1493180990219116,-16.303810119628906,1.9973523616790767,72.60972595214844,35.31,1
-0.3230940997600555,-0.9161166548728944,0.1350081861019134,-17.29840087890625,1.99498987197876,72.60982513427734,35.31,1
-0.2969075739383697,-0.8733974099159241,0.1426182240247726,-17.91159439086914,1.993473768234253,72.6098861694336,35.31,1
-0.2689070403575897,-0.8235915899276733,0.1530996859073639,-16.911483764648438,1.99250078201294,72.60992431640625,35.31,1
-0.2397423535585403,-0.7916290760040283,0.1766194105148315,-13.69021701812744,1.9918763637542725,72.60995483398438,35.31,1
-0.1370595246553421,-0.7543240189552307,0.2252996563911438,-9.45553493499756,1.9914757013320925,72.60997009277344,35.31,1
-0.0711635872721672,-0.7303838133811951,0.2397465109825134,-5.853063583374023,1.9912185668945312,72.60997772216797,35.31,1
-0.0680597946047782,-0.7262158989906311,0.2098332494497299,-3.093382835388184,1.9942667484283447,72.6099853515625,35.31,1
-0.1780234426259994,-0.7739211320877075,0.1402566730976104,0.0461653620004653,1.996222972869873,72.60999298095703,35.31,1
-0.2989717423915863,-0.8213289380073547,0.1123997569084167,5.012989044189453,1.9974783658981323,72.60999298095703,35.31,1
-0.4717515707015991,-0.9133280515670776,0.1225116625428199,12.187817573547363,1.9982839822769165,72.60999298095703,35.31,1
-0.5826317071914673,-1.0675299167633057,0.1681853234767913,19.9914493560791,1.9988009929656985,72.60999298095703,35.31,1
-0.6146038174629211,-1.188878893852234,0.2030938267707824,25.71588706970215,1.999132752418518,72.60999298095703,35.31,1
-0.6239261031150818,-1.1659938097000122,0.2198983132839203,28.0854434967041,1.999345660209656,72.60999298095703,35.31,1
-0.6075175404548645,-1.084134221076965,0.2530735731124878,28.151561737060547,1.999482274055481,72.60999298095703,35.31,1
-0.4682386219501495,-1.042796969413757,0.3303412795066833,27.07264709472656,2.02252197265625,72.8643569946289,35.31,1
-0.2780975103378296,-1.0498557090759275,0.4135138988494873,24.30595016479492,2.0373075008392334,73.02759552001953,35.31,1
-0.1560758799314499,-1.0599833726882937,0.4556937515735626,18.89771270751953,2.0467960834503174,73.13235473632812,35.31,1
-0.1281493902206421,-1.004907250404358,0.4267846047878265,11.17449951171875,2.052885293960572,73.19957733154297,35.31,1
-0.1326188743114471,-0.941573679447174,0.3858412802219391,2.205700635910034,2.056792974472046,73.24272155761719,35.31,1
-0.2306492924690246,-0.8785387277603149,0.3147840201854706,-7.333157539367676,2.059300661087036,73.2704086303711,35.31,1
-0.3943195044994354,-0.8492820858955383,0.2467924654483795,-16.757781982421875,2.060909986495972,73.28817749023438,35.31,1
-0.5217447280883789,-0.8249090909957886,0.1975616216659546,-24.41812324523925,2.06194281578064,73.29957580566406,35.31,1
-0.5979211330413818,-0.7868767976760864,0.1435769945383072,-28.17333602905273,2.0713279247283936,73.30689239501953,35.31,1
-0.6300134658813477,-0.7568720579147339,0.114530548453331,-27.21559333801269,2.077350616455078,73.31158447265625,35.31,1
-0.6226195693016052,-0.7768011689186096,0.1070857569575309,-22.918081283569336,2.0812156200408936,73.3145980834961,35.31,1
-0.5842879414558411,-0.8679593801498413,0.1135036721825599,-17.677459716796875,2.083695888519287,73.31653594970703,35.31,1
-0.531700074672699,-0.9656438827514648,0.1232200935482978,-13.110586166381836,2.085287570953369,73.31777954101562,35.31,1
-0.4531700015068054,-1.028332233428955,0.1350533068180084,-9.366584777832031,2.08630919456482,73.31857299804688,35.31,1
-0.402773916721344,-1.0517686605453491,0.1370494067668914,-5.942866325378418,2.0869648456573486,73.31908416748047,35.31,1
-0.3536392748355865,-1.0780043601989746,0.1495259404182434,-2.796338081359864,2.087385416030884,73.31941223144531,35.31,1
-0.3389008045196533,-1.1396230459213257,0.1519348919391632,-0.3220901787281036,2.105098962783813,73.31962585449219,35.31,1
-0.3966158032417297,-1.2071553468704224,0.1310897171497345,1.4090427160263062,2.116466522216797,73.31976318359375,35.31,1
-0.5008272528648376,-1.18332040309906,0.0337458662688732,2.6632869243621826,2.1237614154815674,73.3198471069336,35.31,1
-0.5733019709587097,-1.1568288803100586,-0.0958971008658409,3.693891048431397,2.1284430027008057,73.31990051269531,35.31,1
-0.5750298500061035,-1.218196988105774,-0.2182789146900177,4.831756114959717,2.1314473152160645,73.31993865966797,35.31,1
-0.4809765517711639,-1.3415461778640747,-0.2912187576293945,6.246244430541992,2.133375406265259,73.31996154785156,35.31,1
-0.3646408021450043,-1.387117862701416,-0.3268317878246307,7.469248294830322,2.134612560272217,73.31997680664062,35.31,1
-0.3067765533924103,-1.315603256225586,-0.2881106734275818,7.988991260528564,2.135406494140625,73.31998443603516,35.31,1
-0.2864359319210052,-1.2137315273284912,-0.218479499220848,7.989352703094482,2.141883850097656,73.31999206542969,35.31,1
-0.2901757955551147,-1.086780667304993,-0.1290120184421539,7.814038276672363,2.146040678024292,73.31999206542969,35.31,1
-0.3149669468402862,-0.9997130632400512,-0.0771947130560875,7.01367712020874,2.14870834350586,73.31999206542969,35.31,1
-0.347669780254364,-0.9326425790786744,-0.0495391227304935,4.647859573364258,2.150420427322388,73.31999206542969,35.31,1
-0.3966454565525055,-0.9175894856452942,-0.0541824549436569,0.4713431298732757,2.151519060134888,73.31999206542969,35.31,1
-0.4168796837329864,-0.9303203821182252,-0.0515645034611225,-4.634308338165283,2.152224063873291,73.31999206542969,35.31,1
-0.351496011018753,-0.9384903311729432,-0.0330911315977573,-9.583885192871094,2.152676582336426,73.31999206542969,35.31,1
-0.2703520953655243,-0.9437333345413208,0.0179484356194734,-14.057129859924316,2.1529669761657715,73.31999206542969,35.31,1
-0.1902897357940673,-0.9526957273483276,0.0842893421649932,-17.977495193481445,2.1522350311279297,73.5421142578125,35.31,1
-0.1109214499592781,-0.9696428179740906,0.1492542177438736,-20.5184383392334,2.1517653465271,73.68466186523438,35.31,1
-0.0711830034852027,-0.9749207496643066,0.2021404802799224,-20.44376373291016,2.1514639854431152,73.77613830566406,35.31,1
-0.146441102027893,-1.028687834739685,0.2640687227249145,-17.021055221557617,2.151270627975464,73.83484649658203,35.31,1
-0.2675084769725799,-1.0463991165161133,0.29261514544487,-10.482477188110352,2.151146411895752,73.87252044677734,35.31,1
-0.3284092247486114,-1.012982964515686,0.3165323734283447,-2.3025693893432617,2.151066780090332,73.89669799804688,35.31,1
-0.2219496816396713,-0.8627895712852478,0.3262833058834076,5.243255138397217,2.151015520095825,73.9122085571289,35.31,1
-0.1032501012086868,-0.7775996327400208,0.3045520186424255,10.798663139343262,2.150982618331909,73.92216491699219,35.31,1
-0.1278354972600937,-0.8404829502105713,0.2850083410739898,14.886860847473145,2.1546342372894287,73.92855834960938,35.31,1
-0.2275795936584472,-0.9927933216094972,0.328444093465805,18.32367515563965,2.156977415084839,73.93265533447266,35.31,1
-0.3531651496887207,-1.1129283905029297,0.3731119632720947,20.486234664916992,2.1584811210632324,73.93528747558594,35.31,1
-0.4841386973857879,-1.13404643535614,0.3569950461387634,19.97527503967285,2.1594462394714355,73.93697357177734,35.31,1
-0.5961788296699524,-1.1140121221542358,0.2850766181945801,16.40155792236328,2.1600656509399414,73.93805694580078,35.31,1
-0.6904708743095398,-1.1179486513137815,0.1941413134336471,10.894580841064451,2.160463094711304,73.93875122070312,35.31,1
-0.6166354417800903,-1.0812904834747314,0.1245887205004692,5.390103816986084,2.1607182025909424,73.93920135498047,35.31,1
-0.5132743716239929,-1.0577653646469116,0.1191382929682731,1.5746233463287354,2.160881757736206,73.93949127197266,35.31,1
-0.4469432234764099,-1.0314726829528809,0.1996071338653564,-0.0750177800655365,2.156855344772339,73.9396743774414,35.31,1
-0.3987779319286346,-1.0034040212631226,0.2848340570926666,-0.1663670986890792,2.154271364212036,73.93978881835938,35.31,1
-0.4014548659324646,-0.9462067484855652,0.3619188964366913,0.9572601318359376,2.1526131629943848,73.93986511230469,35.31,1
-0.459150493144989,-0.8927075266838074,0.3889963924884796,3.713242292404175,2.1515491008758545,73.93991088867188,35.31,1
-0.5353606343269348,-0.8527770042419434,0.3895798623561859,7.882198810577393,2.150866270065308,73.93994140625,35.31,1
-0.6122568249702454,-0.8551408052444458,0.345172107219696,11.689689636230469,2.150428056716919,73.9399642944336,35.31,1
-0.6448110342025757,-0.8846465945243835,0.2998804450035095,13.126413345336914,2.150146722793579,73.93997955322266,35.31,1
-0.6265180110931396,-0.9875483512878418,0.2484237551689148,11.626599311828612,2.149966239929199,73.93998718261719,35.31,1
-0.5364097952842712,-1.1375514268875122,0.2545862197875976,7.934182167053223,2.1319475173950195,73.93999481201172,35.31,1
-0.4449968636035919,-1.233814716339111,0.269736498594284,3.11053729057312,2.1203842163085938,73.93999481201172,35.31,1
-0.3751377761363983,-1.2508087158203125,0.285056859254837,-1.6473157405853271,2.1129634380340576,73.93999481201172,35.31,1
-0.341501772403717,-1.2225301265716553,0.2668997049331665,-5.0768022537231445,2.108201265335083,73.93999481201172,35.31,1
-0.3702960908412933,-1.288349151611328,0.2048675119876861,-6.665029048919678,2.105145215988159,73.93999481201172,35.31,1
-0.3999701738357544,-1.4089568853378296,0.1314721703529358,-7.154040336608887,2.1031839847564697,73.93999481201172,35.31,1
-0.3966221809387207,-1.4695626497268677,0.0451868511736393,-7.718639850616455,2.1019253730773926,73.93999481201172,35.31,1
-0.3161047995090484,-1.374109387397766,-0.0549682937562465,-8.715083122253418,2.1011176109313965,73.93999481201172,35.31,1
-0.286824494600296,-1.2792662382125854,-0.1136443242430687,-9.633983612060549,2.096467971801758,74.14061737060547,35.31,1
-0.195262998342514,-1.1624237298965454,-0.1289081275463104,-10.19502067565918,2.0934841632843018,74.26937103271484,35.31,1
-0.164492979645729,-1.05385422706604,-0.1331057846546173,-10.813007354736328,2.091569185256958,74.35199737548828,35.31,1
-0.1615398675203323,-0.978582799434662,-0.1357996016740799,-12.008509635925291,2.090340375900269,74.40502166748047,35.31,1
-0.1764380484819412,-0.9022890329360962,-0.1375283300876617,-13.947216987609863,2.0895516872406006,74.43904876708984,35.31,1
-0.1748033016920089,-0.8645236492156982,-0.127442181110382,-16.37361717224121,2.089045524597168,74.46088409423828,35.31,1
-0.151363119482994,-0.8458858132362366,-0.1153717041015625,-18.256755828857425,2.088720798492432,74.47489929199219,35.31,1
-0.1475161015987396,-0.8507184386253357,-0.1020277887582779,-18.136110305786133,2.088512420654297,74.48389434814453,35.31,1
-0.1562428623437881,-0.8650152683258057,-0.0934644341468811,-15.683439254760742,2.08424711227417,74.48966217041016,35.31,1
-0.2010276168584823,-0.9133745431900024,-0.071175642311573,-12.099631309509276,2.081510066986084,74.49336242675781,35.31,1
-0.2409634441137313,-0.961202085018158,-0.0512742064893245,-8.638995170593262,2.079753398895264,74.49574279785156,35.31,1
-0.2609941959381103,-1.0366772413253784,-0.0552959330379962,-5.758964538574219,2.0786261558532715,74.49726867675781,35.31,1
-0.3074354231357574,-1.1131017208099363,0.0092964470386505,-3.602624893188477,2.0779027938842773,74.49824523925781,35.31,1
-0.3764231503009796,-1.1397554874420166,0.0675414428114891,-2.104167938232422,2.0774385929107666,74.49887084960938,35.31,1
-0.4206954836845398,-1.162458062171936,0.1273108273744583,-0.6696444749832153,2.0771405696868896,74.49927520751953,35.31,1
-0.4099225103855133,-1.2218095064163208,0.1376785039901733,1.4976863861083984,2.07694935798645,74.4995346069336,35.31,1
0.4478527009487152,-1.366255521774292,0.7992714643478394,4.772989273071289,2.0804991722106934,74.49970245361328,35.29,1
0.1978416889905929,-1.2518349885940552,0.8152062296867371,8.687673568725586,2.082777261734009,74.49980926513672,35.29,1
0.0262034628540277,-1.156015396118164,0.6854878664016724,12.038215637207031,2.08423924446106,74.4998779296875,35.29,1
-0.0391618721187114,-1.0049595832824707,0.4231133460998535,14.04867935180664,2.085177421569824,74.49992370605469,35.29,1
-0.1426851004362106,-0.9248139262199402,0.2211498171091079,15.20990753173828,2.085779428482056,74.49995422363281,35.29,1
-0.2203158885240554,-0.918163239955902,0.0971390306949615,16.306209564208984,2.08616590499878,74.49996948242188,35.29,1
-0.2309504449367523,-0.9194930195808412,0.0455449149012565,17.35009765625,2.086413860321045,74.4999771118164,35.29,1
-0.2377750873565673,-0.9147486090660096,0.0068370071239769,17.962682723999023,2.0865728855133057,74.49998474121094,35.29,1
-0.2533503174781799,-0.9005083441734314,-0.0291990507394075,17.7933406829834,2.061886548995972,74.49999237060547,35.29,1
-0.2577478289604187,-0.9081631302833556,-0.046727143228054,16.334035873413086,2.04604434967041,74.49999237060547,35.29,1
-0.2437765598297119,-0.9354665875434875,-0.0411823391914367,13.56684112548828,2.0358777046203613,74.49999237060547,35.29,1
-0.2124195098876953,-0.9641839265823364,0.0183537397533655,10.784311294555664,2.029353141784668,74.49999237060547,35.29,1
-0.1922963559627533,-0.9882108569145204,0.0901472121477127,9.811888694763184,2.025166273117065,74.49999237060547,35.29,1
-0.1513936072587967,-0.9644455313682556,0.1698067784309387,11.33738899230957,2.022479295730591,74.49999237060547,35.29,1
-0.1027534753084182,-0.9435965418815612,0.2209277004003524,14.139898300170898,2.020754814147949,74.49999237060547,35.29,1
-0.0603434927761554,-0.8966302275657654,0.2593319416046142,16.12468147277832,2.019648313522339,74.49999237060547,35.29,1
-0.1170938238501548,-0.8385010361671448,0.2783797979354858,15.965371131896973,2.037299871444702,74.67912292480469,35.29,1
-0.2094906568527221,-0.7955993413925171,0.2738102972507477,13.491469383239746,2.048627614974976,74.79408264160156,35.29,1
-0.408730000257492,-0.9583917856216432,0.2708778381347656,8.908828735351562,2.0558972358703613,74.86785125732422,35.29,1
-0.586970329284668,-1.1356337070465088,0.2801915109157562,2.7579660415649414,2.0605623722076416,74.91519165039062,35.29,1
-0.650974690914154,-1.1262263059616089,0.1910063326358795,-3.7651753425598153,2.06355619430542,74.94557189941406,35.29,1
-0.5856913328170776,-1.2153513431549072,0.1505657434463501,-9.649493217468262,2.0654773712158203,74.96507263183594,35.29,1
-0.5102095603942871,-1.3117311000823977,0.1917865872383117,-14.740514755249023,2.0667102336883545,74.97758483886719,35.29,1
-0.461769700050354,-1.373582124710083,0.223837524652481,-18.96060371398925,2.0675015449523926,74.9856185913086,35.29,1
-0.4810637831687927,-1.4020789861679075,0.2052215635776519,-21.851526260375977,2.0684683322906494,74.99076843261719,35.29,1
-0.5102389454841614,-1.369986653327942,0.1484927088022232,-23.359243392944336,2.069088697433472,74.99407196044922,35.29,1
-0.472984105348587,-1.282218337059021,0.0896962955594062,-24.07603073120117,2.069486856460572,74.9961929321289,35.29,1
-0.4266850054264068,-1.1923069953918457,0.0463663712143898,-24.503780364990234,2.069742441177368,74.99755859375,35.29,1
-0.3913751244544983,-1.0954227447509766,0.0073641706258058,-24.84993553161621,2.069906234741211,74.9984359741211,35.29,1
-0.3855086266994476,-1.038845777511597,-0.0120674213394522,-25.51631736755371,2.0700113773345947,74.99899291992188,35.29,1
-0.3929393887519836,-1.092102289199829,0.0370380207896232,-26.79303359985352,2.0700788497924805,74.99935150146484,35.29,1
-0.2297747880220413,-1.1878547668457031,0.1469199061393737,-27.50487899780273,2.070122241973877,74.99958038330078,35.29,1
0.0036836708895862,-1.1709343194961548,0.2174357771873474,-25.00249290466309,2.071068286895752,74.9997329711914,35.29,1
0.2542638182640075,-1.059315800666809,0.2402977049350738,-17.63224220275879,2.0716753005981445,74.99983215332031,35.29,1
0.3534962236881256,-0.9708921909332277,0.2325780838727951,-6.457385540008545,2.0720648765563965,74.99989318847656,35.29,1
0.2324513047933578,-0.8581692576408386,0.1772440969944,5.9194769859313965,2.072314977645874,74.99993133544922,35.29,1
0.093196116387844,-0.8474056720733643,0.1081472858786583,17.05072784423828,2.0724754333496094,74.99995422363281,35.29,1
0.0206234790384769,-0.8796826601028442,0.035816054791212,25.218738555908203,2.072578430175781,74.99996948242188,35.29,1
-0.0203516837209463,-0.9395805597305298,-0.0497863851487636,30.163145065307617,2.0726444721221924,74.9999771118164,35.29,1
-0.0914293825626373,-0.9892151355743408,-0.0935255512595176,32.59100341796875,2.0726869106292725,74.99998474121094,35.29,1
-0.2210095673799514,-1.02106773853302,-0.0488237664103508,32.067588806152344,2.078222751617432,74.99999237060547,35.29,1
-0.2425911575555801,-1.035911202430725,-0.020136734470725,27.36094856262207,2.081775426864624,74.99999237060547,35.29,1
-0.2284521013498306,-1.0958168506622314,-0.012922597117722,19.321308135986328,2.084055185317993,74.99999237060547,35.29,1
-0.2025851458311081,-1.1566518545150757,0.0308914426714181,10.722658157348633,2.0855183601379395,74.99999237060547,35.29,1
-0.1691919118165969,-1.1788989305496216,0.075802095234394,3.302191734313965,2.0864572525024414,74.99999237060547,35.29,1
-0.1197731792926788,-1.148393630981445,0.1382098197937011,-2.731650829315185,2.087059736251831,74.99999237060547,35.29,1
-0.0880590826272964,-1.1176215410232544,0.2062483727931976,-7.0946364402771,2.087446451187134,74.99999237060547,35.29,1
-0.0845001190900802,-1.0978738069534302,0.2555093765258789,-9.446727752685549,2.0876946449279785,74.99999237060547,35.29,1
-0.1158028319478035,-1.0852009057998655,0.2927200198173523,-10.236066818237305,2.099329948425293,75.16837310791016,35.29,1
-0.1694777607917785,-1.09386146068573,0.3165996670722961,-10.226728439331056,2.106796741485596,75.27643585205078,35.29,1
-0.2487054318189621,-1.127408146858215,0.3151309192180633,-9.58661937713623,2.111588478088379,75.34577941894531,35.29,1
-0.3163425028324127,-1.1209475994110107,0.3309817016124725,-7.907602787017822,2.114663600921631,75.3902816772461,35.29,1
-0.3597480952739715,-1.116801619529724,0.3747404515743255,-4.841776847839356,2.1166369915008545,75.41883850097656,35.29,1
-0.3596144318580627,-1.0805543661117554,0.4476045072078705,-0.5742924809455872,2.117903470993042,75.43716430664062,35.29,1
-0.3483330905437469,-1.040499567985535,0.4999622404575348,4.077428340911865,2.118716239929199,75.44892883300781,35.29,1
-0.313104510307312,-1.0091969966888428,0.533562421798706,7.969026565551758,2.119237899780273,75.45648193359375,35.29,1
-0.2904968559741974,-1.0506843328475952,0.583113968372345,10.24789333343506,2.115900039672852,75.4613265991211,35.29,1
-0.2983796596527099,-1.105297327041626,0.6317065954208374,10.567497253417969,2.113758087158203,75.46443176269531,35.29,1
-0.3202317059040069,-1.162735939025879,0.6460972428321838,9.1926851272583,2.1123833656311035,75.4664306640625,35.29,1
-0.2838751077651977,-1.1772056818008425,0.627343475818634,7.382522583007812,2.111501216888428,75.46771240234375,35.29,1
-0.1485880613327026,-1.2424691915512085,0.5705261826515198,6.453731536865234,2.110934972763061,75.4685287475586,35.29,1
-0.0785619392991066,-1.312340497970581,0.5228685736656189,6.015320301055908,2.1105716228485107,75.46905517578125,35.29,1
-0.0728076249361038,-1.3907665014266968,0.4810890853404999,4.454993724822998,2.1103384494781494,75.46939086914062,35.29,1
-0.1194948107004165,-1.4466935396194458,0.4150930047035217,1.1429049968719482,2.1101889610290527,75.46961212158203,35.29,1
-0.1606515049934387,-1.4713886976242063,0.3671427369117737,-3.124983549118042,2.1105523109436035,75.4697494506836,35.29,1
-0.1534768640995025,-1.4312589168548584,0.319577693939209,-7.318394184112549,2.110785484313965,75.46984100341797,35.29,1
-0.1264814883470535,-1.327137112617493,0.2666620910167694,-10.872884750366213,2.110934972763061,75.46990203857422,35.29,1
-0.0755707621574401,-1.2267310619354248,0.2215083539485931,-13.616104125976562,2.1110310554504395,75.46994018554688,35.29,1
-0.0149103188887238,-1.100720763206482,0.1925312876701355,-15.527012825012209,2.111092567443848,75.46996307373047,35.29,1
0.0016269640764221,-1.003061294555664,0.1627399176359176,-16.384319305419922,2.1111321449279785,75.46997833251953,35.29,1
0.0178374145179986,-0.9068024158477784,0.1324259787797927,-15.759404182434082,2.111157417297364,75.46998596191406,35.29,1
0.0898158624768257,-0.7946490049362183,0.1073744669556617,-13.728297233581545,2.111173629760742,75.4699935913086,35.29,1
0.1583985984325409,-0.7114798426628113,0.0745045244693756,-11.479049682617188,2.15708875656128,75.4699935913086,35.29,1
0.124042198061943,-0.6860955357551575,0.0086282948032021,-10.487016677856444,2.186554431915283,75.4699935913086,35.29,1
0.0852009207010269,-0.7089897990226746,-0.0392450504004955,-11.05055046081543,2.2054638862609863,75.4699935913086,35.29,1
-0.0348873399198055,-0.7404753565788269,-0.0979562774300575,-12.046309471130373,2.2175989151000977,75.4699935913086,35.29,1
-0.145539715886116,-0.8502453565597534,-0.1356337666511535,-11.979562759399414,2.225386381149292,75.4699935913086,35.29,1
-0.2389411479234695,-1.0046560764312744,-0.1542152315378189,-9.84092140197754,2.23038387298584,75.4699935913086,35.29,1
-0.3436630070209503,-1.2213011980056765,-0.1213575527071952,-5.430440425872803,2.233591079711914,75.4699935913086,35.29,1
-0.4388563334941864,-1.3099515438079834,-0.061086967587471,0.5741142630577087,2.235649347305298,75.4699935913086,35.29,1
-0.4663592875003814,-1.366842269897461,0.0111778704449534,7.014111042022705,2.295269012451172,75.63121032714844,35.29,1
-0.4224335849285126,-1.386558175086975,0.124726578593254,12.644447326660156,2.333529472351074,75.73467254638672,35.29,1
-0.315875768661499,-1.320841908454895,0.2423777878284454,16.372314453125,2.358082771301269,75.80106353759766,35.29,1
-0.0515709780156612,-1.2450822591781616,0.413041740655899,17.83675765991211,2.373839855194092,75.84367370605469,35.29,1
0.0676646530628204,-1.1740729808807373,0.4721840620040893,17.615798950195312,2.383951663970948,75.87101745605469,35.29,1
-0.0405433364212513,-1.1061122417449951,0.4205738008022308,16.18069076538086,2.3904409408569336,75.88856506347656,35.29,1
-0.2331360429525375,-1.0904878377914429,0.3202800154685974,13.192575454711914,2.3946053981781006,75.89982604980469,35.29,1
-0.4071108996868133,-1.080461025238037,0.2335261553525924,8.552217483520508,2.39727783203125,75.90705108642578,35.29,1
-0.5579423904418945,-1.0348418951034546,0.1666569709777832,3.2922019958496094,2.422863245010376,75.91168975830078,35.29,1
-0.6435418128967285,-1.0111639499664309,0.1349397301673889,-1.1044069528579712,2.439282417297364,75.91466522216797,35.29,1
-0.6313012838363647,-0.9735777378082277,0.1649653911590576,-3.3920938968658447,2.449819326400757,75.91657257080078,35.29,1
-0.595457136631012,-0.9438592791557312,0.212223008275032,-2.5386908054351807,2.456581354141236,75.91780090332031,35.29,1
-0.5444656014442444,-0.9359832406044006,0.2761368751525879,1.8960686922073364,2.460920810699463,75.91858673095703,35.29,1
-0.511742115020752,-1.0708732604980469,0.4011197388172149,9.231009483337402,2.463705539703369,75.9190902709961,35.29,1
-0.4403621256351471,-1.151840090751648,0.5037176609039307,17.95063591003418,2.4654927253723145,75.91941833496094,35.29,1
-0.3441745936870575,-1.114235520362854,0.5583634972572327,26.269147872924805,2.466639518737793,75.91962432861328,35.29,1
-0.204078122973442,-1.084505319595337,0.5766387581825256,32.27384948730469,2.4857373237609863,75.91976165771484,35.29,1
-0.074987843632698,-1.1381973028182983,0.5715734362602234,34.36827850341797,2.497993230819702,75.91984558105469,35.29,1
-0.0089384606108069,-1.2510225772857666,0.4899539649486542,32.45221710205078,2.505858421325684,75.9198989868164,35.29,1
-0.1400827765464782,-1.34022057056427,0.4263797402381897,27.99828147888184,2.510905742645264,75.91993713378906,35.29,1
-0.2802214026451111,-1.3526805639266968,0.4135703444480896,22.39933204650879,2.514144897460937,75.91996002197266,35.29,1
-0.358958750963211,-1.2487212419509888,0.4557299613952636,15.918691635131836,2.516223669052124,75.91997528076172,35.29,1
-0.3535101115703583,-1.1372238397598269,0.5051766633987427,8.438741683959961,2.5175576210021973,75.91998291015625,35.29,1
-0.1540913581848144,-0.9257268905639648,0.4921265244483948,0.303163081407547,2.518413543701172,75.91999053955078,35.29,1
0.0130685241892933,-0.7284248471260071,0.4389695227146148,-7.927146434783935,2.5143725872039795,75.91999053955078,35.29,1
0.0363754965364933,-0.5682210922241211,0.3376831114292145,-15.777591705322266,2.511779308319092,75.91999053955078,35.29,1
-0.0326340422034263,-0.5325848460197449,0.2558900117874145,-22.803884506225582,2.510115146636963,75.91999053955078,35.29,1
-0.0993114858865737,-0.5377044081687927,0.1922043561935424,-28.774646759033203,2.509047031402588,75.91999053955078,35.29,1
-0.1421012431383133,-0.5969675779342651,0.1401390135288238,-34.0536994934082,2.508361577987671,75.91999053955078,35.29,1
-0.1695612370967865,-0.6685858964920044,0.1235198006033897,-39.17903900146485,2.5079216957092285,75.91999053955078,35.29,1
-0.1927812546491623,-0.8041108250617981,0.1296478658914566,-43.761497497558594,2.5076394081115723,75.91999053955078,35.29,1
-0.2020847499370575,-0.9470606446266174,0.0999938622117042,-46.315338134765625,2.507458209991455,75.91999053955078,35.29,1
-0.1968596577644348,-1.0387976169586182,0.0753658562898635,-45.71871948242188,2.4954066276550293,76.07404327392578,35.29,1
-0.1991042643785476,-1.1704401969909668,0.0763543397188186,-42.591590881347656,2.487672805786133,76.17290496826172,35.29,1
-0.2509247064590454,-1.3724740743637085,0.0769886896014213,-38.41373825073242,2.482709646224976,76.2363510131836,35.29,1
-0.3401578068733215,-1.5693011283874512,0.0662002339959144,-33.04928207397461,2.479524612426758,76.27706909179688,35.29,1
-0.4198135733604431,-1.4437135457992554,0.0424835011363029,-24.34387969970703,2.47748064994812,76.3031997680664,35.29,1
-0.4261498749256134,-1.2791520357131958,0.0440567880868911,-11.284001350402832,2.476168870925904,76.3199691772461,35.29,1
-0.3798361718654632,-1.274305820465088,0.0786530822515487,3.463313341140747,2.475327014923096,76.33072662353516,35.29,1
-0.3613102436065674,-1.226413607597351,0.0896594449877739,15.295373916625977,2.474786758422852,76.33763122558594,35.29,1
-0.3494213819503784,-1.1844836473464966,0.1079182401299476,21.759998321533203,2.458373546600342,76.3420639038086,35.29,1
-0.2634229362010956,-1.095999836921692,0.0916468128561973,24.636808395385746,2.447840452194214,76.34490966796875,35.29,1
-0.1970385462045669,-0.9776405692100524,0.0420203246176242,27.568498611450195,2.441081047058105,76.34673309326172,35.29,1
-0.1880235224962234,-0.8624999523162842,0.0493573248386383,31.563608169555664,2.436743259429932,76.347900390625,35.29,1
-0.1542493253946304,-0.7998048663139343,0.0876524373888969,34.15610122680664,2.433959484100342,76.3486557006836,35.29,1
-0.1605638563632965,-0.7651685476303101,0.0674458369612693,33.021820068359375,2.432173013687134,76.34913635253906,35.29,1
-0.2093983590602874,-0.7821254134178162,0.0880650505423545,28.26708984375,2.4310264587402344,76.34944152832031,35.29,1
-0.1791620105504989,-0.8489850759506226,0.1404816955327987,21.07431983947754,2.430290699005127,76.34963989257812,35.29,1
-0.1373669654130935,-0.936673939228058,0.1573263555765152,12.549824714660645,2.415588140487671,76.34976959228516,35.29,1
-0.2225008010864257,-0.9873498678207396,-0.0613724552094936,4.0412702560424805,2.4061529636383057,76.349853515625,35.29,1
-0.4506658017635345,-0.9918818473815918,-0.2465029656887054,-2.773243904113769,2.4000980854034424,76.34990692138672,35.29,1
-0.7090444564819336,-0.9556058049201964,-0.2925379872322082,-6.193441390991211,2.396212339401245,76.34993743896484,35.29,1
-0.8076837062835693,-0.9435214996337892,-0.2549073398113251,-5.160426616668701,2.393718719482422,76.34996032714844,35.29,1
-0.7870180606842041,-0.9693531394004822,-0.2027692794799804,-0.3309617936611175,2.392118453979492,76.3499755859375,35.29,1
-0.7569627165794373,-1.0027236938476562,-0.2196900397539138,5.910229206085205,2.3910915851593018,76.34998321533203,35.29,1
-0.6537083387374878,-1.0073456764221191,-0.1801688373088836,10.965161323547363,2.390432596206665,76.34999084472656,35.29,1
-0.4363057017326355,-0.9319429397583008,0.0579090267419815,13.33497714996338,2.382664680480957,76.34999084472656,35.29,1
-0.3415713906288147,-0.8947494029998779,0.2050959169864654,13.007179260253906,2.3776795864105225,76.34999084472656,35.29,1
-0.2639830410480499,-0.9548473358154296,0.2715631127357483,11.277806282043455,2.3744804859161377,76.34999084472656,35.29,1
-0.4940800368785858,-1.054990291595459,-0.0104529811069369,9.46939182281494,2.372427463531494,76.34999084472656,35.29,1
-0.7928829193115234,-1.0744739770889282,-0.1970324516296386,7.352307319641113,2.371109962463379,76.34999084472656,35.29,1
-0.9454530477523804,-1.0701842308044434,-0.1264440864324569,3.851304292678833,2.3702645301818848,76.34999084472656,35.29,1
-0.9817882180213928,-1.0730290412902832,-0.0587534382939338,-0.9104057550430298,2.3697218894958496,76.34999084472656,35.29,1
-0.8651617169380188,-1.0524636507034302,-0.1048778668045997,-5.703746318817139,2.3693737983703613,76.34999084472656,35.29,1
-0.7399375438690186,-1.0504615306854248,-0.1008912250399589,-9.872522354125977,2.3696095943450928,76.49687957763672,35.29,1
-0.60919588804245,-1.037981033325195,-0.1095283776521682,-13.55808925628662,2.3697609901428223,76.59114837646484,35.29,1
-0.4581201374530792,-0.9963851571083068,-0.0982778817415237,-16.836830139160156,2.3698580265045166,76.65164184570312,35.29,1
-0.2212240844964981,-0.908115804195404,-0.0126891173422336,-19.49623680114746,2.369920492172241,76.69046020507812,35.29,1
0.1435176134109497,-0.6723408699035645,0.098214566707611,-21.281707763671875,2.3699605464935303,76.71537780761719,35.29,1
0.2488390207290649,-0.549022912979126,0.1581906229257583,-22.10508918762207,2.369986057281494,76.73136138916016,35.29,1
0.2100705355405807,-0.5538511872291565,0.196679800748825,-22.06385803222656,2.370002508163452,76.74162292480469,35.29,1
0.0284534581005573,-0.6689051985740662,0.1989888399839401,-20.908885955810547,2.3700129985809326,76.74820709228516,35.29,1
-0.1720645427703857,-0.7819246649742126,0.1668840050697326,-17.58465576171875,2.331000566482544,76.75243377685547,35.29,1
-0.3343321084976196,-0.9160295724868774,0.1350854188203811,-10.948057174682615,2.305964469909668,76.75514221191406,35.29,1
-0.382488340139389,-1.136436939239502,0.1146789193153381,-1.3868589401245115,2.289897918701172,76.75688171386719,35.29,1
-0.4021966755390167,-1.3226639032363892,0.0791921019554138,8.607401847839355,2.2795872688293457,76.75800323486328,35.29,1
-0.4652243256568908,-1.4029892683029177,0.1347875446081161,16.042177200317383,2.27297043800354,76.75872039794922,35.29,1
-0.4776829779148102,-1.2922019958496094,0.2880187630653381,19.61680793762207,2.268724203109741,76.7591781616211,35.29,1
-0.0882362499833107,-1.1035518646240234,0.4087448418140411,20.008451461791992,2.265999317169189,76.75947570800781,35.29,1
0.1560904830694198,-1.1112358570098877,0.4470354616641998,18.54731559753418,2.2642505168914795,76.7596664428711,35.29,1
0.2345164716243744,-1.1217647790908811,0.4100326597690582,16.104961395263672,2.2957208156585693,76.7597885131836,35.25,1
0.1337058544158935,-1.1005327701568604,0.3694930672645569,12.936186790466309,2.3159165382385254,76.7598648071289,35.25,1
-0.0317485406994819,-1.0533206462860107,0.3602704107761383,8.978806495666504,2.3288769721984863,76.7599105834961,35.25,1
-0.2666764557361603,-0.9446537494659424,0.3487540781497955,4.314720630645752,2.3371942043304443,76.75994110107422,35.25,1
-0.434233009815216,-0.863722026348114,0.3133746683597564,-0.7097417712211609,2.34253191947937,76.75996398925781,35.25,1
-0.530565619468689,-0.7893936038017273,0.307463526725769,-5.84366512298584,2.3459572792053223,76.75997924804688,35.25,1
-0.5420063734054565,-0.741693913936615,0.3428545296192169,-11.320110321044922,2.3481554985046387,76.7599868774414,35.25,1
-0.5269572734832764,-0.7110829949378967,0.3767619729042053,-17.417613983154297,2.3495662212371826,76.75999450683594,35.25,1
-0.4669196605682373,-0.7194275259971619,0.3985218405723572,-23.254484176635746,2.322469711303711,76.75999450683594,35.25,1
-0.4115976393222809,-0.763966977596283,0.4292793869972229,-26.860530853271484,2.3050806522369385,76.75999450683594,35.25,1
-0.3872907161712646,-0.8261364698410034,0.4602133631706238,-27.293832778930664,2.29392147064209,76.75999450683594,35.25,1
-0.4164741337299347,-0.9164132475852966,0.4408805668354034,-25.375782012939453,2.286760091781616,76.75999450683594,35.25,1
-0.4575934410095215,-0.974347710609436,0.4004850387573242,-21.497364044189453,2.2821643352508545,76.75999450683594,35.25,1
-0.5567525029182434,-1.022722244262695,0.2849971055984497,-14.920699119567873,2.279215097427368,76.75999450683594,35.25,1
-0.620387077331543,-1.143330693244934,0.2444702535867691,-6.48706579208374,2.277322292327881,76.75999450683594,35.25,1
-0.6220396757125854,-1.2599146366119385,0.2184624522924423,0.0429184474050998,2.276107788085937,76.75999450683594,35.25,1
-0.5895135998725891,-1.273155927658081,0.1569899469614029,1.2706962823867798,2.310215711593628,76.9068832397461,35.25,1
-0.5462491512298584,-1.2592623233795166,0.106344886124134,-2.226146936416626,2.332104206085205,77.00114440917969,35.25,1
-0.5408756136894226,-1.1271952390670776,-0.0381116829812526,-6.046553134918213,2.346151113510132,77.06163787841797,35.25,1
-0.8173158764839172,-1.0368443727493286,-0.1476089209318161,-5.54980993270874,2.355165481567383,77.10045623779297,35.25,1
-0.9779260158538818,-1.0180468559265137,-0.195486843585968,0.5154223442077637,2.360950469970703,77.12537384033203,35.25,1
-1.103387475013733,-1.0731569528579712,-0.3269720673561096,9.78160285949707,2.3646628856658936,77.141357421875,35.25,1
-1.178303599357605,-1.1533056497573853,-0.4337428212165832,18.59774780273437,2.3670454025268555,77.15161895751953,35.25,1
-1.1032294034957886,-1.3055003881454468,-0.3343289196491241,24.77491569519043,2.368574380874634,77.158203125,35.25,1
-0.8143468499183655,-1.3359968662261963,-0.1641730815172195,27.682205200195312,2.392966985702514,77.16242980957031,35.25,1
-0.645751953125,-1.3107856512069702,-0.0661724209785461,27.570356369018555,2.408620595932007,77.1651382446289,35.25,1
-0.6271218657493591,-1.2386287450790403,-0.0200745537877082,25.20931053161621,2.418666362762451,77.16687774658203,35.25,1
-0.5703839659690857,-1.1363449096679688,0.0151061788201332,21.58040809631348,2.4251129627227783,77.16799926757812,35.25,1
-0.4220173358917236,-0.9531517028808594,0.0264876000583171,17.11637306213379,2.429250240325928,77.16871643066406,35.25,1
-0.3156086206436157,-0.7684155702590942,0.1009648293256759,11.35330867767334,2.4319052696228027,77.16917419433594,35.25,1
-0.2361260950565338,-0.6274714469909668,0.1599555760622024,5.043208122253418,2.4336090087890625,77.16947174072266,35.25,1
-0.1907165497541427,-0.5594127178192139,0.2034102231264114,0.7178900837898254,2.4347023963928223,77.16966247558594,35.25,1
-0.1615753173828125,-0.5213343501091003,0.2312969118356704,1.771923303604126,2.490030527114868,77.16978454589844,35.27,1
-0.1428741663694381,-0.5416800379753113,0.2323996573686599,8.513641357421875,2.5255367755889893,77.16986083984375,35.27,1
-0.1252750605344772,-0.6275078058242798,0.2443028837442398,16.376089096069336,2.5483226776123047,77.16990661621094,35.27,1
-0.1083831936120987,-0.6881848573684692,0.2463439255952835,22.500112533569336,2.5629453659057617,77.16993713378906,35.27,1
-0.1199340671300888,-0.7439172267913818,0.2308604121208191,24.18746566772461,2.572329521179199,77.16996002197266,35.27,1
-0.1553356200456619,-0.8132697343826294,0.2377173155546188,21.694900512695312,2.5783517360687256,77.16997528076172,35.27,1
-0.2284342646598816,-1.0089160203933716,0.2757043242454529,18.719606399536133,2.582216262817383,77.16998291015625,35.27,1
-0.336920291185379,-1.2184371948242188,0.3392666280269623,17.075345993041992,2.5846962928771973,77.16999053955078,35.27,1
-0.4177359342575073,-1.3361024856567385,0.4136438965797424,13.938676834106444,2.6496365070343018,77.16999053955078,35.27,1
-0.3912299275398254,-1.3724288940429688,0.4613749384880066,6.974623680114746,2.6913113594055176,77.16999053955078,35.27,1
-0.2902532815933227,-1.3789477348327637,0.5087993144989014,-2.6641616821289062,2.718055963516236,77.16999053955078,35.27,1
-0.1638767570257187,-1.304762363433838,0.5728201866149902,-12.038270950317385,2.7352190017700195,77.16999053955078,35.27,1
-0.2563065588474273,-1.245958924293518,0.591513991355896,-18.55917739868164,2.7462332248687744,77.16999053955078,35.27,1
-0.4051871001720428,-1.1858311891555786,0.5699239373207092,-20.91322326660156,2.7533016204833984,77.16999053955078,35.27,1
-0.6070877313613892,-1.0912668704986572,0.5224820375442505,-19.568603515625,2.7578377723693848,77.16999053955078,35.27,1
-0.7870359420776367,-0.9913965463638306,0.5200254321098328,-16.799772262573242,2.760748624801636,77.16999053955078,35.27,1
-0.9025163650512696,-0.8937188386917114,0.5912200212478638,-14.686134338378906,2.782355546951294,77.3097152709961,35.27,1
-0.7863007187843323,-0.8590238094329834,0.6928863525390625,-13.881439208984377,2.7962217330932617,77.39938354492188,35.27,1
-0.6053624749183655,-0.8647474050521851,0.7749232649803162,-13.418771743774414,2.8051202297210693,77.45692443847656,35.27,1
-0.4780511856079101,-0.9243982434272766,0.7603965401649475,-11.738984107971191,2.81083083152771,77.49385070800781,35.27,1
-0.4747189581394195,-0.9738742709159852,0.6950963735580444,-8.124528884887695,2.81449556350708,77.51754760742188,35.27,1
-0.5229604840278625,-1.0951894521713257,0.5972127318382263,-3.616026163101196,2.816847324371338,77.53275299072266,35.27,1
-0.5091369152069092,-1.229020357131958,0.4952122569084167,0.0296122245490551,2.818356513977051,77.54251098632812,35.27,1
-0.5002657771110535,-1.258927583694458,0.3737764656543731,2.2151224613189697,2.8193249702453613,77.54877471923828,35.27,1
-0.5449527502059937,-1.2333381175994873,0.1782927066087722,3.316720485687256,2.843358039855957,77.55279541015625,35.27,1
-0.6016191840171814,-1.2952851057052612,-0.042319681495428,3.500606775283813,2.858781099319458,77.55537414550781,35.27,1
-0.6323866248130798,-1.4917768239974976,-0.1838960200548172,2.722970485687256,2.868678569793701,77.5570297241211,35.27,1
-0.4114271104335785,-1.5059183835983276,-0.1180138811469078,1.2315548658370972,2.875030279159546,77.55809020996094,35.27,1
-0.1520747393369674,-1.4198315143585205,0.0698076114058494,-0.5925331115722656,2.8791065216064453,77.55877685546875,35.27,1
-0.0024306436534971,-1.3254014253616333,0.1567539870738983,-2.1249678134918213,2.881722450256348,77.55921173095703,35.27,1
0.0376245714724063,-1.248008370399475,0.0782045871019363,-2.553097009658813,2.8834011554718018,77.55949401855469,35.27,1
-0.0430280081927776,-1.0919841527938845,-0.056170504540205,-1.957279920578003,2.8844783306121826,77.55967712402344,35.27,1
-0.2011439055204391,-0.963867962360382,-0.142404705286026,-1.8042036294937127,2.9191391468048096,77.5597915649414,35.29,1
-0.3082113564014435,-0.8984436988830566,-0.1753537654876709,-3.6871323585510254,2.941382646560669,77.55986785888672,35.29,1
-0.3265411257743835,-0.8956425786018372,-0.134923055768013,-8.076814651489258,2.9556572437286377,77.5599136352539,35.29,1
-0.2711308300495147,-0.8882471919059753,-0.0977813974022865,-14.472853660583496,2.964817762374878,77.55994415283203,35.29,1
-0.1851917058229446,-0.866707980632782,-0.096337117254734,-21.98090934753418,2.970696449279785,77.55996704101562,35.29,1
-0.1860186755657196,-0.8808742165565491,-0.0674213916063308,-29.260377883911133,2.9744691848754883,77.55997467041016,35.29,1
-0.2201360166072845,-0.8955630660057068,0.0015150270191952,-34.24360275268555,2.976890087127685,77.55998229980469,35.29,1
-0.2252372354269027,-0.8937939405441284,0.0961344242095947,-34.940914154052734,2.9784438610076904,77.55998992919922,35.29,1
-0.2341086864471435,-0.9150497317314148,0.1624534726142883,-31.15738677978516,3.0162689685821533,77.55998992919922,35.29,1
-0.2286063134670257,-0.9342882633209229,0.2441976517438888,-24.78133773803711,3.0405430793762207,77.55998992919922,35.29,1
-0.1579019278287887,-0.9522322416305542,0.3806229531764984,-17.701688766479492,3.0561208724975586,77.55998992919922,35.29,1
-0.0509523935616016,-0.9637476205825806,0.5073572993278503,-10.22783088684082,3.066117763519287,77.55998992919922,35.29,1
0.0176816545426845,-1.0159196853637695,0.5886881351470947,-2.196473360061645,3.072533130645752,77.55998992919922,35.29,1
0.0225426163524389,-1.0773895978927612,0.6352837681770325,5.666017055511475,3.0766501426696777,77.55998992919922,35.29,1
-0.0303156394511461,-1.122435212135315,0.6483928561210632,11.861716270446776,3.079292297363281,77.55998992919922,35.29,1
-0.1258125454187393,-1.1233540773391724,0.6680010557174683,15.024516105651855,3.0809876918792725,77.55998992919922,35.29,1
-0.1926947385072708,-1.0903570652008057,0.7253666520118713,15.098132133483888,3.1321117877960205,77.69971466064453,35.29,1
-0.3251802623271942,-1.035594820976257,0.6894095540046692,13.92729949951172,3.1649203300476074,77.78938293457031,35.29,1
-0.4046040773391723,-0.9724627137184144,0.63834547996521,14.10023021697998,3.1859750747680664,77.846923828125,35.29,1
-0.3772048652172088,-0.8871659636497498,0.5999777317047119,16.364336013793945,3.19948673248291,77.88385009765625,35.29,1
-0.3148394227027893,-0.8268296718597412,0.5753555297851562,19.7662296295166,3.208157777786255,77.90754699707031,35.29,1
-0.2860124409198761,-0.7937070727348328,0.5371633172035217,23.10295867919922,3.2137222290039062,77.9227523803711,35.29,1
-0.2899040281772613,-0.7892442345619202,0.4790670871734619,25.419824600219727,3.217293262481689,77.93251037597656,35.29,1
-0.3091947436332702,-0.7919780015945435,0.4361864924430847,25.63125991821289,3.2195849418640137,77.93877410888672,35.29,1
-0.3495633006095886,-0.8441123366355896,0.4030704200267792,23.535001754760746,3.2458441257476807,77.94279479980469,35.29,1
-0.4258494973182678,-0.9279491305351256,0.3594273328781128,20.77462577819824,3.262695789337158,77.94537353515625,35.29,1
-0.4748055636882782,-0.9705552458763124,0.2922352850437164,19.10348892211914,3.273510217666626,77.94702911376953,35.29,1
-0.4894294440746307,-1.0370818376541138,0.2603108584880829,18.991180419921875,3.2804503440856934,77.94808959960938,35.29,1
-0.4428364634513855,-1.0405902862548828,0.2286280393600464,18.27782440185547,3.2849040031433105,77.94877624511719,35.29,1
-0.4185335338115692,-1.0316462516784668,0.197100281715393,14.900235176086426,3.28776216506958,77.94921112060547,35.29,1
-0.3973395526409149,-1.0259065628051758,0.1656720340251922,10.296541213989258,3.2895963191986084,77.94949340820312,35.29,1
-0.4005317986011505,-1.0222231149673462,0.1231120973825454,5.199775218963623,3.290773391723633,77.94967651367188,35.29,1
-0.4753514528274536,-1.042250394821167,0.0566151589155197,0.123346172273159,3.3544185161590576,77.94979095458984,35.25,1
-0.5009753108024597,-1.1054826974868774,0.0307345762848854,-3.868842124938965,3.3952622413635254,77.94986724853516,35.25,1
-0.4446481466293335,-1.207637071609497,-0.0082651898264884,-5.925655364990234,3.421473264694214,77.94991302490234,35.25,1
-0.3805117607116699,-1.250802755355835,-0.0388907678425312,-6.90167236328125,3.438294172286988,77.94994354248047,35.25,1
-0.2721794247627258,-1.2729063034057615,0.0478132106363773,-8.577718734741211,3.4490888118743896,77.94996643066406,35.25,1
0.0492418892681598,-1.1919288635253906,0.2042147815227508,-12.103790283203123,3.456016063690185,77.9499740600586,35.25,1
0.283500462770462,-1.1007777452468872,0.2653998732566833,-16.895917892456055,3.4604616165161133,77.94998168945312,35.25,1
0.2099231481552124,-1.0310866832733154,0.1871116906404495,-22.01329803466797,3.4633145332336426,77.94998931884766,35.25,1
-0.0052277673967182,-0.9303852319717408,-0.0646490380167961,-27.1710262298584,3.517228603363037,77.94998931884766,35.25,1
-0.2216680943965912,-0.865760862827301,-0.2094212621450424,-32.21134185791016,3.5518274307250977,77.94998931884766,35.25,1
-0.4333380758762359,-0.7739086747169495,-0.2015677988529205,-36.72490692138672,3.574031114578247,77.94998931884766,35.25,1
-0.4404268860816955,-0.7485498785972595,-0.112561285495758,-40.02986526489258,3.588280200958252,77.94998931884766,35.25,1
-0.3610094785690307,-0.7658627033233643,-0.0610398054122924,-40.921974182128906,3.597424268722534,77.94998931884766,35.25,1
-0.3548261523246765,-0.8161575198173523,-0.0671607032418251,-37.55364608764648,3.603292465209961,77.94998931884766,35.25,1
-0.339662492275238,-0.8932160139083862,-0.0766865164041519,-29.05805397033692,3.60705828666687,77.94998931884766,35.25,1
-0.3187357783317566,-1.0322321653366089,-0.0995929613709449,-16.627212524414062,3.609475135803223,77.94998931884766,35.25,1
-0.2829151153564453,-1.0990536212921145,-0.103097453713417,-2.9141111373901367,3.643159151077272,78.08612823486328,35.25,1
-0.192754179239273,-1.0355780124664309,-0.0213798154145479,9.343353271484377,3.6647756099700928,78.17350006103516,35.25,1
-0.0397319197654724,-0.9388653039932252,0.0870396122336387,18.140958786010746,3.678647756576538,78.22956848144531,35.25,1
0.0640667304396629,-0.9271806478500366,0.1510191708803177,22.53285217285156,3.6875500679016113,78.26554870605469,35.25,1
0.1250809580087661,-0.9980509281158448,0.2144686728715896,23.06921768188477,3.693263053894043,78.28864288330078,35.25,1
0.1418452709913253,-1.0491291284561155,0.255186915397644,21.751110076904297,3.696929454803467,78.30345916748047,35.25,1
0.0742348060011863,-1.076310396194458,0.2757197618484497,20.876564025878903,3.69928240776062,78.3129653930664,35.25,1
-0.0363269932568073,-1.082558274269104,0.3224832117557525,21.411598205566406,3.7007923126220703,78.3190689086914,35.25,1
-0.1240725144743919,-1.0921655893325806,0.3748843967914581,22.68642234802246,3.726549863815308,78.32298278808594,35.25,1
-0.163589209318161,-1.0479509830474854,0.4029146730899811,23.4436264038086,3.743079662322998,78.32550048828125,35.25,1
-0.1665576547384262,-0.9803922176361084,0.3985117971897125,22.876279830932617,3.7536873817443848,78.32711029052734,35.25,1
-0.1404737681150436,-0.9034502506256104,0.3844907581806183,20.921525955200195,3.760494947433472,78.3281478881836,35.25,1
-0.1237346231937408,-0.8540732860565186,0.3698950707912445,17.857877731323242,3.7648634910583496,78.32881164550781,35.25,1
-0.129785731434822,-0.8447771072387695,0.3605284094810486,13.699267387390137,3.767667055130005,78.32923889160156,35.25,1
-0.1560600847005844,-0.8779957890510559,0.3545174300670624,8.37224006652832,3.769466161727905,78.32951354980469,35.25,1
-0.1841169893741607,-0.8993136286735535,0.3394643664360046,2.6357340812683105,3.770620822906494,78.3296890258789,35.25,1
-0.2077200710773468,-0.9409830570220948,0.3298041820526123,-1.7084019184112549,3.774116039276123,78.32980346679688,35.25,1
-0.2004760801792144,-0.967724084854126,0.3180070519447326,-2.9485456943511963,3.776359081268311,78.32987213134766,35.25,1
-0.190229520201683,-0.9792871475219728,0.2992407977581024,-0.7851910591125488,3.777798414230346,78.32991790771484,35.25,1
-0.1892516463994979,-0.9923054575920104,0.2312199473381042,3.46202039718628,3.778722286224365,78.32994842529297,35.25,1
-0.2334063053131103,-1.034246563911438,0.1875680685043335,7.785465240478516,3.779314994812012,78.32997131347656,35.25,1
-0.3457088470458984,-1.1339329481124878,0.23792365193367,10.79287052154541,3.779695510864258,78.3299789428711,35.25,1
-0.4177781343460083,-1.1979058980941772,0.298227846622467,12.160386085510254,3.779939651489258,78.32998657226562,35.25,1
-0.4136480987071991,-1.2389601469039917,0.3201342821121216,11.97753620147705,3.780096292495728,78.32999420166016,35.25,1
-0.3046399652957916,-1.3548707962036133,0.345388114452362,10.606292724609377,3.781574010848999,78.32999420166016,35.25,1
-0.1955003887414932,-1.429255485534668,0.3783878982067108,9.192503929138184,3.782522201538086,78.32999420166016,35.25,1
