acc_x,acc_y,acc_z,bvp,eda,hr,temp,label
0.0,0.0,0.0,0.0,0.0,0.0,30.05,2
-0.0494791641831398,-0.1510416567325592,0.0520833283662796,-32.37999725341797,0.286022812128067,11.583333015441896,30.05,2
-0.0990853682160377,-0.3536585569381714,0.1303353756666183,-75.6260986328125,0.6697120070457458,27.12195205688477,30.05,2
-0.1422342211008072,-0.5199335813522339,0.2083679437637329,-95.3344497680664,1.0034555196762085,40.63787460327149,30.05,2
-0.2057428359985351,-0.6305637955665588,0.3026643097400665,-78.13111114501953,1.2469394207000732,50.49847030639648,30.05,2
-0.2158025205135345,-0.683506190776825,0.3225891590118408,-29.803607940673828,1.4117883443832395,57.17450714111328,30.05,2
-0.2390623539686203,-0.7404563426971436,0.313450425863266,38.867454528808594,1.5199528932571411,61.55494689941406,30.05,2
-0.2318092733621597,-0.8331335186958313,0.3131110370159149,113.56893157958984,1.5900057554244995,64.3919448852539,30.05,2
-0.266268253326416,-0.8872433304786682,0.284941554069519,174.04693603515625,1.6571362018585205,66.2194595336914,30.05,2
-0.2772272229194641,-0.8716702461242676,0.2500519156455993,203.74171447753903,1.7002838850021362,67.39408111572266,30.05,2
-0.2394926846027374,-0.9008452892303468,0.2780157327651977,200.993896484375,1.7279913425445557,68.14836883544922,30.05,2
-0.2208676785230636,-0.925170361995697,0.2847715616226196,176.57598876953125,1.7457770109176636,68.63255310058594,30.05,2
-0.2369017004966735,-0.9183922410011292,0.2723148763179779,144.59344482421875,1.7571921348571775,68.94331359863281,30.05,2
-0.2248011380434036,-0.9196399450302124,0.2867112755775451,117.4009017944336,1.7645180225372314,69.14274597167969,30.05,2
-0.2338287681341171,-0.903647482395172,0.2959502339363098,102.71212005615234,1.7692193984985352,69.27073669433594,30.05,2
-0.2452199757099151,-0.9045798778533936,0.290683776140213,101.66525268554688,1.772236466407776,69.35287475585938,30.05,2
-0.2581279873847961,-0.8995804190635681,0.281706303358078,111.21450805664062,1.7668280601501465,69.40558624267578,30.05,2
-0.2664116322994232,-0.8963720798492432,0.2759450674057007,128.0223388671875,1.7633572816848757,69.43940734863281,30.05,2
-0.2661298215389251,-0.8999109268188477,0.2666500508785248,149.33424377441406,1.7611298561096191,69.46111297607422,30.05,2
-0.243557870388031,-0.9077796936035156,0.283076137304306,171.2760009765625,1.7597004175186155,69.47504425048828,30.05,2
-0.2346702665090561,-0.9072316884994508,0.2880196869373321,188.03672790527344,1.7587831020355225,69.4839859008789,30.05,2
-0.2233689427375793,-0.9068799614906312,0.2911921739578247,194.1855926513672,1.7581944465637207,69.4897232055664,30.05,2
-0.2217141687870025,-0.9066542983055116,0.2876303195953369,187.57373046875,1.7578166723251345,69.493408203125,30.05,2
-0.215054452419281,-0.9065094590187072,0.2909422814846039,169.2367706298828,1.7575743198394775,69.49577331542969,30.05,2
-0.2107806354761123,-0.9120143055915833,0.2930677235126495,141.5052032470703,1.7569597959518433,69.49728393554688,30.05,2
-0.2080379426479339,-0.9155469536781312,0.2944317162036896,107.53694152832033,1.7565654516220093,69.49826049804688,30.05,2
-0.206277847290039,-0.9178140163421632,0.2953070402145386,71.03517150878906,1.756312370300293,69.49888610839844,30.05,2
-0.205148309469223,-0.9192689061164856,0.301466554403305,34.77765274047852,1.7561500072479248,69.49928283691406,30.05,2
-0.2044234424829483,-0.9202025532722472,0.3054193556308746,1.062875270843506,1.756045699119568,69.49954223632812,30.05,2
-0.2039582729339599,-0.9208016991615297,0.3079560399055481,-25.92927932739257,1.75597882270813,69.49970245361328,30.05,2
-0.2036597430706024,-0.9211862087249756,0.3095839619636535,-41.57106018066406,1.7559359073638916,69.49980926513672,30.05,2
-0.2090659439563751,-0.9214329719543456,0.3106286525726318,-45.68706130981445,1.7559083700180054,69.4998779296875,30.05,2
-0.2125353366136551,-0.921591341495514,0.3057013154029846,-43.74993896484375,1.7549724578857422,69.27422332763672,30.07,2
-0.2203595638275146,-0.921692967414856,0.2969414591789245,-42.3240966796875,1.7543718814849854,69.12940979003906,30.07,2
-0.2253807038068771,-0.9217581748962402,0.2857221066951751,-43.36874008178711,1.7539864778518677,69.0364761352539,30.07,2
-0.2286029756069183,-0.9162022471427916,0.272924393415451,-43.437259674072266,1.7537391185760498,68.97683715820312,30.07,2
-0.2306708395481109,-0.9126367568969728,0.2647115588188171,-40.04195785522461,1.7535803318023682,68.93856048583984,30.07,2
-0.2319978773593902,-0.910348653793335,0.2594410181045532,-37.4403076171875,1.7534785270690918,68.91400146484375,30.07,2
-0.2328494936227798,-0.9088802933692932,0.2504609227180481,-41.99365234375,1.753413200378418,68.89823913574219,30.07,2
-0.2277982383966446,-0.91353577375412,0.244698017835617,-53.93665313720703,1.753371238708496,68.88812255859375,30.07,2
-0.2245566397905349,-0.9165233373641968,0.2465974986553192,-69.52922058105469,1.7501310110092163,68.88162994384766,30.07,2
-0.2224763631820678,-0.9128428101539612,0.2478164732456207,-89.98600769042969,1.748051643371582,68.8774642944336,30.07,2
-0.221141368150711,-0.9160786867141724,0.2485987395048141,-123.93234252929688,1.7467172145843506,68.87479400634766,30.07,2
-0.2202846407890319,-0.9125574827194214,0.2546985149383545,-179.28587341308594,1.745860934257507,68.87307739257812,30.07,2
-0.2197348475456237,-0.9102977514266968,0.2642107903957367,-248.8394775390625,1.7453113794326782,68.87197875976562,30.07,2
-0.2193820178508758,-0.9144454002380372,0.2703152298927307,-307.0780029296875,1.744958758354187,68.87126922607422,30.07,2
-0.2247533649206161,-0.917107105255127,0.2686349153518677,-330.96734619140625,1.74473237991333,68.87081909179688,30.07,2
-0.2282003909349441,-0.9244130253791808,0.2675565779209137,-319.6330261230469,1.7445871829986572,68.87052917480469,30.07,2
-0.2248147130012512,-0.9291015267372132,0.2668645679950714,-284.6695861816406,1.744952917098999,68.8703384399414,30.07,2
-0.2226419895887375,-0.9209147691726683,0.2608227133750915,-230.852279663086,1.7451876401901243,68.8702163696289,30.07,2
-0.2100521028041839,-0.9044654369354248,0.25694540143013,-158.4225311279297,1.7453382015228271,68.8701400756836,30.07,2
-0.1963748633861541,-0.893909215927124,0.2488593906164169,-77.04700469970703,1.7454348802566528,68.8700942993164,30.07,2
-0.1931953728199005,-0.9375148415565492,0.243670254945755,-4.730209827423096,1.7454968690872192,68.87006378173828,30.07,2
-0.1855571866035461,-0.965498387813568,0.2459379285573959,47.18855285644531,1.7455366849899292,68.87004089355469,30.07,2
-0.1694598942995071,-0.9834566116333008,0.2585887312889099,80.7255630493164,1.745562195777893,68.87002563476562,30.07,2
-0.1703251302242279,-0.9893833994865416,0.2723050713539123,100.12680053710938,1.745578646659851,68.8700180053711,30.07,2
-0.176478162407875,-0.9875891208648682,0.2979007661342621,102.11985778808594,1.7446709871292114,68.87001037597656,30.07,2
-0.1636334955692291,-0.9864376187324524,0.3367176949977875,83.99565887451172,1.7440884113311768,68.87001037597656,30.07,2
-0.1329994350671768,-0.963307559490204,0.3728237152099609,53.43784332275391,1.7437145709991455,68.87001037597656,30.07,2
-0.1245357990264892,-0.9316707253456116,0.3847989439964294,21.568023681640625,1.7434747219085691,68.87001037597656,30.07,2
-0.152690976858139,-0.8945747017860413,0.3532995283603668,-7.149193286895752,1.7433207035064695,68.87001037597656,30.07,2
-0.1763571202754974,-0.8595730662345886,0.3218894600868225,-32.13078308105469,1.743221879005432,68.87001037597656,30.07,2
-0.1747513711452484,-0.8315132260322571,0.3017323017120361,-51.20055389404297,1.7431584596633911,68.87001037597656,30.07,2
-0.1849164366722107,-0.8247016072273254,0.2720032632350921,-63.54949188232422,1.7431178092956543,68.87001037597656,30.07,2
-0.1970375627279281,-0.8315258622169495,0.2529248893260956,-71.7322769165039,1.7421739101409912,68.75894927978516,30.11,2
-0.2160117626190185,-0.8471007943153381,0.2406814694404602,-76.61093139648438,1.741568088531494,68.68767547607422,30.11,2
-0.2281883060932159,-0.868291437625885,0.2384221255779266,-75.36386108398438,1.741179347038269,68.64193725585938,30.11,2
-0.2304047346115112,-0.8930859565734863,0.2537655234336853,-66.64248657226562,1.7409298419952393,68.61257934570312,30.11,2
-0.2262293398380279,-0.9145954251289368,0.2692098319530487,-54.07033920288086,1.7407697439193726,68.59374237060547,30.11,2
-0.2123542577028274,-0.9395945072174072,0.290316641330719,-43.12186813354492,1.7406669855117798,68.58164978027344,30.11,2
-0.2090478092432022,-1.0060174465179443,0.3038617670536041,-36.12084579467773,1.7406010627746582,68.57389068603516,30.11,2
-0.2181214690208435,-1.0654371976852417,0.3125542402267456,-31.64590644836425,1.7405587434768677,68.56891632080078,30.11,2
-0.2519332766532898,-1.0979715585708618,0.3181325793266296,-27.98956298828125,1.7405316829681396,68.56571960449219,30.11,2
-0.2792295515537262,-1.1356436014175415,0.3161146640777588,-25.059171676635746,1.7405142784118652,68.56366729736328,30.11,2
-0.2967467010021209,-1.1318304538726809,0.3204174637794494,-23.167869567871094,1.7405030727386477,68.5623550415039,30.11,2
-0.2967926561832428,-1.0454168319702148,0.311983197927475,-22.072364807128903,1.7404959201812744,68.56150817871094,30.11,2
-0.2800288200378418,-0.9675703644752502,0.2953750193119049,-21.229612350463867,1.740491271018982,68.56096649169922,30.11,2
-0.2636730074882507,-0.9511996507644652,0.2679235339164734,-20.273202896118164,1.7404882907867432,68.56062316894531,30.11,2
-0.2587745487689972,-0.9406938552856444,0.2447089701890945,-19.53762626647949,1.7404863834381104,68.5604019165039,30.11,2
-0.2500332295894623,-0.9675384759902954,0.2074200958013534,-20.276487350463867,1.7404851913452148,68.56025695800781,30.11,2
-0.2500213384628296,-0.9791680574417114,0.1722947061061859,-23.845991134643555,1.741402268409729,68.56016540527344,30.11,2
-0.2500136792659759,-0.975435733795166,0.1497532427310943,-30.22082901000977,1.7419908046722412,68.56010437011719,30.11,2
-0.2500087916851043,-0.9506494402885436,0.1296896636486053,-36.62259292602539,1.742368459701538,68.56006622314453,30.11,2
-0.2444078624248504,-0.9291452169418336,0.1056184619665145,-38.48460388183594,1.7426108121871948,68.56004333496094,30.11,2
-0.2296179682016372,-0.9041495323181152,0.0901709496974945,-33.11625671386719,1.7427663803100586,68.56002807617188,30.11,2
-0.2089311182498932,-0.8937065005302429,0.0858553946018219,-22.04385566711425,1.7428661584854126,68.56002044677734,30.11,2
-0.1900577098131179,-0.8982003331184387,0.0830859243869781,-9.030559539794922,1.7429301738739014,68.56001281738281,30.11,2
-0.1667502969503402,-0.9066819548606871,0.0925041809678077,2.781392335891724,1.7429713010787964,68.56000518798828,30.11,2
-0.1461951583623886,-0.917722761631012,0.0985482782125473,11.511630058288574,1.7411617040634155,68.56000518798828,30.11,2
-0.1330040544271469,-0.9583947658538818,0.1080248057842254,16.587554931640625,1.7400003671646118,68.56000518798828,30.11,2
-0.1357343196868896,-1.0236800909042358,0.1197040751576423,19.114147186279297,1.7392550706863403,68.56000518798828,30.11,2
-0.1430842131376266,-1.065576434135437,0.1327969282865524,21.16189384460449,1.7387768030166626,68.56000518798828,30.11,2
-0.1422031819820404,-1.1260497570037842,0.1579924970865249,24.166996002197266,1.7384698390960691,68.56000518798828,30.11,2
-0.1416377872228622,-1.1536625623703003,0.1797593384981155,27.82588195800781,1.7382729053497314,68.56000518798828,30.11,2
-0.1636660397052765,-1.132198452949524,0.227314680814743,29.650888442993164,1.7381465435028076,68.56000518798828,30.11,2
-0.1778025180101394,-1.051250696182251,0.2802240550518036,25.401636123657227,1.7380653619766235,68.56000518798828,30.11,2
-0.1700811684131622,-0.9433253407478333,0.3085804879665375,12.30673599243164,1.7366361618041992,68.50626373291016,30.09,2
-0.1091483011841774,-0.8964561820030212,0.2987891435623169,-6.672579765319824,1.7357189655303955,68.4717788696289,30.09,2
-0.0812406465411186,-0.8887693285942078,0.2757122814655304,-23.76054000854492,1.7351303100585938,68.44964599609375,30.09,2
-0.080124445259571,-0.9174230098724364,0.2609028816223144,-33.12519836425781,1.7347526550292969,68.43544006347656,30.09,2
-0.101799227297306,-0.9302135109901428,0.2346057444810867,-35.40543746948242,1.73451030254364,68.42633056640625,30.09,2
-0.1213066279888153,-0.9216284155845642,0.2121319770812988,-34.5472526550293,1.7343547344207764,68.42047882080078,30.09,2
-0.1562164574861526,-0.8825323581695557,0.186514064669609,-31.907878875732425,1.7342548370361328,68.4167251586914,30.09,2
-0.1842173486948013,-0.840649425983429,0.1644761860370636,-25.223552703857425,1.734190821647644,68.41431427001953,30.09,2
-0.2133822590112686,-0.8081735968589783,0.1503335386514663,-12.747751235961914,1.7327725887298584,68.41277313232422,30.09,2
-0.2153052985668182,-0.8097235560417175,0.1524531543254852,3.5127530097961426,1.7318624258041382,68.41178131103516,30.09,2
-0.2165393829345703,-0.8163160085678101,0.1594111770391464,18.98849296569824,1.7312783002853394,68.41114807128906,30.09,2
-0.2229291349649429,-0.8317422270774841,0.1694742143154144,29.68302154541016,1.7309035062789917,68.41073608398438,30.09,2
-0.2326274812221527,-0.841641902923584,0.1759320944547653,34.203147888183594,1.7306629419326782,68.41047668457031,30.09,2
-0.2612424194812774,-0.8983749151229858,0.2192608118057251,33.67538070678711,1.73050856590271,68.41030883789062,30.09,2
-0.2963991463184356,-0.9795650839805604,0.2750555574893951,30.184024810791016,1.7304095029830933,68.41020202636719,30.09,2
-0.3189607262611389,-1.031668186187744,0.3164591789245605,24.76214599609375,1.7303459644317627,68.4101333618164,30.09,2
-0.3054505586624145,-1.0707027912139893,0.343029648065567,16.281421661376953,1.7275508642196655,68.41008758544922,30.09,2
-0.2855849862098694,-1.129339575767517,0.3656788170337677,3.2295901775360107,1.725757122039795,68.4100570678711,30.09,2
-0.2840319573879242,-1.1725671291351318,0.4082026183605194,-12.164591789245604,1.7246060371398926,68.4100341796875,30.09,2
-0.2774375379085541,-1.1835147142410278,0.4298941791057586,-23.96036720275879,1.7238672971725464,68.41002655029297,30.09,2
-0.2676078379154205,-1.1177691221237185,0.4158256947994232,-28.603252410888672,1.723393201828003,68.41001892089844,30.09,2
-0.244506374001503,-0.9972085952758788,0.3508196175098419,-27.641956329345703,1.7230889797210691,68.4100112915039,30.09,2
-0.2352789640426635,-0.95902419090271,0.2979069054126739,-23.15228843688965,1.7228937149047852,68.4100112915039,30.09,2
-0.2461506575345993,-0.9625085592269896,0.2471572458744049,-15.036934852600098,1.7227684259414673,68.4100112915039,30.09,2
-0.2531274855136871,-1.0263200998306274,0.1977957189083099,-3.6382768154144287,1.7222291231155396,68.4100112915039,30.09,2
-0.2464092671871185,-1.0448795557022097,0.1605205535888672,8.663670539855957,1.7218830585479736,68.4100112915039,30.09,2
-0.2309023439884185,-1.0288010835647583,0.125403955578804,18.57892608642578,1.7216609716415403,68.4100112915039,30.09,2
-0.2209509015083313,-0.9960917830467224,0.1084659099578857,22.849740982055664,1.7215183973312378,68.4100112915039,30.09,2
-0.214564636349678,-0.9415141940116882,0.0919982716441154,19.740158081054688,1.7214269638061523,68.4100112915039,30.09,2
-0.2048685252666473,-0.900891661643982,0.0702347457408905,11.664976119995115,1.7213681936264038,68.4100112915039,30.09,2
-0.1930483430624008,-0.8748224377632141,0.0562681667506694,5.5047454833984375,1.7213305234909058,68.4100112915039,30.09,2
-0.1798650622367859,-0.8524949550628662,0.0529029928147792,7.899788379669189,1.721306324005127,68.4100112915039,30.09,2
-0.1714047938585281,-0.8325687050819397,0.0563411936163902,19.919404983520508,1.7185364961624146,68.38134765625,30.09,2
-0.1715732514858245,-0.8421722650527954,0.0809387266635894,37.27719879150391,1.7167589664459229,68.36295318603516,30.09,2
-0.1604858040809631,-0.8987152576446533,0.1191151067614555,54.779083251953125,1.7156182527542114,68.35115051269531,30.09,2
-0.153370514512062,-0.935001254081726,0.1548100560903549,69.26734924316406,1.71488618850708,68.34357452392578,30.09,2
-0.1320110112428665,-0.9638853073120116,0.1945103406906128,78.86602020263672,1.71441650390625,68.33871459960938,30.09,2
-0.1071081683039665,-0.999214768409729,0.2199877053499221,80.9345932006836,1.714115023612976,68.3355941772461,30.09,2
-0.1079202815890312,-1.0274850130081177,0.2475331574678421,73.0584487915039,1.7139215469360352,68.33358764648438,30.09,2
-0.1420280933380127,-1.051224946975708,0.2931991219520569,57.173866271972656,1.7137974500656128,68.33230590820312,30.09,2
-0.1807098388671875,-1.0552643537521362,0.356091558933258,39.1807861328125,1.710963487625122,68.33148193359375,30.09,2
-0.1943380087614059,-0.973889946937561,0.4076478481292724,22.48570251464844,1.7091448307037354,68.33094787597656,30.09,2
-0.1806926876306533,-0.9328641295433044,0.4015492796897888,6.150697231292725,1.7079776525497437,68.33061218261719,30.09,2
-0.1607403606176376,-0.9513182640075684,0.3304622769355774,-9.52690315246582,1.707228660583496,68.33039093017578,30.09,2
-0.164729431271553,-1.0135411024093628,0.296038269996643,-21.275278091430664,1.7067480087280271,68.33025360107422,30.09,2
-0.1728871613740921,-1.025483250617981,0.2851424813270569,-27.68977928161621,1.70643949508667,68.33016204833984,30.09,2
-0.1725245416164398,-0.993962585926056,0.2725524306297302,-31.32258987426757,1.706241488456726,68.3301010131836,30.09,2
-0.1666940599679947,-0.9513433575630188,0.2476795315742492,-35.051124572753906,1.7061145305633545,68.33006286621094,30.09,2
-0.1741479486227035,-0.8792105913162231,0.2037286609411239,-38.16398239135742,1.7101644277572632,68.33003997802734,30.09,2
-0.2013225257396698,-0.8273221254348755,0.1587301939725875,-35.937774658203125,1.712763428688049,68.33002471923828,30.09,2
-0.2243593782186508,-0.8108164668083191,0.1298527717590332,-23.342235565185547,1.7144312858581543,68.33001708984375,30.09,2
-0.2447408735752105,-0.8282129168510437,0.1169186830520629,-0.8356947898864746,1.7155016660690308,68.33000946044922,30.09,2
-0.2634183168411255,-0.8281814455986023,0.131009429693222,23.07645606994629,1.7161885499954224,68.33000946044922,30.09,2
-0.2977955341339111,-0.811367928981781,0.1736387014389038,37.067684173583984,1.7166293859481812,68.33000946044922,30.09,2
-0.3310523927211761,-0.8901423215866089,0.2569734454154968,35.685638427734375,1.7169122695922852,68.33000946044922,30.09,2
-0.3523947298526764,-0.951890766620636,0.3328439891338348,20.944902420043945,1.717093825340271,68.33000946044922,30.09,2
-0.3101132810115814,-1.0083106756210327,0.3983266651630401,-3.722887754440308,1.7158331871032717,68.33000946044922,30.09,2
-0.2549906075000763,-1.100495457649231,0.4347518980503082,-35.52796173095703,1.71502423286438,68.33000946044922,30.09,2
-0.225213810801506,-1.1708499193191528,0.4413341879844665,-67.15208435058594,1.7145050764083862,68.33000946044922,30.09,2
-0.2173003256320953,-1.1824127435684204,0.4287649989128113,-86.17839813232422,1.7141718864440918,68.33000946044922,30.09,2
-0.2122219055891037,-1.150648593902588,0.4039055109024048,-84.8534164428711,1.7139580249786377,68.33000946044922,30.09,2
-0.2033651024103164,-1.0239064693450928,0.3487676978111267,-68.07857513427734,1.7138208150863647,68.33000946044922,30.09,2
-0.1920835375785827,-0.9705595970153807,0.2909923195838928,-47.72647476196289,1.7137327194213867,68.33000946044922,30.09,2
-0.2072347700595855,-0.9587157368659972,0.2259265482425689,-30.165950775146484,1.7136762142181396,68.33000946044922,30.09,2
-0.2393490672111511,-0.9958972334861756,0.1617799699306488,-13.071351051330566,1.7118035554885864,68.36225128173828,30.09,2
-0.2599581778049469,-1.014160394668579,0.1150166243314743,6.60105562210083,1.710601806640625,68.38294219970703,30.09,2
-0.2563905715942383,-0.9978917837142944,0.0794088244438171,26.89955139160156,1.7098305225372314,68.3962173461914,30.09,2
-0.2541010975837707,-0.9706581830978394,0.0677533373236656,42.985477447509766,1.7093355655670166,68.40473937988281,30.09,2
-0.2414363026618957,-0.9363878965377808,0.0602735169231891,50.46751403808594,1.709017992019653,68.41020965576172,30.09,2
-0.2333087623119354,-0.9087974429130554,0.0610711723566055,48.17555618286133,1.7088141441345217,68.4137191772461,30.09,2
-0.2224951982498169,-0.9022870063781738,0.0727786123752594,42.13334274291992,1.7086833715438845,68.41596984863281,30.09,2
-0.1987623572349548,-0.892511248588562,0.0970850959420204,43.67981719970703,1.7085994482040403,68.41741180419922,30.09,2
-0.1667386591434478,-0.8694443702697754,0.1238791421055793,58.02451705932617,1.7053323984146118,68.4183349609375,30.09,2
-0.1181988194584846,-0.8546413779258728,0.1634651124477386,77.60525512695312,1.703235745429993,68.41893005371094,30.09,2
-0.0814509764313697,-0.8731305599212646,0.2056624442338943,91.36046600341795,1.701890230178833,68.4193115234375,30.09,2
-0.0746616423130035,-0.8905936479568481,0.2327422648668289,96.9025421142578,1.7010267972946167,68.4195556640625,30.09,2
-0.0870979651808738,-0.9297893047332764,0.244522750377655,99.387939453125,1.700472712516785,68.41971588134766,30.09,2
-0.1006766557693481,-0.9885294437408448,0.240887239575386,101.11189270019533,1.700117111206055,68.41981506347656,30.09,2
-0.1261840015649795,-1.0318232774734497,0.2441519498825073,96.17800903320312,1.699888825416565,68.41988372802734,30.09,2
-0.1649442464113235,-1.0372157096862793,0.2798337042331695,77.32720947265625,1.6997424364089966,68.419921875,30.09,2
-0.2010138928890228,-1.0014917850494385,0.3307210803031921,47.03753280639648,1.700566649436951,68.41995239257812,30.09,2
-0.1961724460124969,-0.9561751484870912,0.3577798902988434,16.615184783935547,1.7010955810546875,68.41996765136719,30.09,2
-0.1706743836402893,-0.9438868761062622,0.3527535796165466,-6.827463626861572,1.7014349699020386,68.41997528076172,30.09,2
-0.1487134099006652,-0.9695876240730286,0.3103435635566711,-24.863056182861328,1.701652765274048,68.41998291015625,30.09,2
-0.1570112258195877,-1.014069676399231,0.2887250185012817,-37.90612030029297,1.701792597770691,68.41999053955078,30.09,2
-0.1735318303108215,-1.0034313201904297,0.2748515009880066,-40.96344757080078,1.7018823623657229,68.41999053955078,30.09,2
-0.1841338127851486,-0.95182204246521,0.2491549402475357,-31.94845199584961,1.7019399404525757,68.41999053955078,30.09,2
-0.1909375488758087,-0.8851155638694763,0.2270665913820266,-15.680530548095703,1.7019768953323364,68.41999053955078,30.09,2
-0.2064993381500244,-0.8255138397216797,0.1960982382297516,1.9136885404586792,1.7033777236938477,68.41999053955078,30.09,2
-0.2388771027326584,-0.8040581941604614,0.1706267595291137,17.564640045166016,1.70427668094635,68.41999053955078,30.09,2
-0.2596552968025207,-0.8070825338363647,0.1542806327342987,30.019594192504883,1.7048535346984863,68.41999053955078,30.09,2
-0.2673917710781097,-0.809023380279541,0.1661817282438278,40.07244873046875,1.705223798751831,68.41999053955078,30.09,2
-0.2835521399974823,-0.8046711087226868,0.1850147098302841,47.727535247802734,1.7054613828659058,68.41999053955078,30.09,2
-0.3163140416145324,-0.846660315990448,0.2306872755289077,47.939788818359375,1.7056138515472412,68.41999053955078,30.09,2
-0.3485342860221863,-0.9463776350021362,0.3103772699832916,34.91720199584961,1.7057117223739624,68.41999053955078,30.09,2
-0.3468202650547027,-1.0103704929351809,0.3671154975891113,10.073043823242188,1.7057745456695557,68.41999053955078,30.09,2
-0.3065358996391296,-1.0794262886047363,0.4259179234504699,-20.075420379638672,1.705355525016785,68.43074035644531,30.07,2
-0.2638903856277466,-1.1461334228515625,0.4636539220809936,-50.39281463623047,1.705086588859558,68.43763732910156,30.07,2
-0.2477184981107711,-1.1777466535568235,0.4654796421527862,-75.97139739990234,1.704914093017578,68.44206237792969,30.07,2
-0.2541336417198181,-1.1756430864334106,0.4442601799964905,-89.02580261230469,1.7048033475875854,68.44490814208984,30.07,2
-0.2638482749462127,-1.1519020795822144,0.4194471836090088,-83.83973693847656,1.7047322988510132,68.44673156738281,30.07,2
-0.2588870227336883,-1.035906434059143,0.3643392324447632,-63.27226638793945,1.7046866416931152,68.4478988647461,30.07,2
-0.2501054108142853,-0.961467146873474,0.3121807873249054,-36.35198211669922,1.7046574354171753,68.44865417480469,30.07,2
-0.244469866156578,-0.9584785103797911,0.2507196366786957,-10.255791664123535,1.7046386003494265,68.44913482666016,30.07,2
-0.2408533096313476,-1.0125383138656616,0.194484069943428,12.904051780700684,1.706921935081482,68.4494400024414,30.07,2
-0.2385324090719223,-1.0360352993011477,0.1471997797489166,33.31253433227539,1.70838725566864,68.44963836669922,30.07,2
-0.2370429784059524,-1.0119298696517944,0.1000621169805526,51.027462005615234,1.7093275785446167,68.44976806640625,30.07,2
-0.2304893732070922,-0.985264778137207,0.0698118805885315,65.21895599365234,1.7099310159683228,68.4498519897461,30.07,2
-0.2262836545705795,-0.9345660209655762,0.0448012463748455,73.11532592773438,1.7103183269500732,68.44990539550781,30.07,2
-0.2179868966341018,-0.8852371573448181,0.0287508610635995,71.20390319824219,1.7105668783187866,68.44993591308594,30.07,2
-0.2070647329092025,-0.8535807728767395,0.0184506475925445,59.91022491455078,1.7107263803482056,68.44995880126953,30.07,2
-0.1888599693775177,-0.8388632535934448,0.0174383372068405,45.89510726928711,1.71082866191864,68.4499740600586,30.07,2
-0.1827749758958816,-0.829418420791626,0.0223864689469337,36.95833587646485,1.7067629098892212,68.44998168945312,30.07,2
-0.1844677478075027,-0.8177595138549805,0.0423552207648754,35.21421813964844,1.7041537761688232,68.44998931884766,30.07,2
-0.1855540722608566,-0.8550596833229065,0.0831588879227638,38.06801986694336,1.702479362487793,68.44998931884766,30.07,2
-0.1806534379720688,-0.9013878703117372,0.1261376589536667,44.76814651489258,1.7014048099517822,68.44998931884766,30.07,2
-0.1719107180833816,-0.9535097479820251,0.187305599451065,56.7668571472168,1.7007153034210205,68.44998931884766,30.07,2
-0.1607023775577545,-0.99255633354187,0.2489507645368576,70.68270874023438,1.700272798538208,68.44998931884766,30.07,2
-0.119922861456871,-1.0344074964523315,0.3164999485015869,76.28846740722656,1.699988842010498,68.44998931884766,30.07,2
-0.0881551355123519,-1.066862940788269,0.3654468953609466,65.63443756103516,1.699806571006775,68.44998931884766,30.07,2
-0.0957573130726814,-1.0708976984024048,0.4024560153484344,42.02725601196289,1.7010667324066162,68.44998931884766,30.07,2
-0.1342225968837738,-1.0566935539245603,0.4709885418415069,15.904099464416504,1.7018754482269287,68.44998931884766,30.07,2
-0.1477118581533432,-0.9916004538536072,0.5037732124328613,-6.298589706420898,1.7023943662643433,68.44998931884766,30.07,2
-0.1339773833751678,-0.9610230326652528,0.4408459067344665,-23.77489852905273,1.702727437019348,68.44998931884766,30.07,2
-0.1251633912324905,-0.9805846214294434,0.3612783551216125,-34.291587829589844,1.7029411792755127,68.44998931884766,30.07,2
-0.1307026296854019,-1.0155291557312012,0.3158142566680908,-33.61749649047852,1.703078269958496,68.44998931884766,30.07,2
-0.151050716638565,-0.9875746369361876,0.292235791683197,-22.043092727661133,1.7031662464141846,68.44998931884766,30.07,2
-0.1641089469194412,-0.93604838848114,0.2603111863136291,-5.365095138549805,1.7032227516174316,68.44998931884766,30.07,2
-0.1780867427587509,-0.8805906772613525,0.2342260330915451,10.31049919128418,1.7064722776412964,68.4070053100586,30.05,2
-0.2038502097129821,-0.828207790851593,0.2006927579641342,22.05758476257324,1.7085576057434082,68.3794174194336,30.05,2
-0.2259814888238906,-0.79459148645401,0.1791730225086212,30.45242500305176,1.7098958492279053,68.3617172241211,30.05,2
-0.2457818537950515,-0.7954095602035522,0.1765584498643875,36.80346298217773,1.710754632949829,68.35035705566406,30.05,2
-0.2584885954856872,-0.8015323281288147,0.1860761195421219,38.07403564453125,1.7113057374954224,68.34306335449219,30.05,2
-0.2722408175468445,-0.7998638153076172,0.2145751118659973,27.89807510375977,1.7116594314575195,68.33838653564453,30.05,2
-0.2978595197200775,-0.8491730093955994,0.2608529925346374,4.253764629364014,1.7118864059448242,68.33538055419922,30.05,2
-0.3198979198932647,-0.9144034385681152,0.3073447942733764,-28.32036018371582,1.7120320796966553,68.33345031738281,30.05,2
-0.3228453397750854,-0.9786556959152222,0.3595716655254364,-63.58352279663086,1.7098305225372314,68.33221435546875,30.05,2
-0.3135412633419037,-1.036682367324829,0.3930878639221191,-95.51375579833984,1.7084176540374756,68.3314208984375,30.05,2
-0.2851793467998504,-1.1578872203826904,0.4145966172218323,-117.82827758789062,1.707511067390442,68.3309097290039,30.05,2
-0.272576093673706,-1.1964850425720217,0.4283997118473053,-126.2479476928711,1.7069292068481443,68.33058166503906,30.05,2
-0.2700858116149902,-1.2044615745544434,0.4316599667072296,-120.1583023071289,1.7065558433532717,68.33037567138672,30.05,2
-0.2684876918792724,-1.1032228469848633,0.4113610982894897,-102.18154907226562,1.7063162326812744,68.33023834228516,30.05,2
-0.2618643343448639,-0.9934714436531068,0.3815411329269409,-77.8875503540039,1.706162452697754,68.33015441894531,30.05,2
-0.2408205270767212,-0.934234857559204,0.3232199847698211,-53.12924575805664,1.706063747406006,68.3301010131836,30.05,2
-0.2329135984182357,-0.9466001391410828,0.2689994871616363,-29.835607528686523,1.7055411338806152,68.33006286621094,30.05,2
-0.2334371507167816,-0.976926565170288,0.2230083495378494,-6.915862083435059,1.7052057981491089,68.33003997802734,30.05,2
-0.2225775867700576,-1.0075838565826416,0.1711027920246124,15.488082885742188,1.7049905061721802,68.33002471923828,30.05,2
-0.2156085520982742,-1.0048668384552002,0.1265972405672073,35.43296813964844,1.7048523426055908,68.33001708984375,30.05,2
-0.2111362218856811,-0.9751343727111816,0.0980361476540565,50.54679107666016,1.7047637701034546,68.33000946044922,30.05,2
-0.2138639092445373,-0.9224671721458436,0.0685117319226265,58.4475212097168,1.7047069072723389,68.33000946044922,30.05,2
-0.221212163567543,-0.8830705881118774,0.0495646595954895,59.83128356933594,1.7046704292297363,68.33000946044922,30.05,2
-0.2147323042154312,-0.8577881455421448,0.0318077467381954,61.96962356567383,1.7046469449996948,68.33000946044922,30.05,2
-0.1993783563375473,-0.8303678035736084,0.0260101556777954,73.41608428955078,1.7032548189163208,68.33000946044922,30.05,2
-0.1783295273780822,-0.8127709627151489,0.0278873704373836,93.20763397216795,1.7023613452911377,68.33000946044922,30.05,2
-0.164821594953537,-0.8238694667816162,0.0458853803575038,110.4084243774414,1.7017879486083984,68.33000946044922,30.05,2
-0.1617507636547088,-0.85338294506073,0.0686310157179832,115.28845977783205,1.7014200687408447,68.33000946044922,30.05,2
-0.1709756255149841,-0.9059095978736876,0.1000211760401725,106.86637878417967,1.7011839151382446,68.33000946044922,30.05,2
-0.1824933886528015,-0.9564115405082704,0.1369588971138,89.67489624023438,1.7010324001312256,68.33000946044922,30.05,2
-0.1730915009975433,-1.0280051231384275,0.1886522769927978,67.13874053955078,1.700935125350952,68.33000946044922,30.05,2
-0.1502645760774612,-1.0683521032333374,0.2498149871826172,39.29182815551758,1.700872778892517,68.33000946044922,30.05,2
-0.1244200244545936,-1.1054400205612185,0.3002612292766571,6.9835076332092285,1.6999149322509766,68.34075164794922,30.07,2
-0.1358233541250229,-1.0900564193725586,0.3606235980987549,-23.35499763488769,1.6993001699447632,68.34764862060547,30.07,2
-0.1487391293048858,-1.0298041105270386,0.4161540269851684,-43.483699798583984,1.6989057064056396,68.3520736694336,30.07,2
-0.1402344107627868,-0.8959755301475525,0.4126058220863342,-51.41777801513672,1.6986525058746338,68.35491180419922,30.07,2
-0.1291787922382354,-0.9108520150184632,0.348753273487091,-50.2900619506836,1.698490023612976,68.35673522949219,30.07,2
-0.1388772577047348,-0.9595832824707032,0.307776391506195,-41.22970581054688,1.6983857154846191,68.35790252685547,30.07,2
-0.1674922704696655,-1.0244427919387815,0.2814797759056091,-24.05136108398437,1.6983188390731812,68.35865783691406,30.07,2
-0.185855746269226,-1.0492726564407349,0.2646041214466095,-2.9136769771575928,1.6982759237289429,68.35913848876953,30.07,2
-0.1752492636442184,-1.042815923690796,0.2425787597894668,15.412515640258787,1.6982483863830566,68.35944366455078,30.07,2
-0.1796381771564483,-0.9714990258216858,0.2284441590309143,27.78224754333496,1.6982307434082031,68.3596420288086,30.07,2
-0.1936502903699875,-0.9089386463165284,0.2137756049633026,34.692230224609375,1.6982194185256958,68.35977172851562,30.07,2
-0.2082402259111404,-0.8575954437255859,0.1987643986940384,35.88801193237305,1.6982121467590332,68.35985565185547,30.07,2
-0.2120054364204406,-0.8190485835075378,0.1947288364171981,29.973892211914062,1.6982074975967407,68.35990905761719,30.07,2
-0.214421734213829,-0.7999091744422913,0.1977368295192718,17.394075393676758,1.698204517364502,68.35993957519531,30.07,2
-0.2383634597063064,-0.8268110156059265,0.2052649557590484,1.3856678009033203,1.6982026100158691,68.3599624633789,30.07,2
-0.2705212235450744,-0.844075083732605,0.2044983059167862,-14.795272827148438,1.698201298713684,68.35997772216797,30.07,2
-0.3191470801830292,-0.8439586162567139,0.1984085291624069,-31.64582061767578,1.6991183757781982,68.3599853515625,30.07,2
-0.3447545766830444,-0.8438838720321655,0.1945004612207412,-52.44058609008789,1.699706792831421,68.35999298095703,30.07,2
-0.3387969136238098,-0.877422571182251,0.1975902616977691,-76.80547332763672,1.7000844478607178,68.35999298095703,30.07,2
-0.3517669439315796,-0.9325324296951294,0.1883775740861892,-97.70067596435548,1.7003268003463743,68.35999298095703,30.07,2
-0.3712859153747558,-0.9119210243225098,0.1712698489427566,-106.65328979492188,1.7004823684692385,68.35999298095703,30.07,2
-0.3558231890201568,-0.8874982595443726,0.1434977799654007,-100.5581512451172,1.7005821466445925,68.35999298095703,30.07,2
-0.3347045481204986,-0.871825098991394,0.1200774908065795,-84.19718933105469,1.700646162033081,68.35999298095703,30.07,2
-0.3267495930194855,-0.8729625344276428,0.0994499176740646,-66.70806121826172,1.700687289237976,68.35999298095703,30.07,2
-0.316046804189682,-0.8624969124794006,0.0918101072311401,-52.69013977050781,1.699795842170715,68.35999298095703,30.07,2
-0.3035805821418762,-0.8613784909248352,0.0925050899386406,-37.77224349975586,1.6992237567901611,68.35999298095703,30.07,2
-0.2899827063083648,-0.86066073179245,0.0817555412650108,-16.44795036315918,1.6988565921783447,68.35999298095703,30.07,2
-0.2812563776969909,-0.8713956475257874,0.080454871058464,9.478415489196776,1.6986210346221924,68.35999298095703,30.07,2
-0.2812540829181671,-0.8670891523361206,0.0684246271848678,33.707942962646484,1.698469877243042,68.35999298095703,30.07,2
-0.2868503928184509,-0.8923143744468689,0.0663020834326744,51.44601058959961,1.6983728408813477,68.35999298095703,30.07,2
-0.2792462408542633,-0.9252957701683044,0.070537731051445,60.37879943847656,1.698310613632202,68.35999298095703,30.07,2
-0.2799640893936157,-0.94086354970932,0.0676581561565399,61.62954711914063,1.6982706785202026,68.35999298095703,30.07,2
-0.2804247736930847,-0.9620496034622192,0.0658102110028266,61.264286041259766,1.6964086294174194,68.37074279785156,30.05,2
-0.2863181829452514,-0.9644500613212584,0.0758198499679565,66.12430572509766,1.6952136754989624,68.37763977050781,30.05,2
-0.3124913275241852,-0.949197232723236,0.0710479095578193,77.3326416015625,1.6944468021392822,68.38206481933594,30.05,2
-0.3404833078384399,-0.9562021493911744,0.0735833272337913,90.35794067382812,1.693954586982727,68.3849105834961,30.05,2
-0.3584469556808471,-0.9550997614860536,0.0808081924915313,100.0280532836914,1.693638801574707,68.38673400878906,30.05,2
-0.3587794303894043,-0.9543923139572144,0.0910424664616584,103.15275573730467,1.6934361457824707,68.38790130615234,30.05,2
-0.3589927852153778,-0.9539383053779602,0.0864146873354911,97.50920867919922,1.6933060884475708,68.38865661621094,30.05,2
-0.3703252673149109,-0.9480491876602172,0.0890426188707351,80.1698226928711,1.6932226419448853,68.3891372680664,30.05,2
-0.3720000386238098,-0.9386720657348632,0.0851313024759292,49.3310775756836,1.692251205444336,68.38944244384766,30.05,2
-0.3786725699901581,-0.9326543807983398,0.0602301433682441,10.635292053222656,1.6916277408599854,68.38964080810547,30.05,2
-0.3885523974895477,-0.9287925958633424,0.0498477891087532,-22.89592933654785,1.691227674484253,68.3897705078125,30.05,2
-0.4116860330104828,-0.9263142943382264,0.0375872142612934,-43.722900390625,1.6909708976745603,68.38985443115234,30.05,2
-0.409738540649414,-0.9303216338157654,0.0297190845012664,-56.46866607666016,1.6908061504364014,68.38990783691406,30.05,2
-0.4140865206718445,-0.9384911060333252,0.0246697720140218,-65.5330581665039,1.6907004117965698,68.38993835449219,30.05,2
-0.411279022693634,-0.9549293518066406,0.0214294139295816,-66.08367919921875,1.6906325817108154,68.38996124267578,30.05,2
-0.4094773232936859,-0.9822717905044556,0.0249477140605449,-54.26344299316406,1.6905890703201294,68.38997650146484,30.05,2
-0.4083211123943329,-1.022209644317627,0.0160100068897008,-35.46085357666016,1.6901018619537354,68.38998413085938,30.05,2
-0.4019813537597656,-1.0702306032180786,0.0158720761537551,-17.433027267456055,1.6897891759872437,68.3899917602539,30.05,2
-0.3923150897026062,-1.1178410053253174,0.0101857846602797,-3.760834932327272,1.6895885467529297,68.3899917602539,30.05,2
-0.3693185150623321,-1.1875790357589722,0.017732199281454,4.558204650878906,1.6894596815109253,68.3899917602539,30.05,2
-0.3489628434181213,-1.2491261959075928,0.0225750543177127,7.736592769622803,1.6893770694732666,68.3899917602539,30.05,2
-0.3135086596012115,-1.283025860786438,0.031280692666769,7.827377796173096,1.6893240213394165,68.3899917602539,30.05,2
-0.2795606553554535,-1.293585181236267,0.0536607950925827,7.78174352645874,1.689289927482605,68.3899917602539,30.05,2
-0.2521770000457763,-1.283568263053894,0.0736208334565162,9.296548843383787,1.6892681121826172,68.3899917602539,30.05,2
-0.2346037477254867,-1.1931732892990112,0.1032233536243438,11.529729843139648,1.69017231464386,68.3899917602539,30.05,2
-0.2065329253673553,-1.095978617668152,0.1278183311223983,11.884501457214355,1.690752625465393,68.3899917602539,30.05,2
-0.1773231327533722,-0.9160513877868652,0.1156130954623222,8.751717567443848,1.6911250352859497,68.3899917602539,30.05,2
-0.1921646147966385,-0.8285733461380005,0.0909871533513069,3.248266220092773,1.6913639307022097,68.3899917602539,30.05,2
-0.2128845751285553,-0.7780327796936035,0.080781415104866,-2.0318291187286377,1.691517353057861,68.3899917602539,30.05,2
-0.2205836772918701,-0.7232076525688171,0.0518408641219139,-5.144432067871094,1.6916157007217407,68.3899917602539,30.05,2
-0.2255245298147201,-0.671230673789978,0.0276707075536251,-5.536927700042725,1.6916788816452026,68.3899917602539,30.05,2
-0.2007064074277877,-0.6546682119369507,0.0121596930548548,-3.589107275009156,1.69171941280365,68.3899917602539,30.05,2
-0.2351595312356948,-0.8287659287452698,0.0134011656045913,-0.1609023064374923,1.6922043561935425,68.49030303955078,30.05,2
-0.2572695612907409,-0.96848064661026,0.0141978710889816,3.0028350353240967,1.6925156116485596,68.55467987060547,30.05,2
-0.0811341777443885,-1.0469459295272827,0.0762846693396568,3.026897430419922,1.6927152872085571,68.59599304199219,30.05,2
0.0990726724267005,-1.282027006149292,-0.0853914767503738,-3.012213468551636,1.6928434371948242,68.62250518798828,30.05,2
0.1979257315397262,-1.365715265274048,-0.3066991865634918,-16.496234893798828,1.6929256916046145,68.63951873779297,30.05,2
0.1997884064912796,-1.480997085571289,-0.3087773621082306,-36.17667007446289,1.6929785013198853,68.65043640136719,30.05,2
0.1450060158967971,-1.554978370666504,-0.3884798586368561,-58.62269973754883,1.6930123567581177,68.6574478149414,30.05,2
0.2497942000627517,-1.4233264923095703,-0.2996839880943298,-80.22466278076172,1.693034052848816,68.66194152832031,30.05,2
0.2554657161235809,-1.3220465183258057,-0.2259065806865692,-98.78789520263672,1.699474811553955,68.66482543945312,30.05,2
0.1751387417316436,-1.2178664207458496,-0.2121471315622329,-113.78173065185548,1.703608155250549,68.66667938232422,30.05,2
0.0228295717388391,-1.0838364362716677,-0.164132684469223,-125.60002899169922,1.7062606811523438,68.6678695678711,30.05,2
-0.0357292667031288,-0.9306503534317015,-0.1333197802305221,-133.1055145263672,1.7079628705978394,68.66863250732422,30.05,2
0.0610376261174678,-0.6308244466781616,-0.0351769849658012,-131.90338134765625,1.7090553045272827,68.66912078857422,30.05,2
0.162321463227272,-0.3488490879535675,0.0669898316264152,-118.33137512207033,1.7097562551498413,68.66943359375,30.05,2
0.2609062492847442,-0.2686534523963928,0.0877724140882492,-94.95457458496094,1.710206151008606,68.66963958740234,30.05,2
0.4025411307811737,-0.7433793544769287,-0.0220415648072958,-68.48128509521484,1.710494875907898,68.66976928710938,30.05,2
0.3422943353652954,-1.09281325340271,-0.0925138518214225,-43.51027297973633,1.7047126293182373,68.66985321044922,30.05,2
0.3708046972751617,-1.4066241979599,-0.2440966218709945,-21.43434333801269,1.7010018825531006,68.66990661621094,30.05,2
0.3443188369274139,-1.294534683227539,-0.2350160032510757,-3.0040183067321777,1.6986205577850342,68.66993713378906,30.05,2
0.299332857131958,-1.40173077583313,-0.0668531358242034,11.102020263671877,1.6970924139022827,68.66996002197266,30.05,2
0.2312790155410766,-1.3529698848724363,-0.014913622289896,21.042943954467773,1.6961116790771484,68.66997528076172,30.05,2
0.1428237855434417,-1.254504680633545,-0.0599506758153438,28.41482925415039,1.69548237323761,68.66998291015625,30.05,2
0.1812204718589782,-1.0569686889648438,0.0231026262044906,36.36641693115234,1.6950784921646118,68.66999053955078,30.05,2
0.1498835086822509,-0.8742237687110901,0.0819992274045944,47.20499420166016,1.6948193311691284,68.66999053955078,30.05,2
0.0681977346539497,-0.7009708285331726,0.1197956800460815,59.34097290039063,1.6928166151046753,68.66999053955078,30.05,2
0.0045809624716639,-0.5729937553405762,0.1496490389108657,68.89176940917969,1.6915313005447388,68.66999053955078,30.05,2
-0.0418423973023891,-0.4684743583202362,0.1688072085380554,74.35814666748047,1.690706491470337,68.66999053955078,30.05,2
-0.0548409149050712,-0.4909642040729522,0.1922973692417144,77.19979095458984,1.6901772022247314,68.66999053955078,30.05,2
-0.0575848408043384,-0.7013190388679504,0.1849808990955352,77.833984375,1.6898374557495115,68.66999053955078,30.05,2
-0.160105675458908,-1.0210391283035278,0.0683301240205764,73.79499053955078,1.6896194219589231,68.66999053955078,30.05,2
-0.1587243527173996,-1.371759295463562,-0.0625073686242103,63.2353515625,1.6894795894622805,68.66999053955078,30.05,2
-0.185826763510704,-1.50166916847229,-0.1352757960557937,49.08584213256836,1.6893898248672483,68.66999053955078,30.05,2
-0.2256106287240982,-1.344333529472351,0.0251432638615369,37.54427337646485,1.7017264366149902,68.74522399902344,30.09,2
-0.223152756690979,-1.1761912107467651,0.1896665096282959,31.595666885375977,1.7096433639526367,68.79351043701172,30.09,2
-0.2047821134328842,-1.0626894235610962,0.222476989030838,27.821184158325195,1.714724063873291,68.82449340820312,30.09,2
-0.1482106894254684,-0.8611016869544983,0.1763595789670944,21.46885299682617,1.7179845571517944,68.84437561035156,30.09,2
-0.0839175432920456,-0.6589632034301758,0.1355685293674469,13.286661148071287,1.7200769186019895,68.85713958740234,30.09,2
-0.0594512224197387,-0.5068512558937073,0.1205867230892181,10.063539505004885,1.7214196920394895,68.86532592773438,30.09,2
-0.0381523706018924,-0.4428212344646454,0.1389611363410949,17.37430763244629,1.7222814559936523,68.8705825805664,30.09,2
-0.0356795452535152,-0.4129259884357452,0.1675460934638977,28.45725440979004,1.7228344678878784,68.87395477294922,30.09,2
-0.0564837232232093,-0.466511994600296,0.1802925020456314,25.52410888671875,1.7544046640396118,68.8761215209961,30.09,2
-0.0866279751062393,-0.5568781495094299,0.1884724199771881,2.76969838142395,1.7746646404266355,68.87751007080078,30.09,2
-0.1731461137533188,-0.8667697906494141,0.1881240457296371,-22.45152473449707,1.7876663208007812,68.87840270996094,30.09,2
-0.2398640215396881,-1.088031530380249,0.2550737559795379,-34.742794036865234,1.7960100173950195,68.87897491455078,30.09,2
-0.2322997599840164,-1.246817946434021,0.3708093166351318,-41.00413513183594,1.801364541053772,68.87934112548828,30.09,2
-0.3002165257930755,-1.191980242729187,0.5234505534172058,-52.9827880859375,1.8048007488250728,68.87957763671875,30.09,2
-0.3717904686927795,-1.1008107662200928,0.6437980532646179,-68.41194152832031,1.807005882263184,68.87973022460938,30.09,2
-0.3953314125537872,-0.9863256812095642,0.6706501841545105,-79.84324645996094,1.808421015739441,68.87982940673828,30.09,2
-0.382449746131897,-0.8736713528633118,0.6375023126602173,-84.12684631347656,1.850643396377564,68.87989044189453,30.09,2
-0.3182052969932556,-0.7733874320983887,0.6050344109535217,-76.94491577148438,1.877739310264588,68.87992858886719,30.09,2
-0.271379142999649,-0.697835385799408,0.5953938961029053,-55.21125030517578,1.8951278924942017,68.87995147705078,30.09,2
-0.2469265758991241,-0.6325571537017822,0.6004027128219604,-30.2295036315918,1.9062869548797607,68.87996673583984,30.09,2
-0.2592231929302215,-0.6354475021362305,0.5868237614631653,-20.21638298034668,1.9134482145309448,68.87997436523438,30.09,2
-0.2671144604682922,-0.6988778710365295,0.5837073922157288,-23.488571166992188,1.918043851852417,68.8799819946289,30.09,2
-0.3001675009727478,-0.7395838499069214,0.5593163371086121,-20.458223342895508,1.9209930896759035,68.87998962402344,30.09,2
-0.3269768059253692,-0.8160865902900696,0.5492613315582275,-5.852699279785156,1.922885775566101,68.87998962402344,30.09,2
-0.3609747886657715,-0.8315950036048889,0.5651997327804565,8.242120742797852,1.9842352867126465,68.87998962402344,30.09,2
-0.3380105495452881,-0.7519829869270325,0.6202102899551392,18.67382049560547,2.0236058235168457,68.87998962402344,30.09,2
-0.300882339477539,-0.6785014867782593,0.6331217885017395,31.5159854888916,2.048871755599976,68.87998962402344,30.09,2
-0.2658600211143493,-0.6761274933815002,0.5910276770591736,44.19615936279297,2.0650858879089355,68.87998962402344,30.09,2
-0.2489825040102005,-0.6913973093032837,0.5640140771865845,51.950225830078125,2.075491189956665,68.87998962402344,30.09,2
-0.2325537055730819,-0.7123921513557434,0.5690694451332092,61.71624755859375,2.0821688175201416,68.87998962402344,30.09,2
-0.2220106422901153,-0.7314631938934326,0.5891069769859314,82.18484497070312,2.086453914642334,68.87998962402344,30.09,2
-0.2152447253465652,-0.7157130241394043,0.6243570446968079,109.489501953125,2.0892038345336914,68.87998962402344,30.09,2
-0.2165005207061767,-0.6832144260406494,0.6525762677192688,134.05899047851562,2.1874399185180664,68.93731689453125,30.09,2
-0.2285019606351852,-0.6623586416244507,0.659490168094635,153.00042724609375,2.250482082366944,68.97410583496094,30.09,2
-0.2362037897109985,-0.648974597454071,0.6639271378517151,163.61544799804688,2.2909390926361084,68.99771118164062,30.09,2
-0.2355486154556274,-0.6739721894264221,0.6779700517654419,154.88992309570312,2.316901922225952,69.01286315917969,30.09,2
-0.2183348387479782,-0.6732208728790283,0.6981775760650635,124.3664093017578,2.3335635662078857,69.0225830078125,30.09,2
-0.1177236288785934,-0.706325352191925,0.7447322010993958,93.9337158203125,2.344255924224853,69.02882385253906,30.09,2
-0.1315259933471679,-0.6771899461746216,0.7410216331481934,85.46675872802734,2.3511176109313965,69.03282928466797,30.09,2
-0.1739702075719833,-0.6696880459785461,0.7218471169471741,92.10643005371094,2.3555212020874023,69.035400390625,30.09,2
-0.1844151318073272,-0.6648737788200378,0.6983464360237122,92.33699035644533,2.4368438720703125,69.03704833984375,30.09,2
-0.1687269806861877,-0.639393150806427,0.7056561708450317,76.9509048461914,2.489032030105591,69.0381088256836,30.09,2
-0.1530614644289016,-0.5782589316368103,0.7383360266685486,51.08438491821289,2.5225234031677246,69.03878784179688,30.09,2
-0.1430082321166992,-0.5502220988273621,0.7593080401420593,27.394824981689453,2.544016122817993,69.03922271728516,30.09,2
-0.1477521955966949,-0.5434252023696899,0.7671689391136169,20.81907081604004,2.5578088760375977,69.03950500488281,30.09,2
-0.161992147564888,-0.5558566451072693,0.7834091186523438,36.84426498413086,2.5666604042053223,69.03968048095703,30.09,2
-0.1767283082008361,-0.5358455777168274,0.8050267100334167,66.25926208496094,2.572340726852417,69.039794921875,30.09,2
-0.1973806768655777,-0.5062103271484375,0.7965085506439209,94.70159149169922,2.57598614692688,69.03987121582031,30.09,2
-0.2162319421768188,-0.4927898943424225,0.8470197916030884,110.73304748535156,2.65552282333374,69.0399169921875,30.09,2
-0.2059385031461715,-0.4841774106025696,0.8290550112724304,107.47539520263672,2.7065649032592773,69.03994750976562,30.09,2
