acc_x,acc_y,acc_z,bvp,eda,hr,temp,label
0.0,0.0,0.0,0.0,0.0,0.0,29.21,2
-0.0520833283662796,-0.0807291641831398,0.1328124850988388,-96.03333282470705,1.045642614364624,9.888333320617676,29.21,2
-0.1429115831851959,-0.2016006112098693,0.3151676654815674,-217.8668365478516,2.448333978652954,23.15317153930664,29.21,2
-0.221916526556015,-0.2967711687088012,0.4688019156455993,-299.8218688964844,3.6684341430664062,34.6912956237793,29.21,2
-0.2688784897327423,-0.3608650267124176,0.5915627479553223,-336.9136047363281,4.558563232421875,43.10898208618164,29.21,2
-0.3061634600162506,-0.4152387380599975,0.6801667809486389,-348.9985046386719,5.16121768951416,48.80810928344727,29.21,2
-0.3139685094356537,-0.4398095607757568,0.732750654220581,-347.52056884765625,5.55664587020874,52.54755783081055,29.21,2
-0.330182135105133,-0.4557228684425354,0.744489312171936,-324.93878173828125,5.812745571136475,54.96941375732422,29.21,2
-0.3518068492412567,-0.4659737646579742,0.7464608550071716,-283.16229248046875,5.939867496490479,56.52950668334961,29.21,2
-0.371300607919693,-0.4837517440319061,0.725349485874176,-234.81301879882807,6.021574020385742,57.53224563598633,29.21,2
-0.361432671546936,-0.4951679408550262,0.7173892259597778,-188.08084106445312,6.074042320251465,58.1761589050293,29.21,2
-0.366292804479599,-0.496898889541626,0.7290711998939514,-140.4582977294922,6.107722282409668,58.58949279785156,29.21,2
-0.3862047791481018,-0.5259976387023926,0.7141785621643066,-86.99821472167969,6.12933874130249,58.854774475097656,29.21,2
-0.3821906447410583,-0.5334770083427429,0.710218608379364,-33.2001838684082,6.143211364746094,59.0250244140625,29.21,2
-0.3908100426197052,-0.5382769107818604,0.7132750153541565,12.352025032043455,6.152114391326904,59.13428497314453,29.21,2
-0.3963415026664734,-0.535759449005127,0.715236485004425,44.168067932128906,6.157827854156494,59.204402923583984,29.21,2
-0.3998912870883941,-0.5397416949272156,0.7108974456787109,63.02383804321289,6.020566940307617,59.2494010925293,29.21,2
-0.4133648872375488,-0.5534927845001221,0.7137106657028198,71.36985778808594,5.932480812072754,59.27827835083008,29.21,2
-0.427609235048294,-0.562317430973053,0.7155160307884216,70.88626098632812,5.875952243804932,59.29681015014648,29.21,2
-0.4311526715755462,-0.5567850470542908,0.7110768556594849,62.80531311035156,5.839675426483154,59.30870056152344,29.21,2
-0.4222311079502105,-0.5476369261741638,0.7082280516624451,49.103641510009766,5.816394805908203,59.31633377075195,29.21,2
-0.416505753993988,-0.5473639369010925,0.7175953984260559,33.71875762939453,5.801455020904541,59.321231842041016,29.21,2
-0.4352226555347442,-0.5527865290641785,0.7068135142326355,20.31678771972656,5.791867256164551,59.32437515258789,29.21,2
-0.469625174999237,-0.5450708866119385,0.6886987686157227,9.036407470703123,5.785714626312256,59.32638931274414,29.21,2
-0.4469205439090729,-0.568108320236206,0.688269317150116,-3.0499157905578613,6.071577072143555,59.32768249511719,29.21,2
-0.4435455501079559,-0.5437080264091492,0.6935914754867554,-19.322004318237305,6.255027294158936,59.32851409912109,29.21,2
-0.4525752365589142,-0.5504403710365295,0.691409170627594,-39.279815673828125,6.37275505065918,59.32904815673828,29.21,2
-0.4527722001075744,-0.5435652732849121,0.6956064701080322,-61.00103759765625,6.448306083679199,59.32939147949219,29.21,2
-0.4473008215427398,-0.5391532182693481,0.6983000636100769,-82.8722915649414,6.496790409088135,59.32960891723633,29.21,2
-0.4493873715400696,-0.5363218188285828,0.700028657913208,-105.68889617919922,6.527904510498047,59.32975006103516,29.21,2
-0.4451286196708679,-0.5345048308372498,0.695540189743042,-130.04364013671875,6.547872066497803,59.32984161376953,29.21,2
-0.4423955976963043,-0.5333387851715088,0.6926597356796265,-152.44776916503906,6.560686111450195,59.32989883422852,29.21,2
-0.4462395012378692,-0.5325904488563538,0.6908112168312073,-171.04930114746094,6.523770332336426,59.21171188354492,29.21,2
-0.4431084990501404,-0.5321102142333984,0.6896249651908875,-186.5800170898437,6.50007963180542,59.1358642578125,29.21,2
-0.4410992264747619,-0.5262042880058289,0.6832659244537354,-206.38449096679688,6.48487663269043,59.087188720703125,29.21,2
-0.4286142289638519,-0.5168163776397705,0.6679894924163818,-226.35215759277344,6.475120067596436,59.05595397949219,29.21,2
-0.3758198916912079,-0.4828028976917267,0.6190015077590942,-238.79367065429688,6.46885871887207,59.03590774536133,29.21,2
-0.3307439684867859,-0.4441816806793213,0.5539771914482117,-244.6319580078125,6.464840412139893,59.02304458618164,29.21,2
-0.3130123913288116,-0.4473856985569,0.5178461074829102,-257.922607421875,6.46226167678833,59.01478958129883,29.21,2
-0.3632088005542755,-0.5278106927871704,0.5002570748329163,-282.24737548828125,6.460607051849365,59.00949096679688,29.21,2
-0.3898241817951202,-0.5794228315353394,0.4889694154262543,-295.24591064453125,6.392983436584473,59.0060920715332,29.21,2
-0.3901110887527466,-0.6013489961624146,0.4593345522880554,-288.9921875,6.349586486816406,59.00391006469727,29.21,2
-0.3958929777145386,-0.6490065455436707,0.4347188472747803,-285.0326538085937,6.321736812591553,59.00251007080078,29.21,2
-0.3772123754024505,-0.6851882338523865,0.4077263474464416,-324.7803955078125,6.303864479064941,59.001609802246094,29.21,2
-0.398810863494873,-0.753189742565155,0.3960018754005432,-409.0567626953125,6.292395114898682,59.00103378295898,29.21,2
-0.4126715362071991,-0.841611385345459,0.4108688831329345,-505.20709228515625,6.285034656524658,59.00066375732422,29.21,2
-0.3991754353046417,-0.9151486158370972,0.4260074496269226,-555.8048706054688,6.280311107635498,59.00042724609375,29.21,2
-0.3905144035816192,-0.9679383635520936,0.4133314192295074,-439.613037109375,6.277279853820801,59.000274658203125,29.21,2
-0.3737607002258301,-1.0018157958984375,0.3995988965034485,-218.72824096679688,6.217494964599609,59.00017547607422,29.21,2
-0.3742046952247619,-1.0067631006240845,0.3851883709430694,-17.789371490478516,6.179128646850586,59.00011444091797,29.21,2
-0.3744896054267883,-1.0043401718139648,0.3759405314922333,126.05081176757812,6.154507160186768,59.00007247924805,29.21,2
-0.38027024269104,-0.9971874952316284,0.3700058162212372,223.14190673828125,6.138706684112549,59.00004577636719,29.21,2
-0.37838214635849,-0.9869995713233948,0.3605994582176208,272.62017822265625,6.128566741943359,59.000030517578125,29.21,2
-0.3939637839794159,-0.986059308052063,0.3433674573898315,293.5924987792969,6.122059345245361,59.00001907348633,29.21,2
-0.3983654081821441,-0.9630647897720336,0.3267111778259277,311.0781555175781,6.117883205413818,59.0000114440918,29.21,2
-0.3899945616722107,-0.9371126890182496,0.3048265874385834,326.6594543457031,6.115203380584717,59.00000762939453,29.21,2
-0.390220433473587,-0.9036648273468018,0.2795867621898651,323.8114929199219,6.129091262817383,59.00000381469727,29.21,2
-0.412756472826004,-0.898993194103241,0.2633893191814422,296.7302551269531,6.138003349304199,59.00000381469727,29.21,2
-0.4272187948226928,-0.8959951996803284,0.2529947161674499,266.97686767578125,6.143722534179688,59.00000381469727,29.21,2
-0.4253043532371521,-0.8884735107421875,0.2351285070180893,249.41261291503903,6.147393226623535,59.00000381469727,29.21,2
-0.4240757524967193,-0.8892443180084229,0.2124674618244171,240.89947509765625,6.149748802185059,59.00000381469727,29.21,2
-0.4288851022720337,-0.8953367471694946,0.1923271268606186,224.6276092529297,6.1512603759765625,59.00000381469727,29.21,2
-0.426373690366745,-0.8936487436294556,0.1738044470548629,196.81692504882807,6.152230262756348,59.00000381469727,29.21,2
-0.41916424036026,-0.8925654888153076,0.1619176566600799,162.6402587890625,6.152852535247803,59.00000381469727,29.21,2
-0.4089398384094238,-0.8918703198432922,0.1542893946170807,128.29400634765625,6.159219741821289,58.49843978881836,29.21,2
-0.3967806398868561,-0.8914241790771484,0.1437962502241134,95.44751739501952,6.163305759429932,58.17656707763672,29.21,2
-0.3833797872066498,-0.896735668182373,0.1202690303325653,64.85679626464844,6.165927886962891,57.970008850097656,29.21,2
-0.3691821098327636,-0.905742049217224,0.0995728373527526,41.062477111816406,6.1676106452941895,57.83744812011719,29.21,2
-0.3544730842113495,-0.917119562625885,0.0806934386491775,26.007606506347656,6.16869068145752,57.75238037109375,29.21,2
-0.3394359052181244,-0.9300187826156616,0.0629799515008926,17.761375427246094,6.169383525848389,57.69778823852539,29.21,2
-0.3129926025867462,-0.9438945055007936,0.0460146814584732,12.150568962097168,6.169828414916992,57.66275405883789,29.21,2
-0.2680339217185974,-0.9583969712257384,0.0127362506464123,8.639440536499023,6.170114040374756,57.6402702331543,29.21,2
-0.2223887145519256,-0.9844971299171448,-0.0198154803365468,10.294791221618652,6.164329528808594,57.6258430480957,29.21,2
-0.2154873460531234,-1.0180400609970093,-0.0407053045928478,19.077550888061523,6.160617351531982,57.61658477783203,29.21,2
-0.2614383995532989,-1.0115771293640137,-0.014926771633327,33.26900863647461,6.1582350730896,57.61064147949219,29.21,2
-0.2965249419212341,-0.9850384593009948,0.0128119541332125,49.05777359008789,6.1567063331604,57.60682678222656,29.21,2
-0.3134436905384063,-0.9456163644790648,0.0138197494670748,64.1412124633789,6.155725479125977,57.6043815612793,29.21,2
-0.3019100427627563,-0.920317530632019,0.003270945046097,78.86516571044922,6.15509557723999,57.60280990600586,29.21,2
-0.2553240060806274,-0.937668800354004,-0.020291993394494,93.37991333007812,6.154691696166992,57.60180282592773,29.21,2
-0.2142322212457656,-0.9767927527427672,-0.0130222337320446,105.41023254394533,6.15443229675293,57.60115814208984,29.21,2
-0.1878618746995926,-0.9963024854660034,0.0084364032372832,111.61158752441406,6.149675369262695,57.60074234008789,29.21,2
-0.1933300048112869,-0.9640405178070068,0.0278050955384969,111.52145385742188,6.146622657775879,57.6004753112793,29.21,2
-0.1968391388654709,-0.9265432953834534,0.0402348078787326,109.57917785644533,6.144663333892822,57.60030364990234,29.21,2
-0.1990910917520523,-0.9136753082275392,0.0482114814221859,111.65019989013672,6.143405914306641,57.60019302368164,29.21,2
-0.2005362659692764,-0.9166129231452942,0.0533304512500762,117.37508392333984,6.142599105834961,57.60012435913086,29.21,2
-0.2070614695549011,-0.924095869064331,0.0510177388787269,117.57389068603516,6.142081260681152,57.60007858276367,29.21,2
-0.205651193857193,-0.9288979768753052,0.0439357981085777,102.5256805419922,6.141748905181885,57.60004806518555,29.21,2
-0.2047461718320846,-0.9319797158241272,0.0449887886643409,70.74978637695312,6.141535758972168,57.60002899169922,29.21,2
-0.209763154387474,-0.9283596277236938,0.0456645376980304,26.917051315307617,6.101462364196777,57.60001754760742,29.21,2
-0.2241783142089843,-0.9204387068748474,0.0460981950163841,-25.168960571289062,6.075745582580566,57.60000991821289,29.21,2
-0.2390269041061401,-0.9097577333450316,0.0519742667675018,-84.7654800415039,6.059241771697998,57.600006103515625,29.21,2
-0.2709469795227051,-0.942087709903717,0.0557451918721199,-151.89382934570312,6.048650741577148,57.60000228881836,29.21,2
-0.2802358865737915,-0.9852263331413268,0.0469696037471294,-221.5126495361328,6.041853904724121,57.60000228881836,29.21,2
-0.2638058662414551,-1.0688879489898682,0.0189468376338481,-280.4271545410156,6.037492275238037,57.60000228881836,29.21,2
-0.2532620429992676,-1.1673593521118164,0.0233545377850532,-316.2754211425781,6.034693241119385,57.60000228881836,29.21,2
-0.2744844853878021,-1.1801726818084717,0.0429764688014984,-328.01715087890625,6.032896995544434,57.60000228881836,29.21,2
-0.3048971593379974,-1.110026717185974,0.0219820495694875,-321.8704528808594,6.029448986053467,57.266822814941406,29.17,2
-0.3132187128067016,-1.109793186187744,-0.0306753795593976,-302.8324890136719,6.027235984802246,57.05300521850586,29.17,2
-0.3073634505271911,-1.1096433401107788,-0.0644678846001625,-275.6111755371094,6.025815963745117,56.91579055786133,29.17,2
-0.2812147736549377,-1.1263405084609983,-0.0749584212899208,-245.2914123535156,6.024904727935791,56.82773208618164,29.17,2
-0.2532385289669037,-1.1090669631958008,-0.0816906467080116,-212.2559814453125,6.024319648742676,56.77122116088867,29.17,2
-0.2520782947540283,-1.0420039892196655,-0.0748154520988464,-173.27899169921875,6.02394437789917,56.73495864868164,29.17,2
-0.2737248241901397,-0.9877713322639464,-0.0648055747151374,-129.4214630126953,6.023703575134277,56.71168518066406,29.17,2
-0.2932141125202179,-0.947370171546936,-0.0639795884490013,-88.0565185546875,6.02354907989502,56.69675064086914,29.17,2
-0.2945256531238556,-0.921442985534668,-0.0690472871065139,-56.66365432739258,6.04135274887085,56.68716812133789,29.17,2
-0.2841717898845672,-0.8992066383361816,-0.0722994431853294,-37.32718276977539,6.052778244018555,56.68101501464844,29.17,2
-0.249538391828537,-0.8849366307258606,-0.0687887221574783,-26.83124542236328,6.060110092163086,56.67706680297852,29.17,2
-0.2273126691579818,-0.8757789731025696,-0.0665357410907745,-20.435901641845703,6.064815521240234,56.67453384399414,29.17,2
-0.2186472564935684,-0.8587065935134888,-0.0650899037718772,-15.923324584960938,6.067835330963135,56.67290878295898,29.17,2
-0.2186840623617172,-0.8645438551902771,-0.0753576010465622,-15.37399959564209,6.069773197174072,56.67186737060547,29.17,2
-0.2131099104881286,-0.8850831985473633,-0.0819468200206756,-22.20453834533692,6.071016788482666,56.67119598388672,29.17,2
-0.2095327377319336,-0.8982641100883484,-0.0861753970384597,-33.25873947143555,6.07181453704834,56.67076873779297,29.17,2
-0.1904437988996505,-0.9291139841079712,-0.1000846028327941,-33.87539291381836,6.077375888824463,56.67049407958984,29.17,2
-0.1725958436727523,-0.9713027477264404,-0.1090107336640358,-8.200724601745605,6.080945014953613,56.67031478881836,29.17,2
-0.1723375916481018,-0.964790403842926,-0.0923479124903678,39.89561462402344,6.083235263824463,56.67020034790039,29.17,2
-0.1777696460485458,-0.9494156241416932,-0.0704591199755668,81.77033233642578,6.084704875946045,56.67012786865234,29.17,2
-0.1924511641263961,-0.956342339515686,-0.0452166087925434,87.28379821777344,6.085648059844971,56.67008209228516,29.17,2
-0.2018729150295257,-0.9775807857513428,-0.0290174167603254,52.40964889526367,6.086253643035889,56.67005157470703,29.17,2
-0.2191148102283477,-1.0024060010910034,-0.0018283838871866,1.2183518409729004,6.086642265319824,56.6700325012207,29.17,2
-0.2133863419294357,-0.9791529178619384,0.0324132964015007,-36.36227798461914,6.0868916511535645,56.670021057128906,29.17,2
-0.1985145956277847,-0.941839337348938,0.0599854104220867,-46.53239440917969,6.1063313484191895,56.670013427734375,29.17,2
-0.1833729892969131,-0.9122958779335022,0.0608862824738025,-36.202972412109375,6.118806838989258,56.67000961303711,29.17,2
-0.1736559718847274,-0.9101299047470092,0.0558666363358497,-22.0543155670166,6.126812934875488,56.67000579833984,29.17,2
-0.1842134743928909,-0.9255332350730896,0.0526453144848346,-16.016128540039062,6.131950855255127,56.67000198364258,29.17,2
-0.1965864449739456,-0.9466137290000916,0.0505780540406703,-18.11332321166992,6.135247707366943,56.67000198364258,29.17,2
-0.2045267075300216,-0.9601420164108276,0.0436536334455013,-20.58411026000977,6.137363433837891,56.67000198364258,29.17,2
-0.2264156341552734,-0.9688236713409424,0.0448077134788036,-17.40489387512207,6.138721466064453,56.67000198364258,29.17,2
-0.2572560012340545,-0.9743950366973876,0.0455483347177505,-8.858697891235352,6.13959264755249,56.67000198364258,29.17,2
-0.2826453447341919,-1.0059592723846436,0.0404258482158184,1.5625479221343994,6.13280725479126,56.78822708129883,29.19,2
-0.2933410108089447,-1.0430086851119995,0.037138532847166,11.080538749694824,6.128452777862549,56.86409759521485,29.19,2
-0.2890093028545379,-1.0555893182754517,0.0294311475008726,16.712154388427734,6.125658512115479,56.912784576416016,29.19,2
-0.2582406103610992,-1.1532273292541504,-0.0146994311362504,13.31510066986084,6.123865127563477,56.94403076171875,29.19,2
-0.2888749837875366,-1.176701307296753,0.0073600737378001,-0.6014502644538879,6.122714519500732,56.96408081054688,29.19,2
-0.3141321539878845,-1.1525810956954956,0.0047232718206942,-14.941980361938477,6.121975898742676,56.97694778442383,29.19,2
-0.3079496622085571,-1.1538954973220823,-0.0473488420248031,-15.851244926452637,6.121501922607422,56.98520660400391,29.19,2
-0.2927865386009216,-1.16033673286438,-0.0751679539680481,-3.6700422763824463,6.121197700500488,56.99050521850586,29.19,2
-0.2718601524829864,-1.1644704341888428,-0.0930206626653671,7.24608039855957,6.119166374206543,56.9939079284668,29.19,2
-0.2248441725969314,-1.0831565856933594,-0.098879724740982,7.562751293182373,6.117862701416016,56.996089935302734,29.19,2
-0.194672018289566,-1.0085829496383667,-0.0914441868662834,3.194606065750122,6.117026329040527,56.99748992919922,29.19,2
-0.1977003663778305,-0.9663236141204834,-0.0754769369959831,7.714166641235352,6.116489410400391,56.99839019775391,29.19,2
-0.2052415609359741,-0.9392040371894836,-0.07642562687397,29.623708724975582,6.116145133972168,56.998966217041016,29.19,2
-0.1988855153322219,-0.916202425956726,-0.0938277617096901,63.825225830078125,6.115923881530762,56.99933624267578,29.19,2
-0.1892087906599044,-0.8846480250358582,-0.099397674202919,93.96356201171876,6.115782260894775,56.99957275390625,29.19,2
-0.1829988360404968,-0.85880047082901,-0.0973743498325347,106.24694061279295,6.115691184997559,56.99972534179688,29.19,2
-0.1846114099025726,-0.8198218941688538,-0.0960758998990058,99.99644470214844,6.158324241638184,56.99982452392578,29.19,2
-0.1912440508604049,-0.7948076725006104,-0.0952426269650459,84.32036590576172,6.185683727264404,56.99988555908203,29.19,2
-0.2010982632637024,-0.8179394006729126,-0.1059034317731857,68.68587493896484,6.203241348266602,56.99992752075195,29.19,2
-0.2130199074745178,-0.8495773673057556,-0.1183426976203918,56.59257888793945,6.214509010314941,56.99995422363281,29.19,2
-0.215072751045227,-0.8474896550178528,-0.1151299551129341,45.3961067199707,6.221739768981934,56.99996948242188,29.19,2
-0.1995968371629715,-0.9077253937721252,-0.1074704229831695,31.604585647583008,6.226379871368408,56.99998092651367,29.19,2
-0.1952630579471588,-0.96317458152771,-0.0969572067260742,12.876819610595703,6.229357719421387,56.9999885559082,29.19,2
-0.1924818903207779,-0.9819653630256652,-0.0734171047806739,-15.782648086547852,6.231268882751465,56.99999237060547,29.19,2
-0.1906970888376236,-1.016415238380432,-0.0471148714423179,-56.68038558959961,6.257742881774902,56.999996185302734,29.19,2
-0.1839539259672165,-1.049718737602234,-0.0246378388255834,-96.75135040283205,6.2747321128845215,56.999996185302734,29.19,2
-0.1964198797941208,-1.043102145195007,0.0065799513831734,-113.01217651367188,6.285634994506836,56.999996185302734,29.19,2
-0.210017591714859,-1.0108671188354492,0.037809282541275,-94.6578598022461,6.29263162612915,56.999996185302734,29.19,2
-0.2075482755899429,-0.9453983902931212,0.0690460130572319,-50.979862213134766,6.297121524810791,56.999996185302734,29.19,2
-0.2003658264875412,-0.9145798683166504,0.0667008534073829,0.8957846760749817,6.3000030517578125,56.999996185302734,29.19,2
-0.1957565397024154,-0.9059978723526,0.0540003180503845,47.8756103515625,6.301852226257324,56.999996185302734,29.19,2
-0.1983963400125503,-0.922881543636322,0.0458498448133468,83.61337280273438,6.303039073944092,56.999996185302734,29.19,2
-0.2000904232263565,-0.9281187057495116,0.0406193397939205,107.98442840576172,6.32262134552002,58.43302917480469,29.21,2
-0.206775352358818,-0.9258818626403807,0.0372627042233943,125.32967376708984,6.335188388824463,59.352664947509766,29.21,2
-0.222260907292366,-0.9188485741615297,0.0463041551411151,138.9149169921875,6.343253135681152,59.94283676147461,29.21,2
-0.2601875066757202,-0.942323923110962,0.0521064400672912,145.6412353515625,6.348428249359131,60.32157516479492,29.21,2
-0.2845266163349151,-0.9909756779670716,0.044634461402893,140.87954711914062,6.351749420166016,60.56462478637695,29.21,2
-0.2945483028888702,-1.0221976041793823,0.0286438278853893,128.1006622314453,6.353880882263184,60.72060012817383,29.21,2
-0.2617952227592468,-1.087016224861145,-0.015204687602818,117.40643310546876,6.355248928070068,60.82069778442383,29.21,2
-0.2463739514350891,-1.1733952760696411,-0.0433441400527954,114.4986572265625,6.35612678527832,60.88493347167969,29.21,2
-0.3036507666110992,-1.2232306003570557,-0.0166202262043952,113.35987854003906,6.331442832946777,60.92615509033203,29.21,2
-0.3460054993629455,-1.2160276174545288,-0.0442525520920753,101.30097198486328,6.315601825714111,60.95261001586914,29.21,2
-0.3507952094078064,-1.1890140771865845,-0.0843764841556549,76.96776580810547,6.305436134338379,60.96958923339844,29.21,2
-0.309086799621582,-1.1716783046722412,-0.1157234907150268,57.07094192504883,6.298912525177002,60.98048400878906,29.21,2
-0.2767229676246643,-1.1773465871810913,-0.1246446445584297,53.67432403564453,6.2947258949279785,60.98747634887695,29.21,2
-0.2503559291362762,-1.1194086074829102,-0.1079786270856857,56.21998596191406,6.292038917541504,60.99196243286133,29.21,2
-0.222239539027214,-1.031847357749939,-0.0916855633258819,49.663875579833984,6.290314674377441,60.99484252929688,29.21,2
-0.2097938358783722,-0.9812533855438232,-0.0812296122312545,38.14450454711914,6.28920841217041,60.99668884277344,29.21,2
-0.201806902885437,-0.9543828368186952,-0.096910685300827,40.49306106567383,6.29584264755249,60.99787521362305,29.21,2
-0.1686924695968628,-0.9259433150291444,-0.1181694418191909,69.03434753417969,6.300100326538086,60.99863815307617,29.21,2
-0.1418437659740448,-0.8964969515800476,-0.1262143105268478,113.65377044677734,6.30283260345459,60.99912643432617,29.21,2
-0.1414071321487426,-0.8496111035346985,-0.1201815009117126,145.4083709716797,6.304585933685303,60.99943923950195,29.21,2
-0.1579202562570572,-0.797131359577179,-0.1107122153043747,141.08836364746094,6.305711269378662,60.99964141845703,29.21,2
-0.1909085214138031,-0.7522573471069336,-0.0934398248791694,103.5901336669922,6.306433200836182,60.99977111816406,29.21,2
-0.2232740372419357,-0.7962308526039124,-0.0991487205028534,56.16753387451172,6.306896686553955,60.99985122680664,29.21,2
-0.2552399039268493,-0.8244504928588867,-0.0972145870327949,18.12862777709961,6.307194232940674,60.99990463256836,29.21,2
-0.2533626556396484,-0.8481580018997192,-0.0735822767019271,-13.981507301330566,6.300958633422852,60.99993896484375,29.21,2
-0.235364630818367,-0.8969587683677673,-0.0696119666099548,-60.98077774047852,6.296957015991211,60.999961853027344,29.21,2
-0.2014234364032745,-0.9674606919288636,-0.0726618245244026,-139.70401000976562,6.294389247894287,60.999977111816406,29.21,2
-0.1852397173643112,-1.012704849243164,-0.0522279515862464,-249.5658264160156,6.292741298675537,60.99998474121094,29.21,2
-0.1860494762659073,-1.0473376512527466,-0.022321343421936,-368.9351501464844,6.291683673858643,60.9999885559082,29.21,2
-0.2033624649047851,-1.0639652013778689,0.002468769904226,-459.7981567382813,6.29100513458252,60.99999237060547,29.21,2
-0.2200707197189331,-1.052244782447815,0.0183776374906301,-491.7195739746094,6.290569305419922,60.999996185302734,29.21,2
-0.2307931035757064,-1.005538821220398,0.0397825799882411,-465.2588195800781,6.290289878845215,60.999996185302734,29.21,2
-0.2096852511167526,-0.9419789910316468,0.0423234924674034,-401.2529602050781,6.290569305419922,62.23240280151367,29.19,2
-0.1905416697263717,-0.9123854637145996,0.0327585563063621,-316.14422607421875,6.290748596191406,63.02329254150391,29.19,2
-0.1726586520671844,-0.9157851338386536,0.0210225563496351,-219.66754150390625,6.290863513946533,63.53083801269531,29.19,2
-0.1723778992891311,-0.9347602128982544,0.0190888401120901,-121.69573211669922,6.290937423706055,63.85655212402344,29.19,2
-0.2001866102218628,-0.9469373226165771,0.0346412174403667,-26.4007511138916,6.290985107421875,64.0655746459961,29.19,2
-0.2292281836271286,-0.9267629981040956,0.0446218363940715,71.02765655517578,6.291015625,64.19971466064453,29.19,2
-0.2534631788730621,-0.9138162732124328,0.0454290509223938,171.00384521484375,6.291035175323486,64.28579711914062,29.19,2
-0.2746135592460632,-0.9446922540664672,0.0347515232861042,259.6533203125,6.2910475730896,64.3410415649414,29.19,2
-0.2881866693496704,-0.99809330701828,0.0278993025422096,321.5375366210937,6.274988651275635,64.37649536132812,29.19,2
-0.2801037728786468,-1.071547508239746,0.0179041661322116,355.64453125,6.264683246612549,64.39924621582031,29.19,2
-0.2581233084201813,-1.1074905395507812,-0.0053034587763249,371.4026489257813,6.258069515228272,64.41384887695312,29.19,2
-0.2440175265073776,-1.1865345239639282,-0.031392328441143,373.6372375488281,6.2538251876831055,64.4232177734375,29.19,2
-0.296540766954422,-1.2036737203598022,-0.0145480148494243,355.9546203613281,6.251101493835449,64.42922973632812,29.19,2
-0.330247163772583,-1.2146726846694946,-0.0373249500989913,312.36376953125,6.249353885650635,64.43309020996094,29.19,2
-0.3070957958698272,-1.2105356454849243,-0.091126300394535,255.39230346679688,6.248232364654541,64.4355697631836,29.19,2
-0.264249712228775,-1.2022829055786133,-0.1256529092788696,209.30880737304688,6.247512340545654,64.4371566772461,29.19,2
-0.2199602276086807,-1.1522046327590942,-0.1310167759656906,179.9500274658203,6.2401652336120605,64.43817901611328,29.19,2
-0.1915377825498581,-1.047296166419983,-0.1176656708121299,146.6499786376953,6.235450267791748,64.43883514404297,29.19,2
-0.1788956671953201,-0.957580864429474,-0.1034999266266822,92.61758422851562,6.232424259185791,64.43925476074219,29.19,2
-0.181978240609169,-0.9000067710876465,-0.1000069379806518,32.277130126953125,6.230482578277588,64.43952178955078,29.19,2
-0.1839564591646194,-0.8630590438842773,-0.1033631190657615,-1.208176851272583,6.229236602783203,64.439697265625,29.19,2
-0.1740304082632064,-0.8393481373786926,-0.1167124733328819,3.57749080657959,6.2284369468688965,64.43980407714844,29.19,2
-0.1620626747608184,-0.8129362463951111,-0.1252793222665786,15.90603256225586,6.227923393249512,64.43987274169922,29.19,2
-0.1543824672698974,-0.7959866523742676,-0.1307770311832428,-5.935510158538818,6.227593898773193,64.4399185180664,29.19,2
-0.1662470698356628,-0.7683160305023193,-0.1231095939874649,-69.54574584960938,6.22508716583252,64.43994903564453,29.19,2
-0.1794588714838028,-0.750558614730835,-0.1125912964344024,-145.56593322753906,6.223478317260742,64.43997192382812,29.19,2
-0.1935352087020874,-0.8063362240791321,-0.1114390343427658,-196.8627014160156,6.222445964813232,64.43997955322266,29.19,2
-0.1969708204269409,-0.8645221590995789,-0.1106995791196823,-206.21583557128903,6.221783638000488,64.43998718261719,29.19,2
-0.187980055809021,-0.9186558723449708,-0.110225036740303,-193.08718872070312,6.221358299255371,64.43999481201172,29.19,2
-0.1766125261783599,-1.0373624563217163,-0.126713827252388,-198.61251831054688,6.221085548400879,64.43999481201172,29.19,2
-0.2029041498899459,-1.04636812210083,-0.0645243152976036,-237.665267944336,6.220910549163818,64.43999481201172,29.19,2
-0.2701565623283386,-1.007365345954895,0.0089719807729125,-283.81768798828125,6.220798015594482,64.43999481201172,29.19,2
-0.2909241914749145,-0.9767377972602844,0.0505398958921432,-309.67755126953125,6.199609756469727,65.39295959472656,29.21,2
-0.2594694793224334,-0.9850716590881348,0.0492269210517406,-310.061767578125,6.186012268066406,66.0045166015625,29.21,2
-0.1665125787258148,-1.0967775583267212,-0.0019956433679908,-284.0516357421875,6.177286624908447,66.39698028564453,29.21,2
-0.1068581864237785,-1.0956928730010986,-0.0124762374907732,-230.38406372070312,6.17168664932251,66.64884185791016,29.21,2
-0.0909665301442146,-1.0446168184280396,-0.002408756641671,-157.8390350341797,6.168093204498291,66.81047058105469,29.21,2
-0.1087570488452911,-0.9670569896697998,0.0208452958613634,-74.9708251953125,6.165787220001221,66.91419982910156,29.21,2
-0.1369673013687133,-0.9284790754318236,0.0413661822676658,20.992345809936523,6.164307117462158,66.98076629638672,29.21,2
-0.1998532116413116,-0.9149175882339478,0.0489375330507755,129.4647216796875,6.163357257843018,67.02348327636719,29.21,2
-0.2402097731828689,-0.8950190544128418,0.0370030663907527,231.6703338623047,6.158156871795654,67.05089569091797,29.21,2
-0.2549127340316772,-0.8766515254974365,0.0237464383244514,301.5985107421875,6.154819488525391,67.06848907470703,29.21,2
-0.2419571578502655,-0.8424732089042664,0.0208368711173534,329.6792907714844,6.1526780128479,67.07978057861328,29.21,2
-0.222447469830513,-0.8093439936637878,0.0245674531906843,330.7579040527344,6.151303768157959,67.08702087402344,29.21,2
-0.2099272757768631,-0.7824857831001282,0.026961525902152,327.9749755859375,6.150421619415283,67.09166717529297,29.21,2
-0.2130880802869796,-0.8268252611160278,0.0173023547977209,332.7416076660156,6.149855613708496,67.09465026855469,29.21,2
-0.226312056183815,-0.8832686543464661,0.0055058803409338,342.03424072265625,6.149492263793945,67.09656524658203,29.21,2
-0.2236028909683227,-0.986664056777954,-0.0300532896071672,347.8651428222656,6.149259090423584,67.09779357910156,29.21,2
-0.2218643128871917,-1.053017258644104,-0.0640686675906181,341.80517578125,6.1752753257751465,67.09858703613281,29.21,2
-0.231944128870964,-1.0788055658340454,-0.0858977809548378,319.7597351074219,6.191971302032471,67.09909057617188,29.21,2
-0.2272172272205352,-1.0225839614868164,-0.1166997700929641,292.4032897949219,6.202685832977295,67.09941864013672,29.21,2
-0.2129882276058197,-0.9585153460502625,-0.142064481973648,275.76104736328125,6.209561824798584,67.09962463378906,29.21,2
-0.2038568705320358,-0.9285953640937804,-0.1639398783445358,262.1038818359375,6.2139739990234375,67.09976196289062,29.21,2
-0.1923991292715072,-0.9093944430351256,-0.1835760176181793,222.2499237060547,6.216805458068848,67.09984588623047,29.21,2
-0.1682528853416443,-0.8298990726470947,-0.1961773633956909,149.11883544921875,6.21862268447876,67.09989929199219,29.21,2
-0.1415616571903228,-0.7564924359321594,-0.2042641788721084,77.59671020507812,6.219789028167725,67.09993743896484,29.21,2
-0.1300305426120758,-0.7429709434509277,-0.2094538360834121,46.35783004760742,6.2499165534973145,67.09996032714844,29.21,2
-0.1282283067703247,-0.7398914098739624,-0.2183820307254791,53.62406921386719,6.269250869750977,67.0999755859375,29.21,2
-0.1326695084571838,-0.7547084093093872,-0.2241116315126419,63.77563095092773,6.28165864944458,67.09998321533203,29.21,2
-0.1411173939704895,-0.7754126787185669,-0.2333863377571106,47.856231689453125,6.289620876312256,67.09999084472656,29.21,2
-0.1689298599958419,-0.7886995077133179,-0.2281427532434463,0.4171162545681,6.2947306632995605,67.09999084472656,29.21,2
-0.1923760771751403,-0.7916284203529358,-0.2135821729898452,-75.08821105957031,6.298009872436523,67.09999084472656,29.21,2
-0.2074225097894668,-0.8103013634681702,-0.1874447166919708,-167.18971252441406,6.300114154815674,67.09999084472656,29.21,2
-0.2226762175559997,-0.7831001877784729,-0.1482800990343094,-248.94061279296875,6.301464557647705,67.09999084472656,29.21,2
-0.2548562586307525,-0.8160240054130554,-0.1343420594930648,-302.1308898925781,6.322529315948486,67.90965270996094,29.21,2
-0.2755075693130493,-0.8315548300743103,-0.1197996437549591,-339.33563232421875,6.336047172546387,68.42925262451172,29.21,2
-0.2831626236438751,-0.8471193909645081,-0.1272604912519455,-381.62591552734375,6.344722270965576,68.76270294189453,29.21,2
-0.3272596001625061,-0.8794988989830017,-0.1152551025152206,-434.48828125,6.350289344787598,68.97669219970703,29.21,2
-0.377949595451355,-0.9226693511009216,-0.0739640891551971,-491.5664978027344,6.353862285614014,69.114013671875,29.21,2
-0.3768928945064544,-0.9895580410957336,-0.0754547640681266,-535.5975952148438,6.356154918670654,69.20214080810547,29.21,2
-0.3426280915737152,-1.0492767095565796,-0.0876069441437721,-539.1165161132812,6.357626438140869,69.25869750976562,29.21,2
-0.3374322354793548,-1.1099917888641355,-0.0394277721643447,-487.8690185546875,6.358570575714111,69.29499053955078,29.21,2
-0.3340978622436523,-1.143357515335083,0.0138819459825754,-395.073486328125,6.265071868896484,69.31828308105469,29.21,2
-0.3039691746234894,-1.1647696495056152,0.0424952805042266,-283.0271911621094,6.205070018768311,69.3332290649414,29.21,2
-0.3406120538711548,-1.2232929468154907,0.0272710248827934,-165.6021270751953,6.166563987731934,69.34281921386719,29.21,2
-0.3585295677185058,-1.2496542930603027,0.0230987481772899,-48.83089065551758,6.141853332519531,69.3489761352539,29.21,2
-0.3924190998077392,-1.2609736919403076,0.0148234469816088,66.91169738769531,6.12599515914917,69.3529281616211,29.21,2
-0.386178582906723,-1.2514444589614868,0.0598928034305572,183.42002868652344,6.115818500518799,69.35546112060547,29.21,2
-0.3709782361984253,-1.222938060760498,0.10560904443264,290.6536560058594,6.109287738800049,69.35708618164062,29.21,2
-0.3668212890625,-1.1822532415390017,0.1013604551553726,364.9907836914063,6.105096817016602,69.3581314086914,29.21,2
-0.330566942691803,-1.167339563369751,0.0650473088026046,398.2905578613281,6.009220600128174,69.35880279541016,29.21,2
-0.3073010146617889,-1.1801599264144895,0.0249502956867218,415.0353088378906,5.94769287109375,69.3592300415039,29.21,2
-0.2867724895477295,-1.193985104560852,0.0104138888418674,441.1002197265625,5.908207893371582,69.35950469970703,29.21,2
-0.2791962325572967,-1.2028573751449585,0.0010852600680664,471.94970703125,5.882868766784668,69.35968017578125,29.21,2
-0.2687364518642425,-1.202953219413757,-0.0049013174138963,486.7279357910156,5.866607666015625,69.35979461669922,29.21,2
-0.2620239853858948,-1.186221480369568,-0.0031453834380954,473.1829528808594,5.85617208480835,69.35987091064453,29.21,2
-0.2577162981033325,-1.13629949092865,-0.0076163001358509,430.26263427734375,5.849475383758545,69.35991668701172,29.21,2
-0.2605496644973755,-1.009100317955017,-0.0048877028748393,364.8474426269531,5.84517765045166,69.35994720458984,29.21,2
-0.2623679339885711,-0.8714934587478638,-0.0087344208732247,288.78668212890625,5.919232368469238,69.35997009277344,29.21,2
-0.2803281247615814,-0.788783073425293,-0.0503874458372592,209.2797698974609,5.966756343841553,69.35997772216797,29.21,2
-0.2806583940982818,-0.7636932134628296,-0.0883135050535202,123.24071502685548,5.997254848480225,69.3599853515625,29.21,2
-0.2752725780010223,-0.7363964319229126,-0.0902611687779426,28.191139221191406,6.01682710647583,69.35999298095703,29.21,2
-0.2606207132339477,-0.6517056226730347,-0.0467288754880428,-60.85776519775391,6.029387474060059,69.35999298095703,29.21,2
-0.2456202208995819,-0.5749648213386536,-0.013194577768445,-110.17271423339844,6.037447929382324,69.35999298095703,29.21,2
-0.2247982174158096,-0.6544657945632935,-0.1036296784877777,-97.30313110351562,6.042620658874512,69.35999298095703,29.21,2
-0.3177935779094696,-1.136513590812683,-0.18405681848526,-43.36275100708008,6.045939922332764,69.35999298095703,29.21,2
-0.3830704092979431,-1.36749529838562,-0.2188770174980163,2.480873107910156,6.152273654937744,70.12666320800781,29.19,2
-0.3186036050319671,-1.3757816553115845,-0.3419825434684753,9.391348838806152,6.220512390136719,70.6186752319336,29.19,2
-0.2044614553451538,-1.3027305603027344,-0.3146268725395202,-23.95932960510254,6.264304161071777,70.93441772460938,29.19,2
-0.1871893405914306,-1.3286216259002686,-0.2858760356903076,-92.91698455810548,6.292407512664795,71.13703918457031,29.19,2
-0.2376805990934372,-1.3452370166778564,-0.3010120391845703,-185.090576171875,6.3104424476623535,71.26707458496094,29.19,2
-0.3148651719093323,-1.2215532064437866,-0.310725450515747,-266.2249450683594,6.32201623916626,71.35052490234375,29.19,2
-0.2692356407642364,-0.9798446297645568,-0.2106012552976608,-303.9512634277344,6.329443454742432,71.4040756225586,29.19,2
-0.1783777177333831,-0.8023388981819153,-0.1015651077032089,-303.73944091796875,6.33420991897583,71.43843841552734,29.19,2
-0.069690354168415,-0.6996214985847473,0.0131902070716023,-298.3442687988281,6.408880233764648,71.46049499511719,29.19,2
-0.039125483483076,-0.6672900319099426,0.0476491339504718,-298.7583312988281,6.456799030303955,71.47464752197266,29.19,2
-0.0978795513510704,-0.6465415358543396,-0.1373547613620758,-291.1602783203125,6.487550735473633,71.48372650146484,29.19,2
-0.1691711694002151,-1.058657169342041,-0.3176551461219787,-271.8930969238281,6.5072855949401855,71.48955535888672,29.19,2
-0.2429109066724777,-1.3007382154464722,-0.3717860281467438,-249.5259704589844,6.519949913024902,71.49329376220703,29.19,2
-0.2454506307840347,-1.237778663635254,-0.2945686280727386,-224.96885681152344,6.528077125549316,71.49569702148438,29.19,2
-0.2190916091203689,-1.1134082078933716,-0.2170260548591613,-188.54879760742188,6.533292770385742,71.49723815917969,29.19,2
-0.2357625514268875,-1.0000077486038208,-0.1784592568874359,-133.80389404296875,6.536640167236328,71.49822998046875,29.19,2
-0.2688520848751068,-0.8936472535133362,-0.164904847741127,-65.55801391601562,6.506961822509766,71.49886322021484,29.19,2
-0.2900870442390442,-0.8085978627204895,-0.156206414103508,13.519465446472168,6.487915992736816,71.499267578125,29.19,2
-0.3428988456726074,-0.7652136087417603,-0.1898086816072464,92.16793823242188,6.475693225860596,71.49952697753906,29.19,2
-0.393583744764328,-0.7709587812423706,-0.2169704437255859,142.7474822998047,6.467849254608154,71.49969482421875,29.19,2
-0.3197526931762695,-0.9201878309249878,-0.2455968558788299,159.18524169921875,6.462815761566162,71.49980163574219,29.19,2
-0.4179143011569977,-1.217474341392517,-0.202392116189003,158.5277557373047,6.459585189819336,71.49987030029297,29.19,2
-0.531288743019104,-1.4306467771530151,-0.230643555521965,141.70120239257812,6.457512378692627,71.49991607666016,29.19,2
-0.5312748551368713,-1.3939175605773926,-0.2879581153392792,94.93383026123048,6.45618200302124,71.49994659423828,29.19,2
-0.4920815229415893,-1.2807824611663818,-0.2967504262924194,29.04888916015625,6.4704766273498535,71.49996948242188,29.19,2
-0.4669294953346252,-1.1410056352615356,-0.2352195382118225,-30.9910945892334,6.479650020599365,71.4999771118164,29.19,2
-0.5179616808891296,-1.0065226554870603,-0.1901347786188125,-81.66981506347656,6.485537052154541,71.49998474121094,29.19,2
-0.5563089847564697,-0.9146214723587036,-0.1556041985750198,-130.61502075195312,6.489315032958984,71.49999237060547,29.19,2
-0.5417336225509644,-0.8332535028457642,-0.133444458246231,-163.74130249023438,6.491739749908447,71.49999237060547,29.19,2
-0.4708044826984405,-0.7474495768547058,-0.0856369733810424,-156.20668029785156,6.493295669555664,71.49999237060547,29.19,2
-0.4364818036556244,-0.681190013885498,-0.0437613315880298,-106.9868621826172,6.494294166564941,71.49999237060547,29.19,2
-0.4760310053825378,-0.6610594987869263,-0.0448768250644207,-36.98445892333984,6.494935035705566,71.49999237060547,29.19,2
-0.5070091485977173,-0.6257498264312744,-0.0287993624806404,33.554473876953125,6.537119388580322,72.00872039794922,29.21,2
-0.5044980645179749,-0.6142856478691101,0.0039093242958188,98.39390563964844,6.564190864562988,72.33518981933594,29.21,2
-0.4860932826995849,-0.5957330465316772,0.0360954254865646,159.62588500976562,6.581563949584961,72.5447006225586,29.21,2
-0.6030309796333313,-0.5390448570251465,0.067946158349514,220.79266357421875,6.592712879180908,72.67915344238281,29.21,2
-0.7452481389045715,-0.4802745580673218,-0.0403626859188079,273.2012023925781,6.599867820739746,72.76543426513672,29.21,2
-0.9260793328285216,-0.4369613826274872,-0.1434557139873504,293.16290283203125,6.604459285736084,72.82080841064453,29.21,2
-0.9973441958427428,-0.3643832802772522,-0.1312460452318191,263.8348999023437,6.607405662536621,72.8563461303711,29.21,2
-0.9703068137168884,-0.3178068399429321,-0.0898239314556121,192.7011108398437,6.609296798706055,72.879150390625,29.21,2
-0.9249668717384338,-0.2823189795017242,-0.0912304744124412,99.64331817626952,6.599034309387207,72.89378356933594,29.21,2
-0.9014680981636048,-0.2203604876995086,-0.0641442388296127,1.8808012008666992,6.5924482345581055,72.9031753540039,29.21,2
-0.8304101824760437,-0.1470124572515487,-0.0243707578629255,-88.47562408447266,6.588221549987793,72.9092025756836,29.21,2
-0.7960048317909241,-0.1279307752847671,0.0347402207553386,-168.63015747070312,6.585509300231934,72.91307067871094,29.21,2
-0.8131098747253418,-0.1492719054222107,0.1622386425733566,-238.7984161376953,6.583768844604492,72.9155502319336,29.21,2
-0.790500283241272,-0.1517718583345413,0.2440597862005233,-283.9179382324219,6.582651615142822,72.91714477539062,29.21,2
-0.8431640267372131,-0.2205494791269302,0.2741767764091491,-274.9873046875,6.581934928894043,72.91816711425781,29.21,2
-0.8489717245101929,-0.2646870017051697,0.3550796508789062,-197.8410797119141,6.581474781036377,72.9188232421875,29.21,2
-0.7911232709884644,-0.2930119335651397,0.4573784172534942,-77.59154510498047,6.5394062995910645,72.91924285888672,29.21,2
-0.7595972418785095,-0.3279825448989868,0.4894412457942962,26.966472625732425,6.512409210205078,72.91950988769531,29.21,2
-0.7113767862319946,-0.3616202175617218,0.5659950375556946,59.67665100097656,6.495084285736084,72.91968536376953,29.21,2
-0.6692361235618591,-0.3384247422218323,0.6375139951705933,11.230679512023926,6.483965873718262,72.9197998046875,29.21,2
-0.6421926617622375,-0.3179414570331573,0.6554218530654907,-70.79621124267578,6.476830959320068,72.91986846923828,29.21,2
-0.5800555348396301,-0.2991986870765686,0.6669141054153442,-122.49771118164062,6.472251892089844,72.91991424560547,29.21,2
-0.5121906399726868,-0.2871706485748291,0.6966802477836609,-118.37857055664062,6.469313621520996,72.9199447631836,29.21,2
-0.5078232288360596,-0.3130384087562561,0.7157824635505676,-85.96035766601562,6.467427730560303,72.91996765136719,29.21,2
-0.4826293885707855,-0.340834379196167,0.6944544911384583,-65.0379867553711,6.40241003036499,72.91997528076172,29.21,2
-0.4552659094333648,-0.392258882522583,0.7311474084854126,-62.18339538574219,6.360685348510742,72.91998291015625,29.21,2
-0.4600966870784759,-0.3412935733795166,0.7714881300926208,-58.975772857666016,6.333909034729004,72.91999053955078,29.21,2
-0.4408057034015655,-0.3141847252845764,0.7861809134483337,-51.32132339477539,6.316725730895996,72.91999053955078,29.21,2
-0.4452191889286041,-0.3247767090797424,0.7676210403442383,-59.37089538574219,6.305698394775391,72.91999053955078,29.21,2
-0.4480515122413635,-0.3091829419136047,0.8060903549194336,-100.76007080078124,6.298621654510498,72.91999053955078,29.21,2
-0.438673585653305,-0.2879801988601684,0.8419733047485352,-164.93113708496094,6.294080257415772,72.91999053955078,29.21,2
-0.3934709429740906,-0.3751334547996521,0.8146209716796875,-217.32232666015625,6.291165828704834,72.91999053955078,29.21,2
-0.3924513757228851,-0.341499000787735,0.8138611316680908,-227.8900909423828,6.337954044342041,73.05255126953125,29.19,2
-0.3470148742198944,-0.2975232303142547,0.8189712762832642,-191.2761383056641,6.367980003356934,73.13761901855469,29.19,2
-0.3458452224731445,-0.2972910106182098,0.8278484344482422,-120.2278823852539,6.387248992919922,73.19220733642578,29.19,2
-0.3059101700782776,-0.2579575479030609,0.8503386378288269,-31.452417373657227,6.399614810943604,73.22724151611328,29.19,2
-0.3250643610954284,-0.2607044577598572,0.8871626257896423,62.26862716674805,6.40755033493042,73.24972534179688,29.19,2
-0.3429541885852813,-0.2400761842727661,0.9107941389083862,161.38465881347656,6.412642955780029,73.26415252685547,29.19,2
-0.3320437371730804,-0.2212403714656829,0.9371550679206848,274.0227355957031,6.4159111976623535,73.2734146118164,29.19,2
-0.3250420391559601,-0.2427392750978469,0.942876398563385,387.1451721191406,6.418008804321289,73.27935791015625,29.19,2
