acc_x,acc_y,acc_z,bvp,eda,hr,temp,label
0.0,0.0,0.0,0.0,0.0,0.0,22.81,2
-0.0234374981373548,-0.0546874962747097,0.1562499850988388,-0.1016666665673255,0.280470460653305,9.528332710266112,22.81,2
-0.0632621943950653,-0.123856708407402,0.3658536672592163,-0.1924390345811844,0.6567113995552063,22.310243606567383,22.81,2
-0.1078696027398109,-0.1740552335977554,0.5531561374664307,-0.4244850575923919,0.9839762449264526,33.428306579589844,22.81,2
-0.161765918135643,-0.2320305705070495,0.7111561894416809,-1.1199082136154177,1.2227336168289185,41.53953170776367,22.81,2
-0.1543382257223129,-0.2822617590427398,0.7906802892684937,-2.068564176559448,1.3843823671340942,47.03117370605469,22.81,2
-0.1661238223314285,-0.2930083274841308,0.8262003064155579,-2.840285539627075,1.490447163581848,50.63447952270508,22.81,2
-0.1793361008167266,-0.2999683618545532,0.8492048978805542,-3.632895231246948,1.5591402053833008,52.96816635131836,22.81,2
-0.1878470778465271,-0.3324026763439178,0.8584336638450623,-4.959190368652344,1.585970163345337,54.47146224975586,22.81,2
-0.1877228021621704,-0.3252763748168945,0.8699600100517273,-6.857183456420898,1.6032148599624634,55.43769073486328,22.81,2
-0.1876430064439773,-0.3207001984119415,0.882958173751831,-9.096786499023438,1.614288568496704,56.05815887451172,22.81,2
-0.1931890249252319,-0.3345544338226318,0.8857046365737915,-11.809690475463867,1.6213970184326172,56.45644760131836,22.81,2
-0.191150963306427,-0.3434462547302246,0.8874673247337341,-15.402984619140623,1.6259592771530151,56.71207427978516,22.81,2
-0.1954406797885894,-0.3491527438163757,0.8941962718963623,-20.01619911193848,1.628887176513672,56.87612533569336,22.81,2
-0.1981936246156692,-0.3528149127960205,0.9041123390197754,-25.23375701904297,1.6307661533355713,56.981407165527344,22.81,2
-0.1943625658750534,-0.3607628643512726,0.9048781991004944,-30.470121383666992,1.6319719552993774,57.04896926879883,22.81,2
-0.1919040083885193,-0.3658634126186371,0.8997718691825867,-35.861846923828125,1.6455990076065063,57.09232711791992,22.81,2
-0.1959240138530731,-0.3691366612911224,0.8964949250221252,-42.34922790527344,1.654344081878662,57.12015151977539,22.81,2
-0.2041015923023224,-0.3600417077541351,0.8887941837310791,-50.18817901611328,1.6599562168121338,57.13800811767578,22.81,2
-0.19815394282341,-0.3542050719261169,0.8894500732421875,-58.09557723999024,1.6635576486587524,57.14946746826172,22.81,2
-0.2111304104328155,-0.3504594564437866,0.8786754608154297,-65.21573638916016,1.665868878364563,57.15682220458984,22.81,2
-0.2250557392835617,-0.3592512905597687,0.8661631345748901,-72.96995544433594,1.6673520803451538,57.16154098510742,22.81,2
-0.2283944338560104,-0.3592956066131592,0.8525356650352478,-83.1910629272461,1.6683039665222168,57.16456985473633,22.81,2
-0.236134797334671,-0.3537262678146362,0.8325948119163513,-95.10274505615234,1.668914794921875,57.1665153503418,22.81,2
-0.2411021143198013,-0.3557499647140503,0.819797933101654,-105.63811492919922,1.6794060468673706,57.167762756347656,22.81,2
-0.2386920750141143,-0.3626464307308197,0.8115856051445007,-112.84335327148438,1.6861387491226196,57.16856384277344,22.81,2
-0.2371454536914825,-0.367072194814682,0.7951198816299438,-118.41305541992188,1.6904594898223877,57.1690788269043,22.81,2
-0.2361529171466827,-0.3755101561546325,0.778955340385437,-126.39035034179688,1.6932322978973389,57.16940689086914,22.81,2
-0.2411137372255325,-0.4033162593841553,0.7405930161476135,-137.105712890625,1.6950116157531738,57.169620513916016,22.81,2
-0.2498950809240341,-0.4379539489746094,0.6711920499801636,-141.82191467285156,1.6961535215377808,57.16975402832031,22.81,2
-0.2667259871959686,-0.4545846283435821,0.6098611950874329,-126.97145080566406,1.6968863010406494,57.16984176635742,22.81,2
-0.2943204343318939,-0.4708550274372101,0.5593070387840271,-85.9791030883789,1.6973565816879272,57.169898986816406,22.81,2
-0.3120289444923401,-0.4868942201137543,0.5324620604515076,-25.46613883972168,1.699494481086731,56.95497894287109,22.81,2
-0.2954043745994568,-0.5475671887397766,0.5208323001861572,41.06807327270508,1.700866460800171,56.81705856323242,22.81,2
-0.2511490285396576,-0.6200902462005615,0.5245645046234131,102.83953857421876,1.7017468214035034,56.728546142578125,22.81,2
-0.2171507328748703,-0.683424711227417,0.5269596576690674,154.29266357421875,1.702311873435974,56.67174530029297,22.81,2
-0.1897348165512085,-0.7800468802452087,0.5340944528579712,193.6498870849609,1.7026745080947876,56.63529586791992,22.81,2
-0.1665430814027786,-0.8700423240661621,0.5386731624603271,222.7082061767578,1.7029072046279907,56.61190414428711,22.81,2
-0.1460621803998947,-0.9445894956588744,0.5360137820243835,244.8885803222656,1.7030564546585083,56.59689331054688,22.81,2
-0.1385165005922317,-1.0036251544952393,0.5343071222305298,261.57672119140625,1.7031522989273071,56.58725738525391,22.81,2
-0.1280763447284698,-1.0471086502075195,0.5276141166687012,273.1209411621094,1.7068862915039062,56.58107376098633,22.81,2
-0.1437675505876541,-1.0638182163238523,0.5233189463615417,282.5499572753906,1.7092825174331665,56.57710647583008,22.81,2
-0.1706305742263794,-1.074541449546814,0.5261602997779846,293.40875244140625,1.7108203172683716,56.57456207275391,22.81,2
-0.1878697276115417,-1.0870208740234375,0.539179265499115,303.79150390625,1.7118072509765625,56.57292938232422,22.81,2
-0.2045305967330932,-1.0726382732391355,0.5419363379478455,305.27056884765625,1.7124406099319458,56.57188034057617,22.81,2
-0.2264181226491928,-1.057810664176941,0.5437056422233582,288.78692626953125,1.7128469944000244,56.57120513916016,22.81,2
-0.2404642850160598,-1.0315017700195312,0.5504388809204102,251.4683380126953,1.7131078243255615,56.57077407836914,22.81,2
-0.2438805252313614,-1.009020447731018,0.5491620898246765,196.7128448486328,1.7132751941680908,56.57049560546875,22.81,2
-0.2292795479297638,-0.9889954924583436,0.5427449345588684,127.81890106201172,1.718431830406189,56.57031631469727,22.85,2
-0.2311050295829773,-0.9593513011932372,0.5162357091903687,46.69903564453125,1.7217410802841189,56.5702018737793,22.85,2
-0.237874299287796,-0.9347295761108398,0.4936258196830749,-37.91747283935547,1.7238647937774658,56.57012939453125,22.85,2
-0.2422184199094772,-0.924526572227478,0.4623227715492248,-108.57393646240234,1.7252277135849,56.57008361816406,22.85,2
-0.2450062334537506,-0.9291744232177734,0.4366365075111389,-152.63462829589844,1.726102352142334,56.57005310058594,22.85,2
-0.2411975115537643,-0.9433526992797852,0.4201525449752807,-172.2977294921875,1.726663589477539,56.57003402709961,22.85,2
-0.227557748556137,-0.9748425483703612,0.4039762914180755,-176.6155548095703,1.7270238399505615,56.57002258300781,22.85,2
-0.2132067531347274,-0.9950509667396544,0.3935953080654144,-171.18954467773438,1.7272549867630005,56.57001495361328,22.85,2
-0.1816060096025467,-0.9912261962890624,0.3869333863258362,-159.62515258789062,1.728321552276611,56.570011138916016,22.85,2
-0.1445331573486328,-0.9775761365890504,0.3714626133441925,-146.27821350097656,1.7290059328079224,56.57000732421875,22.85,2
-0.1151441559195518,-0.9576207995414734,0.355936586856842,-132.94808959960938,1.729445219039917,56.57000350952149,22.85,2
-0.1018817648291587,-0.9224234819412231,0.345972865819931,-118.4035186767578,1.729727029800415,56.57000350952149,22.85,2
-0.0877729505300521,-0.8886403441429138,0.3339809477329254,-102.77506256103516,1.7299079895019531,56.57000350952149,22.85,2
-0.084316499531269,-0.8557646870613098,0.320687472820282,-88.53250885009766,1.7300240993499756,56.57000350952149,22.85,2
-0.0765005722641944,-0.8290692567825317,0.3065586984157562,-76.84524536132812,1.7300986051559448,56.57000350952149,22.85,2
-0.0714847594499588,-0.7951443195343018,0.2974916696548462,-66.26402282714844,1.730146408081055,56.57000350952149,22.85,2
-0.0570703521370887,-0.7677754759788513,0.3252596259117126,-55.42170715332031,1.7315542697906494,56.36579513549805,22.85,2
-0.070211112499237,-0.7502117156982422,0.3430794775485992,-45.04237365722656,1.7324577569961548,56.234745025634766,22.85,2
-0.1010351926088333,-0.7501358389854431,0.3489174842834472,-36.62247085571289,1.7330374717712402,56.1506462097168,22.85,2
-0.1320118606090545,-0.7724782824516296,0.3526639640331268,-30.276844024658203,1.7334095239639282,56.096675872802734,22.85,2
-0.1742819994688034,-0.8483918905258179,0.3606660068035126,-24.814546585083008,1.7336483001708984,56.062042236328125,22.85,2
-0.2349951863288879,-0.997868835926056,0.399387925863266,-19.603853225708008,1.7338014841079712,56.03981399536133,22.85,2
-0.296348512172699,-1.1217833757400513,0.4354329705238342,-15.238895416259766,1.7338998317718506,56.02555084228516,22.85,2
-0.3133304417133331,-1.1565223932266235,0.4529668092727661,-12.262170791625977,1.7339630126953125,56.016395568847656,22.85,2
-0.3130329251289367,-1.0948492288589478,0.4474256932735443,-10.27664566040039,1.7422664165496826,56.010520935058594,22.85,2
-0.2792553603649139,-0.9880977272987366,0.4046853184700012,-8.611949920654297,1.747594952583313,56.00675201416016,22.85,2
-0.2911655008792877,-0.9587751626968384,0.3940503299236297,-6.931023597717285,1.7510145902633667,56.00433349609375,22.85,2
-0.3044065237045288,-0.9399576187133788,0.3872254192829132,-5.04622220993042,1.753209114074707,56.00278091430664,22.85,2
-0.2849149703979492,-0.9390771389007568,0.3772478103637695,-2.905195474624634,1.75461745262146,56.00178527832031,22.85,2
-0.2668086290359497,-0.9497076869010924,0.3708447515964508,-0.7645365595817566,1.7555211782455444,56.00114440917969,22.85,2
-0.2607868015766144,-0.9621275067329408,0.3611378371715545,1.0140460729599,1.756101131439209,56.000736236572266,22.85,2
-0.2569223344326019,-0.9756956100463868,0.3437129557132721,2.273663282394409,1.7564733028411863,56.00047302246094,22.85,2
-0.2488445788621902,-0.9788050651550292,0.332530677318573,3.1142561435699463,1.7658932209014893,56.00030517578125,22.81,2
-0.2324651926755905,-0.9696049690246582,0.3309523165225982,3.832828998565674,1.771938443183899,56.00019454956055,22.81,2
-0.2107582986354828,-0.9581031203269958,0.3243416249752044,4.691633701324463,1.77581787109375,56.000125885009766,22.81,2
-0.1968280673027038,-0.9395263195037842,0.3033059537410736,5.626100540161133,1.7783074378967283,56.00008010864258,22.81,2
-0.1990839838981628,-0.9220070242881776,0.2842086851596832,6.4228291511535645,1.779905080795288,56.00004959106445,22.81,2
-0.2061294764280319,-0.9107641577720642,0.2719531655311584,6.9484543800354,1.7809303998947144,56.000030517578125,22.81,2
-0.1994553208351135,-0.9427335858345032,0.2808816134929657,7.038572311401367,1.781588435173035,56.00001907348633,22.81,2
-0.1895744651556015,-0.9744452834129332,0.2866113781929016,6.605592250823975,1.7820106744766235,56.0000114440918,22.81,2
-0.1608424037694931,-0.9724048972129822,0.3014839589595794,5.826169967651367,1.787330985069275,56.00000762939453,22.81,2
-0.1424038112163543,-0.9654977321624756,0.30543053150177,4.80650806427002,1.7907452583312988,56.00000381469727,22.81,2
-0.1585598587989807,-0.9554673433303832,0.3247565329074859,3.3962242603302,1.7929363250732422,56.00000381469727,22.81,2
-0.1745256632566452,-0.9210415482521056,0.3483543992042541,1.7137664556503296,1.7943423986434937,56.00000381469727,22.81,2
-0.1847715973854065,-0.8709601759910583,0.3746937215328216,0.2005702257156372,1.7952446937561035,56.00000381469727,22.81,2
-0.1689557433128357,-0.8668097257614136,0.3971945345401764,-0.8421635627746582,1.7958238124847412,56.00000381469727,22.81,2
-0.130817174911499,-0.8977328538894653,0.4004387259483337,-1.335783839225769,1.796195387840271,56.00000381469727,22.81,2
-0.0839509293437004,-0.928773045539856,0.3801295757293701,-1.4698495864868164,1.796433925628662,56.00000381469727,22.81,2
-0.0874615237116813,-0.887117326259613,0.3503029942512512,-1.7923352718353271,1.8039319515228271,55.79937744140625,22.81,2
-0.112105518579483,-0.8379939794540405,0.3255642354488373,-2.547422170639038,1.8087437152862549,55.67062759399414,22.81,2
-0.1503117084503173,-0.8008716702461243,0.3096883296966553,-3.3329296112060547,1.8118315935134888,55.5880012512207,22.81,2
-0.1748302429914474,-0.7770487070083618,0.2939023077487945,-3.9301702976226807,1.813813328742981,55.53497695922852,22.81,2
-0.1961625963449478,-0.7617605328559875,0.2725762128829956,-4.5570597648620605,1.8150850534439087,55.50094985961914,22.81,2
-0.2210480272769928,-0.7575472593307495,0.2532925605773926,-5.102664470672607,1.815901160240173,55.4791145324707,22.81,2
-0.2482136189937591,-0.7548434138298035,0.2409174293279647,-5.237847805023193,1.81642484664917,55.4650993347168,22.81,2
-0.2824402451515198,-0.7754993438720703,0.2329757809638977,-5.0774030685424805,1.8167608976364136,55.45610809326172,22.81,2
-0.3156004846096039,-0.8055484294891357,0.2502703964710235,-4.924282550811768,1.8247801065444944,55.45033645629883,22.81,2
-0.3592719137668609,-0.8920055031776428,0.2781623899936676,-4.847514152526856,1.8299263715744016,55.44663238525391,22.81,2
-0.3816999495029449,-1.0202597379684448,0.3296485245227813,-4.7230143547058105,1.8332289457321167,55.44425582885742,22.81,2
-0.3904951810836792,-1.1081637144088743,0.3682871162891388,-4.016167163848877,1.83534836769104,55.44272994995117,22.81,2
-0.3849439024925232,-1.198162078857422,0.4322675764560699,-1.9503941535949707,1.8367085456848145,55.44174957275391,22.81,2
-0.3981747329235077,-1.2111356258392334,0.4789243340492248,1.2848126888275146,1.8375813961029053,55.44112396240234,22.81,2
-0.4122633039951324,-1.1578857898712158,0.4864748418331146,4.141983985900879,1.8381415605545044,55.44071960449219,22.81,2
-0.4157067537307739,-1.0453442335128784,0.457733690738678,5.34501838684082,1.8385009765625,55.440460205078125,22.81,2
-0.4123187959194183,-0.9843171238899232,0.4448870420455932,5.182004451751709,1.8446992635726929,55.4402961730957,22.81,2
-0.4045468270778656,-0.9675445556640624,0.4142517149448395,4.572248458862305,1.8486769199371336,55.440189361572266,22.81,2
-0.2764081954956054,-1.0351496934890747,0.3666028380393982,3.776111125946045,1.851229548454285,55.44012069702149,22.81,2
-0.104611799120903,-1.0617414712905884,0.3752089738845825,2.6704885959625244,1.8528677225112915,55.44007873535156,22.81,2
-0.027949409559369,-1.0228288173675537,0.391927421092987,1.527471899986267,1.85391902923584,55.44004821777344,22.81,2
-0.017936322838068,-0.969868004322052,0.3802652657032013,0.7008026838302612,1.854593634605408,55.44002914428711,22.81,2
-0.0394993722438812,-0.947076380252838,0.3559878468513489,0.1201378777623176,1.855026602745056,55.44001770019531,22.81,2
-0.0757283940911293,-0.9380477666854858,0.3292124569416046,-0.3635592460632324,1.8553043603897093,55.44001007080078,22.81,2
-0.1101736426353454,-0.9378515481948853,0.2952362298965454,-0.602316677570343,1.859614014625549,55.44000625610352,22.81,2
-0.1098875254392623,-0.960116684436798,0.2734322249889374,-0.5656609535217285,1.862379789352417,55.44000244140625,22.81,2
-0.1153016835451126,-0.991198480129242,0.2594396770000458,-0.6173714995384216,1.8641546964645384,55.44000244140625,22.81,2
-0.1467650532722473,-1.039133906364441,0.2392645180225372,-1.0267267227172852,1.8652937412261963,55.44000244140625,22.81,2
-0.1781519800424575,-1.0866893529891968,0.2263172566890716,-1.5115472078323364,1.8660247325897217,55.44000244140625,22.81,2
-0.2038920819759369,-1.0612300634384155,0.2180084586143493,-1.668626308441162,1.866493821144104,55.44000244140625,22.81,2
-0.1924217194318771,-1.0225006341934204,0.2238719016313552,-1.5007374286651611,1.86679482460022,55.44000244140625,22.81,2
-0.1626695990562439,-1.0032440423965454,0.2500258088111877,-1.1780414581298828,1.866987943649292,55.44000244140625,22.81,2
-0.1043919846415519,-0.9293107986450196,0.2612121105194092,-0.6377741694450378,1.869407296180725,55.210716247558594,22.81,2
-0.0725905448198318,-0.8426802754402161,0.2627930641174316,0.1245170384645462,1.8709598779678345,55.06357192993164,22.81,2
-0.0857688561081886,-0.815074622631073,0.2806009352207184,0.7856752872467041,1.8719562292099,54.969146728515625,22.81,2
-0.0830303877592086,-0.8533366918563843,0.3032245635986328,1.0738307237625122,1.8725956678390503,54.90855026245117,22.81,2
-0.0868707671761512,-0.8834888339042664,0.3177430927753448,1.0724583864212036,1.873005986213684,54.869659423828125,22.81,2
-0.0893353074789047,-0.8748498558998108,0.332658052444458,1.0106738805770874,1.873269319534301,54.844703674316406,22.81,2
-0.1133080050349235,-0.8469147682189941,0.3366318345069885,0.999684751033783,1.8734383583068848,54.82868957519531,22.81,2
-0.1510833948850631,-0.8233898878097534,0.3391819596290588,1.0392060279846191,1.873546838760376,54.81841278076172,22.81,2
-0.1641299128532409,-0.8306840658187866,0.3352207243442535,0.9212654829025269,1.8800431489944456,54.81181716918945,22.81,2
-0.1725024282932281,-0.8521583676338196,0.3326786160469055,0.304609090089798,1.884212136268616,54.80758285522461,22.81,2
-0.1778754144906997,-0.882732629776001,0.3366450369358063,-0.8291360139846802,1.886887550354004,54.80486679077149,22.81,2
-0.1981168240308761,-0.9023534655570984,0.3447882235050201,-2.008112907409668,1.888604521751404,54.80312347412109,22.81,2
-0.2334976941347122,-0.9149450063705444,0.3556118309497833,-2.7754602432250977,1.8897063732147217,54.802005767822266,22.81,2
-0.2953875064849853,-0.9454166293144226,0.3793511092662811,-3.12817907333374,1.890413403511048,54.80128860473633,22.81,2
-0.3518981635570526,-0.9817648530006408,0.4113789498806,-3.2972123622894287,1.8908671140670776,54.80082702636719,22.81,2
-0.3881634473800659,-1.033079981803894,0.4487258791923523,-3.3591148853302,1.8911583423614504,54.80052947998047,22.81,2
-0.4114364087581634,-1.1107932329177856,0.4838885366916656,-3.17672061920166,1.8968538045883176,54.80033874511719,22.83,2
-0.415176123380661,-1.171860694885254,0.5176494717597961,-2.4255545139312744,1.9005087614059448,54.80021667480469,22.83,2
-0.4175760447978973,-1.1774636507034302,0.52252197265625,-0.6430245041847229,1.902854323387146,54.800140380859375,22.83,2
-0.4135183990001678,-1.1306792497634888,0.4864644408226013,2.1918764114379883,1.904359579086304,54.80009078979492,22.83,2
-0.4053166508674621,-1.072666883468628,0.4409336745738983,4.978447914123535,1.9053255319595337,54.80005645751953,22.83,2
-0.3944554924964905,-1.0410356521606443,0.4117146730422973,6.204244613647461,1.9059454202651973,54.8000373840332,22.83,2
-0.3538987636566162,-1.0431276559829712,0.3873658180236816,5.661755084991455,1.9063433408737185,54.80002212524414,22.83,2
-0.3054806888103485,-1.078056812286377,0.3493490219116211,4.48245906829834,1.906598687171936,54.80001449584961,22.83,2
-0.2520176768302917,-1.1060701608657837,0.3137564957141876,3.295745611190796,1.9095168113708496,54.80001068115234,22.83,2
-0.1841215342283249,-1.0960586071014404,0.296513020992279,1.803335666656494,1.9113894701004028,54.80000686645508,22.83,2
-0.1181586012244224,-1.072840452194214,0.2966426908969879,0.2150595933198928,1.9125912189483645,54.80000305175781,22.83,2
-0.1038162633776664,-1.035549283027649,0.2855303585529327,-0.7540484666824341,1.9133625030517576,54.80000305175781,22.83,2
-0.1226010471582412,-1.006020188331604,0.2616057991981506,-1.189672350883484,1.9138574600219729,54.80000305175781,22.83,2
-0.145851582288742,-0.987070083618164,0.2406546175479889,-1.6662722826004028,1.914175033569336,54.80000305175781,22.83,2
-0.1551746726036071,-0.9917023181915284,0.2272093445062637,-2.1010994911193848,1.914378881454468,54.80000305175781,22.83,2
-0.1611576974391937,-1.0058705806732178,0.2185809463262558,-2.147279024124145,1.914509654045105,54.80000305175781,22.83,2
-0.16499724984169,-1.0317562818527222,0.2186415046453476,-1.9189690351486208,1.9155114889144893,54.61012649536133,22.83,2
-0.1618634760379791,-0.9979882836341858,0.2074848264455795,-1.5789936780929563,1.916154384613037,54.48827362060547,22.83,2
-0.1654501855373382,-0.970720112323761,0.2003251165151596,-0.9918118119239808,1.9165669679641724,54.41007614135742,22.83,2
-0.1453608274459839,-0.9756121039390564,0.2349148392677307,-0.1994135230779647,1.9168317317962649,54.359893798828125,22.83,2
-0.1268708556890487,-0.9619581699371338,0.2459169924259185,0.4416574239730835,1.9170016050338743,54.32769012451172,22.83,2
-0.1317983865737915,-0.8580336570739746,0.2473797649145126,0.663183331489563,1.9171106815338133,54.30702209472656,22.83,2
-0.1629494577646255,-0.8417208790779114,0.2595140337944031,0.4650012254714966,1.91718065738678,54.293758392333984,22.83,2
-0.1717448681592941,-0.8480455875396729,0.278496652841568,-0.0920897349715232,1.9172255992889404,54.285247802734375,22.83,2
-0.1605959385633468,-0.8688977360725403,0.3018741607666015,-0.8186039328575134,1.9190908670425413,54.27978515625,22.83,2
-0.1534412056207656,-0.8822794556617737,0.3224742710590362,-1.2955867052078247,1.920287847518921,54.27627944946289,22.83,2
-0.1488496959209442,-0.8740737438201904,0.3468897938728332,-1.3258284330368042,1.921056032180786,54.27402877807617,22.83,2
-0.1515009105205536,-0.8800033330917358,0.3737538158893585,-1.2520887851715088,1.9215489625930784,54.272586822509766,22.83,2
-0.1699956357479095,-0.8726130723953247,0.3853958249092102,-1.3552350997924805,1.9218653440475464,54.27165985107422,22.83,2
-0.1762667000293731,-0.907054841518402,0.3928669989109039,-1.4178459644317627,1.922068357467652,54.27106475830078,22.83,2
-0.1746933460235595,-0.9347553849220276,0.3976615667343139,-1.3254706859588623,1.9221986532211304,54.27068328857422,22.83,2
-0.19607475399971,-0.9525319933891296,0.3895428776741028,-1.42024028301239,1.9222822189331048,54.27043914794922,22.83,2
-0.2433827519416809,-0.9639399647712708,0.3843327760696411,-1.8106549978256223,1.9264672994613647,54.27028274536133,22.81,2
-0.2961333990097046,-0.9712609648704528,0.3865870237350464,-2.02895736694336,1.929153084754944,54.27017974853516,22.81,2
-0.3691701591014862,-0.9983502626419068,0.3936314284801483,-1.7140642404556274,1.930876612663269,54.27011489868164,22.81,2
-0.4048453867435455,-1.0269302129745483,0.3981521129608154,-1.0569968223571775,1.9319827556610107,54.27007293701172,22.81,2
-0.4109463691711426,-1.0620644092559814,0.4122487902641296,-0.441869705915451,1.932692527770996,54.27004623413086,22.81,2
-0.4148616194725036,-1.1126004457473757,0.4492841064929962,-0.0399514101445674,1.9331480264663696,54.2700309753418,22.81,2
-0.4285697638988495,-1.1450315713882446,0.4674534499645233,0.4436788856983185,1.933440327644348,54.27001953125,22.81,2
-0.4205735325813293,-1.0874751806259155,0.4287335276603699,1.6962623596191406,1.933627963066101,54.27001190185547,22.81,2
-0.4042464792728424,-1.0337454080581665,0.3870919942855835,3.825651168823242,1.9260157346725464,54.2700080871582,22.81,2
-0.3993664681911468,-1.0272536277770996,0.3659666180610657,5.704478740692139,1.921130657196045,54.27000427246094,22.81,2
-0.385039210319519,-1.0510764122009275,0.3524095714092254,6.147113800048828,1.9179956912994385,54.27000427246094,22.81,2
-0.3534537255764007,-1.0831578969955444,0.3437094390392303,5.313407897949219,1.91598379611969,54.27000427246094,22.81,2
-0.2884017825126648,-1.103745937347412,0.3157351016998291,4.08336353302002,1.914692759513855,54.27000427246094,22.81,2
-0.2242640852928161,-1.1113603115081787,0.2921850085258484,2.8390047550201416,1.9138641357421875,54.27000427246094,22.81,2
-0.1551153361797332,-1.0770623683929443,0.2826696932315826,1.5818772315979004,1.913332462310791,54.27000427246094,22.81,2
-0.133130744099617,-1.0326608419418335,0.2765633165836334,0.495684266090393,1.912991285324097,54.27000427246094,22.81,2
-0.1302178502082824,-1.0041664838790894,0.272644579410553,-0.2586930394172668,1.9123133420944207,54.14461135864258,22.81,2
-0.1339462846517563,-0.9858804941177368,0.2533364295959472,-0.7463915348052979,1.911878228187561,54.06414031982422,22.81,2
-0.1363389790058136,-0.9741455912590028,0.2353478074073791,-1.0701160430908203,1.911599040031433,54.01250076293945,22.81,2
-0.1378744840621948,-0.9834081530570984,0.207010418176651,-1.2957767248153689,1.9114198684692385,53.97936248779297,22.81,2
-0.1500554233789444,-1.011743426322937,0.1888251155614853,-1.540904879570007,1.911304950714112,53.95809555053711,22.81,2
-0.1690679937601089,-1.0187318325042725,0.1827526092529297,-1.837934494018555,1.91123116016388,53.9444465637207,22.81,2
-0.1980624943971634,-0.9952276945114136,0.1732578426599502,-2.0070555210113525,1.911183834075928,53.93568801879883,22.81,2
-0.2110717296600341,-0.9745463132858276,0.1783602088689804,-1.965119481086731,1.9111534357070925,53.9300651550293,22.81,2
-0.1802358776330948,-0.9780675172805786,0.2040257006883621,-1.841477870941162,1.9102157354354856,53.92646026611328,22.81,2
-0.154849424958229,-0.8907628059387207,0.2148985713720321,-1.6259938478469849,1.9096139669418333,53.92414474487305,22.81,2
-0.1497534215450287,-0.8123446106910706,0.2386694699525833,-1.2727540731430054,1.909227728843689,53.92266082763672,22.81,2
-0.1576786488294601,-0.8012047410011292,0.270717591047287,-1.106968879699707,1.908979892730713,53.92170715332031,22.81,2
-0.1571668237447738,-0.8164469003677368,0.2968820035457611,-1.3337570428848269,1.908820867538452,53.92109680175781,22.81,2
-0.1456428170204162,-0.8766084313392639,0.324868381023407,-1.5294526815414429,1.908718824386597,53.92070388793945,22.81,2
-0.1494429260492324,-0.9040210843086244,0.3652195036411285,-1.296781301498413,1.908653259277344,53.92045211791992,22.81,2
-0.1462838351726532,-0.9272106885910034,0.4023100733757019,-0.864442765712738,1.9086111783981323,53.9202880859375,22.81,2
-0.1610498428344726,-0.9308969378471376,0.4149171411991119,-0.62998366355896,1.909502387046814,53.92018508911133,22.83,2
-0.1761235892772674,-0.938860297203064,0.4118120670318603,-0.5583379864692688,1.9100743532180784,53.92011642456055,22.83,2
-0.163405954837799,-0.9551662802696228,0.4098194241523742,-0.3833872079849243,1.9104413986206048,53.92007446289063,22.83,2
-0.1776356101036071,-0.9544349908828736,0.4085406363010406,-0.0060032904148101,1.9106769561767576,53.920047760009766,22.83,2
-0.2035606950521469,-0.9315745830535888,0.4021222293376922,0.4833777248859405,1.910828113555908,53.92002868652344,22.83,2
-0.2593823373317718,-0.9057085514068604,0.3812099397182464,1.012388825416565,1.9109251499176023,53.92001724243164,22.83,2
-0.3175965547561645,-0.9059025049209596,0.3733873963356018,1.4378595352172852,1.910987377166748,53.92000961303711,22.83,2
-0.354955106973648,-0.93961364030838,0.3907584547996521,1.524608135223389,1.911027312278748,53.92000579833984,22.83,2
-0.3621363341808319,-0.9780408143997192,0.4075039625167846,1.2184382677078247,1.913807272911072,53.92000198364258,22.83,2
-0.3723426163196563,-1.036287784576416,0.423848032951355,0.7460978031158447,1.9155912399291992,53.92000198364258,22.83,2
-0.3900879621505737,-1.1240473985671997,0.45113006234169,0.4501420259475708,1.916736125946045,53.92000198364258,22.83,2
-0.4126714468002319,-1.1859642267227173,0.4574425518512726,0.7832706570625305,1.9174708127975464,53.92000198364258,22.83,2
-0.3879798054695129,-1.1193411350250244,0.4167113304138183,1.9285231828689573,1.9179424047470093,53.92000198364258,22.83,2
-0.3609386086463928,-1.0094130039215088,0.3681812882423401,3.1865363121032715,1.9182449579238887,53.92000198364258,22.83,2
-0.3491828739643097,-0.9556607604026794,0.331439733505249,3.571112871170044,1.918439149856568,53.92000198364258,22.83,2
-0.3416387438774109,-0.977143406867981,0.2966655492782593,3.0476582050323486,1.918563723564148,53.92000198364258,22.83,2
-0.3200040161609649,-1.0189186334609983,0.268751710653305,2.3713903427124023,1.9177254438400269,53.83760070800781,22.83,2
-0.2389468103647232,-1.040129780769348,0.2396426647901535,1.8908270597457888,1.9171875715255733,53.78472137451172,22.83,2
-0.119755670428276,-1.0089596509933472,0.2377554774284362,1.3495618104934692,1.916842341423035,53.75078582763672,22.83,2
-0.0656567439436912,-0.9721631407737732,0.2253488451242447,0.532891571521759,1.916620850563049,53.72900772094727,22.83,2
-0.070123590528965,-0.8981692790985107,0.2005936652421951,-0.4569352269172668,1.9164786338806152,53.715030670166016,22.83,2
-0.0897834822535514,-0.8394887447357178,0.1735116690397262,-1.3357642889022827,1.9163874387741089,53.70606231689453,22.83,2
-0.1191933900117874,-0.785037636756897,0.1393386721611023,-1.8460074663162231,1.91632890701294,53.7003059387207,22.83,2
-0.1436647474765777,-0.7612895965576172,0.1118106395006179,-1.983575701713562,1.916291356086731,53.69661331176758,22.83,2
-0.1649668365716934,-0.7852339148521423,0.1053402796387672,-1.985877275466919,1.91397225856781,53.694244384765625,22.83,2
-0.1562461853027343,-0.8173933029174805,0.1179812997579574,-2.073336124420166,1.9124839305877688,53.69272232055664,22.83,2
-0.1282586753368377,-0.8044446706771851,0.1260935813188552,-2.290678024291992,1.911528825759888,53.69174575805664,22.83,2
-0.1102979034185409,-0.8241238594055176,0.1257017999887466,-2.562710762023926,1.9109159708023071,53.69112014770508,22.83,2
-0.098771721124649,-0.7863729000091553,0.1030592769384384,-2.776694297790528,1.9105225801467896,53.69071960449219,22.83,2
-0.102570429444313,-0.7285598516464233,0.0829308331012725,-2.770713329315185,1.9102702140808103,53.690460205078125,22.83,2
-0.1050082147121429,-0.6578720808029175,0.1147957518696785,-2.451608657836914,1.910108208656311,53.6902961730957,22.83,2
-0.1009748727083206,-0.5901176929473877,0.1464403718709945,-2.049783945083618,1.9100042581558228,53.690189361572266,22.83,2
-0.0927887335419654,-0.5690279006958008,0.1723458468914032,-1.88506293296814,1.9099375009536743,53.69012069702149,22.81,2
-0.0987308919429779,-0.6282647252082825,0.1945682615041732,-1.9047446250915527,1.9098947048187256,53.69007873535156,22.81,2
-0.0913486778736114,-0.7110617160797119,0.1976337730884552,-1.856471300125122,1.909867286682129,53.69004821777344,22.81,2
-0.0642201006412506,-0.7306094169616699,0.2163943648338318,-1.7108498811721802,1.909849643707276,53.69002914428711,22.81,2
-0.0468105375766754,-0.7319584488868713,0.2172382920980453,-1.4382696151733398,1.909838318824768,53.69001770019531,22.81,2
-0.0580291822552681,-0.7832041382789612,0.2401709705591201,-0.7402873039245605,1.9098310470581048,53.69001007080078,22.81,2
-0.0652286633849144,-0.8608729243278503,0.2660833895206451,0.488639086484909,1.909826397895813,53.69000625610352,22.81,2
-0.0530555509030818,-0.9778895378112792,0.2547236084938049,1.7501933574676514,1.9098234176635744,53.69000244140625,22.81,2
-0.0284502226859331,-1.0417885780334473,0.2586291134357452,2.412900447845459,1.9038536548614504,53.69000244140625,22.81,2
-0.0518443621695041,-1.0939908027648926,0.3003198504447937,2.487095355987549,1.9000226259231567,53.69000244140625,22.81,2
-0.0388685017824173,-1.200262188911438,0.2878901660442352,2.488136053085327,1.8975640535354608,53.69000244140625,22.81,2
-0.0193457920104265,-1.2460700273513794,0.2855112850666046,2.5425424575805664,1.8959863185882568,53.69000244140625,22.81,2
-0.0068172421306371,-1.2810646295547483,0.311973512172699,2.28368616104126,1.8949737548828125,53.69000244140625,22.81,2
0.0292117334902286,-1.3315110206604004,0.3905309736728668,1.6554148197174072,1.8943239450454712,53.69000244140625,22.81,2
0.0299419574439525,-1.3862756490707395,0.4353468418121338,1.13041889667511,1.8939069509506223,53.69000244140625,22.81,2
0.0528016686439514,-1.4270182847976685,0.4976937472820282,1.2520763874053955,1.893639326095581,53.69000244140625,22.81,2
0.0786672681570053,-1.369197964668274,0.2354245781898498,2.354765653610229,1.8870412111282349,53.647010803222656,22.81,2
0.0392885766923427,-1.4664387702941897,0.4869484007358551,4.208832740783691,1.8828068971633911,53.61941909790039,22.81,2
0.1427664011716842,-1.366506814956665,0.670753002166748,5.6494460105896,1.880089521408081,53.60171508789063,22.81,2
0.1811836510896682,-1.263191819190979,0.6879482865333557,5.509923934936523,1.878345727920532,53.59035110473633,22.81,2
0.1330665647983551,-1.1800968647003174,0.4974633455276489,4.0303473472595215,1.8772265911102293,53.58306121826172,22.81,2
-0.0097677027806639,-1.2499223947525024,0.3976121842861175,2.4538896083831787,1.876508474349976,53.5783805847168,22.81,2
-0.0958327427506446,-1.23315691947937,0.4007067382335663,1.331149935722351,1.8760476112365725,53.57537841796875,22.81,2
-0.2294331789016723,-1.2000066041946411,0.475463718175888,0.3168690204620361,1.8757518529891968,53.57345199584961,22.81,2
-0.3151702284812927,-1.066777229309082,0.5738184452056885,-0.7173736095428467,1.8806113004684448,53.57221603393555,22.81,2
-0.2582358419895172,-0.7405739426612854,0.6537301540374756,-1.395421266555786,1.8837298154830933,53.5714225769043,22.81,2
-0.0481676459312438,-0.7831352949142456,0.5538729429244995,-1.5869381427764893,1.885731101036072,53.5709114074707,22.81,2
0.1314242333173751,-0.8104487657546997,0.4506059288978576,-1.6990948915481567,1.887015461921692,53.57058334350586,22.81,2
-0.0723971799015998,-0.5480882525444031,0.4794972836971283,-2.25113582611084,1.887839674949646,53.57037353515625,22.81,2
-0.3823268115520477,-0.8555312156677246,0.5540158152580261,-3.336249351501465,1.8883686065673828,53.57024002075195,22.81,2
0.1464888751506805,-1.243154764175415,0.1260266900062561,-4.591494560241699,1.8887079954147337,53.57015228271485,22.81,2
0.2227569371461868,-1.402344822883606,-0.2214031368494033,-5.622740745544434,1.8889257907867432,53.570098876953125,22.81,2
0.0757792890071868,-1.4933083057403564,-0.601101279258728,-6.29170036315918,1.891819834709168,53.57006454467773,22.83,2
0.1158040761947631,-1.5964655876159668,-1.0127029418945312,-6.660096645355225,1.8936771154403689,53.57004165649414,22.83,2
0.163880780339241,-1.735437035560608,-1.0137498378753662,-7.018319606781006,1.8948689699172967,53.57002639770508,22.83,2
-0.0067862314172089,-1.8302186727523804,-0.5610018968582153,-7.710358619689941,1.8956338167190552,53.57001495361328,22.83,2
-0.009952787309885,-1.6167532205581665,-0.1193144246935844,-8.605874061584473,1.8961247205734253,53.570011138916016,22.83,2
0.094372808933258,-1.518947720527649,0.0857663303613662,-9.133991241455078,1.896439790725708,53.57000732421875,22.83,2
-0.0345991291105747,-1.3834106922149658,0.491666316986084,-9.042997360229492,1.896641969680786,53.57000350952149,22.83,2
0.0953495353460311,-1.1005088090896606,0.7969317436218262,-8.723073959350586,1.8967716693878167,53.57000350952149,22.83,2
0.2739052772521972,-0.5159188508987427,0.7521291971206665,-8.664651870727539,1.9009863138198853,53.57000350952149,22.83,2
0.0974077954888343,0.0215727668255567,0.7401708364486694,-8.856444358825684,1.903691053390503,53.57000350952149,22.83,2
-0.2509646713733673,-0.7026709914207458,0.5421723127365112,-8.846970558166504,1.9054267406463623,53.57000350952149,22.83,2
0.1860073208808899,-1.167448878288269,0.4374993741512298,-8.457554817199707,1.9065406322479248,53.57000350952149,22.83,2
0.382464200258255,-1.3257722854614258,0.3759240806102752,-8.143163681030273,1.9072555303573608,53.57000350952149,22.83,2
0.4637567102909088,-1.309821844100952,0.3308108150959015,-8.313993453979492,1.907714247703552,53.57000350952149,22.83,2
0.4543500542640686,-1.327574610710144,0.2626753151416778,-8.60633373260498,1.908008575439453,53.57000350952149,22.83,2
0.3531512320041656,-1.2214140892028809,0.1573743522167205,-8.442848205566406,1.9081975221633911,53.57000350952149,22.83,2
0.2882076501846313,-1.09730863571167,0.134580448269844,-8.033413887023926,1.910155177116394,53.55567169189453,22.83,2
0.2241394966840744,-1.0568493604660034,0.1255504041910171,-8.064434051513672,1.9114115238189693,53.54647445678711,22.83,2
0.1606331467628479,-1.0084937810897827,0.1309509873390197,-8.292130470275879,1.9122177362442017,53.54057312011719,22.83,2
0.1422695219516754,-0.9942552447319032,0.12881900370121,-6.568148136138916,1.912735104560852,53.53678512573242,22.83,2
0.1696692258119583,-1.0634866952896118,0.1498419195413589,0.3706376254558563,1.913067102432251,53.53435516357422,22.83,2
0.1704594641923904,-1.3989996910095217,0.1913220882415771,13.77282428741455,1.913280248641968,53.53279495239258,22.83,2
0.2213465571403503,-1.5527371168136597,0.1451705992221832,30.04387092590332,1.9134169816970823,53.53179168701172,22.83,2
0.1700363457202911,-1.186781644821167,-0.0131955798715353,43.29801559448242,1.913504719734192,53.53115081787109,22.83,2
0.1035217642784118,-0.8343791961669922,-0.0532503575086593,50.094871520996094,1.9167742729187007,53.530738830566406,22.83,2
0.1168142780661583,-0.6194231510162354,0.0274025034159421,48.9538688659668,1.9188724756240845,53.53047180175781,22.83,2
0.1141491010785102,-0.4422923326492309,0.1015519648790359,38.81737518310547,1.92021906375885,53.530303955078125,22.83,2
0.106840968132019,-0.3845976889133453,0.1939190179109573,22.47102165222168,1.921083211898804,53.53019332885742,22.83,2
0.1693243235349655,-0.3867570161819458,0.2755859792232513,7.190969944000244,1.921637773513794,53.53012466430664,22.83,2
0.1534447968006134,-0.3377627730369568,0.2944084703922272,-1.855380654335022,1.921993613243103,53.53007888793945,22.83,2
0.0424942933022975,-0.2895277738571167,0.4968120157718658,-4.877146720886231,1.9222220182418823,53.53004837036133,22.83,2
-0.0958806499838829,-0.3985176980495453,0.5371385812759399,-3.832056760787964,1.92236852645874,53.530029296875,22.83,2
-0.2462572306394577,-0.6811765432357788,0.5854089260101318,-0.8936078548431396,1.93485689163208,53.5300178527832,22.81,2
-0.1972181349992752,-0.8065930008888245,0.8850792050361633,0.8452339768409729,1.94287109375,53.53001022338867,22.81,2
-0.25531205534935,-0.8422958850860596,0.898261547088623,0.0910180062055587,1.948014259338379,53.530006408691406,22.81,2
-0.292593389749527,-0.8540123701095581,0.9459056854248048,-1.607487678527832,1.951314806938172,53.53000259399414,22.81,2
-0.2269540131092071,-0.7775647044181824,1.010067582130432,-3.987217903137207,1.9534329175949097,53.53000259399414,22.81,2
-0.1288526952266693,-0.6837228536605835,0.9728741645812988,-8.333879470825195,1.954792141914368,53.53000259399414,22.81,2
-0.0770924687385559,-0.6067072153091431,0.904223382472992,-13.208374977111816,1.9556643962860107,53.53000259399414,22.81,2
-0.0606690570712089,-0.4845119416713714,0.8433738946914673,-16.164581298828125,1.9562242031097408,53.53000259399414,22.81,2
-0.0949116498231887,-0.3893007040023803,0.804324209690094,-17.98647117614746,1.984126329421997,53.53000259399414,22.81,2
-0.128082126379013,-0.3673840463161468,0.790459930896759,-19.15207290649414,2.0020322799682617,53.53000259399414,22.81,2
-0.1381734758615493,-0.3701125085353851,0.7983559370040894,-16.851316452026367,2.01352334022522,53.53000259399414,22.81,2
-0.1614428460597992,-0.4110479056835174,0.7978253960609436,-10.445199012756348,2.020897626876831,53.53000259399414,22.81,2
-0.1819735616445541,-0.4485134482383728,0.8030827045440674,-3.833483934402466,2.025629997253418,53.53000259399414,22.81,2
-0.2511267364025116,-0.4669588804244995,0.800858736038208,-0.1672608107328415,2.0286669731140137,53.53000259399414,22.81,2
-0.2731141746044159,-0.467600554227829,0.8274204134941101,0.6521676778793335,2.03061580657959,53.53000259399414,22.81,2
-0.2536377906799316,-0.4960012137889862,0.8724550604820251,0.5188357830047607,2.0318665504455566,53.53000259399414,22.81,2
-0.2355411946773529,-0.4694449305534363,0.8845623731613159,3.976438283920288,2.0620481967926025,53.49775695800781,22.81,2
-0.1903412044048309,-0.4859893023967743,0.8699410557746887,14.012508392333984,2.081416845321656,53.47706604003906,22.81,2
-0.1949210911989212,-0.4798131883144378,0.8549601435661316,23.992664337158203,2.093846559524536,53.46378707885742,22.81,2
-0.1810668855905532,-0.4982408285140991,0.8565418124198914,23.676443099975582,2.101823329925537,53.455265045166016,22.81,2
-0.1497849524021148,-0.4988710582256317,0.8351657390594482,13.807721138000488,2.1069424152374268,53.44979476928711,22.81,2
-0.1521010994911193,-0.460091084241867,0.7990567088127136,3.917046308517456,2.110227584838867,53.446285247802734,22.81,2
-0.1255986094474792,-0.4519976675510406,0.7926773428916931,-1.6456353664398191,2.112335681915283,53.444034576416016,22.81,2
-0.181361898779869,-0.4468037784099579,0.8277678489685059,-4.943168640136719,2.113688468933105,53.44258880615234,22.81,2
-0.1611698269844055,-0.409883975982666,0.8390913605690002,-6.787059783935547,2.146230936050415,53.4416618347168,22.81,2
-0.1594072580337524,-0.3749954402446747,0.8463581204414368,-7.22877025604248,2.1671149730682373,53.44106674194336,22.81,2
-0.1918627917766571,-0.3917903900146484,0.8510215282440186,-7.967221260070801,2.1805169582366943,53.4406852722168,22.81,2
-0.2686686217784881,-0.4473506212234497,0.8372209072113037,-8.634575843811035,2.189117670059204,53.4404411315918,22.81,2
-0.2619804441928863,-0.4550171196460724,0.8787444233894348,-6.565790176391602,2.1946370601654053,53.44028091430664,22.81,2
