acc_x,acc_y,acc_z,bvp,eda,hr,temp,label
0.0,0.0,0.0,0.0,0.0,0.0,25.21,2
-0.0572916641831398,-0.1484374850988388,0.0312499981373548,-0.3649999797344208,0.2114756554365158,13.249999046325684,25.21,2
-0.1341463476419448,-0.3475609719753265,0.0731707289814949,-0.9270731806755066,0.4951625466346741,31.024389266967773,25.21,2
-0.2059800773859024,-0.5058139562606812,0.1245847195386886,-1.431926965713501,0.7419213056564331,46.485050201416016,25.21,2
-0.2690630555152893,-0.6479590535163879,0.1300648003816604,-2.056478500366211,0.921945095062256,57.764434814453125,25.21,2
-0.3007934391498565,-0.7496870160102844,0.1282853186130523,-2.9571516513824463,1.0438288450241089,65.40105438232422,25.21,2
-0.3327192962169647,-0.8219882249832153,0.0882461965084075,-3.953275203704834,1.1238020658493042,70.41177368164062,25.21,2
-0.364554762840271,-0.8576555252075195,0.051156148314476,-4.919785022735596,1.175596833229065,73.65697479248047,25.21,2
-0.3627015948295593,-0.8806313872337341,0.0496244765818119,-5.953820705413818,1.188332438468933,75.74744415283203,25.21,2
-0.3559158444404602,-0.8898043036460876,0.0654239356517791,-7.098235607147217,1.1965181827545166,77.09107208251953,25.21,2
-0.3571548163890838,-0.9012912511825562,0.081166110932827,-8.352479934692383,1.2017747163772583,77.95388793945312,25.21,2
-0.3579501509666443,-0.914262056350708,0.091271199285984,-10.124797821044922,1.2051489353179932,78.50774383544922,25.21,2
-0.3528630435466766,-0.9057942032814026,0.1033543273806572,-13.060676574707031,1.2073146104812622,78.86321258544922,25.21,2
-0.3495982885360718,-0.8947620987892151,0.1223042979836463,-16.951047897338867,1.2087044715881348,79.09133911132812,25.21,2
-0.3642963171005249,-0.915670931339264,0.1288677901029586,-20.63711738586425,1.2095963954925537,79.23774719238281,25.21,2
-0.3625332117080688,-0.9290890693664552,0.1274821311235427,-23.81230354309082,1.210168719291687,79.33170318603516,25.21,2
-0.3669995367527008,-0.9321023225784302,0.1321906596422195,-27.917104721069336,1.208240628242493,79.39199829101562,25.21,2
-0.3586702048778534,-0.9116449952125548,0.1408101022243499,-34.07658767700195,1.2070033550262451,79.4306869506836,25.21,2
-0.3589226901531219,-0.920907735824585,0.1407437920570373,-41.24296188354492,1.2062093019485474,79.45552062988281,25.21,2
-0.3590847253799438,-0.9156565070152284,0.1351034641265869,-48.15268707275391,1.205699801445007,79.4714584350586,25.21,2
-0.3591887056827545,-0.9122865796089172,0.1314838230609893,-55.92949676513672,1.2053728103637695,79.48168182373047,25.21,2
-0.3536576628684997,-0.9101239442825316,0.1347587257623672,-66.32989501953125,1.2051630020141602,79.48824310302734,25.21,2
-0.3501081764698028,-0.9087360501289368,0.1368603557348251,-78.6504135131836,1.2050282955169678,79.4924545288086,25.21,2
-0.3422325253486633,-0.9134432077407836,0.1382090747356414,-91.10688018798828,1.2049418687820437,79.49515533447266,25.21,2
-0.3427761793136596,-0.9108662009239196,0.1446723788976669,-104.03034973144533,1.2250845432281494,79.49688720703125,25.21,2
-0.3375272750854492,-0.9092124104499816,0.1488201469182968,-119.30990600585938,1.2380110025405884,79.49800109863281,25.21,2
-0.3341588377952575,-0.9081510901451112,0.145884171128273,-138.2008514404297,1.2463064193725586,79.49871826171875,25.21,2
-0.3319971561431885,-0.9074699878692628,0.1440000385046005,-159.74256896972656,1.2516299486160278,79.49917602539062,25.21,2
-0.330609917640686,-0.9070329070091248,0.1371931284666061,-177.65452575683594,1.255046248435974,79.49947357177734,25.21,2
-0.335317462682724,-0.8899590969085693,0.1272270679473877,-180.36849975585932,1.257238745689392,79.49966430664062,25.21,2
-0.3383384943008423,-0.8790020942687988,0.1208314299583435,-159.08853149414062,1.2586456537246704,79.49978637695312,25.21,2
-0.3346794247627258,-0.8831660747528076,0.111129306256771,-113.712158203125,1.259548544883728,79.49986267089844,25.21,2
-0.3267334699630737,-0.8914360404014587,0.1049030348658561,-48.16099548339844,1.263341188430786,76.33649444580078,25.21,2
-0.3104386627674103,-0.9079387784004213,0.1065051481127739,32.23952102661133,1.2657750844955444,74.30642700195312,25.21,2
-0.2943838238716125,-0.9241271018981934,0.1075332909822464,114.59952545166016,1.2673370838165283,73.00364685058594,25.21,2
-0.289678543806076,-0.9345158338546752,0.1137908697128295,181.1567840576172,1.2683395147323608,72.1676025390625,25.21,2
-0.2810611724853515,-0.9411827325820924,0.1234043985605239,224.68264770507807,1.2689827680587769,71.63107299804688,25.21,2
-0.26993328332901,-0.939863383769989,0.135171577334404,252.199462890625,1.2693955898284912,71.28675842285156,25.21,2
-0.262792021036148,-0.9502122402191162,0.1371253132820129,271.430908203125,1.269660472869873,71.0657958984375,25.21,2
-0.2470136284828186,-0.9904401898384094,0.1383790969848632,284.02691650390625,1.2698304653167725,70.92399597167969,25.21,2
-0.231290191411972,-1.0106583833694458,0.1391837149858474,292.5760498046875,1.2671853303909302,70.83300018310547,25.21,2
-0.2211997956037521,-1.0068399906158447,0.1452978402376175,302.225341796875,1.265487790107727,70.77460479736328,25.21,2
-0.2147243618965149,-0.9875962138175964,0.1604170799255371,313.1861267089844,1.264398455619812,70.73712921142578,25.21,2
-0.2105688005685806,-0.9192689061164856,0.1645219624042511,318.7190246582031,1.263699293136597,70.71308135986328,25.21,2
-0.2079019993543625,-0.8754203915596008,0.1671562492847442,311.16729736328125,1.263250708580017,70.69764709472656,25.21,2
-0.206190600991249,-0.8472809195518494,0.1520534604787826,286.5487976074219,1.262962818145752,70.687744140625,25.21,2
-0.1994945555925369,-0.8628092408180237,0.1255680322647094,244.50411987304688,1.2627780437469482,70.68138885498047,25.21,2
-0.2007951885461807,-0.8951655626296997,0.1029734313488006,186.52940368652344,1.2626594305038452,70.67730712890625,25.21,2
-0.2184231877326965,-0.9215277433395386,0.0996690690517425,114.13292694091795,1.261665105819702,70.67469024658203,25.21,2
-0.2353335916996002,-0.944043219089508,0.1031462922692298,30.600542068481445,1.2610269784927368,70.67301177978516,25.21,2
-0.2461857199668884,-0.958492398262024,0.1109755486249923,-53.2749137878418,1.26061749458313,70.67192840576172,25.21,2
-0.2531499862670898,-0.9733628034591676,0.1159999147057533,-120.7043914794922,1.26035475730896,70.67123413085938,25.21,2
-0.2520214915275574,-0.9885035753250122,0.119224265217781,-161.44386291503906,1.2601860761642456,70.67079162597656,25.21,2
-0.251297265291214,-1.0485999584197998,0.1045001447200775,-178.54568481445312,1.2600778341293335,70.6705093383789,25.21,2
-0.2620280683040619,-1.120753049850464,0.0894532725214958,-180.3743438720703,1.2600083351135254,70.67032623291016,25.21,2
-0.2689144611358642,-1.1726545095443726,0.0741992816329002,-172.75265502929688,1.2599637508392334,70.67021179199219,25.21,2
-0.2789315283298492,-1.200364112854004,0.0756056979298591,-160.23776245117188,1.2594761848449707,70.67013549804688,25.21,2
-0.2909576892852783,-1.218146562576294,0.0821060314774513,-146.94004821777344,1.2591633796691897,70.67008972167969,25.21,2
-0.2930776178836822,-1.1455917358398438,0.0750820189714431,-133.5841827392578,1.258962631225586,70.67005920410156,25.21,2
-0.2608514130115509,-1.1326167583465576,0.0369877703487873,-118.58244323730467,1.2588337659835815,70.67003631591797,25.21,2
-0.2289749383926391,-1.1242902278900146,0.0069432999007403,-102.36682891845705,1.2587510347366333,70.6700210571289,25.21,2
-0.1973229050636291,-1.1021534204483032,-0.0123375132679939,-87.5575942993164,1.2586979866027832,70.67001342773438,25.21,2
-0.1770104467868805,-1.0599584579467771,-0.0191130544990301,-75.26663970947266,1.2586638927459717,70.67000579833984,25.21,2
-0.1415839940309524,-0.9769023656845092,-0.0234612077474594,-64.06871032714844,1.258642077445984,70.67000579833984,25.21,2
-0.1356426477432251,-0.9068084359169006,-0.0038605039007961,-52.83421325683594,1.258169174194336,68.90737915039062,25.21,2
-0.1766120344400406,-0.8618261814117432,0.0031203250400722,-42.45040130615234,1.2578656673431396,67.7762222290039,25.21,2
-0.2420882433652877,-0.8385569453239441,0.0020024450495839,-34.09210968017578,1.2576708793640137,67.0503158569336,25.21,2
-0.3009004294872284,-0.8180263042449951,-0.0043127201497554,-27.524492263793945,1.257545828819275,66.58446502685547,25.21,2
-0.3162516057491302,-0.8104487061500549,0.0028301188722252,-21.77284812927246,1.2574656009674072,66.28551483154297,25.21,2
-0.2925164699554443,-0.855965793132782,0.024207305163145,-16.53768539428711,1.2574141025543213,66.09366607666016,25.21,2
-0.2660890817642212,-0.9075671434402466,0.0491214990615844,-12.189268112182615,1.2573810815811155,65.97054290771484,25.21,2
-0.2267383933067321,-0.9910618662834167,0.0875010937452316,-8.96521282196045,1.2573598623275757,65.89153289794922,25.21,2
-0.1846920698881149,-1.0558395385742188,0.1065331324934959,-6.634671211242676,1.2550510168075562,65.84082794189453,25.19,2
-0.1577091664075851,-1.1198011636734009,0.1019534766674041,-4.770058155059815,1.25356924533844,65.80828857421875,25.19,2
-0.1515886336565017,-1.2056303024291992,0.0766234248876571,-3.1793737411499023,1.2526183128356934,65.78740692138672,25.19,2
-0.1756497025489807,-1.2047327756881714,0.0603680536150932,-2.0618345737457275,1.252008080482483,65.77400207519531,25.19,2
-0.2414706796407699,-1.120190143585205,0.0611318387091159,-1.5667818784713743,1.2516164779663086,65.7654037475586,25.19,2
-0.294906347990036,-1.037946701049805,0.0672197639942169,-1.3816407918930054,1.2513651847839355,65.7598876953125,25.19,2
-0.3403938412666321,-0.9907653331756592,0.0823221951723098,-1.065786361694336,1.2512038946151731,65.75634765625,25.19,2
-0.319205105304718,-0.9828781485557556,0.0920140668749809,-0.6158913969993591,1.2511004209518433,65.75407409667969,25.19,2
-0.2664229869842529,-0.977816641330719,0.0982337519526481,-0.2841838002204895,1.2473615407943726,65.75261688232422,25.19,2
-0.1989638060331344,-0.9409818053245544,0.1134207397699356,-0.07847810536623,1.2449620962142944,65.75167846679688,25.19,2
-0.1724657118320465,-0.883756697177887,0.1287646442651748,0.1323486268520355,1.243422269821167,65.7510757446289,25.19,2
-0.1890474110841751,-0.8134462237358093,0.1162203848361969,0.2139064520597458,1.2424341440200806,65.75068664550781,25.19,2
-0.2164819091558456,-0.7851183414459229,0.0913768783211708,-0.0669339671730995,1.2417999505996704,65.75044250488281,25.19,2
-0.2396855652332306,-0.7669391632080078,0.0698359683156013,-0.5946710109710693,1.241392970085144,65.75028228759766,25.19,2
-0.2545763254165649,-0.7496750354766846,0.0728055760264396,-0.9727506041526794,1.2411317825317385,65.75018310546875,25.19,2
-0.2641323804855346,-0.7385959029197693,0.0803090706467628,-0.9968432188034058,1.24096417427063,65.75011444091797,25.19,2
-0.2814604341983795,-0.7650725841522217,0.0907221585512161,-0.7794370651245117,1.240856647491455,65.75007629394531,25.19,2
-0.3037761449813843,-0.8548348546028137,0.108600229024887,-0.4285463392734527,1.2407876253128052,65.75004577636719,25.19,2
-0.3236948549747467,-0.923634707927704,0.1256711184978485,0.0187548361718654,1.2407432794570925,65.75003051757812,25.19,2
-0.3420753180980682,-1.018166422843933,0.1198329105973243,0.4562751650810241,1.2407149076461792,65.7500228881836,25.19,2
-0.3482730686664581,-1.1627980470657349,0.0992929637432098,0.8445277214050293,1.240696668624878,65.75001525878906,25.19,2
-0.3746415078639984,-1.2556142807006836,0.0917093828320503,1.297892689704895,1.240684986114502,65.75000762939453,25.19,2
-0.413954347372055,-1.2368096113204956,0.0868426784873008,1.8252862691879272,1.2406774759292605,65.75000762939453,25.19,2
-0.4391830861568451,-1.1855573654174805,0.0781217291951179,2.2819621562957764,1.2406727075576782,65.75000762939453,25.19,2
-0.4665689766407013,-1.0575045347213743,0.0613295771181583,2.6610121726989746,1.2392923831939695,64.8364486694336,25.19,2
-0.4785459041595459,-0.9585342407226562,0.0449555665254592,2.893517017364502,1.2384066581726074,64.25017547607422,25.19,2
-0.4526453614234924,-0.9342052340507508,0.0176543463021516,2.641476631164551,1.2378382682800293,63.87394332885742,25.19,2
-0.3912416696548462,-0.9633744955062866,0.0057317693717777,1.816955208778381,1.237473487854004,63.63249969482422,25.19,2
-0.3350430130958557,-0.9485070109367372,0.0148738687857985,0.771933913230896,1.2372393608093262,63.47755432128906,25.19,2
-0.2709890604019165,-0.8717926144599915,0.0263385158032178,-0.2426278442144394,1.2370891571044922,63.37812042236328,25.19,2
-0.2186873704195022,-0.8169639110565186,0.022500317543745,-1.180321216583252,1.2369927167892456,63.31430816650391,25.19,2
-0.2019164860248565,-0.7817780375480652,0.0200371835380792,-1.778496265411377,1.2369308471679688,63.27335739135742,25.19,2
-0.2191427648067474,-0.7647955417633057,0.0184564851224422,-1.839938759803772,1.2355139255523682,63.24707794189453,25.21,2
-0.2413931488990783,-0.7538971304893494,0.0174420848488807,-1.6715795993804932,1.2346047163009644,63.2302131652832,25.21,2
-0.2500743865966797,-0.7636964917182922,0.0223888754844665,-1.6996742486953735,1.2340211868286133,63.21939086914063,25.21,2
-0.244449958205223,-0.7867785096168518,0.0255634412169456,-1.9541538953781128,1.2336467504501345,63.21244430541992,25.21,2
-0.2072538882493972,-0.8855578303337097,0.0443940162658691,-2.2536020278930664,1.2334064245224,63.207984924316406,25.21,2
-0.1553947180509567,-0.9993286728858948,0.0620761699974536,-2.409945011138916,1.2332521677017212,63.20512390136719,25.21,2
-0.1221144795417785,-1.0779380798339844,0.0678257867693901,-2.19859266281128,1.233153223991394,63.20328903198242,25.21,2
-0.1175504624843597,-1.2515360116958618,0.0323311351239681,-1.5219900608062744,1.2330896854400637,63.202110290527344,25.21,2
-0.1370126456022262,-1.3237568140029907,0.0039549367502331,-0.6041377782821655,1.2316718101501465,63.20135498046875,25.21,2
-0.2054800987243652,-1.2805395126342771,-0.0086574973538517,0.235667273402214,1.2307618856430054,63.200870513916016,25.21,2
-0.2550163269042969,-1.2304140329360962,0.0112374396994709,0.7674407362937927,1.2301779985427856,63.20055770874024,25.21,2
-0.2756102979183197,-1.1590620279312134,0.0352004133164882,0.8579220175743103,1.2298033237457275,63.20035934448242,25.21,2
-0.2160552442073822,-1.1356635093688965,0.0337851494550704,0.6580422520637512,1.2295628786087036,63.20022964477539,25.21,2
-0.1442495882511139,-1.1094521284103394,0.0384746864438056,0.6479958891868591,1.2294085025787354,63.20014953613281,25.21,2
-0.1093644052743911,-0.9750779271125792,0.0750708058476448,1.1395267248153689,1.2293094396591189,63.20009613037109,25.21,2
-0.1261615306138992,-0.8496598601341248,0.092958316206932,1.7953076362609863,1.229245901107788,63.2000617980957,25.21,2
-0.1537342816591262,-0.7691737413406372,0.0932419449090957,2.0047781467437744,1.2301232814788818,63.20003890991211,25.21,2
-0.2106132954359054,-0.717522382736206,0.0822284072637558,1.6448087692260742,1.2306864261627195,63.20002365112305,25.21,2
-0.2583105266094208,-0.6787777543067932,0.0807583332061767,1.0161352157592771,1.231047749519348,63.20001602172852,25.21,2
-0.2945176362991333,-0.6819025874137878,0.0854126960039138,0.2580138146877289,1.2312796115875244,63.20001220703125,25.21,2
-0.3345465958118438,-0.7062990069389343,0.0883995965123176,-0.640501081943512,1.2314285039901731,63.200008392333984,25.21,2
-0.3602348864078522,-0.7723351716995239,0.0903164222836494,-1.453566312789917,1.2315239906311035,63.20000457763672,25.21,2
-0.3711223602294922,-0.8930822610855103,0.0915465280413627,-1.925188660621643,1.2315852642059326,63.20000457763672,25.21,2
-0.378109335899353,-0.992961883544922,0.0923359394073486,-2.14903211593628,1.2316246032714844,63.20000457763672,25.21,2
-0.3769953846931457,-1.0402655601501465,0.087244763970375,-2.217447757720948,1.2284365892410278,62.590965270996094,25.21,2
-0.3930738568305969,-1.1377955675125122,0.0839775428175926,-1.8995128870010376,1.226390719413757,62.20011901855469,25.21,2
-0.431380957365036,-1.144407033920288,0.0818808227777481,-1.0147912502288818,1.225077748298645,61.94929504394531,25.21,2
-0.4951486587524414,-1.0758787393569946,0.0525464005768299,0.3196434080600738,1.2242351770401,61.788330078125,25.21,2
-0.5472666621208191,-1.0542924404144287,0.0225257072597742,1.892521858215332,1.2236944437026978,61.68503189086914,25.21,2
-0.5975063443183899,-1.040439486503601,-0.0135331694036722,3.3998827934265137,1.223347544670105,61.618743896484375,25.21,2
-0.6017583608627319,-1.0035606622695925,-0.025478133931756,4.374385356903076,1.223124861717224,61.576202392578125,25.21,2
-0.531715989112854,-1.007882833480835,-0.0219481736421585,4.526865005493164,1.2229819297790527,61.54890060424805,25.21,2
-0.4307891130447387,-0.9826676249504088,0.0306971203535795,3.972688913345337,1.2228902578353882,61.53137969970703,25.23,2
-0.3436289429664612,-0.9217038154602052,0.0868729352951049,2.950691699981689,1.22283136844635,61.520137786865234,25.23,2
-0.2876945734024048,-0.837798535823822,0.1285211145877838,1.624890923500061,1.2227935791015625,61.51292419433594,25.23,2
-0.2685924470424652,-0.795148491859436,0.1384551972150802,0.2940031588077545,1.2227693796157837,61.50829315185547,25.23,2
-0.2955182194709778,-0.7565826177597046,0.1336347758769989,-0.5851621031761169,1.222753882408142,61.50532150268555,25.23,2
-0.3351887166500091,-0.7318332195281982,0.1137479767203331,-0.8305104374885559,1.2227438688278198,61.503414154052734,25.23,2
-0.355049192905426,-0.7215482592582703,0.1009857729077339,-0.7586760520935059,1.222737431526184,61.50218963623047,25.23,2
-0.3286100625991821,-0.7317413091659546,0.092795729637146,-0.837967038154602,1.2227333784103394,61.50140380859375,25.23,2
-0.2948496341705322,-0.8390425443649292,0.0987353771924972,-1.2435264587402344,1.220435380935669,61.50090026855469,25.23,2
-0.2451952695846557,-0.9918689131736756,0.1081448793411254,-1.8298054933547967,1.2189606428146362,61.50057601928711,25.23,2
-0.1965366303920745,-1.0451619625091553,0.1141833513975143,-2.2991926670074463,1.2180142402648926,61.500370025634766,25.23,2
-0.1709080934524536,-1.118546724319458,0.0900696292519569,-2.4212894439697266,1.2174068689346311,61.50023651123047,25.23,2
-0.171254500746727,-1.1936297416687012,0.057801503688097,-2.1378040313720703,1.2170171737670898,61.50015258789063,25.23,2
-0.2498456388711929,-1.1186625957489014,0.0762780979275703,-1.5331355333328247,1.2167670726776123,61.500099182128906,25.23,2
-0.3226720094680786,-1.0145753622055054,0.1217219606041908,-0.794001579284668,1.2166064977645874,61.50006484985352,25.23,2
-0.3806033432483673,-0.9477781057357788,0.1676785349845886,-0.1477043777704239,1.2165035009384155,61.50004196166992,25.23,2
-0.3785958886146545,-0.9552914500236512,0.1747797280550003,0.3243731558322906,1.217814564704895,61.50002670288086,25.23,2
-0.2821454703807831,-0.9881019592285156,0.1233591139316558,0.6989768743515015,1.2186559438705444,61.50001525878906,25.23,2
-0.186662495136261,-1.0035600662231443,0.0959580987691879,0.9823669195175172,1.21919584274292,61.5000114440918,25.23,2
-0.1365825682878494,-0.9854913353919984,0.0895692557096481,1.074665904045105,1.219542384147644,61.50000762939453,25.23,2
-0.1548241227865219,-0.9011247754096984,0.0966648161411285,0.8437094688415527,1.2197647094726562,61.50000381469727,25.23,2
-0.2001171559095382,-0.8469831943511963,0.090022787451744,0.2834987044334411,1.2199074029922483,61.50000381469727,25.23,2
-0.262770265340805,-0.8234337568283081,0.0633692145347595,-0.3232099711894989,1.2199989557266235,61.50000381469727,25.23,2
-0.3141729533672333,-0.8139188885688782,0.0350689403712749,-0.6767349243164062,1.220057725906372,61.50000381469727,25.23,2
-0.3415624797344208,-0.8190083503723145,0.0113096768036484,-0.8964417576789856,1.2178000211715698,61.27071762084961,25.23,2
-0.3423461616039276,-0.8390677571296692,0.018453449010849,-1.2917999029159546,1.2163511514663696,61.123573303222656,25.23,2
-0.3428491055965423,-0.8295496702194214,0.0398312322795391,-1.871532320976257,1.215421438217163,61.02914810180664,25.23,2
-0.3599651753902435,-0.8906148076057434,0.0759413614869117,-2.31522274017334,1.2148247957229614,60.96855163574219,25.23,2
-0.3765470683574676,-1.0249650478363037,0.0935169905424118,-2.2130396366119385,1.2144418954849243,60.92966079711914,25.23,2
-0.3871883749961853,-1.1559654474258425,0.0991982445120811,-1.2446552515029907,1.2141962051391602,60.90470504760742,25.23,2
-0.3548329174518585,-1.2456318140029907,0.1084419190883636,0.3835018873214721,1.2140384912490845,60.88869094848633,25.23,2
-0.317275732755661,-1.29197895526886,0.119971752166748,1.9335025548934937,1.213937282562256,60.878414154052734,25.23,2
-0.3155647814273834,-1.2601463794708252,0.1385664790868759,2.935368776321411,1.2129545211791992,60.87181854248047,25.19,2
-0.3256623446941376,-1.1165670156478882,0.1449017375707626,3.5460658073425293,1.212323784828186,60.867584228515625,25.19,2
-0.3321423828601837,-1.0356215238571167,0.1433695703744888,3.937975883483887,1.2119190692901611,60.8648681640625,25.19,2
-0.3195075690746307,-1.0452508926391602,0.1087996587157249,3.87421464920044,1.21165931224823,60.86312484741211,25.19,2
-0.305801510810852,-1.0514304637908936,0.0866146832704544,3.091703176498413,1.211492657661438,60.86200714111328,25.19,2
-0.2858102023601532,-1.0386028289794922,0.0835731923580169,1.751209735870361,1.211385726928711,60.861289978027344,25.19,2
-0.2337965071201324,-0.9743931293487548,0.0872191116213798,0.4395537078380584,1.2113170623779297,60.8608283996582,25.19,2
-0.1892215609550476,-0.9107959270477296,0.100754402577877,-0.1729068458080291,1.211272954940796,60.86053085327149,25.19,2
-0.194202572107315,-0.869982898235321,0.0982450246810913,0.1075754687190055,1.210785746574402,60.8603401184082,25.19,2
-0.2141924202442169,-0.8381936550140381,0.0910368710756301,0.7103167772293091,1.2104730606079102,60.8602180480957,25.19,2
-0.2494118511676788,-0.8065975904464722,0.0696177706122398,0.8355934023857117,1.2102724313735962,60.86014175415039,25.19,2
-0.2720136642456054,-0.7863211035728455,0.0502744540572166,0.2818728983402252,1.2101436853408811,60.86009216308594,25.19,2
-0.264127105474472,-0.8068954348564148,0.0434588007628917,-0.539207935333252,1.2100610733032229,60.86005783081055,25.19,2
-0.2478704154491424,-0.8704788088798523,0.0446826815605163,-1.2918325662612915,1.2100080251693726,60.86003875732422,25.19,2
-0.2430355846881866,-0.9560651779174804,0.0454680956900119,-1.875135898590088,1.209973931312561,60.86002349853516,25.19,2
-0.223139539361,-1.0053918361663818,0.0515699051320552,-2.0595898628234863,1.2099521160125732,60.86001586914063,25.19,2
-0.2103714048862457,-1.053840160369873,0.0498879216611385,-1.6405754089355469,1.2076427936553955,60.86001205444336,25.19,2
-0.2133730947971344,-1.140909194946289,0.043210744857788,-0.94893217086792,1.2061607837677002,60.860008239746094,25.19,2
-0.2432882785797119,-1.112818479537964,0.0613168142735958,-0.5086579322814941,1.205209732055664,60.86000442504883,25.19,2
-0.2680839002132416,-1.044411540031433,0.0897295698523521,-0.4554001092910766,1.204599380493164,60.86000442504883,25.19,2
-0.3007896244525909,-0.9893163442611694,0.1471476554870605,-0.6397594213485718,1.2042076587677002,60.86000442504883,25.19,2
-0.332973837852478,-0.998741626739502,0.1951908320188522,-0.8691304326057434,1.2039562463760376,60.86000442504883,25.19,2
-0.3088456094264984,-1.032779097557068,0.2148266285657882,-0.8013730049133301,1.2037949562072754,60.86000442504883,25.19,2
-0.2037971019744873,-1.0602201223373413,0.1714500039815902,-0.2169213145971298,1.203691482543945,60.86000442504883,25.19,2
-0.1083941534161567,-1.0498414039611816,0.1436133831739425,0.6095506548881531,1.2054611444473269,60.68803787231445,25.19,2
-0.0751589015126228,-0.9424209594726562,0.148140549659729,1.2008365392684937,1.2065967321395874,60.57768249511719,25.19,2
-0.0818193033337593,-0.851093590259552,0.1510458141565323,1.3760830163955688,1.2073255777359009,60.50686264038086,25.19,2
-0.1308757662773132,-0.8260716199874878,0.1193236038088798,1.191192388534546,1.2077932357788086,60.4614143371582,25.19,2
-0.2015417963266372,-0.8324050307273865,0.0653794705867767,0.6712917685508728,1.2080934047698977,60.432247161865234,25.19,2
-0.2524889707565307,-0.8308717012405396,0.0195656828582286,-0.106589950621128,1.2082860469818115,60.41352844238281,25.19,2
-0.2851839363574981,-0.818692147731781,-0.0154327442869544,-0.9676297307014464,1.2084096670150757,60.40151596069336,25.19,2
-0.3005678951740265,-0.7996804118156433,-0.0322949439287185,-1.824714422225952,1.208488941192627,60.39380645751953,25.19,2
-0.3104404509067535,-0.7706865072250366,-0.0207250360399484,-2.6506004333496094,1.2071627378463743,60.388858795166016,25.19,2
-0.3335694074630737,-0.847241997718811,-0.0133001348003745,-3.2773361206054688,1.206311583518982,60.385684967041016,25.19,2
-0.3652055561542511,-0.9299575686454772,-0.0029374861624091,-3.43592381477356,1.2057653665542605,60.38364791870117,25.19,2
-0.4190944731235504,-1.1173862218856812,-0.0018851095810532,-3.02538800239563,1.205414891242981,60.38234329223633,25.19,2
-0.4256883859634399,-1.3048404455184937,-0.0124053042382001,-2.106318473815918,1.2051899433135986,60.38150405883789,25.19,2
-0.3963333368301391,-1.2795956134796145,0.0088323140516877,-0.6638594269752502,1.2050455808639526,60.38096618652344,25.19,2
-0.355103850364685,-1.162635087966919,0.0616458132863044,1.2577836513519287,1.2049529552459717,60.380619049072266,25.19,2
-0.3230473697185516,-1.0427943468093872,0.1067340299487114,3.1250996589660645,1.2048934698104858,60.38039779663086,25.19,2
-0.330464243888855,-1.044256329536438,0.1412668228149414,4.172967433929443,1.2048553228378296,60.38025665283203,25.19,2
-0.3240284323692322,-1.1123677492141724,0.1354391127824783,4.196982383728027,1.2048308849334717,60.380165100097656,25.19,2
-0.2695183157920837,-1.1560777425765991,0.0757214799523353,3.5675301551818848,1.204815149307251,60.38010787963867,25.19,2
-0.1561680138111114,-1.195323824882507,0.042995911091566,2.622615098953247,1.2048050165176392,60.380069732666016,25.19,2
-0.0050574769265949,-1.2037163972854614,0.0499833971261978,1.5074971914291382,1.2047985792160034,60.38004684448242,25.19,2
0.1087098941206932,-1.1531245708465576,0.0768586620688438,0.4157082438468933,1.2047944068908691,60.38003158569336,25.19,2
0.2376969754695892,-1.0646798610687256,0.0829101130366325,-0.4389898180961609,1.204791784286499,60.38002014160156,25.19,2
0.3764512240886688,-0.9799323081970216,0.0923913568258285,-0.9839032292366028,1.204790115356445,60.38001251220703,25.19,2
0.4375068247318268,-0.9535350799560548,0.0313025824725627,-1.244032859802246,1.2047890424728394,60.380008697509766,25.19,2
0.4207110702991485,-0.93099707365036,-0.0470850989222526,-1.235422968864441,1.204788327217102,60.3800048828125,25.19,2
0.3819436430931091,-0.9501200914382936,-0.0805964767932891,-1.0221081972122192,1.2047878503799438,60.3800048828125,25.19,2
0.3458693921566009,-1.007174372673035,-0.1188954710960388,-0.7849029302597046,1.2047874927520752,60.3800048828125,25.19,2
0.2723390460014343,-1.066179633140564,-0.1378757953643798,-0.7186600565910339,1.2047873735427856,60.3800048828125,25.19,2
0.2643359005451202,-1.1488280296325684,-0.1108718439936637,-0.8624431490898132,1.204787254333496,60.3800048828125,25.19,2
0.2591999471187591,-1.2578446865081787,-0.0935422629117965,-1.037114143371582,1.2047871351242063,60.3800048828125,25.19,2
0.2335128933191299,-1.4901407957077026,-0.1383988857269287,-0.9485836625099182,1.2047871351242063,60.3800048828125,25.19,2
0.121866263449192,-1.6224217414855957,-0.2175652533769607,-0.5442600250244141,1.2024917602539062,60.16504669189453,25.19,2
-0.0001620859693503,-1.5897587537765503,-0.2459785640239715,-0.2310497462749481,1.2010186910629272,60.027099609375,25.19,2
-0.1176572740077972,-1.4680376052856443,-0.2306259572505951,-0.2844122946262359,1.2000733613967896,59.938575744628906,25.19,2
-0.2322433441877365,-1.3731306791305542,-0.1815891116857528,-0.2255103439092636,1.1994667053222656,59.88176345825195,25.19,2
-0.3841469287872314,-1.245051622390747,-0.0717512369155883,0.5288046002388,1.1990773677825928,59.845306396484375,25.19,2
-0.4704343676567077,-1.1516622304916382,-0.0012636184692382,1.822542667388916,1.1988275051116943,59.8219108581543,25.19,2
-0.4978198111057281,-1.114121437072754,0.0103846313431859,3.0683681964874268,1.1986671686172483,59.8068962097168,25.19,2
-0.4986008703708648,-1.0284544229507446,0.0402509048581123,3.968179225921631,1.1985642910003662,59.79726028442383,25.19,2
-0.515895426273346,-0.9175004959106444,0.0650151371955871,4.456061840057373,1.2012529373168943,59.79107666015625,25.19,2
-0.5661785006523132,-0.7287433743476868,0.075309619307518,4.357160568237305,1.2029783725738523,59.787109375,25.19,2
-0.6152406334877014,-0.5908165574073792,0.0931115746498107,3.4840292930603027,1.2040855884552002,59.78456115722656,25.19,2
-0.6523236632347107,-0.586269736289978,0.1269269436597824,1.949243307113648,1.2047961950302124,59.78292846679688,25.19,2
-0.6481325030326843,-0.6393295526504517,0.1878121197223663,0.1331485211849212,1.205252170562744,59.78187942504883,25.19,2
-0.6454429030418396,-0.6285980939865112,0.2492758184671402,-1.6162763833999634,1.2055448293685913,59.78120422363281,25.19,2
-0.6884990334510803,-0.5545380115509033,0.3055129945278168,-3.0613884925842285,1.2057325839996338,59.7807731628418,25.19,2
-0.7273255586624146,-0.5014126896858215,0.3416028022766113,-3.988778114318848,1.2058531045913696,59.780494689941406,25.19,2
-0.7074599862098694,-0.4673199355602264,0.3871542513370514,-4.322395324707031,1.202716827392578,59.78031539916992,25.19,2
-0.6667225360870361,-0.4174523055553436,0.4443754255771637,-4.174651622772217,1.2007042169570925,59.78020095825195,25.19,2
-0.6405795812606812,-0.3630590140819549,0.4866944551467895,-3.603355646133423,1.1994125843048096,59.78012847900391,25.19,2
-0.6517913937568665,-0.2721748054027557,0.5082545876502991,-2.566789150238037,1.198583722114563,59.78008270263672,25.19,2
-0.6757798194885254,-0.2082527726888656,0.5164928436279297,-1.1349092721939087,1.1980518102645874,59.780052185058594,25.19,2
-0.7079675197601318,-0.2344045788049698,0.5217797160148621,0.525581955909729,1.197710394859314,59.780033111572266,25.19,2
-0.745417058467865,-0.3631427884101867,0.5699546933174133,2.2468011379241943,1.1974912881851196,59.78002166748047,25.19,2
-0.8198300004005432,-0.5409217476844788,0.6512506008148193,3.641569137573242,1.1973507404327393,59.78001403808594,25.19,2
-0.9179639220237732,-0.67180335521698,0.7538015842437744,4.085246562957764,1.1990966796875,59.78001022338867,25.19,2
-0.9865384101867676,-0.7781867384910583,0.8084173798561096,3.477911710739136,1.2002171277999878,59.780006408691406,25.19,2
-0.9633722305297852,-0.8408597111701965,0.8490644097328186,2.6654152870178223,1.2009360790252686,59.78000259399414,25.19,2
-0.8757344484329224,-0.7075486183166504,0.7687916159629822,2.412694931030273,1.2013975381851196,59.78000259399414,25.19,2
-0.7971025109291077,-0.5660194754600525,0.6836905479431152,2.408146858215332,1.2016936540603638,59.78000259399414,25.19,2
-0.713054358959198,-0.3408476114273071,0.5730998516082764,1.993232011795044,1.2018836736679075,59.78000259399414,25.19,2
-0.6591171026229858,-0.1907474994659423,0.4965313076972961,1.2325681447982788,1.2020056247711182,59.78000259399414,25.19,2
-0.6301010847091675,-0.1783885061740875,0.4417962431907654,0.5652890205383301,1.2020838260650637,59.78000259399414,25.19,2
-0.5107203125953674,-0.2936082482337951,0.4066704213619232,0.1084070727229118,1.2016750574111938,59.57221221923828,25.19,2
-0.3725330829620361,-0.4515162706375122,0.400922030210495,-0.3030184209346771,1.201412796974182,59.43886566162109,25.19,2
-0.35102578997612,-0.5472548007965088,0.4700041115283966,-0.8823142647743225,1.2012444734573364,59.35329055786133,25.19,2
-0.4099946916103363,-0.4295654594898224,0.553521454334259,-1.6768169403076172,1.2011364698410034,59.29837417602539,25.19,2
-0.5038152933120728,-0.2924637198448181,0.6910846829414368,-2.451793670654297,1.2010672092437744,59.26313018798828,25.19,2
-0.3960907161235809,-0.2940441071987152,0.8185492753982544,-2.952711582183838,1.201022744178772,59.24051284790039,25.19,2
-0.3437526226043701,-0.3006560802459717,0.9003486633300781,-3.1738598346710205,1.2009941339492798,59.22599792480469,25.19,2
-0.3605450093746185,-0.2993014752864837,0.8968650698661804,-3.204720258712769,1.200975775718689,59.21668243408203,25.19,2
-0.3433325290679931,-0.2648455202579498,0.8946295380592346,-3.102717161178589,1.1977508068084717,59.2107048034668,25.19,2
-0.3938620686531067,-0.1979514807462692,0.8652060031890869,-2.9656057357788086,1.1956812143325806,59.20687103271485,25.19,2
-0.443082332611084,-0.1214360892772674,0.7903459072113037,-2.723564863204956,1.194353103637695,59.20441055297852,25.19,2
-0.4522779583930969,-0.0835284665226936,0.7311094999313354,-2.1311628818511963,1.1935007572174072,59.20283126831055,25.19,2
-0.4022014439105987,-0.0871904045343399,0.704290509223938,-1.2279372215270996,1.1929538249969482,59.20181655883789,25.19,2
-0.3700652122497558,-0.0783448815345764,0.6982752084732056,-0.3975186347961426,1.1926027536392212,59.20116424560547,25.19,2
-0.310257613658905,-0.0446794591844081,0.705610454082489,0.1425613164901733,1.1923775672912598,59.20074844360352,25.19,2
-0.2718765437602997,-0.0342704802751541,0.7327088713645935,0.3780936896800995,1.192232966423035,59.20048141479492,25.19,2
-0.2472457885742187,-0.0219928212463855,0.7668924331665039,0.1387440711259842,1.181581974029541,59.20030975341797,25.19,2
-0.1810592114925384,-0.0197115018963813,0.7552428245544434,-0.6847984194755554,1.1747467517852783,59.20019912719727,25.19,2
-0.1217911541461944,0.0041436157189309,0.7421690225601196,-1.6969481706619265,1.1703603267669678,59.20012664794922,25.19,2
-0.1005496531724929,0.0306480061262846,0.7673656344413757,-2.2891664505004883,1.1675454378128052,59.20008087158203,25.19,2
-0.0589292049407959,0.0140703506767749,0.8339153528213501,-2.307377815246582,1.1657389402389526,59.20005035400391,25.19,2
-0.0154262743890285,0.025822864845395,0.8822208642959595,-2.0826148986816406,1.1645796298980713,59.20003128051758,25.19,2
0.0292847268283367,0.0333649516105651,0.9636005759239196,-1.9849485158920288,1.1638356447219849,59.20001983642578,25.19,2
0.0411843508481979,0.0214117057621479,1.043814182281494,-2.155139207839966,1.163358211517334,59.20001220703125,25.19,2
0.0544186159968376,0.0193385742604732,1.1120840311050415,-2.561711549758911,1.1635111570358276,59.200008392333984,25.19,2
0.0517160594463348,0.0459970273077487,1.1111135482788086,-3.016085386276245,1.163609266281128,59.20000457763672,25.19,2
0.0331883914768695,0.0575071163475513,1.1048929691314695,-3.182286262512207,1.1636722087860107,59.20000457763672,25.19,2
0.0045050773769617,0.0481003075838089,1.1009008884429932,-3.045329332351685,1.1637126207351685,59.20000457763672,25.19,2
-0.0194999985396862,0.0700524300336837,1.075947880744934,-3.122236728668213,1.163738489151001,59.20000457763672,25.19,2
-0.0684917196631431,0.0841400399804115,1.0263478755950928,-3.508353471755981,1.163755178451538,59.20000457763672,25.19,2
-0.1223228797316551,0.087582878768444,0.9497352838516236,-3.129190444946289,1.1637659072875977,59.20000457763672,25.19,2
-0.2016508132219314,0.1177811697125434,0.878178596496582,-0.7936410307884216,1.163772702217102,59.20000457763672,25.19,2
-0.364514410495758,0.1147695928812027,0.8882353901863098,3.173574447631836,1.158727526664734,60.52913665771485,25.19,2
-0.5529975295066833,0.0120770055800676,0.9954491853713988,6.862346649169922,1.155489802360535,61.38209915161133,25.19,2
-0.6067818403244019,-0.0258363187313079,1.0082751512527466,8.380517959594727,1.1534119844436646,61.929481506347656,25.19,2
-0.6468952894210815,-0.0389713607728481,0.904550552368164,7.416619777679443,1.1520785093307495,62.280757904052734,25.19,2
-0.6838333606719971,-0.0474006719887256,0.7708128094673157,5.21454668045044,1.151222825050354,62.50618743896485,25.19,2
-0.74112468957901,-0.0752012208104133,0.7297698259353638,3.120693683624268,1.150673747062683,62.650856018066406,25.19,2
-0.7778909802436829,-0.0874442383646965,0.6866374611854553,1.4939558506011963,1.150321364402771,62.74369812011719,25.19,2
-0.8126810193061829,-0.0897033214569091,0.5805887579917908,-0.019308365881443,1.1500952243804932,62.80327606201172,25.19,2
-0.8406050205230713,-0.0631642043590545,0.5349239110946655,-1.5923067331314087,1.14765465259552,62.84151077270508,25.21,2
-0.8697205781936646,-0.0293396022170782,0.5168144106864929,-2.813138723373413,1.146088480949402,62.86604690551758,25.21,2
-0.8996008634567261,-0.0188284683972597,0.5107905268669128,-2.983977794647217,1.1450834274291992,62.88179397583008,25.21,2
-0.9019829630851746,-0.0400719009339809,0.5237180590629578,-1.8576239347457888,1.14443838596344,62.89189910888672,25.21,2
-0.8699250221252441,-0.0593024864792823,0.5432097315788269,-0.0027010738849639,1.1440244913101196,62.89838409423828,25.21,2
-0.8325587511062622,-0.0772413462400436,0.4773495495319366,1.714320421218872,1.1437588930130005,62.90254592895508,25.21,2
-0.7805903553962708,-0.1111445650458335,0.4294865131378174,2.826953649520874,1.1435884237289429,62.905216217041016,25.21,2
-0.7192511558532715,-0.1273039281368255,0.4379551708698272,3.250788927078247,1.1434789896011353,62.90692901611328,25.21,2
-0.7078760862350464,-0.1376740783452987,0.4098032414913177,3.0319693088531494,1.1484583616256714,62.90802764892578,25.21,2
-0.6613917946815491,-0.1723179221153259,0.2965747714042663,2.372069835662842,1.1516538858413696,62.90873336791992,25.21,2
-0.5979741811752319,-0.2673214077949524,0.195922389626503,1.4828495979309082,1.1537045240402222,62.90918731689453,25.21,2
-0.5796675086021423,-0.3394847214221954,0.1369272619485855,0.4428817629814148,1.1550205945968628,62.90947723388672,25.21,2
-0.6015059947967529,-0.4921526908874511,0.1886319816112518,-0.5075332522392273,1.15586519241333,62.909664154052734,25.21,2
-0.6155206561088562,-0.5957239866256714,0.272193044424057,-0.9956473112106324,1.156407117843628,62.909786224365234,25.21,2
-0.6357100009918213,-0.6230056881904602,0.3426110744476318,-1.0007892847061155,1.156754970550537,62.90986251831055,25.21,2
-0.6710574626922607,-0.7188823223114014,0.4661701321601867,-0.8249602913856506,1.1569781303405762,62.909912109375,25.21,2
-0.7049369812011719,-0.8083993196487427,0.5622565746307373,-0.7300362586975098,1.1695157289505005,62.909942626953125,25.21,2
-0.676298975944519,-0.8770416975021362,0.5679415464401245,-0.8088399171829224,1.177561640739441,62.90996170043945,25.21,2
-0.6299318671226501,-0.9154946804046632,0.5771875977516174,-1.0385403633117676,1.182724952697754,62.90997695922852,25.21,2
-0.611371636390686,-0.9793559908866882,0.6167078614234924,-1.3614951372146606,1.1860384941101074,62.90998458862305,25.21,2
-0.599460780620575,-1.003545165061951,0.5804941654205322,-1.7013041973114014,1.1881649494171145,62.90998840332031,25.21,2
-0.5750237703323364,-1.0190683603286743,0.5348631739616394,-1.7330801486968994,1.189529538154602,62.90999221801758,25.21,2
-0.5201570391654968,-1.0346280336380005,0.4719932079315185,-1.0548698902130127,1.190405249595642,62.90999603271485,25.21,2
-0.4905445277690887,-1.0502111911773682,0.4484401941299438,0.1649504601955413,1.190967321395874,62.90999603271485,25.21,2
-0.4043676257133484,-1.054613709449768,0.6348451375961304,1.2666102647781372,1.2147393226623535,64.0456771850586,25.21,2
-0.4050419926643371,-1.0798301696777344,0.7152846455574036,1.941348910331726,1.2299948930740356,64.77449035644531,25.21,2
-0.3886814415454864,-1.0792192220687866,0.6549506187438965,2.363609552383423,1.239785075187683,65.24220275878906,25.21,2
-0.3781821727752685,-1.0564360618591309,0.4482984840869903,2.634592056274414,1.246067762374878,65.54235076904297,25.21,2
-0.3938354551792145,-1.0194240808486938,0.2653010785579681,2.507556676864624,1.2500996589660645,65.73497009277344,25.21,2
-0.3926852941513061,-0.950889766216278,0.1422660946846008,1.7166827917099,1.2526870965957642,65.85858154296875,25.21,2
-0.4535226821899414,-0.9125061631202698,0.1472759395837783,0.4926303625106811,1.254347562789917,65.93790435791016,25.21,2
-0.4869668483734131,-0.8822759985923767,0.200870931148529,-0.2893135249614715,1.2554131746292114,65.98881530761719,25.21,2
-0.4412561058998108,-0.8124960064888,0.2688517570495605,0.1367670446634292,1.2964930534362793,66.021484375,25.21,2
-0.4119215905666351,-0.7453241348266602,0.3348690271377563,1.4455653429031372,1.322855830192566,66.04244995117188,25.21,2
-0.4434763491153717,-0.7805859446525574,0.3436484634876251,2.5577526092529297,1.3397738933563232,66.05590057373047,25.21,2
-0.5364974141120911,-0.8759860396385193,0.3380870521068573,2.984884262084961,1.3506309986114502,66.06453704833984,25.21,2
-0.6073885560035706,-0.9092194437980652,0.3569091558456421,3.0977768898010254,1.3575984239578247,66.07007598876953,25.21,2
-0.6025024652481079,-0.992122232913971,0.4473569393157959,2.9982612133026123,1.3620697259902954,66.0736312866211,25.21,2
-0.5657801628112793,-1.028531193733215,0.5389877557754517,2.3002820014953613,1.3649390935897827,66.07591247558594,25.21,2
-0.4918339550495147,-1.0351029634475708,0.642573356628418,1.1752521991729736,1.3667805194854736,66.07737731933594,25.21,2
-0.3884017765522003,-1.0673092603683472,0.6698642373085022,0.3708736300468445,1.4161622524261477,66.07831573486328,25.21,2
-0.3556116223335266,-1.0655863285064695,0.6705846190452576,0.0839545950293541,1.447852611541748,66.07891845703125,25.21,2
-0.3513621091842651,-1.0364917516708374,0.6598513722419739,-0.0643477737903595,1.4681895971298218,66.07930755615234,25.21,2
-0.337439477443695,-1.0626027584075928,0.6025834083557129,-0.1631022691726684,1.4812407493591309,66.07955932617188,25.21,2
-0.3061136305332184,-1.1129459142684937,0.5378432273864746,-0.129747673869133,1.4896161556243896,66.07971954345703,25.21,2
-0.2636193931102752,-1.1396554708480835,0.4515145421028137,-0.1979070007801056,1.4949910640716553,66.07981872558594,25.21,2
-0.2363490462303161,-1.1959805488586426,0.3681248724460602,-0.6966348886489868,1.4984403848648071,66.07988739013672,25.21,2
-0.2132507264614105,-1.204137921333313,0.370587944984436,-1.654388189315796,1.500653862953186,66.07992553710938,25.21,2
-0.2152208834886551,-1.1477973461151123,0.4225485622882843,-2.8816394805908203,1.5406697988510132,66.0799560546875,25.21,2
-0.2444740831851959,-1.066859006881714,0.5118716359138489,-4.235265731811523,1.566349744796753,66.07997131347656,25.21,2
-0.184878259897232,-0.9925262928009032,0.5300096273422241,-5.60550594329834,1.5828297138214111,66.0799789428711,25.21,2
-0.1074486747384071,-0.928030490875244,0.519258439540863,-6.742792129516602,1.5934056043624878,66.07998657226562,25.21,2
-0.0801499262452125,-0.8586519360542297,0.5347500443458557,-7.325751781463623,1.6001925468444824,66.07999420166016,25.21,2
-0.0962178036570549,-0.8085309863090515,0.5838760733604431,-7.097989082336426,1.604548096656799,66.07999420166016,25.21,2
-0.1121270209550857,-0.7091929912567139,0.6042068004608154,-5.805399894714356,1.6073431968688965,66.07999420166016,25.21,2
-0.1279344111680984,-0.5782702565193176,0.5388850569725037,-3.535695075988769,1.609136939048767,66.07999420166016,25.21,2
-0.1772631108760833,-0.4830560386180877,0.4745742082595825,-1.0724252462387085,1.6635372638702393,67.07237243652344,25.21,2
-0.2648971676826477,-0.4387463629245758,0.4500965476036072,1.0815715789794922,1.6984483003616333,67.70922088623047,25.21,2
-0.3323312103748321,-0.4047131836414337,0.4567793011665344,3.406100273132324,1.7208521366119385,68.11791229248047,25.21,2
-0.3868020474910736,-0.3716771006584167,0.4834589958190918,5.940378189086914,1.7352296113967896,68.38018798828125,25.21,2
-0.4273560643196106,-0.3840630948543548,0.5061782598495483,7.505828380584717,1.7444562911987305,68.54850006103516,25.21,2
-0.4365879893302917,-0.3976095020771026,0.5207581520080566,7.392680644989014,1.7503774166107178,68.6565170288086,25.21,2
-0.4257191717624664,-0.434291660785675,0.5245169401168823,6.610718727111816,1.7541773319244385,68.725830078125,25.21,2
-0.4131464064121246,-0.4746254980564117,0.5213313102722168,6.671365261077881,1.7566158771514893,68.77031707763672,25.21,2
-0.3994801640510559,-0.5229005217552185,0.5360803008079529,7.763561725616455,1.8036264181137085,68.79886627197266,25.19,2
-0.4075032770633697,-0.5482828617095947,0.5399475693702698,8.453722953796387,1.8337950706481927,68.81718444824219,25.19,2
-0.4238476157188415,-0.5645717978477478,0.5480271577835083,7.234313488006592,1.8531556129455569,68.82894134521484,25.19,2
-0.4119453728199005,-0.6086117625236511,0.5644077062606812,4.044275760650635,1.8655800819396973,68.83648681640625,25.19,2
-0.3819160759449005,-0.6368740797042847,0.5861153602600098,-0.0306443441659212,1.8735533952713013,68.84132385253906,25.19,2
-0.3514494597911834,-0.6494134068489075,0.6056438684463501,-3.9103426933288574,1.8786702156066888,68.84442901611328,25.19,2
-0.3374955356121063,-0.6406671404838562,0.6125783324241638,-6.847931861877441,1.8819539546966555,68.84642791748047,25.19,2
-0.3341384828090668,-0.6350542902946472,0.6170284748077393,-8.539648056030273,1.8840612173080444,68.84770965576172,25.19,2
-0.3487774431705475,-0.6258544921875,0.6254820823669434,-9.36376667022705,1.9285638332366943,68.84852600097656,25.19,2
-0.3693674206733703,-0.614352822303772,0.6253093481063843,-9.964289665222168,1.957123160362244,68.84905242919922,25.19,2
-0.376983106136322,-0.6181672811508179,0.619600772857666,-10.546712875366213,1.975450873374939,68.8493881225586,25.19,2
-0.3874681890010834,-0.6206151247024536,0.6159372925758362,-10.737767219543455,1.9872125387191768,68.849609375,25.19,2
-0.3941969275474548,-0.6333816051483154,0.6135863065719604,-9.875165939331056,1.994760513305664,68.84974670410156,25.19,2
-0.4041128158569336,-0.6471721529960632,0.6120775938034058,-7.422833442687988,1.999604344367981,68.84983825683594,25.19,2
-0.399280697107315,-0.6560221314430237,0.6223049163818359,-3.5812971591949463,2.0027127265930176,68.84989929199219,25.19,2
-0.3905819654464721,-0.6617015600204468,0.6344659924507141,0.5247991681098938,2.0047075748443604,68.84993743896484,25.19,2
-0.3905973732471466,-0.6709440350532532,0.6422702670097351,3.6578335762023926,2.027634382247925,68.84996032714844,25.19,2
-0.4465850293636322,-0.6656798124313354,0.6136919856071472,5.4893059730529785,2.0423474311828613,68.8499755859375,25.19,2
-0.4433302581310272,-0.6455081701278687,0.617743194103241,6.431771755218506,2.0517895221710205,68.84998321533203,25.19,2
-0.4356437623500824,-0.649356484413147,0.6203429698944092,6.653256893157959,2.0578489303588867,68.84999084472656,25.19,2
-0.4307110011577606,-0.6686194539070129,0.6220113635063171,5.960652828216553,2.061737537384033,68.84999084472656,25.19,2
-0.438740998506546,-0.6585902571678162,0.6286798119544983,4.5990400314331055,2.06423282623291,68.84999084472656,25.19,2
-0.4103075265884399,-0.6521540880203247,0.6441547870635986,3.495950698852539,2.065834283828736,68.84999084472656,25.19,2
-0.4088538885116577,-0.631230354309082,0.642890214920044,3.350515842437744,2.066862106323242,68.84999084472656,25.19,2
-0.4471054375171661,-0.6234005093574524,0.6140897870063782,3.72650146484375,2.088178873062134,69.67040252685547,25.19,2
-0.4716530740261078,-0.6351690888404846,0.6012051105499268,3.555791139602661,2.101858615875244,70.1968994140625,25.19,2
-0.4762108027935028,-0.6091348528862,0.6041320562362671,2.4287877082824707,2.1106374263763428,70.53477478027344,25.19,2
-0.4399512708187103,-0.6148186326026917,0.633999228477478,1.00335693359375,2.1162712574005127,70.75160217285156,25.19,2
-0.4502686262130737,-0.5568906664848328,0.6419707536697388,0.0850149467587471,2.119886636734009,70.8907470703125,25.19,2
-0.4400964081287384,-0.5589002370834351,0.6638797521591187,-0.2499612271785736,2.122206926345825,70.98004150390625,25.19,2
-0.3831884860992431,-0.543396532535553,0.7059285044670105,-0.432686448097229,2.1236958503723145,71.03734588623047,25.19,2
-0.3690593540668487,-0.5446427464485168,0.7049241065979004,-0.81147700548172,2.124651432037353,71.0741195678711,25.19,2
-0.3320032060146332,-0.5342469215393066,0.737866222858429,-1.4378986358642578,2.1408722400665283,71.09772491455078,25.21,2
-0.3026249408721924,-0.5331732630729675,0.7590065598487854,-2.1480014324188232,2.1512815952301025,71.11286926269531,25.21,2
-0.2781738936901092,-0.5380820035934448,0.7725732326507568,-2.646695375442505,2.157961845397949,71.12258911132812,25.21,2
-0.2568848431110382,-0.5300366282463074,0.775681734085083,-2.680122375488281,2.1622488498687744,71.12882995605469,25.21,2
-0.2488205283880233,-0.5360690951347351,0.7888721823692322,-2.225091457366944,2.164999961853028,71.13282775878906,25.21,2
