acc_x,acc_y,acc_z,bvp,eda,hr,temp,label
0.0,0.0,0.0,0.0,0.0,0.0,30.83,2
-0.0208333320915699,-0.1406249850988388,0.0833333283662796,8.38499927520752,0.2913618087768554,29.474998474121094,30.83,2
-0.0655487850308418,-0.3292682766914367,0.207698181271553,18.80682945251465,0.6822130680084229,69.01463317871094,30.83,2
-0.0944767445325851,-0.4883720874786377,0.3208575844764709,27.06830596923828,1.0221863985061646,103.40731048583984,30.83,2
-0.0995666533708572,-0.6097850799560547,0.4087516665458679,30.90213966369629,1.2702152729034424,128.49862670898438,30.83,2
-0.1249716207385063,-0.6700279116630554,0.4463007748126983,30.170597076416016,1.4381412267684937,145.48651123046875,30.83,2
-0.1360878646373748,-0.726215124130249,0.4709383845329284,26.01224136352539,1.5483248233795166,156.63299560546875,30.83,2
-0.1544459760189056,-0.762604832649231,0.4813156425952911,19.72688102722168,1.6196852922439575,163.85203552246094,30.83,2
-0.1830422729253769,-0.8084067702293396,0.4488691389560699,13.52066707611084,1.6647367477416992,168.50233459472656,30.83,2
-0.1846383959054947,-0.8154670000076294,0.4168251156806946,10.14752960205078,1.6936932802200315,171.49127197265625,30.83,2
-0.1632774174213409,-0.8423867225646973,0.4242303371429443,10.284521102905272,1.7122877836227417,173.41062927246094,30.83,2
-0.1271765679121017,-0.8652640581130981,0.4289838373661041,11.819680213928224,1.7242238521575928,174.6427001953125,30.83,2
-0.1207992732524871,-0.8295689821243286,0.4376322627067566,12.40731430053711,1.7318845987319946,175.43345642089844,30.83,2
-0.1334995627403259,-0.8514423966407776,0.4263895153999328,11.279783248901367,1.736801028251648,175.94093322753906,30.83,2
-0.1528455018997192,-0.8374910950660706,0.4191744327545166,8.395906448364258,1.7399561405181885,176.26661682128906,30.83,2
-0.154065191745758,-0.8453311324119568,0.4089464247226715,3.679133653640747,1.7419809103012085,176.47561645507812,30.83,2
-0.1492501497268676,-0.8447647094726562,0.4079804122447967,-2.29628586769104,1.7643964290618896,176.6097412109375,30.83,2
-0.1461601257324218,-0.849998950958252,0.4017626941204071,-7.907927513122559,1.7787814140319824,176.69581604003906,30.83,2
-0.149774894118309,-0.8533579707145691,0.3921747505664825,-11.082831382751465,1.7880128622055054,176.7510528564453,30.83,2
-0.1520946472883224,-0.8555136322975159,0.3860217630863189,-9.67386531829834,1.793937087059021,176.7864990234375,30.83,2
-0.1535833328962326,-0.8624947667121887,0.3764753639698028,-1.858883023262024,1.7977389097213743,176.8092498779297,30.83,2
-0.1601364612579345,-0.8669748902320862,0.364751249551773,11.994537353515623,1.8001786470413208,176.8238525390625,30.83,2
-0.1699396520853042,-0.8754477500915527,0.3572273850440979,27.788488388061523,1.8017443418502808,176.83322143554688,30.83,2
-0.1762307733297348,-0.880885124206543,0.346801221370697,39.64735412597656,1.8027491569519043,176.8392333984375,30.83,2
-0.1746702790260315,-0.8843744993209839,0.3401103317737579,44.05845260620117,1.7965081930160522,176.8430938720703,30.87,2
-0.1680710762739181,-0.8922115564346313,0.3358165025711059,41.76974105834961,1.7925031185150146,176.84556579589844,30.87,2
-0.1638360917568206,-0.897240936756134,0.3330609500408172,35.912322998046875,1.7899329662322998,176.84715270996094,30.87,2
-0.1611183136701584,-0.9060662984848022,0.3256948292255401,29.104597091674805,1.7882835865020752,176.84817504882812,30.87,2
-0.1593742072582245,-0.9117298722267152,0.3209676742553711,22.3748722076416,1.7872251272201538,176.8488311767578,30.87,2
-0.1638527065515518,-0.9153644442558287,0.323531836271286,15.777605056762695,1.7865458726882937,176.84925842285156,30.87,2
-0.1555311977863311,-0.900903582572937,0.3251773715019226,8.892752647399902,1.7861099243164062,176.8495330810547,30.87,2
-0.1501909345388412,-0.8860256671905518,0.3262333869934082,0.2076033949851989,1.7858301401138306,176.84970092773438,30.87,2
-0.141166090965271,-0.9100645184516908,0.3325088322162628,-13.530714988708496,1.7842735052108765,176.0688018798828,30.87,2
-0.146570011973381,-0.947882354259491,0.3365360796451568,-35.78183364868164,1.783274531364441,175.5676727294922,30.87,2
-0.144440159201622,-0.9553583264350892,0.3447183072566986,-66.55550384521484,1.7826334238052368,175.24607849121094,30.87,2
-0.1430733501911163,-0.96015602350235,0.3443714082241058,-101.26510620117188,1.782222032546997,175.03968811035156,30.87,2
-0.1421962082386016,-0.9688326716423036,0.3497465550899505,-133.92919921875,1.781957983970642,174.90724182128906,30.87,2
-0.136035531759262,-0.9744008183479308,0.3867826759815216,-159.4983367919922,1.7817884683609009,174.82225036621094,30.87,2
-0.1208864226937294,-0.9443874955177308,0.4273436367511749,-173.44589233398438,1.7816797494888306,174.7677001953125,30.87,2
-0.1391534656286239,-0.9195289015769958,0.4197866916656494,-173.56558227539062,1.7816100120544434,174.73269653320312,30.87,2
-0.1732673048973083,-0.8923805356025696,0.3701548874378204,-164.15216064453125,1.7838605642318726,174.71023559570312,30.87,2
-0.1895618289709091,-0.8749582767486572,0.3327062726020813,-157.43763732910156,1.7853049039840698,174.69581604003906,30.87,2
-0.183225393295288,-0.869375467300415,0.3254672288894653,-170.40382385253906,1.7862317562103271,174.6865692138672,30.87,2
-0.1959523558616638,-0.8769882917404175,0.3152238428592682,-213.14974975585932,1.786826491355896,174.68063354492188,30.87,2
-0.2097175568342209,-0.8874714970588684,0.3142479956150055,-271.8754272460937,1.7872081995010376,174.67681884765625,30.87,2
-0.2185512781143188,-0.8997967839241028,0.3192195296287536,-311.06329345703125,1.7874531745910645,174.67437744140625,30.87,2
-0.218622475862503,-0.9077064990997314,0.3280077576637268,-303.0765380859375,1.787610411643982,174.6728057861328,30.87,2
-0.2242659330368042,-0.92397803068161,0.3392453193664551,-250.39242553710932,1.787711262702942,174.6717987060547,30.87,2
-0.2278875857591629,-0.9512134790420532,0.3632502555847168,-176.5618438720703,1.7859399318695068,174.67115783691406,30.87,2
-0.2246139794588089,-0.9630938172340392,0.3842530250549316,-106.54691314697266,1.78480327129364,174.67074584960938,30.87,2
-0.2113176137208938,-0.9819135069847108,0.4033291637897491,-56.832618713378906,1.784073829650879,174.67047119140625,30.87,2
-0.1971870064735412,-1.0107842683792114,0.4267666637897491,-31.502870559692383,1.783605694770813,174.67030334472656,30.87,2
-0.1993143409490585,-1.0237140655517578,0.4362097382545471,-23.1114501953125,1.783305287361145,174.67019653320312,30.87,2
-0.206277310848236,-1.0376094579696655,0.3974875509738922,-21.531015396118164,1.783112406730652,174.6701202392578,30.87,2
-0.2107457518577575,-1.0633200407028198,0.3558445572853088,-22.23641967773437,1.782988667488098,174.67007446289062,30.87,2
-0.20241779088974,-1.0462329387664795,0.3179249465465545,-25.38678741455078,1.782909274101257,174.6700439453125,30.87,2
-0.1914756000041961,-0.9960830211639404,0.2935903072357178,-29.37534523010254,1.7819401025772097,174.67002868652344,30.91,2
-0.1620624363422393,-0.9191174507141112,0.2723759710788727,-29.240875244140625,1.781318187713623,174.67001342773438,30.91,2
-0.1487845331430435,-0.8921164870262146,0.2307729572057724,-22.05391502380371,1.780919075012207,174.67001342773438,30.91,2
-0.1458613127470016,-0.8803865909576416,0.1928789913654327,-10.516618728637695,1.7806628942489624,174.67001342773438,30.91,2
-0.1607786864042282,-0.895250141620636,0.1573652774095535,0.2513925433158874,1.780498504638672,174.67001342773438,30.91,2
-0.1759495735168457,-0.8935931324958801,0.1289768517017364,7.254828929901123,1.7803930044174194,174.67001342773438,30.91,2
-0.1856853812932968,-0.8645408749580383,0.110758788883686,10.45233917236328,1.7803252935409546,174.67001342773438,30.91,2
-0.1919332593679428,-0.8291035294532776,0.1102630347013473,11.490447998046877,1.780281901359558,174.67001342773438,30.91,2
-0.2015405595302581,-0.8175573945045471,0.1155426651239395,12.282036781311035,1.7825493812561035,173.9570770263672,30.91,2
-0.2077059745788574,-0.8437344431877136,0.1301263719797134,13.642685890197754,1.7840044498443604,173.4995574951172,30.91,2
-0.2116625756025314,-0.8605333566665649,0.1506809145212173,14.999520301818848,1.7849382162094116,173.20594787597656,30.91,2
-0.2086039185523986,-0.8825094699859619,0.1862627267837524,15.519165992736816,1.7855374813079834,173.01751708984375,30.91,2
-0.2010432779788971,-0.9190035462379456,0.2314881831407547,14.842357635498049,1.7859220504760742,172.89659118652344,30.91,2
-0.1961912959814071,-0.9592167139053344,0.2605112791061401,12.677637100219728,1.7861688137054443,172.81900024414062,30.91,2
-0.1986753493547439,-1.0074142217636108,0.2847343981266022,8.529861450195312,1.786327242851257,172.76919555664062,30.91,2
-0.1946716904640197,-1.0439424514770508,0.2946816384792328,2.027536630630493,1.786428928375244,172.73724365234375,30.91,2
-0.1865046024322509,-1.112166404724121,0.3066629767417907,-6.3297295570373535,1.7851170301437378,172.71673583984375,30.91,2
-0.1812634319067001,-1.1167641878128052,0.3143519163131714,-14.182832717895508,1.7842751741409302,172.7035675048828,30.91,2
-0.1890954971313476,-1.0917258262634275,0.3192862272262573,-17.939939498901367,1.783734917640686,172.6951141357422,30.91,2
-0.2109149992465973,-0.9916910529136658,0.3224527835845947,-16.188081741333008,1.7833881378173828,172.689697265625,30.91,2
-0.2193197160959243,-0.8771145343780518,0.3020938038825989,-11.50992488861084,1.7831655740737915,172.68621826171875,30.91,2
-0.2079200595617294,-0.8427703380584717,0.283430814743042,-7.038897514343262,1.7830227613449097,172.68399047851562,30.91,2
-0.2062021940946579,-0.8767079710960388,0.2770517468452453,-2.854844093322754,1.782931208610535,172.68255615234375,30.91,2
-0.2106975466012954,-0.9264760613441468,0.2729580402374267,2.248479127883911,1.782872438430786,172.681640625,30.91,2
-0.2079846262931823,-0.930425465106964,0.2815264761447906,7.726782321929932,1.7837525606155396,172.68104553222656,30.91,2
-0.1950480788946151,-0.8825799822807312,0.2814274132251739,12.46051788330078,1.7843173742294312,172.6806640625,30.91,2
-0.1755505949258804,-0.8350821733474731,0.281363844871521,16.698518753051758,1.7846797704696655,172.680419921875,30.91,2
-0.1574404686689376,-0.7990030646324158,0.2813230454921722,20.482250213623047,1.784912347793579,172.68026733398438,30.91,2
-0.1458184272050857,-0.7870451211929321,0.275699108839035,22.387374877929688,1.785061597824097,172.68017578125,30.91,2
-0.1439578384160995,-0.7961645126342773,0.2720899879932403,21.639556884765625,1.7851574420928955,172.68011474609375,30.91,2
-0.1707526892423629,-0.7964190244674683,0.3033604919910431,19.067426681518555,1.7852189540863037,172.68006896972656,30.91,2
-0.1991436332464218,-0.7965824007987976,0.3346236646175384,14.848074913024902,1.785258412361145,172.68003845214844,30.91,2
-0.2397544085979461,-0.8302738666534424,0.3546865582466125,7.633457183837891,1.7866607904434204,172.68002319335938,30.91,2
-0.2658160626888275,-0.8798840045928955,0.367561787366867,-3.663642168045044,1.7875608205795288,172.6800079345703,30.91,2
-0.2825409471988678,-0.9397097826004028,0.3814221322536468,-18.44046211242676,1.7881383895874023,172.6800079345703,30.91,2
-0.2708829045295715,-1.0452758073806765,0.3847191333770752,-33.84537124633789,1.7885090112686155,172.6800079345703,30.91,2
-0.2689992189407348,-1.1298153400421145,0.3868349492549896,-45.121395111083984,1.7887468338012695,172.6800079345703,30.91,2
-0.2789859175682068,-1.1616768836975098,0.3937905430793762,-48.32013320922852,1.788899540901184,172.6800079345703,30.91,2
-0.2909925878047943,-1.1429393291473389,0.3814609050750732,-43.13968276977539,1.7889975309371948,172.6800079345703,30.91,2
-0.2819044589996338,-0.9965680837631226,0.328766256570816,-32.47088623046875,1.789060354232788,172.6800079345703,30.91,2
-0.2592788934707641,-0.8970376253128052,0.2837543189525604,-20.225326538085938,1.7913960218429563,172.03155517578125,30.91,2
-0.2447591125965118,-0.8947402834892273,0.2380749285221099,-9.708558082580566,1.792894959449768,171.61541748046875,30.91,2
-0.2466367036104202,-0.9492437243461608,0.2031627595424652,-1.9707112312316888,1.793856859207153,171.34835815429688,30.91,2
-0.2478416264057159,-0.9954164028167723,0.1695625782012939,4.797028541564941,1.7944742441177368,171.17698669433594,30.91,2
-0.2318215519189834,-0.9858629703521729,0.131206601858139,12.98786163330078,1.794870376586914,171.06700134277344,30.91,2
-0.2215407937765121,-0.9573410153388976,0.1065919399261474,22.951770782470703,1.795124650001526,170.99642944335938,30.91,2
-0.2205409705638885,-0.8998528718948364,0.107588991522789,33.16505813598633,1.795287847518921,170.9511260986328,30.91,2
-0.2198993414640426,-0.8741558194160461,0.1250221729278564,41.7148551940918,1.7953925132751465,170.92205810546875,30.91,2
-0.2138898074626922,-0.857664942741394,0.1474053263664245,46.7824592590332,1.7968368530273438,170.90341186523438,30.91,2
-0.2044354528188705,-0.8470820188522339,0.1673673242330551,46.70992660522461,1.797763705253601,170.8914337158203,30.91,2
-0.1815748810768127,-0.8178994059562683,0.1913733333349228,40.50851440429688,1.7983585596084597,170.88375854492188,30.91,2
-0.1669042706489563,-0.810367226600647,0.2179745584726333,28.85492706298828,1.798740267753601,170.8788299560547,30.91,2
-0.1630872935056686,-0.8503157496452332,0.2350456863641739,15.328938484191896,1.798985242843628,170.87567138671875,30.91,2
-0.1774311065673828,-0.8927457332611084,0.2404031753540039,5.599042892456055,1.7991424798965454,170.87364196777344,30.91,2
-0.2034294605255127,-0.9367681741714478,0.2326457649469375,3.245633602142334,1.7992433309555054,170.87232971191406,30.91,2
-0.2201137095689773,-1.0209969282150269,0.2276674956083297,6.747374057769775,1.7993080615997314,170.87149047851562,30.91,2
-0.2420162409543991,-1.0918434858322144,0.2300705164670944,11.77825164794922,1.8007267713546753,170.87095642089844,30.91,2
-0.2896586656570434,-1.1485042572021484,0.2596015036106109,15.243228912353516,1.8016371726989744,170.87060546875,30.91,2
-0.3314283788204193,-1.112094759941101,0.2953461110591888,16.789745330810547,1.802221417427063,170.87039184570312,30.91,2
-0.3526360094547272,-0.9599804878234864,0.2902960777282715,18.201372146606445,1.8025963306427,170.87025451660156,30.91,2
-0.3046703338623047,-0.9239377975463868,0.2534686028957367,20.98812484741211,1.8028368949890137,170.8701629638672,30.91,2
-0.2738887369632721,-0.9176009893417358,0.2298348546028137,23.86918830871582,1.802991271018982,170.87010192871094,30.91,2
-0.2877215147018432,-0.9807077050209044,0.2258636206388473,24.256397247314453,1.803090453147888,170.87005615234375,30.91,2
-0.3021963834762573,-0.9764237403869628,0.2289128899574279,21.92184829711914,1.8031539916992188,170.8700408935547,30.91,2
-0.294692188501358,-0.9009035229682922,0.2308697253465652,18.464000701904297,1.8068673610687256,170.87002563476562,30.91,2
-0.2730830907821655,-0.8412434458732605,0.2209299653768539,13.941356658935549,1.8092503547668457,170.87001037597656,30.91,2
-0.2704111635684967,-0.8085547685623169,0.2145511955022812,7.055160045623779,1.8107795715332031,170.87001037597656,30.91,2
-0.2686964869499206,-0.8043704032897949,0.2328487783670425,-1.899545431137085,1.8117610216140747,170.87001037597656,30.91,2
-0.2564005553722381,-0.8128806948661804,0.2501888871192932,-9.899599075317385,1.812390804290772,170.87001037597656,30.91,2
-0.2429119646549224,-0.823939859867096,0.2725123167037964,-12.776551246643066,1.8127950429916384,170.87001037597656,30.91,2
-0.2566468417644501,-0.8590258359909058,0.2812404334545135,-8.36047077178955,1.813054442405701,170.87001037597656,30.91,2
-0.2710588872432709,-0.9039331078529358,0.2980371713638305,1.119193434715271,1.8132208585739136,170.87001037597656,30.91,2
-0.2915032505989074,-0.9439475536346436,0.3312074542045593,10.64913272857666,1.80965518951416,170.26097106933594,30.91,2
-0.3102210462093353,-0.9752243161201476,0.3524942398071289,16.589353561401367,1.807366967201233,169.8701171875,30.91,2
-0.3110375106334686,-1.034480333328247,0.3605571091175079,17.832738876342773,1.8058984279632568,169.61929321289062,30.91,2
-0.3059636950492859,-1.1004962921142578,0.3657313883304596,14.05930519104004,1.804956078529358,169.4583282470703,30.91,2
-0.3027076125144958,-1.1372637748718262,0.3690519332885742,6.023836612701416,1.8043513298034668,169.3550262451172,30.91,2
-0.2782269418239593,-1.0712946653366089,0.3431940078735351,-2.425250768661499,1.8039631843566888,169.2887420654297,30.91,2
-0.2457233220338821,-0.9729817509651184,0.315404325723648,-5.7659125328063965,1.8037141561508176,169.24620056152344,30.91,2
-0.2024732828140258,-0.9378790259361268,0.2863749563694,-2.2457051277160645,1.8035542964935305,169.21890258789062,30.91,2
-0.1971089839935302,-0.9153521656990052,0.245354488492012,3.309330940246582,1.803451657295227,169.20138549804688,30.91,2
-0.1992642730474472,-0.9288845658302308,0.2022365778684616,4.26611852645874,1.803385853767395,169.1901397705078,30.91,2
-0.2118429541587829,-0.9263733625411988,0.1465771198272705,-0.27519690990448,1.803343653678894,169.18292236328125,30.91,2
-0.2199152261018753,-0.9191640019416808,0.1108580827713012,-4.6118340492248535,1.803316593170166,169.1782989501953,30.91,2
-0.2306933254003524,-0.8753530383110046,0.1047289818525314,-3.282041549682617,1.803299188613892,169.17532348632812,30.91,2
-0.2376100867986679,-0.8248465657234192,0.1231867745518684,3.794276475906372,1.8032879829406736,169.1734161376953,30.91,2
-0.2476466447114944,-0.7980322241783142,0.1350319236516952,13.136101722717283,1.8032808303833008,169.1721954345703,30.91,2
-0.2372941970825195,-0.786422073841095,0.1538290083408355,21.689105987548828,1.8032761812210083,169.17140197753906,30.91,2
-0.2194550484418869,-0.7789713740348816,0.1714896708726883,28.1380615234375,1.8046504259109497,169.1708984375,30.91,2
-0.1856158077716827,-0.7853854894638062,0.2052143663167953,32.29096221923828,1.8055323362350464,169.1705780029297,30.91,2
-0.1583019644021988,-0.8342838883399963,0.238052487373352,34.30402374267578,1.806098222732544,169.1703643798828,30.91,2
-0.1519690603017807,-0.888055145740509,0.2591260969638824,33.919246673583984,1.8064614534378047,169.17022705078125,30.91,2
-0.1758938431739807,-0.9561491012573242,0.2726499140262604,30.44799995422364,1.806694507598877,169.17015075683594,30.91,2
-0.1968451589345932,-1.0110434293746948,0.2813287377357483,23.881855010986328,1.8068441152572632,169.1700897216797,30.91,2
-0.2214860618114471,-1.0798580646514893,0.2980938553810119,16.311208724975586,1.806940078735352,169.17005920410156,30.91,2
-0.2540924847126007,-1.107226014137268,0.3144505023956299,11.50654125213623,1.807001709938049,169.1700439453125,30.91,2
-0.2750174105167389,-1.068811535835266,0.3249472677707672,11.9985933303833,1.802450895309448,169.17002868652344,30.91,2
-0.2548591792583465,-0.9433993697166444,0.3204879462718963,17.58074951171875,1.7995303869247437,169.17001342773438,30.91,2
-0.2251294702291488,-0.8909059166908264,0.3064306676387787,26.95966339111328,1.7976561784744265,169.17001342773438,30.91,2
-0.2284417450428009,-0.907598614692688,0.2806161940097809,37.93679428100586,1.7964534759521484,169.17001342773438,30.91,2
-0.2473607063293457,-0.979886531829834,0.2808432579040527,45.54016876220703,1.7956815958023071,169.17001342773438,30.91,2
-0.2539040148258209,-0.9814945459365844,0.2865867614746094,44.50474548339844,1.7951862812042236,169.17001342773438,30.91,2
-0.2301142811775207,-0.9153531789779664,0.2790770530700683,34.79068374633789,1.7948683500289917,169.17001342773438,30.91,2
-0.2092496156692505,-0.8505163788795471,0.2798555195331573,20.87213134765625,1.7946643829345703,169.17001342773438,30.91,2
-0.2014576494693756,-0.8089078664779663,0.2915506660938263,5.598846912384033,1.796369552612305,168.5932159423828,30.91,2
-0.1740661114454269,-0.7878036499023438,0.3046537041664123,-10.90924835205078,1.7974638938903809,168.22305297851562,30.91,2
-0.1564878076314926,-0.7854557633399963,0.3074646890163421,-26.59761619567871,1.7981661558151243,167.98550415039062,30.91,2
-0.1620003879070282,-0.8007423281669617,0.3092686235904693,-36.51862335205078,1.7986167669296265,167.83306884765625,30.91,2
-0.17673359811306,-0.8049545884132385,0.3160240650177002,-37.479248046875,1.7989059686660769,167.73524475097656,30.91,2
-0.1973840594291687,-0.8244510889053345,0.3147615492343902,-30.40751266479492,1.7990915775299072,167.67245483398438,30.91,2
-0.2162341177463531,-0.8817450404167175,0.3195491135120392,-17.79415512084961,1.7992106676101685,167.63217163085938,30.91,2
-0.239526554942131,-0.9409040808677672,0.3226214945316314,-1.8322926759719849,1.7992870807647705,167.60630798339844,30.91,2
-0.2544742822647095,-1.023651123046875,0.3413864970207214,14.540899276733398,1.7984179258346558,167.5897216796875,30.91,2
-0.2528713345527649,-1.093546748161316,0.3646243512630462,26.82522964477539,1.7978601455688477,167.57907104492188,30.91,2
-0.2350493371486663,-1.138401746749878,0.3795370459556579,30.44175720214844,1.7975021600723269,167.57223510742188,30.91,2
-0.2180144339799881,-1.1112093925476074,0.366716057062149,24.40448760986328,1.7972724437713623,167.56785583496094,30.91,2
-0.2070824056863784,-1.026585578918457,0.3416949808597564,14.271355628967283,1.7971251010894775,167.56503295898438,30.91,2
-0.200066864490509,-0.9610833525657654,0.2976490259170532,8.43127155303955,1.7970304489135742,167.563232421875,30.91,2
-0.2067602425813675,-0.935841143131256,0.2581872940063476,9.53066635131836,1.7969697713851929,167.56207275390625,30.91,2
-0.2390445321798324,-0.953228771686554,0.2160697132349014,12.740415573120115,1.7969307899475098,167.5613250732422,30.91,2
-0.27095827460289,-0.953191578388214,0.1666499823331833,13.392295837402344,1.7964469194412231,167.56085205078125,30.91,2
-0.2746453583240509,-0.9307766556739808,0.1293374598026275,12.356108665466309,1.7961363792419434,167.560546875,30.91,2
-0.2490226477384567,-0.8660120368003845,0.1165879815816879,13.095513343811035,1.7959370613098145,167.5603485107422,30.91,2
-0.2213839143514633,-0.8188520669937134,0.1196016520261764,17.217082977294922,1.7958091497421265,167.5602264404297,30.91,2
-0.1980492025613784,-0.7941852807998657,0.1327311992645263,23.3980712890625,1.795727014541626,167.56015014648438,30.91,2
-0.1830743253231048,-0.7951489090919495,0.1355592161417007,27.95221519470215,1.7956743240356443,167.56008911132812,30.91,2
-0.1734643131494522,-0.7957673072814941,0.137374073266983,26.762006759643555,1.7956405878067017,167.56005859375,30.91,2
-0.1728949248790741,-0.7961641550064087,0.1441365182399749,19.29878234863281,1.7956188917160034,167.56004333496094,30.91,2
-0.1669317483901977,-0.824407696723938,0.159671813249588,10.521907806396484,1.7951459884643557,167.56002807617188,30.91,2
-0.1687027066946029,-0.9041082859039308,0.1752392500638961,6.748772144317627,1.7948426008224487,167.5600128173828,30.91,2
-0.1754369735717773,-0.9720488786697388,0.1852295249700546,10.202815055847168,1.7946478128433228,167.5600128173828,30.91,2
-0.1741608679294586,-1.0716270208358765,0.197238489985466,18.782075881958008,1.7945228815078735,167.5600128173828,30.91,2
-0.1733419448137283,-1.157921552658081,0.2217384725809097,28.75880622863769,1.794442653656006,167.5600128173828,30.91,2
-0.1728163957595825,-1.1853115558624268,0.2430589199066162,35.877811431884766,1.79439115524292,167.5600128173828,30.91,2
-0.1836746782064438,-1.0965311527252195,0.2847300469875335,36.996360778808594,1.7943581342697144,167.5600128173828,30.91,2
-0.1850451231002807,-0.9723837375640868,0.3114721775054931,33.84499740600586,1.7943369150161743,167.5600128173828,30.91,2
-0.180326834321022,-0.9207019805908204,0.2950470745563507,32.929649353027344,1.7906508445739746,167.02978515625,30.91,2
-0.1717011332511901,-0.9603066444396972,0.2621152997016907,38.32513427734375,1.788285255432129,166.68951416015625,30.91,2
-0.1605678796768188,-1.0137114524841309,0.2465793490409851,46.07598876953125,1.7867672443389893,166.4711456298828,30.91,2
-0.1534231901168823,-1.0143970251083374,0.2534025907516479,48.88616561889648,1.7857930660247805,166.3310089111328,30.91,2
-0.1488381475210189,-0.9644569754600524,0.252183586359024,44.55620574951172,1.7851678133010864,166.2410888671875,30.91,2
-0.1458957195281982,-0.9100172519683838,0.2458035200834274,36.70455932617188,1.784766674041748,166.18338012695312,30.91,2
-0.1496052145957946,-0.8526898622512817,0.2417091727256775,28.86425018310547,1.7845091819763184,166.14634704589844,30.91,2
-0.146387979388237,-0.8103026747703552,0.2390816509723663,21.364397048950195,1.784343957901001,166.12257385253906,30.91,2
-0.1499211192131042,-0.805492103099823,0.2541887760162353,13.3665132522583,1.7842378616333008,166.10731506347656,30.91,2
-0.1577862650156021,-0.813600480556488,0.2750792205333709,4.611948013305664,1.7841697931289673,166.0975341796875,30.91,2
-0.1684314310550689,-0.829999566078186,0.282887727022171,-5.531021595001221,1.7841261625289917,166.09124755859375,30.91,2
-0.1920562088489532,-0.8629146218299866,0.2934965491294861,-17.56452751159668,1.7840981483459473,166.08721923828125,30.91,2
-0.224010556936264,-0.895233154296875,0.3003046810626983,-28.661725997924805,1.784080147743225,166.0846405029297,30.91,2
-0.2557125687599182,-0.927168905735016,0.3102715313434601,-33.0318489074707,1.784068584442139,166.08297729492188,30.91,2
-0.2648615539073944,-0.9868478178977966,0.3334609866142273,-28.23411750793457,1.7840611934661863,166.0819091796875,30.91,2
-0.2651350498199463,-1.058732986450195,0.3651359677314758,-19.007509231567383,1.7840564250946045,166.0812225341797,30.91,2
-0.2653105854988098,-1.1104625463485718,0.3910609185695648,-12.559765815734863,1.7840534448623655,166.08078002929688,30.91,2
-0.2822165489196777,-1.1100729703903198,0.3797091841697693,-11.861247062683104,1.784051537513733,166.08050537109375,30.91,2
-0.2874680459499359,-1.020258545875549,0.3164465725421905,-14.06408405303955,1.784050226211548,166.080322265625,30.91,2
-0.2516537308692932,-0.923436403274536,0.2758482694625854,-13.063082695007324,1.784049391746521,166.0802001953125,30.91,2
-0.2286701649427414,-0.894888162612915,0.249794602394104,-4.309746265411377,1.7840489149093628,166.0801239013672,30.91,2
-0.2307139635086059,-0.9157519340515136,0.2162815481424331,10.185264587402344,1.784048557281494,166.080078125,30.91,2
-0.2376233339309692,-0.951532244682312,0.1835792362689972,23.10214614868164,1.784048318862915,166.08004760742188,30.91,2
-0.2420573681592941,-0.968896210193634,0.1402016878128051,30.030078887939453,1.7840481996536257,166.0800323486328,30.91,2
-0.2505006492137909,-0.92406165599823,0.1235600188374519,33.626956939697266,1.783589243888855,166.08001708984375,30.91,2
-0.2559190690517425,-0.872898280620575,0.1296736747026443,38.314056396484375,1.783294677734375,166.08001708984375,30.91,2
-0.2649940550327301,-0.8400645852088928,0.1391948461532592,44.62510299682617,1.7831056118011477,166.08001708984375,30.91,2
-0.2764156460762024,-0.8357871174812317,0.1453049778938293,49.89682769775391,1.7829843759536743,166.08001708984375,30.91,2
-0.2669520378112793,-0.8442376255989075,0.1436283439397812,51.15544891357422,1.7829065322875977,166.08001708984375,30.91,2
-0.2272921949625015,-0.8496606945991516,0.1593457013368606,46.88665008544922,1.782856583595276,166.08001708984375,30.91,2
-0.196243017911911,-0.8475431203842163,0.1862255185842514,37.96723556518555,1.7828245162963867,166.08001708984375,30.91,2
-0.1763174384832382,-0.8629775047302246,0.2202687561511993,26.779842376708984,1.7828038930892944,166.08001708984375,30.91,2
-0.1691281199455261,-0.8840779662132263,0.2365179806947708,15.036215782165527,1.7818725109100342,165.82565307617188,30.91,2
-0.1869055330753326,-0.9256079196929932,0.246945783495903,3.23298454284668,1.7812747955322266,165.66241455078125,30.91,2
-0.1871185004711151,-1.0362260341644287,0.2536377608776092,-8.357717514038086,1.780891180038452,165.55764770507812,30.91,2
-0.1928529441356659,-1.1296055316925049,0.2635300457477569,-18.79816055297852,1.7806450128555298,165.49041748046875,30.91,2
-0.2021307647228241,-1.1951287984848022,0.2922694385051727,-26.046369552612305,1.780487060546875,165.44728088378906,30.91,2
-0.2136825025081634,-1.18120014667511,0.3219082951545715,-27.591760635375977,1.7803856134414673,165.41958618164062,30.91,2
-0.1931068748235702,-1.0099260807037354,0.3353310227394104,-22.500289916992188,1.7803205251693726,165.40182495117188,30.91,2
-0.1519137471914291,-0.9224033951759338,0.3047605454921722,-13.278636932373049,1.7802788019180298,165.3904266357422,30.91,2
-0.1198805943131446,-0.9222140908241272,0.2795443832874298,-4.953219890594482,1.7793338298797607,165.3831024169922,30.91,2
-0.1217146590352058,-0.9276903867721558,0.2633621096611023,-0.778365969657898,1.778727412223816,165.37840270996094,30.91,2
-0.1284894347190857,-0.9479981064796448,0.2529772520065307,1.126978874206543,1.7783381938934326,165.37539672851562,30.91,2
-0.1384348720312118,-0.9386392831802368,0.2519106268882751,5.040234088897705,1.7780884504318235,165.3734588623047,30.91,2
-0.1392195075750351,-0.8822534084320068,0.2680194675922394,12.147979736328123,1.777928113937378,165.37222290039062,30.91,2
-0.1397230327129364,-0.8404703736305237,0.2783571779727936,20.152177810668945,1.7778252363204956,165.37142944335938,30.91,2
-0.145643949508667,-0.8136564493179321,0.2849913239479065,27.02994155883789,1.7777591943740845,165.37091064453125,30.91,2
-0.1494436413049698,-0.8076443672180176,0.2948465049266815,31.94525718688965,1.777716875076294,165.37059020996094,30.91,2
-0.151882067322731,-0.8037861585617065,0.3067687749862671,33.3907356262207,1.7763125896453855,165.37037658691406,30.91,2
-0.1646424680948257,-0.795712411403656,0.3200175762176513,29.678924560546875,1.7754113674163818,165.3702392578125,30.91,2
-0.1840268969535827,-0.8017266988754272,0.3285199105739593,21.367734909057617,1.7748329639434814,165.37014770507812,30.91,2
-0.2132600396871566,-0.8503684997558594,0.3339762091636657,11.197613716125488,1.77446186542511,165.37008666992188,30.91,2
-0.2376179546117782,-0.8983773589134216,0.3374777436256408,1.8300334215164185,1.7742236852645874,165.37005615234375,30.91,2
-0.2588472366333008,-0.9459800124168396,0.3341270387172699,-6.320338249206543,1.7740708589553833,165.3700408935547,30.91,2
-0.2668732106685638,-1.0772886276245115,0.3375745415687561,-16.552053451538086,1.773972749710083,165.37002563476562,30.91,2
-0.2776215672492981,-1.178348183631897,0.3509824872016907,-33.292694091796875,1.7739098072052002,165.37001037597656,30.91,2
-0.2901170253753662,-1.209615707397461,0.3539891541004181,-54.403846740722656,1.773410439491272,165.37001037597656,30.89,2
-0.298135906457901,-1.1513125896453855,0.3391253650188446,-68.62528991699219,1.7730900049209597,165.37001037597656,30.89,2
-0.2696953117847442,-1.0131371021270752,0.3015977442264557,-65.89347076416016,1.7728843688964844,165.37001037597656,30.89,2
-0.2178571224212646,-0.9188662171363832,0.2663191258907318,-48.488075256347656,1.7727524042129517,165.37001037597656,30.89,2
-0.1733948141336441,-0.8863574862480164,0.2492771297693252,-27.502037048339844,1.7726677656173706,165.37001037597656,30.89,2
-0.1504592299461364,-0.9270707964897156,0.2271450012922287,-10.272701263427734,1.7726134061813354,165.37001037597656,30.89,2
-0.1469360440969467,-0.9755893349647522,0.1905507892370224,4.209036350250244,1.772578477859497,165.37001037597656,30.89,2
-0.1670661568641662,-0.9787368774414062,0.1334800720214843,19.29202461242676,1.7725560665130615,165.37001037597656,30.89,2
-0.1743867397308349,-0.941572368144989,0.0912576019763946,35.30183029174805,1.7707055807113647,165.13356018066406,30.89,2
-0.1846824437379837,-0.9009289741516112,0.0697594285011291,49.68521499633789,1.7695181369781494,164.9818115234375,30.89,2
-0.2080829590559005,-0.869248628616333,0.0727564543485641,58.68277740478516,1.7687560319900513,164.88442993164062,30.89,2
-0.2342956066131591,-0.8601135611534119,0.0746797770261764,59.28365707397461,1.768267035484314,164.8219451904297,30.89,2
-0.2343240529298782,-0.8486534357070923,0.0815118253231048,52.12077713012695,1.7679531574249268,164.78184509277344,30.89,2
-0.2063534259796142,-0.8412989974021912,0.1026895642280578,41.956729888916016,1.767751693725586,164.756103515625,30.89,2
-0.1828057169914245,-0.8589704036712646,0.1330735385417938,33.81112289428711,1.767622470855713,164.73959350585938,30.89,2
-0.1732919365167617,-0.8871042132377625,0.1861588805913925,29.085304260253903,1.7675395011901855,164.72898864746094,30.89,2
-0.1671865284442901,-0.9163544178009032,0.225823774933815,25.568897247314453,1.7679451704025269,164.72218322753906,30.89,2
-0.1520728915929794,-0.979907751083374,0.2456806451082229,20.141691207885746,1.7682055234909058,164.7178192138672,30.89,2
-0.1423738300800323,-1.0486814975738523,0.2696191966533661,10.686668395996094,1.768372654914856,164.71502685546875,30.89,2
-0.1417472958564758,-1.1040120124816897,0.2905793488025665,-3.85381293296814,1.7684799432754517,164.71322631835938,30.89,2
-0.1637363284826278,-1.1059333086013794,0.3152258992195129,-22.331371307373047,1.7685487270355225,164.71206665039062,30.89,2
-0.1946409344673156,-1.056786298751831,0.3142493367195129,-39.06867599487305,1.7685928344726562,164.71133422851562,30.89,2
-0.2088759690523147,-0.930084466934204,0.2856337428092956,-47.28041458129883,1.7686212062835691,164.7108612060547,30.89,2
-0.1956200897693634,-0.8879589438438416,0.2560743689537048,-46.84319305419922,1.7686394453048706,164.71055603027344,30.89,2
-0.1815154552459716,-0.9001096487045288,0.2371048629283905,-43.42068862915039,1.767732858657837,164.71035766601562,30.89,2
-0.1836594641208648,-0.958287239074707,0.2193335443735122,-39.13209915161133,1.767151117324829,164.71023559570312,30.89,2
-0.1962309181690216,-0.9956222772598268,0.2023311555385589,-30.783945083618164,1.766777753829956,164.7101593017578,30.89,2
-0.2042985558509826,-1.0027884244918823,0.2026155591011047,-17.29413414001465,1.766538143157959,164.71009826660156,30.89,2
-0.209475889801979,-0.9514094591140748,0.2139936238527298,-2.3067381381988525,1.7663843631744385,164.71006774902344,30.89,2
-0.2127984166145324,-0.9016441106796264,0.2324909567832946,10.041232109069824,1.7662856578826904,164.71005249023438,30.89,2
-0.2037350684404373,-0.8641098141670227,0.2555570304393768,17.5032958984375,1.766222357749939,164.7100372314453,30.89,2
-0.1867231875658035,-0.8400224447250366,0.2703595161437988,19.40804481506348,1.766181707382202,164.71002197265625,30.89,2
-0.1590126156806945,-0.8245645761489868,0.2742611169815063,17.13381004333496,1.7647784948349,164.71002197265625,30.89,2
-0.1580228805541992,-0.8426334261894226,0.2767649292945862,13.571365356445312,1.7638779878616333,164.71002197265625,30.89,2
-0.1629855036735534,-0.8766201138496399,0.283969521522522,10.744223594665527,1.7633000612258911,164.71002197265625,30.89,2
-0.1885613352060318,-0.904028594493866,0.2773974537849426,9.098308563232422,1.7629292011260986,164.71002197265625,30.89,2
-0.2105721980333328,-0.9496065974235536,0.2675821185111999,8.325078010559082,1.7626912593841553,164.71002197265625,30.89,2
-0.2246975004673004,-0.9732581973075868,0.2444898635149002,6.2131218910217285,1.7625385522842407,164.71002197265625,30.89,2
-0.1945778876543045,-0.9884364008903505,0.2016817182302475,-1.859539151191712,1.76244056224823,164.71002197265625,30.89,2
-0.1696510761976242,-0.9981769323349,0.1686121374368667,-17.913225173950195,1.7623776197433472,164.71002197265625,30.89,2
-0.1592522710561752,-0.9820367097854614,0.1529877632856369,-36.16887664794922,1.7618783712387085,164.5058135986328,30.89,2
-0.1581766903400421,-0.977276623249054,0.1317653805017471,-46.87043380737305,1.761557936668396,164.374755859375,30.89,2
-0.1686819940805435,-1.0134062767028809,0.0901572108268737,-46.157344818115234,1.761352300643921,164.2906494140625,30.89,2
-0.1698259115219116,-1.058983325958252,0.0410643853247165,-40.05000305175781,1.7612203359603882,164.23667907714844,30.89,2
-0.1649622321128845,-1.0658409595489502,0.0095594367012381,-37.49204254150391,1.7611356973648071,164.20204162597656,30.89,2
-0.156243234872818,-1.0422528982162476,-0.0050608529709279,-39.8271484375,1.761081337928772,164.1798095703125,30.89,2
-0.1506478786468505,-1.0215177536010742,-0.0088455379009246,-39.04000473022461,1.7610464096069336,164.16554260253906,30.89,2
-0.1414593309164047,-0.9858199954032898,-0.0112743312492966,-27.092113494873047,1.761023998260498,164.15638732910156,30.89,2
-0.1299648731946945,-0.9573134183883668,-0.0184307657182216,-4.227358818054199,1.761009693145752,164.1505126953125,30.89,2
-0.1281861662864685,-0.933421790599823,-0.0230233538895845,22.72340965270996,1.7610005140304563,164.14674377441406,30.89,2
-0.1438380181789398,-0.9180895090103148,-0.0371661633253097,46.30628204345703,1.760994553565979,164.1443328857422,30.89,2
-0.1594802588224411,-0.9194456934928894,-0.0518399775028228,61.669700622558594,1.7609907388687134,164.1427764892578,30.89,2
-0.1807140856981277,-0.9427071213722228,-0.0612567849457263,67.70286560058594,1.7609883546829224,164.14178466796875,30.89,2
-0.1943407356739044,-0.9576349258422852,-0.0617021769285202,66.28314208984375,1.7609868049621582,164.14114379882812,30.89,2
-0.2030855417251587,-0.9560192227363586,-0.0563902296125888,59.4751205444336,1.7609857320785522,164.14073181152344,30.89,2
-0.2198930084705352,-0.9493845701217652,-0.0417857766151428,48.596588134765625,1.7609851360321045,164.14047241210938,30.89,2
-0.2362768352031707,-0.9395290613174438,-0.0268157068639993,35.60022735595703,1.760525822639465,164.1403045654297,30.89,2
-0.2467910349369049,-0.9611932039260864,-0.0228065513074398,22.54524040222168,1.7602310180664062,164.14019775390625,30.89,2
-0.2535384595394134,-0.9750960469245912,-0.0258314814418554,9.302163124084473,1.7600418329238892,164.14012145996094,30.89,2
-0.2522707879543304,-0.9672247767448424,-0.0165771581232547,-5.666612148284912,1.7599204778671265,164.14007568359375,30.89,2
-0.2346639335155487,-0.9621734023094176,0.0173506047576665,-21.14097023010254,1.7598426342010498,164.14004516601562,30.89,2
-0.240158200263977,-0.9757250547409058,0.0447212643921375,-31.84177589416504,1.7597925662994385,164.14002990722656,30.89,2
-0.2884663045406341,-0.9788239598274232,0.0846772789955139,-33.89395523071289,1.759760499000549,164.1400146484375,30.89,2
-0.3026743233203888,-0.9696171283721924,0.1327098459005355,-30.36728286743164,1.759739875793457,164.1400146484375,30.89,2
-0.289401113986969,-0.9525131583213806,0.1635343879461288,-27.81746292114257,1.7601855993270874,164.1400146484375,30.91,2
-0.2472964972257614,-0.9303412437438964,0.2057068943977356,-28.423828125,1.7604715824127195,164.1400146484375,30.91,2
-0.1978850811719894,-0.9105148315429688,0.2383685559034347,-29.196292877197266,1.760655164718628,164.1400146484375,30.91,2
-0.1605779081583023,-0.8754003047943115,0.2481333762407302,-27.21645736694336,1.760772943496704,164.1400146484375,30.91,2
-0.1478318572044372,-0.8472680449485779,0.2432043403387069,-22.0301570892334,1.7608485221862793,164.1400146484375,30.91,2
-0.1340543925762176,-0.829214334487915,0.2288456112146377,-15.00467014312744,1.7608970403671265,164.1400146484375,30.91,2
-0.1196150407195091,-0.845617413520813,0.1972399055957794,-8.969940185546875,1.7609281539916992,164.1400146484375,30.91,2
-0.1103486940264701,-0.8561439514160156,0.1657616347074508,-6.605461597442627,1.7609481811523438,164.1400146484375,30.91,2
-0.0876087620854377,-0.8740948438644409,0.1343651413917541,-7.789337635040283,1.759583830833435,163.94654846191406,30.91,2
-0.0730155855417251,-0.9136035442352296,0.1086189076304435,-9.806565284729004,1.758708357810974,163.82240295410156,30.91,2
-0.0636505261063575,-0.9277623891830444,0.0976942330598831,-10.49923324584961,1.7581465244293213,163.7427215576172,30.91,2
-0.0408472456037998,-0.9760331511497498,0.0906834080815315,-10.728793144226074,1.7577859163284302,163.69158935546875,30.91,2
-0.0262134112417697,-1.0014127492904663,0.0805864855647087,-13.01490879058838,1.757554531097412,163.65878295898438,30.91,2
-0.0224200319498777,-1.012102127075195,0.0629113167524337,-17.58810043334961,1.7574059963226318,163.63772583007812,30.91,2
-0.0311812087893486,-1.0133641958236694,0.0515684112906456,-21.35406875610352,1.7573107481002808,163.62420654296875,30.91,2
-0.0368036292493343,-1.0141741037368774,0.0442891865968704,-21.59264373779297,1.7572495937347412,163.61553955078125,30.91,2
-0.0348140001296997,-0.9979005455970764,0.0396177992224693,-19.07314682006836,1.75766921043396,163.60997009277344,30.91,2
-0.0391349457204341,-0.9818593859672546,0.0366199724376201,-16.779170989990234,1.7579385042190552,163.6063995361328,30.91,2
-0.0363101027905941,-0.965967297554016,0.0458916872739791,-16.442705154418945,1.7581113576889038,163.60411071777344,30.91,2
-0.0400950573384761,-0.9333775639533995,0.051841739565134,-16.771333694458008,1.758222222328186,163.60264587402344,30.91,2
-0.0481217987835407,-0.8956700563430786,0.055660143494606,-15.481128692626951,1.758293390274048,163.60169982910156,30.91,2
-0.0588706731796264,-0.8434826731681824,0.0581105723977088,-12.818870544433594,1.7583390474319458,163.60108947753906,30.91,2
-0.0713664591312408,-0.7764051556587219,0.076476439833641,-11.637025833129885,1.7583683729171753,163.6007080078125,30.91,2
-0.0681899860501289,-0.6941742300987244,0.1162514686584472,-14.113651275634766,1.7583872079849243,163.6004638671875,30.91,2
-0.0325648598372936,-0.6414031386375427,0.164167895913124,-19.27841758728028,1.7593175172805786,163.6002960205078,30.91,2
-0.0768759921193122,-0.6131355166435242,0.2005156725645065,-23.194738388061523,1.759914517402649,163.60018920898438,30.91,2
-0.0661279112100601,-0.7293415665626526,0.218243807554245,-21.58446502685547,1.7602976560592651,163.60012817382812,30.91,2
-0.109610378742218,-1.044620156288147,0.1960340589284896,-13.228299140930176,1.7605434656143188,163.60008239746094,30.91,2
-0.4397947490215301,-1.3868921995162964,0.1593900173902511,-0.24207204580307,1.760701298713684,163.6000518798828,30.91,2
-0.5117437243461609,-1.5953471660614014,0.0966895669698715,14.540377616882324,1.7608025074005127,163.60003662109375,30.91,2
-0.6138941645622253,-1.230919599533081,0.1292230933904647,28.60901641845703,1.760867476463318,163.6000213623047,30.91,2
-0.5339062809944153,-0.7619444727897644,0.122112363576889,39.2209587097168,1.7609091997146606,163.6000213623047,30.91,2
-0.4713791310787201,-0.505765438079834,0.1455379724502563,44.37594223022461,1.7609360218048096,163.6000213623047,30.91,2
-0.4872305393218994,-0.514895498752594,0.1605711877346038,44.49203872680664,1.7609531879425049,163.6000213623047,30.91,2
-0.4526208639144897,-0.599123477935791,0.1814141869544983,42.31310272216797,1.7609641551971436,163.6000213623047,30.91,2
-0.4360081553459167,-0.6923605799674988,0.1835944801568985,41.49516296386719,1.760971188545227,163.6000213623047,30.91,2
-0.498118132352829,-0.9369212985038756,0.1849936693906784,43.83990097045898,1.76097571849823,163.6000213623047,30.91,2
-0.6107478141784668,-0.9875085949897766,0.2026849091053009,46.050384521484375,1.7609786987304688,163.6000213623047,30.91,2
-0.6830270886421204,-0.9807881712913512,0.1804514825344085,41.24959564208984,1.7609806060791016,163.6000213623047,30.91,2
-0.6790317893028259,-0.9093021154403688,0.1549877971410751,26.102611541748047,1.760981798171997,163.6000213623047,30.91,2
-0.6484789252281189,-0.8410353660583496,0.1498422175645828,4.652795314788818,1.7467522621154783,163.40655517578125,30.91,2
-0.5449052453041077,-0.8028234839439392,0.1857244968414306,-15.976675987243652,1.7376205921173096,163.2823944091797,30.91,2
-0.4560465216636657,-0.7783012986183167,0.2087516784667968,-31.32203865051269,1.7317603826522827,163.2027130126953,30.91,2
-0.3990221321582794,-0.7793576717376709,0.2179314345121383,-40.83662796020508,1.7279996871948242,163.15158081054688,30.91,2
-0.4128071069717407,-0.8192200064659119,0.2238224595785141,-46.677433013916016,1.7255862951278689,163.1187744140625,30.91,2
-0.4216535091400146,-0.8448013663291931,0.2276029884815216,-51.50766372680664,1.7240374088287354,163.09771728515625,30.91,2
-0.4217328727245331,-0.8332291841506958,0.2356268912553787,-55.45649719238281,1.723043441772461,163.08419799804688,30.91,2
-0.4273815751075744,-0.8146072626113892,0.2407761663198471,-55.71928024291992,1.7224055528640747,163.07553100585938,30.91,2
-0.4310065805912018,-0.8026567697525024,0.2552762329578399,-49.97666931152344,1.7229140996932983,163.06996154785156,30.91,2
-0.4277351200580597,-0.8061831593513489,0.2589837610721588,-38.82172393798828,1.7232403755187988,163.06639099121094,30.91,2
-0.4256356954574585,-0.8140439987182617,0.2669607996940613,-24.587533950805664,1.7234498262405396,163.06410217285156,30.91,2
-0.4186906218528747,-0.8246864080429077,0.2664822340011596,-9.78163242340088,1.7235841751098633,163.06263732910156,30.91,2
-0.4086359143257141,-0.8371138572692871,0.2661751210689544,3.216536521911621,1.723670482635498,163.0616912841797,30.91,2
-0.4077811539173126,-0.8506868481636047,0.2603802680969238,13.044782638549805,1.7237257957458496,163.0610809326172,30.91,2
-0.4072326123714447,-0.8537994623184204,0.25666144490242,20.630964279174805,1.7237613201141355,163.06069946289062,30.91,2
-0.4068805873394012,-0.8501991629600525,0.2486771643161773,28.010725021362305,1.72378408908844,163.06045532226562,30.91,2
-0.4010568857192993,-0.8422909379005432,0.2435533106327057,35.20785903930664,1.7256351709365845,163.06028747558594,30.91,2
-0.3973195850849151,-0.8484114408493042,0.2458628863096237,40.09525680541992,1.726823091506958,163.0601806640625,30.91,2
-0.3893234133720398,-0.8803281188011169,0.2529428005218506,42.49728012084961,1.7275854349136353,163.06011962890625,30.91,2
-0.378594160079956,-0.9399948120117188,0.2686818540096283,46.130985260009766,1.7280746698379517,163.06007385253906,30.91,2
-0.3661109805107116,-1.0118720531463623,0.2787822484970093,53.4390869140625,1.7283886671066284,163.06004333496094,30.91,2
-0.3469044268131256,-1.0691943168640137,0.2796663343906402,59.86655426025391,1.7285901308059692,163.06002807617188,30.91,2
-0.3177854716777801,-1.100382685661316,0.2802336812019348,58.14815139770508,1.7287193536758425,163.0600128173828,30.91,2
-0.2655119299888611,-1.142788648605347,0.2638044655323028,49.049072265625,1.7288023233413696,163.0600128173828,30.91,2
-0.2263680100440979,-1.1532090902328491,0.2476633638143539,42.02397537231445,1.7279373407363892,163.0600128173828,30.91,2
-0.1900521516799926,-1.1542985439300537,0.2373049259185791,42.89669799804688,1.7273823022842407,163.0600128173828,30.91,2
-0.1499534100294113,-1.1270087957382202,0.2306574881076812,44.72499465942383,1.727026104927063,163.0600128173828,30.91,2
-0.1186225637793541,-1.098300218582153,0.2263915389776229,32.90070724487305,1.7267974615097046,163.0600128173828,30.91,2
-0.1097117811441421,-1.0518878698349,0.2236538976430893,-0.1488043069839477,1.7266507148742676,163.0600128173828,30.91,2
-0.1039933487772941,-1.027700901031494,0.2218970358371734,-43.17955017089844,1.7265565395355225,163.0600128173828,30.91,2
-0.0947258174419403,-1.0121790170669556,0.2151718139648437,-72.91867065429688,1.7264961004257202,163.0600128173828,30.91,2
-0.0887784510850906,-1.0022180080413818,0.210855945944786,-77.00328063964844,1.7264573574066162,163.0600128173828,30.91,2
-0.0849617719650268,-1.0014233589172363,0.2136840522289276,-63.45996856689453,1.7287278175354004,162.87013244628906,30.91,2
-0.0937079936265945,-1.0065112113952637,0.2210967391729354,-45.05628967285156,1.7301849126815796,162.74827575683594,30.91,2
-0.0993208140134811,-1.004178524017334,0.2258537709712982,-26.876049041748047,1.731119990348816,162.67007446289062,30.91,2
-0.1029228046536445,-1.0082793235778809,0.2233087867498397,-12.977070808410645,1.7317200899124146,162.61988830566406,30.91,2
-0.1108321249485015,-1.01650869846344,0.2272733449935913,-10.599289894104004,1.7321051359176636,162.5876922607422,30.91,2
-0.1159078702330589,-1.016192078590393,0.2298175692558288,-21.426088333129883,1.7323522567749023,162.5670166015625,30.91,2
-0.1247629672288894,-1.010391116142273,0.2314503043889999,-37.556243896484375,1.7325109243392944,162.5537567138672,30.91,2
-0.1360434293746948,-0.9954728484153748,0.2436936497688293,-49.35859298706055,1.7326127290725708,162.5452423095703,30.91,2
-0.1432825922966003,-0.9858992099761964,0.2515507340431213,-52.04244613647461,1.7345141172409058,162.53977966308594,30.91,2
-0.1479282677173614,-0.9629620313644408,0.2621907293796539,-44.3569450378418,1.7357343435287476,162.53627014160156,30.91,2
-0.1509095877408981,-0.937046766281128,0.2690188586711883,-27.5378475189209,1.7365174293518066,162.53402709960938,30.91,2
-0.1472250521183014,-0.909220278263092,0.2734007537364959,-8.20345687866211,1.7370198965072632,162.53257751464844,30.91,2
-0.1560560762882232,-0.8745695352554321,0.2762128114700317,3.767166376113892,1.737342357635498,162.53164672851562,30.91,2
-0.1561255455017089,-0.8355393409729004,0.2780174314975738,5.423331737518311,1.7375493049621582,162.5310516357422,30.91,2
-0.1617678999900818,-0.7881008982658386,0.2791755199432373,4.522911548614502,1.7376821041107178,162.53067016601562,30.91,2
-0.1653888523578643,-0.7520598769187927,0.2799187302589416,8.806629180908203,1.7377673387527466,162.53042602539062,30.91,2
-0.1677125692367553,-0.7233330607414246,0.2747978866100311,16.890127182006836,1.73736310005188,162.5302734375,30.91,2
-0.1803993433713913,-0.7160933613777161,0.2771094143390655,23.53575897216797,1.7371037006378174,162.53018188476562,30.91,2
-0.188540980219841,-0.7114473581314087,0.2785928249359131,27.75397109985352,1.7369372844696045,162.53012084960938,30.91,2
-0.1937658190727234,-0.7308568954467773,0.2851425409317016,31.327959060668945,1.736830472946167,162.5300750732422,30.91,2
-0.202716588973999,-0.7489106059074402,0.2949435710906982,34.06577682495117,1.7367619276046753,162.53004455566406,30.91,2
-0.2084606736898422,-0.7828875184059143,0.3180266320705414,34.33598327636719,1.736717939376831,162.530029296875,30.91,2
-0.212146908044815,-0.810289740562439,0.3384377658367157,32.39208221435547,1.7366896867752075,162.53001403808594,30.91,2
-0.2145125120878219,-0.8334726691246033,0.3571342229843139,30.474658966064453,1.7366715669631958,162.53001403808594,30.91,2
-0.2272261679172516,-0.8427523970603943,0.3803280889987945,29.691987991333008,1.740332007408142,162.53001403808594,30.91,2
-0.2409828454256057,-0.8487075567245483,0.4064081311225891,28.4087142944336,1.7426811456680298,162.53001403808594,30.91,2
-0.2442133128643036,-0.8581269979476929,0.4231448173522949,23.74466133117676,1.744188666343689,162.53001403808594,30.91,2
-0.2238953411579132,-0.8585740923881531,0.4058965742588043,13.761935234069824,1.7451560497283936,162.53001403808594,30.91,2
-0.2220519781112671,-0.8700565695762634,0.3948276340961456,-1.016882061958313,1.745776891708374,162.53001403808594,30.91,2
-0.2208690196275711,-0.860632061958313,0.4437019824981689,-17.57308006286621,1.7461752891540527,162.53001403808594,30.91,2
-0.2145120948553085,-0.8769750595092773,0.4470778405666351,-32.579383850097656,1.7464309930801392,162.53001403808594,30.91,2
-0.2216281294822693,-0.842680811882019,0.454842060804367,-44.43434524536133,1.746595025062561,162.53001403808594,30.91,2
-0.2373903393745422,-0.8262705206871033,0.4486291408538818,-52.13890838623047,1.7549631595611572,162.38311767578125,30.91,2
-0.236310064792633,-0.821337103843689,0.4502398073673248,-53.73354721069336,1.7603334188461304,162.28884887695312,30.91,2
-0.2356168180704116,-0.8181711435317993,0.4624690115451813,-47.86759948730469,1.7637797594070437,162.22836303710938,30.91,2
-0.2351719290018081,-0.8161394000053406,0.4759147763252258,-36.03163146972656,1.7659913301467896,162.18954467773438,30.91,2
-0.2516797482967376,-0.8204333186149597,0.48454350233078,-21.758066177368164,1.7674106359481812,162.1646270751953,30.91,2
-0.2566757500171661,-0.8119933605194092,0.4956786930561065,-8.044658660888672,1.768321514129639,162.1486358642578,30.91,2
-0.2542841136455536,-0.8009793162345886,0.4972268342971802,3.596798896789551,1.7689059972763062,162.1383819580078,30.91,2
-0.2527492940425873,-0.7939111590385437,0.4982203543186188,12.371673583984377,1.7692811489105225,162.1317901611328,30.91,2
-0.2573621273040771,-0.7949729561805725,0.4988579154014587,17.913318634033203,1.778702974319458,162.1275634765625,30.91,2
-0.2659201323986053,-0.7844588160514832,0.4992670714855194,20.54174041748047,1.7847492694854736,162.12484741210938,30.91,2
-0.2714121639728546,-0.7777114510536194,0.4995296597480774,20.84563636779785,1.788629412651062,162.12310791015625,30.91,2
-0.2693388760089874,-0.7733814120292664,0.4996981620788574,19.13114547729492,1.7911195755004885,162.1219940185547,30.91,2
-0.3295838832855224,-0.7817981839179993,0.4438285529613495,15.80610466003418,1.7927175760269165,162.12127685546875,30.91,2
-0.3178656697273254,-0.7816017866134644,0.4919412732124328,11.816511154174805,1.7937430143356323,162.12081909179688,30.91,2
-0.2039878964424133,-0.7254980206489563,0.5955883264541626,7.841102123260498,1.7944011688232422,162.1205291748047,30.91,2
-0.2092765271663665,-0.7510693669319153,0.6005275249481201,3.3839831352233887,1.7948235273361206,162.12033081054688,30.91,2
-0.2518548965454101,-0.7562840580940247,0.5813060998916626,-2.582432508468628,1.805652379989624,162.12020874023438,30.91,2
-0.2735814750194549,-0.7596305012702942,0.5577753782272339,-10.173039436340332,1.8126016855239868,162.12013244628906,30.91,2
-0.2763287723064422,-0.7617780566215515,0.5482724905014038,-18.22558212280273,1.817061424255371,162.12008666992188,30.91,2
-0.2836896181106567,-0.7631562352180481,0.5365762710571289,-24.75819969177246,1.8199234008789065,162.12005615234375,30.91,2
-0.2884133756160736,-0.7640407085418701,0.5346680879592896,-27.119762420654297,1.8217600584030151,162.1200408935547,30.91,2
-0.2466626167297363,-0.7366194128990173,0.4214880466461181,-22.86374855041504,1.822938680648804,162.12002563476562,30.91,2
-0.2254671603441238,-0.7190220355987549,0.4943977296352386,-11.756421089172363,1.823695063591004,162.12001037597656,30.91,2
-0.2398540079593658,-0.6853379011154175,0.5579802989959717,3.4109222888946533,1.8241804838180544,162.12001037597656,30.91,2
-0.2602822184562683,-0.7308946847915649,0.5707950592041016,18.428749084472656,1.8359683752059937,162.12001037597656,30.89,2
-0.2957829535007477,-0.7489348649978638,0.5566277503967285,29.78596305847168,1.843533277511597,162.12001037597656,30.89,2
-0.2513920068740845,-0.715729832649231,0.5643293261528015,35.7344856262207,1.8483879566192627,162.12001037597656,30.89,2
-0.2620888650417328,-0.7168118357658386,0.5860650539398193,36.341915130615234,1.8515033721923828,162.12001037597656,30.89,2
-0.2745512723922729,-0.6895173192024231,0.5832204818725586,32.87687683105469,1.853502631187439,162.12001037597656,30.89,2
-0.2937444746494293,-0.6943923830986023,0.5925905108451843,27.0527286529541,1.854785680770874,162.12001037597656,30.89,2
-0.2892682254314422,-0.6583364605903625,0.6601791977882385,20.98286819458008,1.8556090593338013,162.12001037597656,30.89,2
-0.2584067583084106,-0.6799800395965576,0.6643692851066589,17.252378463745117,1.85613751411438,162.12001037597656,30.89,2
-0.2441994249820709,-0.6938696503639221,0.6670582890510559,17.899972915649414,1.8615258932113647,161.99102783203125,30.89,2
