acc_x,acc_y,acc_z,bvp,eda,hr,temp,label
0.0,0.0,0.0,0.0,0.0,0.0,28.69,2
-0.0546874962747097,-0.0755208283662796,0.1354166567325592,-52.61832809448242,1.0494234561920166,12.22166633605957,28.69,2
-0.1280487775802612,-0.1810213476419448,0.3212652504444122,-146.74391174316406,2.4571869373321533,28.616586685180664,28.69,2
-0.2018272429704666,-0.2678052484989166,0.4829215407371521,-255.771224975586,3.6816985607147217,42.87734603881836,28.69,2
-0.2503144145011902,-0.3364569842815399,0.6061967015266418,-363.92529296875,4.575046062469482,53.28133773803711,28.69,2
-0.2886320054531097,-0.3994062542915344,0.7061283588409424,-473.5878601074219,5.179879665374756,60.32527923583984,28.69,2
-0.3026676774024963,-0.4184977412223816,0.7716978788375854,-570.0823974609375,5.576737880706787,64.9471206665039,28.69,2
-0.3396545648574829,-0.4420210123062134,0.7806880474090576,-624.9214477539062,5.833763122558594,67.94046020507812,28.69,2
-0.3802510201931,-0.4515838623046875,0.7641185522079468,-615.9122314453125,6.135216236114502,69.86868286132812,28.69,2
-0.4007494151592254,-0.4745142459869385,0.7478740215301514,-500.72802734375,6.328972816467285,71.1080322265625,28.69,2
-0.380333662033081,-0.4724496304988861,0.7262495756149292,-321.7128601074219,6.453394412994385,71.90388488769531,28.69,2
-0.350436806678772,-0.4151518940925598,0.7571465373039246,-140.0781707763672,6.533262252807617,72.41475677490234,28.69,2
-0.370431512594223,-0.4343530833721161,0.7489888072013855,16.735130310058594,6.584522247314453,72.74263763427734,28.69,2
-0.3832635581493377,-0.4578711986541748,0.738155722618103,137.99435424804688,6.617419242858887,72.95306396484375,28.69,2
-0.3859008252620697,-0.4673663079738617,0.7312034964561462,215.658935546875,6.63853120803833,73.08810424804688,28.69,2
-0.3875932991504669,-0.473459780216217,0.7267419695854187,259.0621032714844,6.652079582214356,73.17476654052734,28.69,2
-0.3886794149875641,-0.4773702323436737,0.7294765710830688,284.6480712890625,6.594216823577881,73.23037719726562,28.69,2
-0.3893764317035675,-0.4798797369003296,0.7256336808204651,300.6521301269531,6.557083606719971,73.26606750488281,28.69,2
-0.3898237347602844,-0.4814901947975158,0.7231675386428833,306.4300537109375,6.5332536697387695,73.28897094726562,28.69,2
-0.3901107907295227,-0.4881214797496795,0.7215849161148071,301.0418395996094,6.517961025238037,73.30367279052734,28.69,2
-0.390294998884201,-0.4867792725563049,0.7093737125396729,292.13848876953125,6.5081467628479,73.31310272216797,28.69,2
-0.3848154544830322,-0.4859179258346557,0.7071350812911987,282.4159240722656,6.5018486976623535,73.31916046142578,28.69,2
-0.3868967592716217,-0.4853651523590088,0.7001006603240967,269.1869201660156,6.497807025909424,73.32304382324219,28.69,2
-0.3938302099704742,-0.485010415315628,0.6843908429145813,245.40689086914065,6.495213508605957,73.3255386352539,28.69,2
-0.3926819264888763,-0.4847827851772308,0.6743091940879822,212.36231994628903,6.342072486877441,73.32714080810547,28.69,2
-0.3919450044631958,-0.4846366941928863,0.6678393483161926,177.4707794189453,6.243795394897461,73.32816314697266,28.69,2
-0.3970698714256286,-0.4901407063007355,0.6636873483657837,147.67063903808594,6.180727005004883,73.32881927490234,28.69,2
-0.3835653960704803,-0.4992706477642059,0.6498273015022278,125.22915649414062,6.140253067016602,73.3292465209961,28.69,2
-0.3693012297153473,-0.5163252949714661,0.6297371983528137,104.8302764892578,6.114279270172119,73.32951354980469,28.69,2
-0.3545495271682739,-0.5328677296638489,0.6112467646598816,84.03691101074219,6.097610950469971,73.3296890258789,28.69,2
-0.3282894194126129,-0.5490815043449402,0.5825873017311096,63.26624298095703,6.0869140625,73.32980346679688,28.69,2
-0.3170349597930908,-0.5706821084022522,0.547402024269104,43.434452056884766,6.080049514770508,73.32987213134766,28.69,2
-0.2874214053153991,-0.6069352030754089,0.4968332350254059,19.479755401611328,5.989807605743408,71.68909454345703,28.69,2
-0.2516238093376159,-0.6469936966896057,0.4307944476604461,-11.53451156616211,5.931895732879639,70.63613891601562,28.69,2
-0.2230532020330429,-0.6727009415626526,0.3716212511062622,-39.46982192993164,5.894731044769287,69.96041870117188,28.69,2
-0.2159137725830078,-0.7395783066749573,0.2944628596305847,-55.78135299682617,5.870881080627441,69.52677917480469,28.69,2
-0.2169298678636551,-0.8160830140113831,0.2393492758274078,-65.94463348388672,5.8555755615234375,69.24848937988281,28.69,2
-0.1951908469200134,-0.904363751411438,0.1871872395277023,-91.33627319335938,5.845753192901611,69.06990051269531,28.69,2
-0.1756422221660614,-1.005799412727356,0.1369193196296692,-131.43020629882812,5.839449882507324,68.95529174804688,28.69,2
-0.1519014835357666,-1.0876883268356323,0.0990624874830246,-162.81707763671875,5.835404872894287,68.88174438476562,28.69,2
-0.1254705041646957,-1.1682288646697998,0.0635726004838943,-170.6962127685547,5.841223239898682,68.83454895019531,28.69,2
-0.1085086166858673,-1.231110692024231,0.0407972373068332,-176.93482971191406,5.84495735168457,68.80426025390625,28.69,2
-0.1144167780876159,-1.2770622968673706,0.0205835439264774,-217.1081085205078,5.847353458404541,68.78482055664062,28.69,2
-0.1461971700191497,-1.2897580862045288,-0.0035839881747961,-294.0231018066406,5.848891258239746,68.77234649658203,28.69,2
-0.1777875423431396,-1.2755144834518433,-0.019093319773674,-386.3987121582031,5.849878311157227,68.76434326171875,28.69,2
-0.2204515188932418,-1.2327871322631836,-0.0234485417604446,-404.7491149902344,5.85051155090332,68.75920104980469,28.69,2
-0.25342857837677,-1.1941715478897097,-0.0206456985324621,-286.27008056640625,5.850917816162109,68.75590515136719,28.69,2
-0.2801891267299652,-1.1414014101028442,-0.0076514459215104,-114.9083023071289,5.851178646087647,68.75379180908203,28.69,2
-0.2861669659614563,-1.0907433032989502,-0.0049102576449513,17.897167205810547,5.871542930603027,68.75243377685547,28.71,2
-0.2732098698616028,-1.0582338571548462,-0.0031511206179857,89.8183822631836,5.8846116065979,68.7515640258789,28.71,2
-0.236905887722969,-1.026175618171692,-0.0020222077146172,117.16834259033205,5.892998218536377,68.75100708007812,28.71,2
-0.2136080861091613,-1.005602478981018,-0.0068955109454691,116.02609252929688,5.898380279541016,68.75064849853516,28.71,2
-0.1930591166019439,-1.0147908926010132,-0.026816239580512,110.1484832763672,5.901834011077881,68.75041961669922,28.71,2
-0.1798719763755798,-1.0262852907180786,-0.0563935376703739,112.78938293457033,5.904050350189209,68.7502670288086,28.71,2
-0.1826047748327255,-1.0224661827087402,-0.080972321331501,118.61487579345705,5.905472755432129,68.75016784667969,28.71,2
-0.2123474031686782,-1.0200152397155762,-0.1023433431982994,102.65633392333984,5.906385898590088,68.75010681152344,28.71,2
-0.2314345091581344,-1.0184423923492432,-0.1216558143496513,66.09746551513672,5.879430770874023,68.75006866455078,28.71,2
-0.2604768276214599,-1.0118352174758911,-0.1340494453907013,35.69663619995117,5.8621320724487305,68.75004577636719,28.71,2
-0.2903100848197937,-1.0019973516464231,-0.1364051848649978,29.21696281433105,5.851030826568604,68.75003051757812,28.71,2
-0.3038575649261474,-0.995684027671814,-0.1379169672727584,38.14224624633789,5.843906879425049,68.7500228881836,28.71,2
-0.2957582473754883,-0.98043692111969,-0.1332893669605255,46.53183364868164,5.839334964752197,68.75001525878906,28.71,2
-0.2849627733230591,-0.965054452419281,-0.1247218623757362,54.21580123901367,5.836400985717773,68.75000762939453,28.71,2
-0.2724370956420898,-0.9495850801467896,-0.1136259585618972,65.09758758544922,5.834518432617188,68.75000762939453,28.71,2
-0.2588010728359222,-0.939657747745514,-0.1065052449703216,76.58419036865234,5.833310127258301,68.75000762939453,28.71,2
-0.2500502467155456,-0.9276891946792604,-0.0963378101587295,81.00358581542969,5.857780933380127,67.7647933959961,28.71,2
-0.2388366907835006,-0.9144106507301332,-0.0842151567339897,78.57331848144531,5.873485088348389,67.1325454711914,28.71,2
-0.231640487909317,-0.917084813117981,-0.0764355361461639,74.17989349365234,5.883563041687012,66.72679901123047,28.71,2
-0.2214245945215225,-0.9299964904785156,-0.065845251083374,70.72632598876953,5.890030384063721,66.46641540527344,28.71,2
-0.1924775242805481,-0.9886624217033386,-0.0702445656061172,67.52840423583984,5.894180774688721,66.29931640625,28.71,2
-0.1683031916618347,-1.031908631324768,-0.0786655619740486,62.79281234741211,5.896844387054443,66.19208526611328,28.71,2
-0.180778369307518,-1.031672716140747,-0.0616785772144794,57.11700439453125,5.898553371429443,66.1232681274414,28.71,2
-0.1943819969892501,-1.0035324096679688,-0.0451795347034931,51.6474838256836,5.899650096893311,66.07910919189453,28.71,2
-0.2199053466320037,-0.9518869519233704,-0.017798077315092,47.24898147583008,5.884288311004639,66.05076599121094,28.71,2
-0.2194914370775222,-0.9299393892288208,0.0053715431131422,45.45447540283203,5.874430179595947,66.03257751464844,28.71,2
-0.2024324834346771,-0.9326480627059937,0.0146426958963274,49.18233489990234,5.868103504180908,66.02090454101562,28.71,2
-0.1690939366817474,-0.9567773938179016,0.0205923877656459,60.84636306762695,5.864043712615967,66.01341247558594,28.71,2
-0.153296947479248,-0.9666644334793092,0.0300083328038454,79.7744140625,5.861438274383545,66.00860595703125,28.71,2
-0.1599526703357696,-0.9506182670593262,0.0472464933991432,102.35739135742188,5.859766006469727,66.00552368164062,28.71,2
-0.1866150349378585,-0.9235274791717528,0.0583089515566825,122.57479858398438,5.8586931228637695,66.00354766845703,28.71,2
-0.2037253975868225,-0.9061421155929564,0.0654082000255584,135.69247436523438,5.858004570007324,66.00227355957031,28.71,2
-0.2091080695390701,-0.8949851989746094,0.0643663182854652,138.08116149902344,5.831857681274414,66.00145721435547,28.69,2
-0.2125623673200607,-0.8934231400489807,0.0636976957321167,126.7848892211914,5.815078258514404,66.00093841552734,28.69,2
-0.2147791385650634,-0.898018479347229,0.0520730651915073,98.2335968017578,5.804309844970703,66.00060272216797,28.69,2
-0.2162017226219177,-0.906565248966217,0.0390152707695961,53.83702850341797,5.797399520874023,66.0003890991211,28.69,2
-0.21711465716362,-0.9176478385925292,0.0250377543270587,7.268191814422607,5.792964935302734,66.00025177001953,28.69,2
-0.2288960814476013,-0.9191622734069824,0.0216655638068914,-26.46110725402832,5.79011869430542,66.00016021728516,28.69,2
-0.2420544922351837,-0.9145363569259644,0.0195014867931604,-42.4175033569336,5.788292407989502,66.0000991821289,28.69,2
-0.2560965716838836,-0.917165458202362,0.0181127060204744,-52.879520416259766,5.787120342254639,66.00006103515625,28.69,2
-0.2651079893112182,-0.9412437677383424,0.0172214657068252,-61.78955841064453,5.751023769378662,66.00003814697266,28.69,2
-0.2764887511730194,-0.9678913950920104,0.0166495200246572,-62.4560775756836,5.727859020233154,66.0000228881836,28.69,2
-0.2781945168972015,-0.9961878657341005,0.0162824783474206,-53.37565231323242,5.712993144989014,66.00001525878906,28.69,2
-0.2736913859844208,-1.036738038063049,0.0160469319671392,-54.38749694824219,5.703453063964844,66.00000762939453,28.69,2
-0.2819970846176147,-1.1131407022476196,0.0102979969233274,-89.48688507080078,5.697330951690674,66.00000762939453,28.69,2
-0.3097183108329773,-1.150976061820984,0.0178042110055685,-152.59149169921875,5.69340181350708,66.00000762939453,28.69,2
-0.333105981349945,-1.1472676992416382,0.0282190404832363,-226.3490295410156,5.690880298614502,66.00000762939453,28.69,2
-0.3201259672641754,-1.0553234815597534,0.0181093551218509,-304.968994140625,5.689262390136719,66.00000762939453,28.69,2
-0.2838072478771209,-1.001916766166687,-0.010769554413855,-410.6087646484375,5.707502841949463,65.40171813964844,28.69,2
-0.2549022138118744,-1.046012282371521,-0.040497925132513,-546.736328125,5.719208717346191,65.01776885986328,28.69,2
-0.2475481778383255,-1.079908013343811,-0.053978107869625,-696.6326293945312,5.726720809936523,64.77136993408203,28.69,2
-0.2372310161590576,-1.0904648303985596,-0.0626289173960685,-821.4629516601562,5.731541633605957,64.61324310302734,28.69,2
-0.2418055981397628,-1.052457332611084,-0.0737782791256904,-783.8018798828125,5.734635353088379,64.51177215576172,28.69,2
-0.2447413057088852,-1.005675196647644,-0.0753355249762535,-595.6300048828125,5.736620903015137,64.4466552734375,28.69,2
-0.2354297190904617,-0.9756531715393066,-0.0875304266810417,-373.4386596679688,5.737895011901856,64.40486145019531,28.69,2
-0.2406496256589889,-0.9563867449760436,-0.0953564122319221,-178.0418701171875,5.738712787628174,64.37804412841797,28.69,2
-0.2495972365140915,-0.9440226554870604,-0.0947808995842933,-21.332176208496094,5.756220817565918,64.36083221435547,28.69,2
-0.2497415244579315,-0.919294774532318,-0.0944115743041038,74.58848571777344,5.767456531524658,64.34978485107422,28.69,2
-0.2442363500595092,-0.8978280425071716,-0.0941745638847351,109.54421997070312,5.774666786193848,64.34269714355469,28.69,2
-0.2295078933238983,-0.8728563785552979,-0.0940224602818489,102.30590057373048,5.779294013977051,64.33815002441406,28.69,2
-0.2200560271739959,-0.8568310141563416,-0.0939248502254486,76.8209228515625,5.78226375579834,64.3352279663086,28.69,2
-0.2195881307125091,-0.8521446585655212,-0.099459983408451,49.6969108581543,5.78416919708252,64.33335876464844,28.69,2
-0.2248856425285339,-0.8659305572509766,-0.1030121147632598,27.24959945678711,5.785392284393311,64.3321533203125,28.69,2
-0.2338830530643463,-0.8859730958938599,-0.0996938943862915,20.99456596374512,5.786177158355713,64.33138275146484,28.69,2
-0.2284615188837051,-0.8988352417945862,-0.0975644513964653,29.60186004638672,5.799533843994141,64.33088684082031,28.69,2
-0.2025911957025528,-0.9462738037109376,-0.1017956733703613,43.813270568847656,5.80810546875,64.33056640625,28.69,2
-0.185989111661911,-1.0047060251235962,-0.1101088002324104,47.516483306884766,5.813606262207031,64.33036041259766,28.69,2
-0.2089214920997619,-0.9806289672851562,-0.0762592628598213,38.625789642333984,5.817136287689209,64.33023071289062,28.69,2
-0.2180404067039489,-0.9595798850059508,-0.0433410294353961,28.56026077270508,5.819401264190674,64.33014678955078,28.69,2
-0.223892405629158,-0.9740607142448424,-0.0166182313114404,27.41374397277832,5.820855140686035,64.33009338378906,28.69,2
-0.2276478707790374,-1.028135895729065,-0.0050668506883084,32.37068557739258,5.8217878341674805,64.33006286621094,28.69,2
-0.2244601398706436,-1.0628381967544556,-0.0032516131177544,34.448333740234375,5.822386741638184,64.33003997802734,28.69,2
-0.2000233381986618,-1.0403258800506592,0.0091088507324457,33.68225860595703,5.8549017906188965,64.33002471923828,28.69,2
-0.1787434369325637,-0.9978899359703064,0.0282366350293159,36.028038024902344,5.875768184661865,64.33001708984375,28.69,2
-0.1706849932670593,-0.9594614505767822,0.0405117459595203,44.38689041137695,5.889159202575684,64.33000946044922,28.69,2
-0.1767091006040573,-0.9459958076477052,0.0427914299070835,54.6234245300293,5.89775276184082,64.33000946044922,28.69,2
-0.1973683387041092,-0.937354326248169,0.0442543998360633,64.03362274169922,5.90326738357544,64.33000946044922,28.69,2
-0.2218217998743057,-0.9374065399169922,0.0339976996183395,74.78363800048828,5.906806468963623,64.33000946044922,28.69,2
-0.2375146299600601,-0.937440037727356,0.0274155419319868,89.53179931640625,5.9090776443481445,64.33000946044922,28.69,2
-0.2587809264659881,-0.9318637251853944,0.0231914911419153,107.2720718383789,5.910535335540772,64.33000946044922,28.69,2
-0.2948195040225982,-0.9506762623786926,0.026078512892127,126.01177978515624,5.876126289367676,65.28655242919922,28.69,2
-0.3235447704792022,-0.9851402044296264,0.0335290133953094,147.05160522460938,5.854044437408447,65.90040588378906,28.69,2
-0.3195878863334656,-1.0296483039855957,0.0383103154599666,173.52984619140625,5.839873790740967,66.29434204101562,28.69,2
-0.3002552688121795,-1.0470154285430908,0.0413786768913269,205.5294647216797,5.830780029296875,66.54714965820312,28.69,2
-0.2542620599269867,-1.0637584924697876,0.0321522280573844,240.58157348632807,5.824944019317627,66.70938873291016,28.69,2
-0.2639307081699371,-1.136078715324402,0.0262312237173318,278.4309387207031,5.8211989402771,66.8134994506836,28.69,2
-0.3093198835849762,-1.1936851739883425,0.0224314630031585,321.4322509765625,5.818795204162598,66.88031768798828,28.69,2
-0.3496436178684234,-1.1634804010391235,-0.0023981013800948,372.0568237304688,5.8172526359558105,66.9231948852539,28.69,2
-0.3531299531459808,-1.1384989023208618,-0.0407233834266662,430.84088134765625,5.823148250579834,66.95071411132812,28.69,2
-0.3273784220218658,-1.1448583602905271,-0.0709161162376403,489.74169921875,5.826931476593018,66.96836853027344,28.69,2
-0.3164503276348114,-1.16013503074646,-0.0790965259075164,532.1766967773438,5.829359531402588,66.97969818115234,28.69,2
-0.3094373047351837,-1.119558811187744,-0.084346242249012,549.3527221679688,5.830917835235596,66.98696899414062,28.69,2
-0.293741226196289,-1.0431393384933472,-0.0821174383163452,544.5654296875,5.831917762756348,66.99163818359375,28.69,2
-0.2780705988407135,-0.9996954798698424,-0.0862848907709121,515.17919921875,5.832559585571289,66.99463653564453,28.69,2
-0.2736118733882904,-0.9718157052993774,-0.0945570990443229,451.6926574707031,5.832971096038818,66.9965591430664,28.69,2
-0.2539571821689605,-0.9427285194396972,-0.1054634973406791,359.2934875488281,5.833235263824463,66.99779510498047,28.69,2
-0.2245506197214126,-0.912866473197937,-0.1068648248910904,257.138671875,5.8499298095703125,66.99858856201172,28.69,2
-0.2000814080238342,-0.8713116645812988,-0.1021663397550582,155.82749938964844,5.86064338684082,66.99909210205078,28.69,2
-0.1899762451648712,-0.833448588848114,-0.0991511195898056,54.5167350769043,5.867518424987793,66.99942016601562,28.69,2
-0.2002846598625183,-0.7923569679260254,-0.0916183516383171,-45.04903030395508,5.871930599212647,66.99962615966797,28.69,2
-0.2292911112308502,-0.7771822810173035,-0.0867842584848404,-137.02125549316406,5.874762058258057,66.99976348876953,28.69,2
-0.2479057759046554,-0.778639554977417,-0.0836820155382156,-220.07565307617188,5.876579284667969,66.99984741210938,28.69,2
-0.2486560493707656,-0.7907702922821045,-0.0760933980345726,-298.5248718261719,5.877745151519775,66.9999008178711,28.69,2
-0.2435397505760193,-0.8097506761550903,-0.0656256824731826,-377.9882507324219,5.878493785858154,66.99993896484375,28.69,2
-0.223463088274002,-0.883506715297699,-0.0589081086218357,-463.4332885742188,5.867039203643799,66.99996185302734,28.69,2
-0.2161768078804016,-0.9420346617698668,-0.0434016063809394,-551.0153198242188,5.85968828201294,66.9999771118164,28.69,2
-0.217098668217659,-0.962801158428192,-0.022254878655076,-619.7666015625,5.854970932006836,66.99998474121094,28.69,2
-0.2176902741193771,-1.004116773605347,-0.0030863520223647,-646.1749877929688,5.851943492889404,66.99999237060547,28.69,2
-0.2124721556901931,-1.0530219078063965,0.0036171316169202,-627.988037109375,5.850000858306885,66.99999237060547,28.69,2
-0.2147212475538253,-1.1123952865600586,-0.0032765076030045,-581.0032348632812,5.848753929138184,66.99999237060547,28.69,2
-0.2161645740270614,-1.1001176834106443,0.0090928748250007,-519.0951538085938,5.847953796386719,66.99999237060547,28.69,2
-0.211493045091629,-1.0586520433425903,0.0282263811677694,-449.98541259765625,5.847440242767334,66.99999237060547,28.69,2
-0.1917017996311187,-0.9928573369979858,0.0405051633715629,-379.8402404785156,5.846192836761475,67.58037567138672,28.69,2
-0.1734031438827514,-0.9450362920761108,0.042787205427885,-309.9799194335937,5.845392227172852,67.95282745361328,28.69,2
-0.1672579050064087,-0.919945240020752,0.0442516878247261,-236.9598999023437,5.844878196716309,68.19184875488281,28.69,2
-0.1745097935199737,-0.9150388240814208,0.0339959599077701,-161.36758422851562,5.84454870223999,68.3452377319336,28.69,2
-0.1847614049911499,-0.9174879193305968,0.0274144243448972,-90.07878112792967,5.844336986541748,68.44367218017578,28.69,2
-0.2137313932180404,-0.92465740442276,0.0231907740235328,-26.67121124267578,5.84420108795166,68.50684356689453,28.69,2
-0.2435182183980941,-0.9236605763435364,0.0148825040087103,34.161354064941406,5.844113826751709,68.5473861694336,28.69,2
-0.268231451511383,-0.9286186695098876,0.0095507344231009,98.64006042480467,5.844058036804199,68.57340240478516,28.69,2
-0.2952865362167358,-0.9821804165840148,0.0173246599733829,165.0753173828125,5.82244873046875,68.59009552001953,28.69,2
-0.3126489520072937,-1.0333466529846191,0.0335090681910514,228.1088256835937,5.8085808753967285,68.6008071899414,28.69,2
-0.3014000356197357,-1.0605844259262085,0.03269974142313,287.8164367675781,5.799681663513184,68.60768127441406,28.69,2
-0.288583368062973,-1.1116507053375244,0.0153870377689599,350.1258544921875,5.793970584869385,68.61209869384766,28.69,2
-0.3139449954032898,-1.2115952968597412,0.0266678389161825,421.3202819824219,5.790305614471436,68.61492919921875,28.69,2
-0.3638072907924652,-1.1693763732910156,0.0283094327896833,499.4704895019531,5.78795337677002,68.61674499511719,28.69,2
-0.373414933681488,-1.1198915243148804,0.0013740404974669,565.4757080078125,5.786443710327148,68.61791229248047,28.69,2
-0.3347983658313751,-1.121721625328064,-0.0327048674225807,590.4871826171875,5.785475254058838,68.61865997314453,28.69,2
-0.2988209426403045,-1.150884985923767,-0.0489769726991653,560.373046875,5.789443492889404,68.619140625,28.69,2
-0.2757326960563659,-1.1696003675460815,-0.0706150233745575,486.0657653808594,5.791990280151367,68.61944580078125,28.69,2
-0.2441226691007614,-1.1200352907180786,-0.1012943983078002,387.9297790527344,5.793624401092529,68.61964416503906,28.69,2
-0.2182393968105316,-1.0826295614242554,-0.1209826618432998,280.0047607421875,5.794673442840576,68.6197738647461,28.69,2
-0.2128245532512664,-1.0586246252059937,-0.1168241277337074,168.77841186523438,5.795346736907959,68.61985778808594,28.69,2
-0.2149473875761032,-1.0376218557357788,-0.1141554191708564,55.80245590209961,5.795778751373291,68.61991119384766,28.69,2
-0.2163096964359283,-0.9905568957328796,-0.1180405691266059,-62.02575302124024,5.796055793762207,68.61994171142578,28.69,2
-0.2059884071350097,-0.943560004234314,-0.1205338388681411,-187.82940673828125,5.796233654022217,68.61996459960938,28.69,2
-0.1937670260667801,-0.9078023433685304,-0.1221338734030723,-311.7294006347656,5.808282375335693,68.61997985839844,28.69,2
-0.1859240382909774,-0.851268470287323,-0.1175629124045372,-406.37408447265625,5.816014289855957,68.61998748779297,28.69,2
-0.1920864135026931,-0.8093904852867126,-0.1090317592024803,-447.5328369140625,5.820976257324219,68.6199951171875,28.69,2
-0.2016388475894928,-0.7993089556694031,-0.1035569533705711,-435.3403015136719,5.824160575866699,68.6199951171875,28.69,2
-0.2021712660789489,-0.8096325397491455,-0.0888479873538017,-385.7501831054688,5.826204299926758,68.6199951171875,28.69,2
-0.1969151794910431,-0.821855366230011,-0.079408623278141,-318.3439636230469,5.827515602111816,68.6199951171875,28.69,2
-0.1711510270833969,-0.8912748098373413,-0.0901443064212799,-264.5824279785156,5.828357219696045,68.6199951171875,28.69,2
-0.171410396695137,-0.93582421541214,-0.0858382955193519,-255.6251220703125,5.828897476196289,68.6199951171875,28.69,2
-0.1939679384231567,-0.925229012966156,-0.03829275816679,-282.8902587890625,5.827867031097412,68.91377258300781,28.69,2
-0.2140418440103531,-0.9352229833602904,0.0034147840924561,-301.0251770019531,5.827205657958984,69.102294921875,28.69,2
-0.2101307958364486,-0.9640276432037354,0.0189847350120544,-280.9573059082031,5.826781272888184,69.22328186035156,28.69,2
-0.1964253634214401,-1.0328927040100098,0.0009877613047137,-232.0525360107422,5.82650899887085,69.3009262084961,28.69,2
-0.1876300126314163,-1.0658907890319824,-0.0049638859927654,-172.76358032226562,5.826334476470947,69.35075378417969,28.69,2
-0.1819856613874435,-1.0254915952682495,0.0192055627703666,-109.7412109375,5.8262224197387695,69.38272857666016,28.69,2
-0.1783634424209594,-0.9883701801300048,0.040313895791769,-44.8424186706543,5.826150417327881,69.40324401855469,28.69,2
-0.1760389059782028,-0.970145583152771,0.0482622347772121,19.24714469909668,5.826104164123535,69.41641235351562,28.69,2
-0.1913404762744903,-0.9640478491783142,0.0533630214631557,81.54915618896484,5.818729877471924,69.42486572265625,28.69,2
-0.212355688214302,-0.9545368552207948,0.0622341893613338,143.03004455566406,5.813997745513916,69.43029022216797,28.69,2
-0.2314398288726806,-0.9428355097770692,0.0623294189572334,204.933349609375,5.81096076965332,69.43376922607422,28.69,2
-0.2380891442298889,-0.9409240484237672,0.0679883062839508,269.2608642578125,5.809011936187744,69.43600463867188,28.69,2
-0.2479540705680847,-0.9396973848342896,0.0716198533773422,340.8619079589844,5.807761192321777,69.43743896484375,28.69,2
-0.2542848289012909,-0.9613012671470642,0.0739503726363182,421.2900390625,5.8069586753845215,69.4383544921875,28.69,2
-0.2527497708797455,-1.0031542778015137,0.0698481872677803,494.8367309570313,5.806443691253662,69.4389419555664,28.69,2
-0.2517646551132202,-1.0468064546585083,0.0672156438231468,532.6555786132812,5.806113243103027,69.43932342529297,28.69,2
-0.245534673333168,-1.0748199224472046,0.0375373549759388,519.17236328125,5.784327030181885,69.43956756591797,28.71,2
-0.2471344172954559,-1.1263840198516846,0.0072959917597472,461.1123046875,5.770346164703369,69.4397201538086,28.71,2
-0.3041387796401977,-1.1930614709854126,0.0158776957541704,370.6585998535156,5.761373996734619,69.4398193359375,28.71,2
-0.3687097728252411,-1.1854712963104248,0.0213849395513534,265.7182922363281,5.755616188049316,69.43988800048828,28.71,2
-0.359767735004425,-1.158209204673767,-0.0310585722327232,184.4159393310547,5.7519211769104,69.43992614746094,28.71,2
-0.2924537360668182,-1.185496211051941,-0.0703115761280059,166.92726135253906,5.749549865722656,69.43995666503906,28.71,2
-0.2380599379539489,-1.208605170249939,-0.0843063443899154,215.6906890869141,5.74802827835083,69.43997192382812,28.71,2
-0.2087509036064148,-1.1618596315383911,-0.087689608335495,290.12921142578125,5.74705171585083,69.43997955322266,28.71,2
-0.1843442767858505,-1.0926766395568848,-0.0898607894778251,343.0405578613281,5.751474380493164,69.43998718261719,28.71,2
-0.1686815172433853,-1.037083387374878,-0.0968519002199173,353.3653259277344,5.754312515258789,69.43999481201172,28.71,2
-0.1698256134986877,-1.0014069080352783,-0.1013383939862251,325.4408264160156,5.756133556365967,69.43999481201172,28.71,2
-0.170559823513031,-0.9729139804840088,-0.1042175665497779,271.3257141113281,5.757302284240723,69.43999481201172,28.71,2
-0.1710309982299804,-0.9266400337219238,-0.1060652583837509,203.33712768554688,5.758052349090576,69.43999481201172,28.71,2
-0.1769311428070068,-0.8857485055923462,-0.1072509959340095,134.122802734375,5.758533954620361,69.43999481201172,28.71,2
-0.1695219725370407,-0.8427133560180664,-0.1080119386315345,68.97624206542969,5.758842945098877,69.43999481201172,28.71,2
-0.170364961028099,-0.787106990814209,-0.0973047167062759,1.553514838218689,5.7590413093566895,69.43999481201172,28.71,2
-0.1765037178993225,-0.7402265071868896,-0.0904334411025047,-74.25504302978516,5.761922359466553,69.64061737060547,28.71,2
-0.1916387677192688,-0.7269346117973328,-0.0804260745644569,-153.7971649169922,5.763771057128906,69.76937103271484,28.71,2
-0.2125471234321594,-0.7463935017585754,-0.0796016976237297,-229.0179443359375,5.764957427978516,69.85199737548828,28.71,2
-0.2371604442596435,-0.7924677729606628,-0.0678771138191223,-300.2152099609375,5.765718936920166,69.90502166748047,28.71,2
-0.2361625432968139,-0.8892088532447815,-0.0715484991669654,-375.0927429199219,5.766207695007324,69.93904876708984,28.71,2
-0.2131310403347015,-1.0016716718673706,-0.0851001292467117,-461.0341491699219,5.766521453857422,69.96088409423828,28.71,2
-0.2207418531179428,-1.0738438367843628,-0.0714056864380836,-556.52978515625,5.766722679138184,69.97489929199219,28.71,2
-0.2368215769529342,-1.0977686643600464,-0.0346285104751586,-642.5223999023438,5.766851902008057,69.98389434814453,28.71,2
-0.2583361566066742,-1.08513343334198,0.0113640613853931,-689.635986328125,5.776114940643311,69.98966217041016,28.71,2
-0.2497518956661224,-1.105013728141785,0.0128905745223164,-683.8694458007812,5.782059669494629,69.99336242675781,28.71,2
-0.2274496853351593,-1.1401628255844116,0.0082724289968609,-636.9414672851562,5.785874366760254,69.99574279785156,28.71,2
-0.185148537158966,-1.1011439561843872,0.0165043175220489,-568.00146484375,5.788322448730469,69.99726867675781,28.71,2
-0.152404323220253,-1.0369194746017456,0.0273848436772823,-489.1162109375,5.789893627166748,69.99824523925781,28.71,2
-0.1257931888103485,-0.9789106249809264,0.0287695657461881,-409.10791015625,5.7909016609191895,69.99887084960938,28.71,2
-0.1199112460017204,-0.9528794288635254,0.0240604262799024,-335.03533935546875,5.791548728942871,69.99927520751953,28.71,2
-0.1441254317760467,-0.9417718648910522,0.0154405962675809,-266.9107666015625,5.791964054107666,69.9995346069336,28.71,2
-0.1988491266965866,-0.9122525453567504,0.0099088856950402,-200.0668029785156,5.772493362426758,69.99970245361328,28.71,2
-0.2395654171705246,-0.8877109885215759,0.0063589522615075,-133.2887420654297,5.759997844696045,69.99980926513672,28.71,2
-0.2712925672531128,-0.8775594234466553,0.0096785835921764,-70.28960418701172,5.751978874206543,69.9998779296875,28.71,2
-0.2692621052265167,-0.865446925163269,0.0174067057669162,-13.283804893493652,5.746832847595215,69.99992370605469,28.71,2
-0.2511657476425171,-0.874467134475708,0.0223661698400974,41.47005844116211,5.743530750274658,69.99995422363281,28.71,2
-0.2283570170402526,-0.9362335801124572,0.0311466436833143,99.7262954711914,5.741411209106445,69.99996948242188,28.71,2
-0.2193174511194229,-0.9982628226280212,0.0311836712062358,162.45135498046875,5.74005126953125,69.9999771118164,28.71,2
-0.1967230588197708,-1.0548629760742188,0.0032185607124119,225.93411254882807,5.739178657531738,69.99998474121094,28.71,2
-0.1822232753038406,-1.2031410932540894,-0.0427167080342769,287.9864501953125,5.724388599395752,69.99999237060547,28.71,2
-0.2121025770902633,-1.2647109031677246,-0.0498042218387126,351.3491516113281,5.714897632598877,69.99999237060547,28.71,2
-0.2816573679447174,-1.113898515701294,-0.0319614820182323,422.4779052734375,5.70880651473999,69.99999237060547,28.71,2
-0.2983047366142273,-1.0115180015563965,-0.0484999120235443,506.8411560058594,5.704897880554199,69.99999237060547,28.71,2
-0.2306192368268966,-1.06896710395813,-0.1038955226540565,596.4122924804688,5.702389240264893,69.99999237060547,28.71,2
-0.1759870201349258,-1.1338235139846802,-0.1394452303647995,663.455810546875,5.700779438018799,69.99999237060547,28.71,2
-0.1521227657794952,-1.130662441253662,-0.1622589826583862,681.2125854492188,5.699746608734131,69.99999237060547,28.71,2
-0.1424058228731155,-1.0614604949951172,-0.1713017672300338,648.9971313476562,5.6990838050842285,69.99999237060547,28.71,2
-0.1305722743272781,-1.0058552026748655,-0.1827026754617691,584.9166259765625,5.704625606536865,70.16120910644531,28.71,2
-0.1565648317337036,-0.986964225769043,-0.2068124562501907,503.224365234375,5.708181858062744,70.2646713256836,28.71,2
-0.1788431406021118,-0.946852207183838,-0.2222847193479538,411.9817504882813,5.710464000701904,70.33106231689453,28.71,2
-0.1931400746107101,-0.9099150896072388,-0.2322139292955398,320.10595703125,5.711928367614746,70.37367248535156,28.71,2
-0.1967172473669052,-0.8582220673561096,-0.2105970531702041,232.1909942626953,5.7128682136535645,70.40101623535156,28.71,2
-0.1878173202276229,-0.808255136013031,-0.1911268085241317,144.0162811279297,5.713471412658691,70.41856384277344,28.71,2
-0.1877036392688751,-0.7873848080635071,-0.184229701757431,51.14650344848633,5.713858604431152,70.42982482910156,28.71,2
-0.2324128746986389,-0.8131758570671082,-0.2021946310997009,-43.04532241821289,5.714107036590576,70.43704986572266,28.71,2
-0.2611047029495239,-0.829727053642273,-0.2193212658166885,-132.5791473388672,5.743643760681152,70.44168853759766,28.71,2
-0.2627241313457489,-0.8627397418022156,-0.224714383482933,-217.42559814453125,5.762598514556885,70.44466400146484,28.71,2
-0.2749589383602142,-0.9063165187835692,-0.211382046341896,-303.46630859375,5.774762630462647,70.44657135009766,28.71,2
-0.3219949603080749,-0.9678682088851928,-0.1916305720806121,-397.9329833984375,5.78256893157959,70.44779968261719,28.71,2
-0.3241910934448242,-1.0465530157089231,-0.2013463079929351,-501.3501281738281,5.787578582763672,70.4485855102539,28.71,2
-0.3256004452705383,-1.0466684103012085,-0.1963857561349868,-596.1737060546875,5.790793418884277,70.44908905029297,28.71,2
-0.3377004265785217,-0.9347869157791138,-0.176409050822258,-652.7627563476562,5.792856693267822,70.44941711425781,28.71,2
-0.3622588217258453,-0.8853789567947388,-0.1915780156850814,-657.064453125,5.794180393218994,70.44962310791016,28.71,2
-0.3668234348297119,-0.8480739593505859,-0.178921490907669,-622.2760620117188,5.768406867980957,70.44976043701172,28.69,2
-0.4145349562168121,-0.8689159750938416,-0.1428103893995285,-567.9405517578125,5.751866817474365,70.44984436035156,28.69,2
-0.4451534450054168,-0.893486738204956,-0.1196363568305969,-502.6550903320313,5.741252422332764,70.44989776611328,28.69,2
-0.3584449291229248,-0.9372437000274658,-0.0767757296562194,-430.4464721679688,5.734440803527832,70.44993591308594,28.69,2
-0.3307892680168152,-0.9821177124977112,-0.0380746945738792,-357.2091369628906,5.730069637298584,70.44995880126953,28.69,2
-0.3914102911949157,-0.9381442070007324,-0.0132385985925793,-285.110107421875,5.727264404296875,70.4499740600586,28.69,2
-0.430313378572464,-0.8763378858566284,-0.008495770394802,-209.711181640625,5.7254638671875,70.44998168945312,28.69,2
-0.4664746820926666,-0.8422719240188599,-0.0054520964622497,-127.37242126464844,5.724308490753174,70.44998931884766,28.69,2
-0.461692065000534,-0.8651925325393677,0.0188922565430402,-42.665138244628906,5.563828468322754,70.44998931884766,28.69,2
-0.4306339919567108,-0.907890558242798,0.0401128344237804,36.09962463378906,5.460841655731201,70.44998931884766,28.69,2
-0.3435294032096863,-0.9408894777297974,0.0985131710767746,108.0163803100586,5.394750595092773,70.44998931884766,28.69,2
-0.3100217878818512,-0.922881841659546,0.1359911561012268,180.6293182373047,5.35233736038208,70.44998931884766,28.69,2
-0.2661274373531341,-0.9057278037071228,0.1432490348815918,259.9370422363281,5.325119018554688,70.44998931884766,28.69,2
-0.2043719142675399,-0.9171104431152344,0.0975267589092254,346.0453186035156,5.307651996612549,70.44998931884766,28.69,2
-0.1871318817138672,-0.9524040222167968,0.0513915121555328,431.82818603515625,5.29644250869751,70.44998931884766,28.69,2
-0.2096548676490783,-1.0086400508880615,0.0385778881609439,501.6030883789063,5.289248943328857,70.44998931884766,28.69,2
-0.229706585407257,-1.0447291135787964,0.0471481643617153,548.3438720703125,5.326664447784424,70.5574722290039,28.69,2
-0.2369768619537353,-1.051095724105835,0.0526480749249458,591.4766845703125,5.350675582885742,70.62644958496094,28.69,2
-0.2080558538436889,-1.077572464942932,0.0561776012182235,650.1533203125,5.366084098815918,70.67071533203125,28.69,2
-0.1894960105419159,-1.1281503438949585,0.0696382001042366,706.8212890625,5.375972747802734,70.6991195678711,28.69,2
-0.1719876080751419,-1.1326195001602173,0.0782764330506324,728.7820434570312,5.382318496704102,70.71734619140625,28.69,2
-0.1719472706317901,-1.1410852670669556,0.0782221779227256,709.2598266601562,5.3863911628723145,70.72904205322266,28.69,2
-0.183116927742958,-1.1241270303726196,0.0837851390242576,660.6300048828125,5.389004707336426,70.7365493774414,28.69,2
-0.2070782929658889,-1.0852553844451904,0.1041484475135803,590.60498046875,5.390681743621826,70.74137115478516,28.69,2
-0.2392486482858657,-1.0603097677230835,0.139607548713684,506.29443359375,5.513857364654541,70.74446105957031,28.69,2
-0.2375026196241378,-1.0610944032669067,0.179156482219696,418.0755004882813,5.592904090881348,70.74644470214844,28.69,2
-0.1915999352931976,-1.0727934837341309,0.148558959364891,326.02642822265625,5.643631935119629,70.74771881103516,28.69,2
-0.1509466767311096,-1.1306812763214111,0.1009343639016151,220.58175659179688,5.6761860847473145,70.74853515625,28.69,2
0.0094888256862759,-1.2517969608306885,0.0423827692866325,102.1340103149414,5.69707727432251,70.74906158447266,28.69,2
0.1516315191984176,-1.2959353923797607,-0.0175833757966756,-13.090228080749512,5.710484027862549,70.74939727783203,28.69,2
0.1756772249937057,-1.464205265045166,-0.1680216789245605,-111.89041137695312,5.719088077545166,70.7496109008789,28.69,2
0.0959462076425552,-1.3034980297088623,-0.1414132863283157,-197.9473114013672,5.724609375,70.74974822998047,28.69,2
-0.0559805035591125,-0.9260743856430054,0.1555511653423309,-285.30938720703125,5.739628314971924,70.74983978271484,28.69,2
-0.3326071202754974,-0.3927813470363617,0.6204168200492859,-379.194580078125,5.749266624450684,70.7499008178711,28.69,2
-0.4317612946033478,-0.0561423450708389,0.9019474983215332,-463.4192810058594,5.755451679229736,70.74993896484375,28.69,2
-0.3666439354419708,0.0703287795186042,0.8699022531509399,-513.1564331054688,5.759420871734619,70.74996185302734,28.69,2
-0.3808331191539764,0.0395351871848106,0.703795313835144,-522.1069946289062,5.76196813583374,70.7499771118164,28.69,2
-0.496296614408493,-0.0473996624350547,0.5636107921600342,-511.05224609375,5.7636027336120605,70.74998474121094,28.69,2
-0.6319699883460999,-0.1927538365125656,0.4288662672042846,-499.5083923339844,5.764651775360107,70.74999237060547,28.69,2
-0.6798529028892517,-0.3140226304531097,0.331199437379837,-487.6685485839844,5.76532506942749,70.74999237060547,28.69,2
-0.7217769622802734,-0.375052660703659,0.3412935435771942,-474.9186706542969,5.451787948608398,70.74999237060547,28.69,2
-0.8438435792922974,-0.4366093277931213,0.2582069635391235,-463.9349670410156,5.250577926635742,70.74999237060547,28.69,2
-0.9109833240509032,-0.4929061532020569,0.1489090472459793,-450.7851257324219,5.121452808380127,70.74999237060547,28.69,2
-0.892494261264801,-0.4730564653873443,0.0787679329514503,-430.3661804199219,5.038588047027588,70.74999237060547,28.69,2
-0.8470423817634583,-0.4547203183174133,0.0505487248301506,-404.5335998535156,4.985410213470459,70.74999237060547,28.69,2
-0.8066784143447876,-0.5157243013381958,0.0436348095536232,-378.81298828125,4.95128345489502,70.74999237060547,28.69,2
-0.7751774191856384,-0.5884597897529602,0.0559911802411079,-354.2318725585937,4.929382801055908,70.74999237060547,28.69,2
-0.7717552185058594,-0.651930570602417,0.0863118842244148,-326.8388366699219,4.915328502655029,70.74999237060547,28.69,2
-0.780754566192627,-0.726249098777771,0.0945744216442108,-294.82177734375,5.155691623687744,71.11541748046875,28.69,2
-0.7697365283966064,-0.7907357811927795,0.0662901923060417,-258.81982421875,5.309942722320557,71.34992218017578,28.69,2
-0.7402746677398682,-0.8936951160430908,-0.0246320664882659,-220.3573608398437,5.408932209014893,71.50041961669922,28.69,2
-0.7269655466079712,-1.0269417762756348,0.0345725268125534,-179.43812561035156,5.472457885742188,71.59700012207031,28.69,2
-0.600871205329895,-1.1180496215820312,0.0781643986701965,-134.9396209716797,5.513225078582764,71.65897369384766,28.69,2
-0.3856045603752136,-1.1485285758972168,0.1061391532421112,-89.00755310058594,5.539387226104736,71.69874572753906,28.69,2
-0.2642521262168884,-1.1456971168518066,0.1352872848510742,-46.77344512939453,5.556176662445068,71.72427368164062,28.69,2
-0.2423528730869293,-1.171868920326233,0.1595906615257263,-11.530415534973145,5.566950798034668,71.74065399169922,28.69,2
-0.3010702729225158,-1.188664436340332,0.1695894002914428,17.9041748046875,5.72520637512207,71.75116729736328,28.69,2
-0.3387517035007477,-1.1826494932174685,0.1592126786708831,43.58974456787109,5.826766014099121,71.7579116821289,28.69,2
0.1968439519405365,-1.234767198562622,0.4044533371925354,64.61955261230469,5.891941070556641,71.76223754882812,28.69,2
-0.0304145757108926,-1.1226712465286257,0.2931415140628814,78.63475036621094,5.9337663650512695,71.7650146484375,28.69,2
-0.1426693648099899,-1.084321141242981,0.2385013252496719,87.07001495361328,5.960607528686523,71.76679992675781,28.69,2
-0.2762835323810577,-1.0709058046340942,0.2146319448947906,94.67581939697266,5.977832794189453,71.7679443359375,28.69,2
-0.3228450119495392,-1.0343077182769775,0.1881183981895446,104.16039276123048,5.988886833190918,71.7686767578125,28.69,2
-0.3359321653842926,-0.994027853012085,0.1655057519674301,114.38491821289062,5.995980739593506,71.76914978027344,28.69,2
-0.4059062600135803,-1.001765251159668,0.1565920412540435,124.98757934570312,5.941517353057861,71.76945495605469,28.67,2
-0.5067893266677856,-1.006730556488037,0.1340783983469009,138.83868408203125,5.906566143035889,71.76964569091797,28.67,2
-0.5659325122833252,-0.9931237101554872,0.1532170921564102,160.35610961914062,5.884136199951172,71.76976776123047,28.67,2
-0.5814961194992065,-1.0011849403381348,0.1878903061151504,195.1049041748047,5.869741916656494,71.76985168457031,28.67,2
-0.5299084186553955,-0.9783693552017212,0.1877504736185073,240.55528259277344,5.860504627227783,71.76990509033203,28.67,2
-0.4912046194076538,-0.9693253636360168,0.1708674132823944,272.7893981933594,5.854576587677002,71.76993560791016,28.67,2
-0.4495734274387359,-0.9635214805603028,0.1376417428255081,264.4995422363281,5.850772380828857,71.76995849609375,28.67,2
-0.4284546971321106,-0.93740576505661,0.0939283221960067,222.289794921875,5.848330974578857,71.76997375488281,28.67,2
-0.4149019122123718,-0.8982551097869873,0.0658755674958229,181.20489501953125,5.920207500457764,71.76998138427734,28.67,2
-0.3950089812278747,-0.8507393598556519,0.0646662414073944,165.08871459960938,5.966333389282227,71.76998901367188,28.67,2
-0.3766450583934784,-0.8034531474113464,0.0582923963665962,176.4280242919922,5.99593448638916,71.76998901367188,28.67,2
-0.3704579174518585,-0.7395209670066833,0.0597998015582561,207.7189483642578,6.014930725097656,71.76998901367188,28.67,2
-0.3608896136283874,-0.7040907144546509,0.0551693923771381,237.6947479248047,6.027121543884277,71.76998901367188,28.67,2
-0.3435536623001098,-0.6981469392776489,0.0466000884771347,236.8009796142578,6.034945011138916,71.76998901367188,28.67,2
-0.3156351149082184,-0.7615059018135071,0.0299052540212869,196.9229736328125,6.039965629577637,71.76998901367188,28.67,2
-0.2977186143398285,-0.852545976638794,0.0191914699971675,140.72921752929688,6.043187618255615,71.76998901367188,28.67,2
-0.2750252783298492,-0.92776358127594,0.0291093047708272,95.53530883789062,6.028271675109863,72.56890869140625,28.67,2
-0.2380709052085876,-0.9984250068664552,0.0354739986360073,76.47410583496094,6.018699645996094,73.08161163330078,28.67,2
-0.2311490476131439,-1.0661625862121582,0.0395584926009178,93.81587982177734,6.012556552886963,73.41062927246094,28.67,2
-0.2435003221035003,-1.1544147729873655,0.0421796850860118,145.77186584472656,6.008614540100098,73.62177276611328,28.67,2
-0.2514266669750213,-1.2334411144256592,0.0438618175685405,201.33335876464844,6.00608491897583,73.75727844238281,28.67,2
-0.2285244613885879,-1.3233400583267212,0.0449413135647773,224.5472412109375,6.004461288452148,73.84423828125,28.67,2
-0.2082293629646301,-1.364238739013672,0.0512318462133407,215.94288635253903,6.003419399261475,73.90003967285156,28.67,2
-0.1840095818042755,-1.3848873376846311,0.0608665235340595,196.5350341796875,6.002750873565674,73.93585205078125,28.67,2
-0.1852600574493408,-1.3701496124267578,0.0558539554476738,165.4472198486328,6.059698581695557,73.95883178710938,28.67,2
-0.1860625296831131,-1.3438984155654907,0.0470394007861614,110.38402557373048,6.0962443351745605,73.97357940673828,28.67,2
-0.2033708393573761,-1.293465256690979,0.0413827300071716,37.99306106567383,6.119697570800781,73.98304748535156,28.67,2
-0.2088805437088012,-1.2163180112838743,0.043350376188755,-33.60222625732422,6.134748458862305,73.98912048339844,28.67,2
-0.2068185806274414,-1.150015950202942,0.0390153266489505,-89.06686401367188,6.144407272338867,73.9930191040039,28.67,2
-0.2054953277111053,-1.0682827234268188,0.0362333394587039,-114.93059539794922,6.15060567855835,73.99552154541016,28.67,2
-0.1990483701229095,-0.9934399724006652,0.0512413419783115,-111.34780883789062,6.15458345413208,73.99712371826172,28.67,2
-0.1893133074045181,-0.9118235111236572,0.0552748404443264,-96.38775634765624,6.157135963439941,73.99815368652344,28.67,2
-0.1886636763811111,-0.8202623724937439,0.0522655323147773,-81.50296020507812,6.275824069976807,73.99881744384766,28.67,2
-0.1938445568084716,-0.744710385799408,0.0503343343734741,-67.21458435058594,6.351991653442383,73.9992446899414,28.67,2
-0.2307559847831726,-0.6962254643440247,0.0546927750110626,-65.55779266357422,6.400871276855469,73.99951171875,28.67,2
-0.2600413858890533,-0.6763061881065369,0.0574897713959217,-87.3227310180664,6.432239532470703,73.99968719482422,28.67,2
-0.3012261688709259,-0.7027075290679932,0.0592847242951393,-114.208984375,6.452369689941406,73.99980163574219,28.67,2
-0.3052650988101959,-0.7420415282249451,0.0996210426092147,-118.87744140625,6.465288162231445,73.99987030029297,28.67,2
-0.3134548366069793,-0.7784793376922607,0.1422998905181884,-97.2431869506836,6.473578453063965,73.99991607666016,28.67,2
-0.2851238846778869,-0.7962652444839478,0.1752865016460418,-58.67919921875,6.478899002075195,73.99994659423828,28.67,2
-0.2613449394702911,-0.7908859252929688,0.2188464999198913,-5.954724311828613,6.481243133544922,73.99996948242188,28.67,2
-0.3020627200603485,-0.7594448924064636,0.2691918909549713,57.415565490722656,6.482747554779053,73.9999771118164,28.67,2
-0.3281930387020111,-0.7056812047958374,0.2791095674037933,115.56951904296876,6.483713150024414,73.99998474121094,28.67,2
-0.3841464221477508,-0.6991676688194275,0.2742786109447479,149.88002014160156,6.48433256149292,73.99999237060547,28.67,2
-0.3025008141994476,-0.6502054333686829,0.3607427775859833,155.76260375976562,6.484730243682861,73.99999237060547,28.67,2
-0.2445075809955597,-0.7083486914634705,0.4162304997444153,140.0520782470703,6.4849853515625,73.99999237060547,28.67,2
-0.3136485815048218,-0.7624549865722656,0.4686326682567596,107.28509521484376,6.485148906707764,73.99999237060547,28.67,2
-0.3692148327827453,-0.7411995530128479,0.4630769193172455,62.94889450073242,6.485253810882568,73.99999237060547,28.67,2
-0.38808074593544,-0.7163634896278381,0.4651093482971191,22.885347366333008,6.52755069732666,74.95654296875,28.67,2
-0.3889922499656677,-0.6892296075820923,0.4888047277927398,5.669155597686768,6.554694652557373,75.57040405273438,28.67,2
-0.400772750377655,-0.6718166470527649,0.4984132945537567,21.0279598236084,6.572113990783691,75.96434020996094,28.67,2
-0.3859416842460632,-0.6550442576408386,0.5157750844955444,65.8646240234375,6.583292484283447,76.21714782714844,28.67,2
-0.3764239549636841,-0.621889591217041,0.5605034828186035,122.15956115722656,6.590466499328613,76.37938690185547,28.67,2
-0.3815115988254547,-0.6062105894088745,0.5836098194122314,163.577880859375,6.5950703620910645,76.4834976196289,28.67,2
-0.3903743326663971,-0.6017464995384216,0.6152315139770508,175.7629852294922,6.598024845123291,76.5503158569336,28.67,2
-0.407257467508316,-0.5932838916778564,0.6411222219467163,163.2157440185547,6.599920749664307,76.59319305419922,28.67,2
-0.4068965315818786,-0.6046464443206787,0.6521396636962891,136.44110107421875,6.6263837814331055,76.62071228027344,28.67,2
-0.4066649079322815,-0.5839493870735168,0.6648077964782715,102.35608673095705,6.643365859985352,76.63836669921875,28.67,2
-0.39532071352005,-0.58186274766922,0.684132993221283,66.66070556640625,6.654263973236084,76.64969635009766,28.67,2
-0.3992362022399902,-0.5637303590774536,0.6797415018081665,35.019142150878906,6.661257743835449,76.65696716308594,28.67,2
-0.4073467254638672,-0.5688873529434204,0.6825210452079773,7.906518459320068,6.665746212005615,76.66163635253906,28.67,2
-0.3845627307891845,-0.5721967816352844,0.6955003142356873,-17.711231231689453,6.66862678527832,76.66463470458984,28.67,2
-0.3979301452636719,-0.5743206143379211,0.7262207865715027,-45.02792739868164,6.670475006103516,76.66655731201172,28.67,2
-0.395313024520874,-0.5700857639312744,0.7291420698165894,-70.07445526123047,6.671661376953125,76.66779327392578,28.67,2
