acc_x,acc_y,acc_z,bvp,eda,hr,temp,label
0.0,0.0,0.0,0.0,0.0,0.0,24.91,2
-0.0494791641831398,-0.0911458283662796,0.1249999925494194,-14.408331871032717,0.296520322561264,12.166666030883787,24.91,2
-0.1200457364320755,-0.2050304859876632,0.296875,-27.46926689147949,0.6942915320396423,28.48780632019043,24.91,2
-0.1664763391017913,-0.3190406858921051,0.4314264953136444,-22.02205848693848,1.0402840375900269,42.68438720703125,24.91,2
-0.2003499567508697,-0.407555490732193,0.5456036925315857,6.34882926940918,1.2927042245864868,53.04155731201172,24.91,2
-0.2781810462474823,-0.47846320271492,0.6064372658729553,41.46237564086914,1.4636032581329346,60.05379867553711,24.91,2
-0.3292494416236877,-0.5305418968200684,0.6352466940879822,65.03145599365234,1.5757375955581665,64.65483856201172,24.91,2
-0.3623239398002624,-0.5531120896339417,0.6483258008956909,76.88233184814453,1.6483615636825562,67.63470458984375,24.91,2
-0.3724492490291595,-0.5732413530349731,0.6511608362197876,85.43938446044922,1.6282142400741575,69.55425262451172,24.91,2
-0.3901464939117431,-0.5693953633308411,0.6473883986473083,91.04319763183594,1.615264654159546,70.78802490234375,24.91,2
-0.3735284209251404,-0.6116974949836731,0.6393694281578064,90.43673706054688,1.6069490909576416,71.5802993774414,24.91,2
-0.3796528279781341,-0.6108655333518982,0.6342219710350037,85.67711639404297,1.6016111373901367,72.0888671875,24.91,2
-0.3779859840869903,-0.6047340035438538,0.6365157961845398,79.45187377929688,1.5981851816177368,72.41527557373047,24.91,2
-0.38251394033432,-0.6063966751098633,0.6267925500869751,69.95752716064453,1.5959864854812622,72.624755859375,24.91,2
-0.374224305152893,-0.6130614280700684,0.626150369644165,55.88973236083984,1.5945755243301392,72.75918579101562,24.91,2
-0.346513420343399,-0.6173384785652161,0.6425315141677856,40.70691680908203,1.5936700105667114,72.845458984375,24.91,2
-0.3175345659255981,-0.614485502243042,0.6362507343292236,29.240209579467773,1.5765632390975952,72.90082550048828,24.91,2
-0.2765464782714844,-0.6126546263694763,0.6266223192214966,22.94196891784668,1.565585017204285,72.93635559082031,24.91,2
-0.2054604887962341,-0.6114796996116638,0.5980522632598877,19.430339813232425,1.558539867401123,72.95915985107422,24.91,2
-0.1710371375083923,-0.6163234710693359,0.5517287254333496,15.865555763244627,1.55401873588562,72.97379302978516,24.91,2
-0.1881306320428848,-0.630627453327179,0.4828165471553802,11.843915939331056,1.5511173009872437,72.98318481445312,24.91,2
-0.1935024708509445,-0.6510024666786194,0.4162015914916992,8.041399955749512,1.54925537109375,72.98921203613281,24.91,2
-0.2417320162057876,-0.6584802269935608,0.3622563779354095,3.63074803352356,1.548060417175293,72.99308013916016,24.91,2
-0.3286606967449188,-0.6856700778007507,0.2940508127212524,-2.219865798950196,1.5472935438156128,72.99555969238281,24.91,2
-0.4012398421764374,-0.7087167501449585,0.2278892993927002,-8.066678047180176,1.615199327468872,72.99715423583984,24.91,2
-0.459012508392334,-0.7570934295654297,0.2022239714860916,-11.833154678344728,1.6587772369384766,72.99817657470703,24.91,2
-0.5296743512153625,-0.8161276578903198,0.1857534497976303,-12.559287071228027,1.686743140220642,72.99883270263672,24.91,2
-0.597412109375,-0.8764035701751709,0.1639880686998367,-9.414040565490724,1.7046899795532229,72.99925231933594,24.91,2
-0.6352845430374146,-0.9430740475654602,0.1780091673135757,-1.6957250833511353,1.7162072658538818,72.99951934814453,24.91,2
-0.6651867032051086,-0.9858592748641968,0.1702137738466262,9.175860404968262,1.7235983610153198,72.99969482421875,24.91,2
-0.6899739503860474,-1.0133163928985596,0.1652111411094665,19.64921188354492,1.728341579437256,72.99980163574219,24.91,2
-0.6946853995323181,-1.03093683719635,0.1675985157489776,26.94361686706543,1.7313854694366455,72.99987030029297,24.91,2
-0.6361334323883057,-1.0310490131378174,0.1803261488676071,31.1016902923584,1.745274305343628,71.99679565429688,24.91,2
-0.5873625874519348,-1.0199254751205444,0.188494011759758,33.98505783081055,1.7541873455047607,71.35308074951172,24.91,2
-0.5504664778709412,-1.0071892738342283,0.199333444237709,36.94245529174805,1.7599071264266968,70.93997955322266,24.91,2
-0.4987998306751251,-0.9822225570678712,0.1838984787464141,40.08707809448242,1.7635778188705444,70.67487335205078,24.91,2
-0.4600453674793243,-0.9494070410728456,0.1571998745203018,43.56680679321289,1.765933394432068,70.50474548339844,24.91,2
-0.4295772314071655,-0.9171524047851562,0.1176751554012298,48.27545547485352,1.767445087432861,70.39556884765625,24.91,2
-0.3932312130928039,-0.9188442826271056,0.0755171403288841,54.71497344970703,1.7684152126312256,70.32550048828125,24.91,2
-0.3699064254760742,-0.9423211812973022,0.0484625548124313,62.225852966308594,1.769037842750549,70.2805404663086,24.91,2
-0.3549379110336303,-1.002169489860535,0.0311004780232906,69.82239532470703,1.788258075714111,70.2516860961914,24.91,2
-0.3509297668933868,-1.040576696395874,0.0143607221543788,76.66425323486328,1.8005925416946411,70.23316955566406,24.91,2
-0.3427597880363464,-1.014844298362732,0.0036181104369461,81.09437561035156,1.808508038520813,70.22128295898438,24.91,2
-0.3319189846515655,-1.0039284229278564,0.0135174440219998,80.99249267578125,1.8135877847671509,70.21365356445312,24.91,2
-0.3249619901180267,-1.00252103805542,0.0198702663183212,76.46680450439453,1.8168476819992063,70.2087631225586,24.91,2
-0.3093018531799316,-0.9680312275886536,0.0351426899433136,70.44205474853516,1.8189396858215328,70.20561981201172,24.91,2
-0.2880565226078033,-0.9347020983695984,0.0393458791077137,65.80546569824219,1.820282220840454,70.20360565185547,24.91,2
-0.2576291561126709,-0.9189111590385436,0.0476410165429115,63.90474319458008,1.8211437463760376,70.20231628417969,24.91,2
-0.2325048595666885,-0.9647551774978638,0.0585621334612369,64.33295440673828,1.831795573234558,70.20148468017578,24.91,2
-0.2163815349340438,-1.0053707361221311,0.0543751306831836,64.10977935791016,1.838631272315979,70.2009506225586,24.91,2
-0.2284256070852279,-1.0090444087982178,0.0572859272360801,60.51653671264648,1.8430180549621584,70.20060729980469,24.91,2
-0.2417525649070739,-0.9834131002426147,0.0647516846656799,55.91416549682617,1.8458331823349,70.20038604736328,24.91,2
-0.2503050565719604,-0.9165844321250916,0.0751405507326126,55.30363464355469,1.847639799118042,70.20024871826172,24.91,2
-0.2445979863405227,-0.8736976385116577,0.1041986271739006,59.823543548583984,1.848799228668213,70.20015716552734,24.91,2
-0.2297399789094925,-0.8405776023864746,0.1172486543655395,68.49927520751953,1.8495432138442995,70.2000961303711,24.91,2
-0.2146071940660476,-0.8025296926498413,0.120025634765625,83.87236785888672,1.8500206470489504,70.20005798339844,24.91,2
-0.2104936093091964,-0.7893083095550537,0.127405509352684,106.67819213867188,1.8549177646636963,70.20003509521484,24.91,2
-0.2302448451519012,-0.8032146692276001,0.1321414858102798,125.91010284423828,1.8580604791641235,70.20001983642578,24.91,2
-0.2541156113147735,-0.8345300555229187,0.1351807713508606,123.75335693359376,1.860077261924744,70.20001220703125,24.91,2
-0.2750322520732879,-0.877017617225647,0.1371312141418457,90.9178466796875,1.8613715171813965,70.20000457763672,24.91,2
-0.2884553670883178,-0.9490658640861512,0.1327851116657257,32.852230072021484,1.8622021675109863,70.20000457763672,24.91,2
-0.2914717495441437,-1.006497859954834,0.12439826130867,-34.61205291748047,1.862735152244568,70.20000457763672,24.91,2
-0.2934074997901916,-1.0545499324798584,0.1078205183148384,-92.21913146972656,1.8630772829055784,70.20000457763672,24.91,2
-0.3114430904388428,-1.1077780723571775,0.0747907757759094,-127.14238739013672,1.8632967472076416,70.20000457763672,24.91,2
-0.3398106098175049,-1.1363390684127808,0.0423986390233039,-140.0459747314453,1.866191864013672,69.1144790649414,24.91,2
-0.3748085796833038,-1.0874946117401123,0.0160134565085172,-139.83604431152344,1.8680498600006104,68.41785430908203,24.91,2
-0.3860726952552795,-1.016964554786682,0.0102765150368213,-133.8079833984375,1.8692421913146973,67.9708023071289,24.91,2
-0.3597147166728973,-0.921322464942932,0.0121926497668027,-125.14962005615234,1.870007395744324,67.68390655517578,24.91,2
-0.3092130422592163,-0.9159226417541504,0.0022267664317041,-114.86418151855467,1.870498418807984,67.49979400634766,24.91,2
-0.2656084299087524,-0.9628373384475708,-0.004168763756752,-103.07242584228516,1.870813488960266,67.38164520263672,24.91,2
-0.2096366286277771,-1.0545200109481812,-0.0194685962051153,-90.4322280883789,1.871015667915344,67.30582427978516,24.91,2
-0.1681193709373474,-1.1021610498428345,-0.0292871482670307,-78.55519104003906,1.871145486831665,67.25716400146484,24.91,2
-0.1582693010568618,-1.0767565965652466,-0.0467836782336235,-68.44330596923828,1.8721466064453125,67.22593688964844,24.91,2
-0.1799369752407074,-1.004475712776184,-0.0580119453370571,-59.45702362060547,1.8727891445159912,67.20589447021484,24.91,2
-0.2106353640556335,-0.9356989860534668,-0.0652175992727279,-50.7524299621582,1.873201489448548,67.19303131103516,24.91,2
-0.2191402614116668,-0.8747686743736267,-0.053048450499773,-42.74092102050781,1.8734660148620603,67.18477630615234,24.91,2
-0.2134026736021042,-0.830069363117218,-0.0396412163972854,-36.2632942199707,1.8736357688903809,67.17948150634766,24.91,2
-0.198525071144104,-0.8125794529914856,-0.0142439017072319,-31.26083755493164,1.8737447261810305,67.17608642578125,24.91,2
-0.1833797097206115,-0.8013554215431213,0.0020546321757137,-27.018768310546875,1.8738147020339968,67.17390441894531,24.91,2
-0.1792580634355545,-0.8165435791015625,0.0069163190200924,-23.06404685974121,1.8738596439361568,67.1725082397461,24.91,2
-0.1766130179166793,-0.8822682499885559,-0.0011592786759138,-19.45494270324707,1.873429536819458,67.1716079711914,24.91,2
-0.1749155819416046,-0.9468376636505128,-0.0119395069777965,-16.407981872558594,1.8731534481048584,67.17102813720703,24.91,2
-0.1794240474700927,-1.072241187095642,-0.0412487350404262,-13.8113374710083,1.872976303100586,67.17066192626953,24.91,2
-0.221501737833023,-1.1471201181411743,-0.048862162977457,-11.31738567352295,1.8728625774383545,67.17042541503906,24.91,2
-0.2652980983257293,-1.1503909826278689,-0.0481502451002597,-8.792606353759766,1.8727896213531487,67.17027282714844,24.91,2
-0.293404072523117,-1.0909144878387451,-0.0141067337244749,-6.366269111633301,1.872742772102356,67.17017364501953,24.91,2
-0.2890497744083404,-1.0191593170166016,0.0189359821379184,-4.261051177978516,1.8727127313613887,67.17011260986328,24.91,2
-0.2190821468830108,-0.9283287525177002,0.0345431193709373,-2.8383920192718506,1.872693419456482,67.17007446289062,24.91,2
-0.1685831844806671,-0.9148210883140564,0.0333633348345756,-2.2800862789154053,1.87451720237732,67.1700439453125,24.91,2
-0.1361758559942245,-0.9397392868995668,0.0382039919495582,-2.1797432899475098,1.875687599182129,67.17002868652344,24.91,2
-0.1657586693763733,-0.961328148841858,0.0189193487167358,-1.929054975509644,1.8764386177062988,67.1700210571289,24.91,2
-0.1903409957885742,-0.963987112045288,0.0065435743890702,-1.4135026931762695,1.8769205808639529,67.17001342773438,24.91,2
-0.2229098379611969,-0.9209112524986268,0.0041992892511188,-0.9930864572525024,1.877229928970337,67.17000579833984,24.91,2
-0.2438106387853622,-0.8764743208885193,0.0082926368340849,-0.9274943470954896,1.877428412437439,67.17000579833984,24.91,2
-0.2460280209779739,-0.8479572534561157,0.0109195113182067,-1.1505117416381836,1.8775558471679688,67.17000579833984,24.91,2
-0.2250599116086959,-0.8240588903427124,0.0238008368760347,-1.3867783546447754,1.8776376247406008,67.17000579833984,24.91,2
-0.2116037905216217,-0.8143200278282166,0.0488606542348861,-1.3377764225006104,1.8763129711151123,68.0799789428711,24.91,2
-0.208566203713417,-0.8472546339035034,0.0929314717650413,-0.9086639285087584,1.8754628896713257,68.66394805908203,24.91,2
-0.2122146189212799,-0.8739879727363586,0.1156158149242401,-0.2750267088413238,1.874917268753052,69.03870391845703,24.91,2
-0.225751519203186,-0.8967416286468506,0.1301733255386352,0.2462475895881652,1.874567151069641,69.2791976928711,24.91,2
-0.2456342726945877,-0.984114706516266,0.1339177191257476,0.5055373907089233,1.874342441558838,69.43353271484375,24.91,2
-0.2583938837051391,-1.0737723112106323,0.1251251101493835,0.6038656830787659,1.874198317527771,69.53257751464844,24.91,2
-0.2721800208091736,-1.1704938411712646,0.1082869619131088,0.6490542888641357,1.87410581111908,69.59613800048828,24.91,2
-0.3034182786941528,-1.2045753002166748,0.0862856656312942,0.7067143321037292,1.8740464448928835,69.63693237304688,24.91,2
-0.3346607387065887,-1.1816645860671997,0.0553731732070446,1.033905863761902,1.8735493421554563,69.6631088256836,24.91,2
-0.3435148000717163,-1.0829951763153076,0.0243397653102874,1.7490216493606567,1.8732303380966189,69.6799087524414,24.91,2
-0.3324035108089447,-1.008479356765747,0.0044243116863071,2.3404972553253174,1.87302565574646,69.69068908691406,24.91,2
-0.2972840666770935,-1.0222349166870115,-0.0083562796935439,2.1862683296203613,1.872894287109375,69.6976089477539,24.91,2
-0.2411597669124603,-1.059051275253296,-0.0333514511585235,1.3134567737579346,1.8728100061416624,69.7020492553711,24.91,2
-0.1883490979671478,-1.082677960395813,-0.0605874620378017,0.1407161206007003,1.8727558851242063,69.70489501953125,24.91,2
-0.1544582545757293,-1.0754491090774536,-0.0892615169286727,-0.9307305216789246,1.872721195220948,69.70672607421875,24.91,2
-0.1439046114683151,-1.0484188795089722,-0.1076628714799881,-1.4821854829788208,1.8726989030838013,69.70790100097656,24.91,2
-0.1707185357809066,-0.9862902760505676,-0.1138740256428718,-1.3631775379180908,1.8717663288116453,69.70865631103516,24.91,2
-0.1991217136383056,-0.912833034992218,-0.1010666638612747,-0.928547501564026,1.8711678981781008,69.70913696289062,24.91,2
-0.2117514759302139,-0.8600946664810181,-0.0816520899534225,-0.6173837780952454,1.8707839250564573,69.70944213867188,24.91,2
-0.2142587453126907,-0.8150546550750732,-0.0579973869025707,-0.5789127349853516,1.8705374002456665,69.70964050292969,24.91,2
-0.2158677726984024,-0.7861505746841431,-0.0372193828225135,-0.8802385926246643,1.8703792095184328,69.70977020263672,24.91,2
-0.21690034866333,-0.812383770942688,-0.0182874836027622,-1.4963561296463013,1.870277762413025,69.70985412597656,24.91,2
-0.2119652330875396,-0.84041428565979,-0.0229314025491476,-2.085204124450684,1.8702126741409304,69.70990753173828,24.91,2
-0.2032003849744796,-0.8751959800720215,-0.0203138291835784,-2.223060131072998,1.8701708316802976,69.7099380493164,24.91,2
-0.214368924498558,-0.925505757331848,-0.0074384720064699,-1.8887842893600464,1.8696850538253784,69.7099609375,24.91,2
-0.22713403403759,-0.9633894562721252,0.0064219660125672,-1.387659192085266,1.8693733215332031,69.70997619628906,24.91,2
-0.2353259325027465,-1.0156898498535156,0.0265123471617698,-0.8296160101890564,1.869173288345337,69.7099838256836,24.91,2
-0.2293874770402908,-1.0828399658203125,0.0394051969051361,0.0694728642702102,1.8690448999404907,69.70999145507812,24.91,2
-0.2311742901802063,-1.1035418510437012,0.0532768592238426,1.3916321992874146,1.8689625263214111,69.70999145507812,24.91,2
-0.2659076154232025,-1.027262806892395,0.0789722204208374,2.558967113494873,1.8689095973968504,69.70999145507812,24.91,2
-0.2937952280044555,-0.955920159816742,0.0954620242118835,2.8208651542663574,1.8688757419586184,69.70999145507812,24.91,2
-0.2781052589416504,-0.9157343506813048,0.0948486775159835,2.039553642272949,1.8688539266586304,69.70999145507812,24.91,2
-0.2344496846199035,-0.9347276091575624,0.0832595154643058,0.7141606211662292,1.870676040649414,70.30828094482422,24.91,2
-0.2008362859487533,-0.9581119418144226,0.0702244862914085,-0.4301716089248657,1.8718453645706177,70.69223022460938,24.91,2
-0.1904606819152832,-0.9731186628341676,0.0562615804374218,-0.7991154193878174,1.87259578704834,70.93862915039062,24.91,2
-0.2061933130025863,-0.9715535640716552,0.0528987683355808,-0.3516103625297546,1.873077392578125,71.09675598144531,24.91,2
-0.2442784905433654,-0.9369625449180604,0.0507407076656818,0.3117430806159973,1.8733863830566408,71.19822692871094,24.91,2
-0.2743171453475952,-0.8923729062080383,0.0437580160796642,0.5511511564254761,1.873584747314453,71.26334381103516,24.91,2
-0.2935942113399505,-0.8581600785255432,0.0448746979236602,0.2892107367515564,1.8737120628356927,71.30513763427734,24.91,2
-0.289171814918518,-0.8418020009994507,0.0623846426606178,-0.0687640607357025,1.873793721199036,71.33195495605469,24.91,2
-0.2807359993457794,-0.8313043117523193,0.0792192965745925,-0.1981795728206634,1.870632886886597,71.34916687011719,24.91,2
-0.2753223776817322,-0.8469586372375488,0.101218357682228,-0.1522582620382309,1.86860454082489,71.36021423339844,24.91,2
-0.2774460017681122,-0.8849935531616211,0.1153360828757286,-0.0475545302033424,1.867302775382996,71.36730194091797,24.91,2
-0.2844065725803375,-0.9149999618530272,0.1243960261344909,0.1916019320487976,1.866467356681824,71.3718490600586,24.91,2
-0.294471263885498,-0.967842936515808,0.1246124058961868,0.5994417071342468,1.8659312725067136,71.37477111816406,24.91,2
-0.2953324317932129,-1.0185478925704956,0.1247512623667717,1.0653765201568604,1.8655872344970703,71.37664031982422,24.91,2
-0.2734939754009247,-1.1182607412338257,0.1136448234319686,1.5578458309173584,1.8653664588928225,71.37784576416016,24.91,2
-0.2818703949451446,-1.2270328998565674,0.0953218042850494,2.1389949321746826,1.865224838256836,71.37861633300781,24.91,2
-0.298441469669342,-1.2520543336868286,0.0779653713107109,2.70181941986084,1.861920714378357,71.37911224365234,24.91,2
-0.320271372795105,-1.1281672716140747,0.0556314624845981,2.880296468734741,1.8598003387451167,71.37943267822266,24.91,2
-0.3286827802658081,-1.009479284286499,0.0468966178596019,2.371464490890503,1.858439564704895,71.379638671875,24.91,2
-0.3228851854801178,-0.938909947872162,0.0412910990417003,1.324827790260315,1.857566237449646,71.37976837158203,24.91,2
-0.2911757528781891,-0.9440025687217712,0.0153026999905705,0.2483255267143249,1.857005834579468,71.37985229492188,24.91,2
-0.2596309185028076,-0.969661831855774,-0.0069729308597743,-0.4962503015995025,1.856646180152893,71.3799057006836,24.91,2
-0.2561805546283722,-0.9805307388305664,-0.0268659237772226,-0.8594338297843933,1.8564153909683228,71.37993621826172,24.91,2
-0.2651618719100952,-0.9875057339668274,-0.0396321006119251,-0.9384533166885376,1.856267333030701,71.37995910644531,24.91,2
-0.2765233516693115,-0.9751885533332824,-0.0478246994316577,-0.9748331904411316,1.8566311597824097,71.37997436523438,24.91,2
-0.2726189494132995,-0.9560885429382324,-0.0530822351574897,-1.2095516920089722,1.85686469078064,71.3799819946289,24.91,2
-0.2533199787139892,-0.938233494758606,-0.0508584454655647,-1.5823001861572266,1.857014536857605,71.37998962402344,24.91,2
-0.2297394722700119,-0.9043840765953064,-0.0438335724174976,-1.8895776271820068,1.8571107387542725,71.37998962402344,24.91,2
-0.2146068662405014,-0.8770636916160583,-0.0337276384234428,-2.262316942214966,1.85717248916626,71.37998962402344,24.91,2
-0.2104934006929397,-0.8483355045318604,-0.0216444563120603,-2.9206807613372803,1.8572120666503904,71.37998962402344,24.91,2
-0.2022558450698852,-0.8634860515594482,-0.01948793977499,-3.5760481357574463,1.857237458229065,71.37998962402344,24.91,2
-0.1913716793060302,-0.8844043612480164,-0.0125062381848692,-3.652698040008545,1.8572537899017327,71.37998962402344,24.91,2
-0.1619957536458969,-0.9202196002006532,0.0031697654630988,-3.1250927448272705,1.858182430267334,71.84214782714844,24.91,2
-0.1375461965799331,-0.9543992877006532,0.0188274960964918,-2.489152431488037,1.8587783575057983,72.13873291015625,24.91,2
-0.1274536550045013,-1.0323115587234497,0.0344735011458396,-1.91982650756836,1.8591609001159668,72.32906341552734,24.91,2
-0.126574620604515,-1.104702353477478,0.0389164313673973,-1.0636531114578247,1.859406352043152,72.45120239257812,24.91,2
-0.1372060477733612,-1.1231696605682373,0.0529631972312927,0.3026169240474701,1.8595638275146484,72.52958679199219,24.91,2
-0.1832131147384643,-1.0454565286636353,0.0899664759635925,1.8386043310165403,1.8596649169921875,72.57988739013672,24.91,2
-0.201542243361473,-0.9564003348350524,0.1137130483984947,2.842225313186645,1.8597297668457031,72.61216735839844,24.91,2
-0.1909137219190597,-0.904846966266632,0.0953655838966369,2.759028911590576,1.8597713708877563,72.63288879394531,24.91,2
-0.1672996282577514,-0.9277406930923462,0.0667979195713996,1.7132647037506104,1.8648474216461184,72.64618682861328,24.93,2
-0.1577432453632354,-0.9704214334487916,0.0428670607507228,0.5334276556968689,1.8681049346923828,72.65471649169922,24.93,2
-0.1684038341045379,-1.0034092664718628,0.0331073850393295,0.0127262016758322,1.870195388793945,72.66019439697266,24.93,2
-0.1920385062694549,-1.0021878480911257,0.0324419625103473,0.1765480041503906,1.8715369701385496,72.66370391845703,24.93,2
-0.2295969724655151,-0.951024055480957,0.0376127064228057,0.5503726005554199,1.872397899627685,72.66596221923828,24.93,2
-0.2704931497573852,-0.9013967514038086,0.0409309938549995,0.8404277563095093,1.872950315475464,72.66741180419922,24.93,2
-0.2911401987075805,-0.8695487976074219,0.0486582517623901,0.997907817363739,1.873304843902588,72.6683349609375,24.93,2
-0.2875969707965851,-0.8603062033653259,0.0648127123713493,0.966414213180542,1.8735324144363403,72.66893005371094,24.93,2
-0.2797253429889679,-0.8487770557403564,0.07517971098423,0.7849875092506409,1.8759738206863403,72.6693115234375,24.93,2
-0.2858693301677704,-0.8525738716125488,0.104223757982254,0.65064537525177,1.8775405883789065,72.6695556640625,24.93,2
-0.3178010582923889,-0.8774015307426453,0.1284603327512741,0.6110058426856995,1.878545999526977,72.66971588134766,24.93,2
-0.3382930159568786,-0.910127818584442,0.1496117413043975,0.5210810899734497,1.879191279411316,72.66981506347656,24.93,2
-0.3458457887172699,-0.9647163152694702,0.1463921666145324,0.3953036367893219,1.8796052932739256,72.66988372802734,24.93,2
-0.3394971787929535,-1.0277369022369385,0.1387282609939575,0.411316454410553,1.8798710107803345,72.669921875,24.93,2
-0.3186296820640564,-1.1297553777694702,0.1226144582033157,0.6150516271591187,1.8800415992736816,72.66995239257812,24.93,2
-0.3388247787952423,-1.2232139110565186,0.1010779961943626,0.9177607893943788,1.8801510334014893,72.66996765136719,24.93,2
-0.3629803657531738,-1.244005799293518,0.0704638138413429,1.2983160018920898,1.882516622543335,72.66997528076172,24.93,2
-0.3728842735290527,-1.128600001335144,0.0340240709483623,1.693002700805664,1.884034752845764,72.66998291015625,24.93,2
-0.3680444657802582,-1.0153547525405884,0.010639140382409,1.8029868602752688,1.8850089311599727,72.66999053955078,24.93,2
-0.3425474762916565,-0.9706693887710572,-0.0043679601512849,1.2537827491760254,1.885634183883667,72.66999053955078,24.93,2
-0.2870005369186401,-1.0147639513015747,-0.0307919774204492,0.0952556207776069,1.8860353231430047,72.66999053955078,24.93,2
-0.2345604002475738,-1.0766479969024658,-0.0533471666276454,-1.063799262046814,1.886292815208435,72.66999053955078,24.93,2
-0.1897117793560028,-1.105165958404541,-0.0734195634722709,-1.5962419509887695,1.8864580392837524,72.66999053955078,24.93,2
-0.1665282994508743,-1.1010761260986328,-0.0918986424803733,-1.389798879623413,1.8865641355514529,72.66999053955078,24.93,2
-0.1740415692329406,-1.0424737930297852,-0.0981596782803535,-0.8238239884376526,1.8903043270111084,73.03900146484375,24.93,2
-0.1900587081909179,-0.9544861912727356,-0.0965798795223236,-0.4068752527236938,1.892704486846924,73.27581024169922,24.93,2
-0.2003375738859176,-0.8756296634674072,-0.0955660566687583,-0.4187424480915069,1.8942447900772093,73.42778015136719,24.93,2
-0.1957384198904037,-0.8250241279602051,-0.0781221166253089,-0.7487899661064148,1.8952332735061648,73.52530670166016,24.93,2
-0.1759936213493347,-0.7813528180122375,-0.0613298267126083,-1.0537424087524414,1.8958677053451536,73.587890625,24.93,2
-0.1465292274951934,-0.7645226716995239,-0.0449557267129421,-1.1885395050048828,1.8962748050689693,73.6280517578125,24.93,2
-0.127620667219162,-0.815297544002533,-0.0344477705657482,-1.2642967700958252,1.896535992622376,73.65382385253906,24.93,2
-0.1210840195417404,-0.8758708238601685,-0.0333021469414234,-1.33440899848938,1.8967037200927728,73.67036437988281,24.93,2
-0.1224869489669799,-0.9427321553230286,-0.0493602715432643,-1.3435771465301514,1.9055334329605105,73.68097686767578,24.91,2
-0.1345828175544738,-1.036019802093506,-0.0540676787495613,-1.2706440687179563,1.9111998081207275,73.68778991699219,24.91,2
-0.1535408049821853,-1.1518642902374268,-0.0458930730819702,-1.0805368423461914,1.9148361682891848,73.6921615600586,24.91,2
-0.1880980432033538,-1.1758265495300293,0.0041351136751472,-0.6002793908119202,1.9171698093414309,73.6949691772461,24.91,2
-0.1934815645217895,-1.1240309476852417,0.0530336461961269,0.2381433844566345,1.918667435646057,73.69676971435547,24.91,2
-0.157751977443695,-0.9956293106079102,0.0844139084219932,0.9839842319488524,1.9196285009384155,73.69792938232422,24.91,2
-0.1404205560684204,-0.9356196522712708,0.0933564081788063,1.0183826684951782,1.9202452898025515,73.69866943359375,24.91,2
-0.1348960250616073,-0.9362933039665222,0.1046929657459259,0.3776810467243194,1.92064106464386,73.69914245605469,24.91,2
-0.1481440216302871,-0.936725616455078,0.1007725670933723,-0.3057600855827331,1.9222722053527832,73.69944763183594,24.91,2
-0.1734391450881958,-0.931405246257782,0.092658907175064,-0.5329813361167908,1.9233189821243288,73.69964599609375,24.91,2
-0.212063193321228,-0.9223932027816772,0.0706586986780166,-0.2058988660573959,1.923990726470948,73.69976806640625,24.91,2
-0.2536432147026062,-0.9054142236709596,0.056540235877037,0.473321259021759,1.924421787261963,73.6998519897461,24.91,2
-0.2747291028499603,-0.8777247667312622,0.0530775934457778,1.0632563829421997,1.9246984720230105,73.69990539550781,24.91,2
-0.2826630473136902,-0.8599552512168884,0.0676487907767295,1.2161405086517334,1.924875974655152,73.69993591308594,24.91,2
-0.2877545952796936,-0.8485518097877502,0.0825975239276886,1.0204815864562988,1.924989938735962,73.69995880126953,24.91,2
-0.2910220623016357,-0.8692226409912109,0.0865929797291755,0.7731113433837891,1.9250630140304563,73.6999740600586,24.91,2
-0.2987166941165924,-0.8992813229560852,0.0835592597723007,0.6107807755470276,1.9186831712722776,73.69998168945312,24.91,2
-0.2980569005012512,-0.9129734635353088,0.0984057188034057,0.5388495326042175,1.914588928222656,73.69998931884766,24.91,2
-0.2976334691047668,-0.932955801486969,0.1079333201050758,0.5213488340377808,1.911961555480957,73.69998931884766,24.91,2
-0.3029595017433166,-0.9849637746810912,0.1140475869178772,0.5387784838676453,1.9102754592895508,73.69998931884766,24.91,2
-0.2895841300487518,-1.040730595588684,0.1123735979199409,0.5607115626335144,1.9091933965682983,73.69998931884766,24.91,2
-0.292196124792099,-1.1101051568984983,0.1057015508413314,0.5676217675209045,1.908499002456665,73.69998931884766,24.91,2
-0.3386545479297638,-1.1770168542861938,0.0902242660522461,0.6902813911437988,1.908053398132324,73.69998931884766,24.91,2
-0.3740666806697845,-1.1863702535629272,0.0690962895750999,1.17024564743042,1.907767415046692,73.69998931884766,24.91,2
-0.3744010627269745,-1.080417275428772,0.0443420223891735,1.961906909942627,1.909879207611084,74.0045166015625,24.91,2
-0.3634200990200043,-1.006824970245361,0.0340539328753948,2.631165266036988,1.9112343788146973,74.19994354248047,24.91,2
-0.3451775908470154,-0.9931843280792236,0.0162560790777206,2.7525553703308105,1.91210412979126,74.32535552978516,24.91,2
-0.294286161661148,-1.057201623916626,-0.0119588822126388,2.13901948928833,1.9126622676849363,74.40583801269531,24.91,2
-0.2504314482212066,-1.1038819551467896,-0.0356633923947811,0.8568086624145508,1.913020372390747,74.45748901367188,24.91,2
-0.205494686961174,-1.1114476919174194,-0.056473359465599,-0.5929911732673645,1.913250207901001,74.49063110351562,24.91,2
-0.1878524124622345,-1.0771185159683228,-0.0698279961943626,-1.5054763555526731,1.9133976697921755,74.51190185546875,24.91,2
-0.1821283847093582,-1.0270991325378418,-0.0783982351422309,-1.636069655418396,1.9134923219680784,74.52555084228516,24.91,2
-0.1784550249576568,-0.9894018173217772,-0.0727025717496872,-1.3007155656814575,1.9112577438354488,74.53430938720703,24.91,2
-0.1760976761579513,-0.9428187012672424,-0.0690474212169647,-0.9135410785675048,1.9098237752914429,74.53993225097656,24.91,2
-0.1857804208993911,-0.8737399578094482,-0.0667017549276351,-0.8549512624740601,1.9089034795761108,74.54354095458984,24.91,2
-0.2199831157922744,-0.8070181012153625,-0.0428053475916385,-1.422806978225708,1.9083129167556765,74.54585266113281,24.91,2
-0.2419324368238449,-0.775395393371582,-0.0274700075387954,-2.424922466278076,1.9079339504241943,74.5473403930664,24.91,2
-0.2392249256372451,-0.7718950510025024,-0.0176286697387695,-3.257899045944214,1.9076907634735107,74.54829406738281,24.91,2
-0.2262918502092361,-0.7864421010017395,-0.0057152910158038,-3.570335865020752,1.9075347185134888,74.54890441894531,24.91,2
-0.2179921567440033,-0.8517552614212036,0.007527804467827,-3.498564004898072,1.907434582710266,74.54930114746094,24.91,2
-0.2014703303575515,-0.98323392868042,0.0048309117555618,-3.305619478225708,1.9078291654586792,74.54955291748047,24.91,2
-0.1964653581380844,-1.1123915910720823,0.0031002010218799,-3.0313305854797363,1.908082365989685,74.54971313476562,24.91,2
-0.2212423235177993,-1.1616908311843872,0.0355761758983135,-2.382407665252685,1.9082448482513428,74.54981994628906,24.91,2
-0.2539360821247101,-1.1317527294158936,0.073210708796978,-1.0667399168014526,1.9083491563797,74.54988861083984,24.91,2
-0.2693192660808563,-1.0173779726028442,0.1197534799575805,0.5621640682220459,1.9084160327911377,74.5499267578125,24.91,2
-0.2400068938732147,-0.9383811354637146,0.1216330826282501,1.6254137754440308,1.908458948135376,74.54995727539062,24.91,2
-0.2100003510713577,-0.9044787883758544,0.1116437539458274,1.7452818155288696,1.9084864854812624,74.54997253417969,24.91,2
-0.1795483380556106,-0.9275044202804564,0.105233184993267,1.3922971487045288,1.9085042476654053,74.54998016357422,24.91,2
-0.1600059866905212,-0.9534764885902404,0.1011192500591278,1.1371113061904907,1.9154013395309448,74.54998779296875,24.91,2
-0.1810514777898788,-0.9589483141899108,0.081685833632946,1.1309810876846311,1.919827461242676,74.54999542236328,24.91,2
-0.2281439006328582,-0.9344709515571594,0.0804101377725601,1.3133409023284912,1.9226678609848025,74.54999542236328,24.91,2
-0.2695606648921966,-0.9131650328636168,0.0739936977624893,1.552176594734192,1.9244906902313232,74.54999542236328,24.91,2
-0.3017373383045196,-0.8882965445518494,0.0586804449558258,1.6481263637542725,1.925660490989685,74.54999542236328,24.91,2
-0.3167887032032013,-0.8667396306991577,0.0544510558247566,1.5663983821868896,1.9264111518859863,74.54999542236328,24.91,2
-0.3152522444725036,-0.8585034012794495,0.0629324242472648,1.4172204732894895,1.9268929958343504,74.54999542236328,24.91,2
-0.3198640048503876,-0.8644134402275085,0.0907663777470588,1.214009404182434,1.927202105522156,74.54999542236328,24.91,2
-0.3284213542938232,-0.879401683807373,0.1142263785004615,0.9725404381752014,1.9228101968765257,74.80077362060547,24.91,2
-0.3339129686355591,-0.9002158641815186,0.1404772102832794,0.8319098353385925,1.9199917316436768,74.96171569824219,24.91,2
-0.3374371528625488,-0.9303665161132812,0.1629212498664856,0.7846521139144897,1.9181829690933228,75.06499481201172,24.91,2
-0.3396987915039062,-0.9777043461799622,0.1717267781496048,0.7399945855140686,1.9170222282409668,75.13127136230469,24.91,2
-0.3299546241760254,-1.0584629774093628,0.1605843305587768,0.8188132047653198,1.916277289390564,75.1738052368164,24.91,2
-0.3237013816833496,-1.1494736671447754,0.1422381997108459,1.1022619009017944,1.915799260139465,75.20110321044922,24.91,2
-0.3252861797809601,-1.2246724367141724,0.1192691624164581,1.4274659156799316,1.9154925346374512,75.21862030029297,24.91,2
-0.3319009840488434,-1.2393440008163452,0.0933334082365036,1.7149797677993774,1.9152956008911133,75.22986602783203,24.91,2
-0.3361459970474243,-1.1424016952514648,0.0710915550589561,2.0320448875427246,1.9170053005218504,75.23707580566406,24.91,2
-0.3220768570899963,-1.0522007942199707,0.051220241934061,2.1495373249053955,1.918102502822876,75.24170684814453,24.91,2
-0.3018525540828705,-1.0055105686187744,0.0272724293172359,1.6302295923233032,1.9188066720962524,75.24467468261719,24.91,2
-0.2496893405914306,-1.0595141649246216,0.0007085507386364,0.5553746223449707,1.91925859451294,75.24658203125,24.91,2
-0.1994206607341766,-1.1221593618392944,-0.0275341644883155,-0.3887682259082794,1.9195486307144165,75.247802734375,24.91,2
-0.150367796421051,-1.1623615026474,-0.051256489008665,-0.7510496377944946,1.9197347164154053,75.24858856201172,24.91,2
-0.1132907196879386,-1.1321831941604614,-0.0720778852701187,-0.8008296489715576,1.9198541641235352,75.24909210205078,24.91,2
-0.0950945615768432,-1.0792298316955566,-0.0854398608207702,-1.0011566877365112,1.9199308156967163,75.24942016601562,24.91,2
-0.1002106368541717,-0.9892696142196656,-0.082819253206253,-1.362582445144653,1.9195210933685305,75.24962615966797,24.91,2
-0.1034938395023346,-0.9091472625732422,-0.075539730489254,-1.590942144393921,1.9192581176757808,75.24976348876953,24.91,2
-0.1167963594198226,-0.812947154045105,-0.0596725977957248,-1.633595585823059,1.919089317321777,75.24984741210938,24.91,2
-0.1421264708042144,-0.745613694190979,-0.0438922122120857,-1.7648627758026123,1.918980956077576,75.2499008178711,24.91,2
-0.1807729750871658,-0.7135984897613525,-0.039363045245409,-2.178699493408203,1.918911457061768,75.24993896484375,24.91,2
-0.239160731434822,-0.715444028377533,-0.0532498098909854,-2.727299451828003,1.918866872787476,75.24996185302734,24.91,2
-0.2878261804580688,-0.7222262024879456,-0.0621615350246429,-3.1259326934814453,1.918838262557984,75.2499771118164,24.91,2
-0.335850179195404,-0.7713608145713806,-0.0622827932238578,-3.245614767074585,1.9188199043273928,75.24998474121094,24.91,2
-0.3722670078277588,-0.8196858763694763,-0.056762833148241,-3.0788047313690186,1.9229395389556885,75.24999237060547,24.91,2
-0.3900394439697265,-0.8618936538696289,-0.0532204434275627,-2.5346813201904297,1.925583243370056,75.24999237060547,24.91,2
-0.3846514523029327,-0.9169690608978271,-0.0733382403850555,-1.361501932144165,1.9272798299789429,75.24999237060547,24.91,2
-0.3755959868431091,-0.9803021550178528,-0.0918464586138725,0.4159936904907226,1.9283685684204104,75.24999237060547,24.91,2
-0.3585891425609588,-1.071325659751892,-0.0925284177064895,2.06183123588562,1.9290672540664675,75.24999237060547,24.91,2
-0.3476751446723938,-1.2081081867218018,-0.1097593829035759,2.5985615253448486,1.929515719413757,75.24999237060547,24.91,2
-0.3574644923210144,-1.2846918106079102,-0.1152194514870643,1.832405686378479,1.929803490638733,75.24999237060547,24.91,2
-0.3581489324569702,-1.2050899267196655,-0.0851367637515068,0.534651517868042,1.929988145828247,75.24999237060547,24.91,2
-0.3473926186561584,-1.1092238426208496,-0.0546358749270439,-0.362658828496933,1.934238076210022,75.43628692626953,24.91,2
-0.3572831749916076,-1.0365068912506104,-0.0182688366621732,-0.4727661311626434,1.9369654655456543,75.55583953857422,24.91,2
-0.3300437033176422,-0.9674502611160278,0.0162649843841791,0.0369505807757377,1.9387156963348389,75.63256072998047,24.91,2
-0.2901718914508819,-0.9231337308883668,0.0384268052875995,0.6864892244338989,1.939839005470276,75.68180084228516,24.91,2
-0.2477911412715912,-0.9114872217178344,0.0694423094391822,0.9851007461547852,1.9405598640441888,75.71339416503906,24.91,2
-0.2261913865804672,-0.90961092710495,0.0949440449476242,0.8220574259757996,1.9410223960876465,75.73367309570312,24.91,2
-0.2347210049629211,-0.9028090834617616,0.105711817741394,0.5812878012657166,1.941319227218628,75.74668884277344,24.91,2
-0.2513903677463531,-0.8816507458686829,0.1182197257876396,0.7384597659111023,1.94150972366333,75.75503540039062,24.91,2
-0.2620877921581268,-0.8736702799797058,0.1318443566560745,1.365962266921997,1.936123490333557,75.7603988647461,24.91,2
-0.2521594762802124,-0.8853422403335571,0.1461856365203857,2.062428474426269,1.932666897773743,75.76383972167969,24.91,2
-0.2401902824640274,-0.8984304070472717,0.1609868258237838,2.416233539581299,1.9304486513137813,75.76604461669922,24.91,2
-0.2269113659858703,-0.906829595565796,0.1592898219823837,2.385339736938477,1.9290250539779663,75.76746368408203,24.91,2
-0.2407808154821396,-0.9066219329833984,0.1526030153036117,2.2257933616638184,1.928111553192139,75.76837158203125,24.91,2
-0.2496814280748367,-0.9008908867836,0.1427140235900879,2.159231424331665,1.927525281906128,75.76895141601562,24.91,2
-0.2497955560684204,-0.8972130417823792,0.1251722872257232,2.263401508331299,1.9271490573883057,75.76932525634766,24.91,2
-0.2498687952756881,-0.8948528170585632,0.1083172410726547,2.477137327194214,1.926907539367676,75.76956939697266,24.91,2
-0.2387202531099319,-0.8877403736114502,0.0975006446242332,2.59997034072876,1.92675256729126,75.76972198486328,24.91,2
-0.2315657585859298,-0.8719804883003235,0.0793636217713356,2.3921916484832764,1.9266531467437744,75.76982116699219,24.91,2
-0.2269744127988815,-0.8562689423561096,0.0621265545487403,1.7716208696365356,1.9265893697738647,75.76988220214844,24.91,2
-0.2352235019207,-0.8573817014694214,0.0510647967457771,0.8753963112831116,1.9265483617782595,75.7699203491211,24.91,2
-0.2349195182323455,-0.8636935949325562,0.0327704474329948,-0.0436763167381286,1.926522135734558,75.76995086669922,24.91,2
-0.2291266620159149,-0.8453531265258789,0.0154324127361178,-0.7194660305976868,1.926505208015442,75.76996612548828,24.91,2
-0.231006920337677,-0.8727676868438721,0.0043058595620095,-1.0313414335250854,1.9264943599700928,75.76997375488281,24.91,2
-0.237811341881752,-0.9183496236801147,-0.0028345216996967,-1.084599494934082,1.9264874458312988,75.76998138427734,24.91,2
-0.2421780228614807,-1.0091769695281982,-0.0074168075807392,-1.1187773942947388,1.9269418716430664,75.76998901367188,24.91,2
-0.2337847501039505,-1.0842580795288086,-0.0159552283585071,-1.3413350582122805,1.9272335767745967,75.76998901367188,24.91,2
-0.2116051167249679,-1.1604297161102295,-0.0326302461326122,-1.87466049194336,1.927420735359192,75.76998901367188,24.91,2
-0.2141648232936859,-1.1981167793273926,-0.05452686175704,-2.679070234298706,1.9275407791137693,75.76998901367188,24.91,2
-0.2270030528306961,-1.211106538772583,-0.0741766244173049,-3.521308660507202,1.9276179075241089,75.76998901367188,24.91,2
-0.2744263112545013,-1.1802582740783691,-0.0755911618471145,-4.13704252243042,1.9276673793792725,75.76998901367188,24.91,2
-0.3048598170280456,-1.1324727535247805,-0.0709011554718017,-4.263492107391357,1.927699089050293,75.76998901367188,24.91,2
-0.341183602809906,-1.062622308731079,-0.0510980561375618,-3.6926114559173584,1.9277194738388064,75.76998901367188,24.91,2
-0.3700919151306152,-1.012198567390442,-0.0271940175443887,-2.6419811248779297,1.9341593980789185,75.92762756347656,24.91,2
-0.3830458223819732,-0.9742416739463806,-0.0062560071237385,-1.7778706550598145,1.938292145729065,76.0287857055664,24.91,2
-0.3745655715465545,-0.9386876225471495,0.0295719001442194,-1.4526190757751465,1.9409443140029907,76.09370422363281,24.91,2
-0.3635256588459015,-0.910273253917694,0.052564188838005,-1.3800292015075684,1.9426462650299072,76.13536834716797,24.91,2
-0.3508431017398834,-0.8584519028663635,0.0617215409874916,-1.1722294092178345,1.943738460540772,76.16210174560547,24.91,2
-0.3538997173309326,-0.8307937383651733,0.0620004311203956,-0.594636082649231,1.94443941116333,76.17926025390625,24.91,2
-0.3558612763881683,-0.8018487691879272,0.0565816313028335,0.4782149195671081,1.9448893070220947,76.19026947021484,24.91,2
-0.3459245562553406,-0.7552846670150757,0.0531041584908962,1.7399210929870603,1.9451779127120967,76.19733428955078,24.91,2
-0.3283521831035614,-0.7365980744361877,0.0396769680082798,2.4278039932250977,1.94719922542572,76.20187377929688,24.93,2
-0.3002819120883941,-0.7581927180290222,0.0198646206408739,2.0631680488586426,1.9484963417053225,76.20478820800781,24.93,2
-0.2766702771186828,-0.7944420576095581,0.0127479704096913,1.048164129257202,1.949328780174256,76.20665740966797,24.93,2
-0.2615176737308502,-0.8177047967910767,0.0025831395760178,0.1961687952280044,1.9498629570007324,76.20785522460938,24.93,2
-0.2573913931846618,-0.8606223464012146,-0.0095378383994102,-0.0854821056127548,1.9502058029174805,76.20862579345703,24.93,2
-0.2603411376476288,-0.8993598818778992,-0.0117186103016138,0.0884455293416976,1.9504258632659912,76.20911407470703,24.93,2
-0.2566363513469696,-0.9130238890647888,-0.0019225551513954,0.4687554240226745,1.95056700706482,76.20943450927734,24.93,2
-0.2486610561609268,-0.9217926263809204,0.0211573131382465,0.8202937245368958,1.950657606124878,76.20964050292969,24.93,2
-0.2491407394409179,-0.9386154413223268,0.0415664166212081,0.9634915590286256,1.9571425914764404,76.20977020263672,24.93,2
-0.2550463378429413,-0.977400243282318,0.0546638071537017,0.9228323698043824,1.9613041877746584,76.20985412597656,24.93,2
-0.2588362097740173,-1.0246812105178833,0.0798622816801071,0.9003221988677979,1.963974952697754,76.20990753173828,24.93,2
-0.2724638879299164,-1.0494256019592283,0.1072287559509277,1.0220143795013428,1.9656888246536253,76.2099380493164,24.93,2
-0.3091982305049896,-1.0820984840393066,0.1471820920705795,1.221916913986206,1.9667887687683103,76.2099609375,24.93,2
-0.3159788846969604,-1.1142616271972656,0.1728218346834182,1.285716533660889,1.9674946069717407,76.20997619628906,24.93,2
-0.3259280920028686,-1.0901198387145996,0.2060692757368087,1.0937920808792114,1.9679476022720337,76.2099838256836,24.93,2
-0.3323129117488861,-1.0746270418167114,0.2441988885402679,0.7914971709251404,1.9682382345199585,76.20999145507812,24.93,2
-0.3196170032024383,-1.0590869188308716,0.2574727237224579,0.5437631011009216,1.9762283563613887,76.20999145507812,24.93,2
-0.3338606059551239,-1.060309648513794,0.2491977959871292,0.345373272895813,1.981355905532837,76.20999145507812,24.93,2
-0.3653924167156219,-1.0554965734481812,0.2494851946830749,0.1786497831344604,1.984646558761597,76.20999145507812,24.93,2
-0.352041095495224,-0.8564857244491577,0.2384740859270095,0.0644910931587219,1.9867582321166992,76.20999145507812,24.93,2
-0.2762996852397918,-0.5552409887313843,0.1866255849599838,-0.0768383294343948,1.9881134033203125,76.20999145507812,24.93,2
-0.283670961856842,-0.5354504585266113,0.1365588754415512,-0.2750126719474792,1.988983154296875,76.20999145507812,24.93,2
-0.3051947355270386,-0.5395433902740479,0.1436133682727813,-0.3842766880989074,1.989541292190552,76.20999145507812,24.93,2
-0.3302029967308044,-0.6541255116462708,0.1873249560594558,-0.4400657415390014,1.9898993968963623,76.20999145507812,24.93,2
-0.239894151687622,-1.136295199394226,0.0306499879807233,-0.7768042683601379,2.00068736076355,76.4213638305664,24.93,2
-0.6129677295684814,-1.0034997463226318,0.4730890989303589,-1.4658037424087524,2.007610559463501,76.55701446533203,24.93,2
-1.1098824739456177,-0.8511060476303101,1.0145187377929688,-1.9939457178115845,2.0120534896850586,76.6440658569336,24.93,2
-1.1936672925949097,-0.6917330026626587,0.9869261980056764,-1.834898829460144,2.014904737472534,76.6999282836914,24.93,2
-0.7996135950088501,-0.561467707157135,1.0923699140548706,-1.041394591331482,2.01673436164856,76.73577880859375,24.93,2
-0.5019504427909851,-0.4610776007175445,1.126451015472412,-0.0771821364760398,2.0179085731506348,76.7587890625,24.93,2
-0.5180450081825256,-0.4190441071987152,0.9524001479148864,0.6347408890724182,2.018662214279175,76.77355194091797,24.93,2
-0.6571223735809326,-0.403264969587326,0.6559777855873108,0.9017356038093568,2.0191457271575928,76.78302764892578,24.93,2
-0.7351787090301514,-0.1972167193889618,0.4937398433685303,0.8581228852272034,2.033686399459839,76.78910827636719,24.91,2
-0.7964662909507751,-0.0369979478418827,0.4120159745216369,0.7226575016975403,2.043017864227295,76.79301452636719,24.91,2
-0.8525904417037964,-0.018145378679037,0.3427769839763641,0.499585747718811,2.049006223678589,76.79551696777344,24.91,2
-0.8606188297271729,-0.0284379832446575,0.2927455902099609,0.1773023605346679,2.052849054336548,76.79712677001953,24.91,2
-0.7650110721588135,-0.12460757791996,0.2998227477073669,-0.0366857126355171,2.0553152561187744,76.79815673828125,24.91,2
-0.6028955578804016,-0.2199103385210037,0.3435488939285278,0.0122829778119921,2.0568978786468506,76.79882049560547,24.91,2
-0.4708702862262726,-0.2642768323421478,0.3940009176731109,0.1046120598912239,2.0579135417938232,76.79924774169922,24.91,2
-0.458915114402771,-0.382313072681427,0.4711603224277496,-0.1084122061729431,2.058565378189087,76.79951477050781,24.91,2
-0.4456452131271362,-0.46925750374794,0.5542634129524231,-0.5496378540992737,2.064033269882202,76.79969024658203,24.91,2
-0.442727118730545,-0.4634779095649719,0.6971585750579834,-0.7647221088409424,2.067542314529419,76.7998046875,24.91,2
-0.4240611493587494,-0.4877577722072601,0.8392404317855835,-0.6053970456123352,2.069794178009033,76.79987335205078,24.91,2
-0.4120824038982391,-0.5089369416236877,0.9024315476417542,-0.5533074736595154,2.071239233016968,76.79991912841797,24.91,2
-0.409992903470993,-0.500137448310852,0.8814084529876709,-0.9820315837860109,2.072166681289673,76.7999496459961,24.91,2
-0.4254452884197235,-0.4888926446437835,0.8511236906051636,-1.332396149635315,2.0727617740631104,76.79997253417969,24.91,2
-0.4633506238460541,-0.4648830592632293,0.8092975616455078,-0.8872983455657959,2.073143720626831,76.79998016357422,24.91,2
-0.5044693946838379,-0.4662684202194214,0.7544671297073364,-0.2935586869716644,2.0733888149261475,76.79998779296875,24.91,2
-0.5364548563957214,-0.4783530235290527,0.7136823534965515,-1.0052162408828735,2.0868587493896484,76.79999542236328,24.91,2
-0.5345901846885681,-0.4637171328067779,0.6931067705154419,-2.830461025238037,2.0955028533935547,76.79999542236328,24.91,2
-0.544589102268219,-0.4543246328830719,0.6743047833442688,-3.6256277561187744,2.1010501384735107,76.79999542236328,24.91,2
-0.5957880020141602,-0.4426993131637573,0.6342498660087585,-2.54883885383606,2.104609966278076,76.79999542236328,24.91,2
-0.6286445260047913,-0.4464344084262848,0.6029471755027771,-1.9975382089614868,2.106894493103028,76.79999542236328,24.91,2
-0.6385343670845032,-0.4600269198417663,0.5940544605255127,-4.13005256652832,2.108360528945923,76.79999542236328,24.91,2
-0.6336855888366699,-0.4799453616142273,0.5827498435974121,-6.824130535125732,2.1093015670776367,76.79999542236328,24.91,2
-0.6249761581420898,-0.4759345352649688,0.5642996430397034,-6.521714210510254,2.109905481338501,76.79999542236328,24.91,2
-0.6137891411781311,-0.4845561683177948,0.5468615889549255,-4.507692813873291,2.118555784225464,77.11885070800781,24.91,2
-0.6122077703475952,-0.4900890290737152,0.5300730466842651,-5.658525943756104,2.1241071224212646,77.32347106933594,24.91,2
-0.6055951118469238,-0.4992374777793884,0.5137013792991638,-10.466870307922363,2.1276695728302,77.45478057861328,24.91,2
-0.5845581889152527,-0.5163039565086365,0.5143905282020569,-13.66006565093994,2.129955768585205,77.53904724121094,24.91,2
-0.5766556859016418,-0.5272562503814697,0.5148327946662903,-12.30941104888916,2.131422996520996,77.59312438964844,24.91,2
-0.5659865140914917,-0.5678714513778687,0.5263121724128723,-10.568490028381348,2.132364511489868,77.6278305053711,24.91,2
-0.5367485880851746,-0.6051315069198608,0.5392767190933228,-14.961268424987791,2.1329686641693115,77.65010070800781,24.91,2
-0.501192033290863,-0.6402384042739868,0.5475966334342957,-26.761817932128903,2.1333563327789307,77.66439819335938,24.91,2
-0.4671783447265625,-0.6683657765388489,0.5473381280899048,-35.02616882324219,2.149212598800659,77.67356872558594,24.89,2
-0.44535031914711,-0.6976118683815002,0.5415744185447693,-19.837421417236328,2.159388303756714,77.67945861816406,24.89,2
-0.4313423335552215,-0.7667602896690369,0.5098867416381836,22.819385528564453,2.1659185886383057,77.68323516845703,24.89,2
-0.4055594801902771,-0.8783090710639954,0.4727580845355987,65.25163269042969,2.170109272003174,77.68566131591797,24.89,2
-0.3834157586097717,-0.9666879773139954,0.4433332979679107,77.274169921875,2.1727986335754395,77.68721771240234,24.89,2
-0.3804007470607757,-1.0457955598831177,0.4076568186283111,61.226318359375,2.174524545669556,77.68821716308594,24.89,2
-0.389661431312561,-1.0965622663497925,0.3791639506816864,38.92252349853516,2.1756319999694824,77.68885803222656,24.89,2
-0.3788110911846161,-1.1179457902908323,0.3720743954181671,21.43148422241211,2.176342725753784,77.68927001953125,24.89,2
-0.355054646730423,-1.103679656982422,0.3731225132942199,9.3003511428833,2.199751138687134,77.68952941894531,24.89,2
-0.3398091197013855,-1.0889267921447754,0.3737951517105102,3.410470962524414,2.214773178100586,77.689697265625,24.89,2
-0.3356232047080993,-1.0738613605499268,0.3686290085315704,1.5187023878097534,2.2244133949279785,77.68980407714844,24.89,2
-0.3273391425609588,-1.0585955381393433,0.3709114789962768,-2.51839542388916,2.230600118637085,77.68987274169922,24.89,2
-0.3052295744419098,-1.0487987995147705,0.3667784333229065,-9.79159927368164,2.234570264816284,77.6899185180664,24.89,2
-0.307834267616272,-1.042511820793152,0.3585283160209656,-14.68482494354248,2.2371180057525635,77.68994903564453,24.89,2
-0.3151035904884338,-1.0384771823883057,0.3532338738441467,-13.86268711090088,2.238753080368042,77.68997192382812,24.89,2
-0.3141708374023437,-1.019094705581665,0.3386406600475311,-10.823699951171877,2.239802360534668,77.68997955322266,24.89,2
-0.3079744875431061,-1.0010583400726318,0.3292755782604217,-9.944643020629885,2.264805316925049,77.68998718261719,24.89,2
-0.2928024530410766,-0.9782880544662476,0.3064722716808319,-10.512609481811523,2.280850887298584,77.68999481201172,24.89,2
-0.283065915107727,-0.952479898929596,0.3030339777469635,-9.415406227111816,2.2911479473114014,77.68999481201172,24.89,2
-0.271219789981842,-0.9359176754951476,0.2952297031879425,-6.586817264556885,2.2977559566497803,77.68999481201172,24.89,2
-0.2580198645591736,-0.9308868050575256,0.3014169037342071,-4.560219764709473,2.30199670791626,77.68999481201172,24.89,2
-0.2495489120483398,-0.9276582598686218,0.3053874969482422,-4.219796180725098,2.304718017578125,77.68999481201172,24.89,2
-0.2497105151414871,-0.9311841130256652,0.2967400550842285,-3.8759419918060303,2.306464433670044,77.68999481201172,24.89,2
-0.2554120123386383,-0.927849054336548,0.2911906242370605,-2.247323989868164,2.3075852394104004,77.68999481201172,24.89,2
-0.2534731328487396,-0.9201110005378724,0.2820315361022949,-0.195466861128807,2.359717845916748,77.99093627929688,24.89,2
-0.2466310858726501,-0.8983518481254578,0.2705560028553009,0.895594596862793,2.3931734561920166,78.1840591430664,24.89,2
-0.2534357905387878,-0.8787903189659119,0.2687894403934479,0.96524178981781,2.4146432876586914,78.30799102783203,24.89,2
-0.2634004354476928,-0.8606390953063965,0.2564602196216583,0.8630517721176147,2.4284214973449707,78.38752746582031,24.89,2
-0.280990719795227,-0.8601862192153931,0.2597435712814331,1.0375046730041504,2.4372634887695312,78.43856811523438,24.89,2
-0.2922791540622711,-0.8598955869674683,0.2562528550624847,1.2390228509902954,2.4429378509521484,78.47132110595703,24.89,2
-0.3051212131977081,-0.8373180031776428,0.2484149485826492,1.0351661443710327,2.4465792179107666,78.49234008789062,24.89,2
-0.3133624792098999,-0.8284267783164978,0.2489828020334243,0.3633736670017242,2.44891619682312,78.50582885742188,24.89,2
-0.3074557185173034,-0.8171231150627136,0.2381516695022583,-0.3400197923183441,2.5331218242645264,78.51448822021484,24.91,2
-0.3036651015281677,-0.7930757403373718,0.2479941993951797,-0.6982702612876892,2.587160110473633,78.5200424194336,24.91,2
-0.2956347167491913,-0.7888391017913818,0.2599083483219147,-0.8242800831794739,2.6218388080596924,78.52361297607422,24.91,2
-0.2904812693595886,-0.797315776348114,0.2451630532741546,-0.9123111367225648,2.644093513488769,78.5259017944336,24.91,2
-0.2983696460723877,-0.8027556538581848,0.2580914795398712,-0.958056628704071,2.658375263214112,78.5273666381836,24.91,2
-0.2698453068733215,-0.8118444085121155,0.2887792885303497,-1.023239254951477,2.6675405502319336,78.52831268310547,24.91,2
-0.2515400350093841,-0.8064814805984497,0.286081850528717,-1.208372712135315,2.673422336578369,78.52891540527344,24.91,2
-0.2789771854877472,-0.8030399084091187,0.2731552422046661,-1.3271806240081787,2.677196741104126,78.52930450439453,24.91,2
-0.2909869849681854,-0.8176246285438538,0.2984463572502136,-1.195635437965393,2.775559663772583,78.52955627441406,24.91,2
-0.2595097720623016,-0.821386456489563,0.309078961610794,-1.0252354145050049,2.8386833667755127,78.52971649169922,24.91,2
-0.2505050599575043,-0.8238005638122559,0.3159023523330688,-1.0806809663772583,2.879192590713501,78.52981567382812,24.91,2
-0.2559219002723694,-0.819752037525177,0.3258789777755737,-1.2309051752090454,2.905189037322998,78.5298843383789,24.91,2
-0.2426047921180725,-0.8059583902359009,0.3210858702659607,-1.1947550773620603,2.921871900558472,78.52992248535156,24.91,2
-0.245254173874855,-0.791508674621582,0.3404010236263275,-0.9816795587539672,2.932578086853028,78.52995300292969,24.91,2
-0.2693454921245575,-0.8046267628669739,0.3583941459655761,-0.7553755640983582,2.939448833465576,78.52996826171875,24.91,2
-0.273610383272171,-0.8410340547561646,0.3643433153629303,-0.5205823183059692,2.9438579082489014,78.52997589111328,24.91,2
-0.298738420009613,-0.8699959516525269,0.368161141872406,-0.2982540130615234,3.0367650985717773,78.52998352050781,24.91,2
-0.3036686182022095,-0.8717886805534363,0.3874045312404632,-0.2487234622240066,3.0963876247406006,78.52999114990234,24.91,2
-0.2788436412811279,-0.8673413991928101,0.3773627281188965,-0.3709883689880371,3.134649991989136,78.52999114990234,24.91,2
-0.2853035032749176,-0.8532918095588684,0.3653207123279571,-0.3849645853042602,3.1592044830322266,78.52999114990234,24.91,2
-0.2894490659236908,-0.8666667342185974,0.3519950807094574,-0.1288231015205383,3.174962282180786,78.52999114990234,24.91,2
-0.2697183787822723,-0.8640544414520264,0.3434434533119201,0.2827514410018921,3.1850745677948,78.52999114990234,24.91,2
-0.2570563554763794,-0.8679757714271545,0.3435532748699188,0.657936155796051,3.191564083099365,78.52999114990234,24.91,2
-0.2713216841220855,-0.8704922795295715,0.3604170680046081,0.8378043174743652,3.195728778839112,78.52999114990234,24.91,2
-0.2580852508544922,-0.8777049779891968,0.3824348449707031,0.7741045951843262,3.269094705581665,78.75927734375,24.91,2
-0.2495908737182617,-0.8823336958885193,0.3965645730495453,0.6221659183502197,3.316176652908325,78.90641784667969,24.91,2
-0.260932981967926,-0.8964996933937073,0.4000344574451446,0.556903600692749,3.346391201019287,79.00084686279297,24.91,2
-0.2514183819293976,-0.899992823600769,0.3966634571552276,0.5830909609794617,3.36578106880188,79.06144714355469,24.91,2
-0.2733013331890106,-0.9190278053283693,0.4056956768035888,0.6034790277481079,3.378224372863769,79.10033416748047,24.91,2
-0.264953464269638,-0.9144500494003296,0.4114920496940613,0.537746250629425,3.386209726333618,79.12528991699219,24.91,2
-0.2595962584018707,-0.8779256939888,0.4040162861347198,0.3343468606472015,3.391334295272827,79.14130401611328,24.91,2
-0.2561583220958709,-0.871279776096344,0.410414308309555,0.035435777157545,3.394623041152954,79.15158081054688,24.91,2
-0.242756500840187,-0.8614170551300049,0.4257157444953918,-0.2459525316953659,3.412340879440308,79.1581802368164,24.91,2
-0.2117648869752884,-0.8382943868637085,0.4411330819129944,-0.5268434286117554,3.42371129989624,79.16241455078125,24.91,2
-0.1918762624263763,-0.8290533423423767,0.4510270655155182,-0.8790667057037354,3.431008100509644,79.16513061523438,24.91,2
-0.2126995325088501,-0.8175252079963684,0.4685719907283783,-1.2054154872894287,3.4356908798217773,79.16687774658203,24.91,2
-0.2316604852676391,-0.8325182199478149,0.4742335379123688,-1.3897693157196045,3.438695907592773,79.16799926757812,24.91,2
