acc_x,acc_y,acc_z,bvp,eda,hr,temp,label
0.0,0.0,0.0,0.0,0.0,0.0,23.49,0
-0.0598958283662796,-0.1406249850988388,0.0677083283662796,-0.0533333271741867,0.0792781636118888,9.666666030883787,23.49,0
-0.1276676803827285,-0.3334603607654571,0.1543445140123367,-0.1624390333890915,0.1856269240379333,22.63414764404297,23.49,0
-0.1816341429948806,-0.4762769937515259,0.2297030687332153,-0.3562126159667969,0.2781320512294769,33.91362380981445,23.49,0
-0.2370201796293258,-0.5964840054512024,0.3060339987277984,-0.7503980398178101,0.3456195294857025,42.142608642578125,23.49,0
-0.2635394334793091,-0.6833589673042297,0.3522235453128814,-1.3967276811599731,0.391311377286911,47.7139778137207,23.49,0
-0.347576767206192,-0.6737245321273804,0.2325974702835083,-2.0304970741271973,0.4212917983531952,51.36959838867188,23.49,0
-0.3462103009223938,-0.7288574576377869,0.2667081952095032,-2.4623830318450928,0.4407086670398712,53.73716354370117,23.49,0
-0.3509202599525451,-0.781143069267273,0.2830911874771118,-2.8228793144226074,0.4555087089538574,55.26228332519531,23.49,0
-0.3203796744346618,-0.8091545701026917,0.2992158532142639,-3.2157113552093506,0.4650213122367859,56.2425422668457,23.49,0
-0.3903116881847381,-0.8439317345619202,0.2592020332813263,-3.618403434753418,0.4711298644542694,56.87202072143555,23.49,0
-0.396021157503128,-0.8550611138343811,0.2671001255512237,-4.0595903396606445,0.4750510156154632,57.27608871459961,23.49,0
-0.3772953450679779,-0.8789967894554138,0.2777667939662933,-4.3248372077941895,0.4775676727294922,57.53542709350586,23.49,0
-0.3596799671649933,-0.899955689907074,0.2790146470069885,-3.875289440155029,0.4791827797889709,57.70186233520508,23.49,0
-0.3259842991828918,-0.8910151720046997,0.2854132056236267,-2.558598041534424,0.4802192747592926,57.80867004394531,23.49,0
-0.321153461933136,-0.8964731693267822,0.2895194590091705,-0.9971017241477966,0.4808844625949859,57.87721633911133,23.49,0
-0.3180533051490783,-0.8999757766723633,0.2921546399593353,0.1661957800388336,0.4863613247871399,57.92120361328125,23.49,0
-0.3104660212993622,-0.896625816822052,0.2882479727268219,1.0058809518814087,0.4898760616779327,57.94943237304688,23.49,0
-0.2999991476535797,-0.8888782262802124,0.2857408821582794,1.9424086809158323,0.492131620645523,57.96754837036133,23.49,0
-0.2876843512058258,-0.8727107048034668,0.2785342037677765,2.97332763671875,0.4935791194438934,57.97917556762695,23.49,0
-0.2909769713878631,-0.8735308647155762,0.2683116197586059,3.702980995178223,0.4945080280303955,57.98663711547852,23.49,0
-0.2986877560615539,-0.8852527141571045,0.2561535835266113,3.8989546298980713,0.4951041638851166,57.99142456054688,23.49,0
-0.3036361038684845,-0.8871773481369019,0.2427534610033035,3.652131319046021,0.4954867362976074,57.9944953918457,23.49,0
-0.306811660528183,-0.8828147053718567,0.2341540455818176,3.042330026626587,0.4957322478294372,57.99646759033203,23.49,0
-0.3088495433330536,-0.874417245388031,0.2230376601219177,2.049121856689453,0.5000215768814087,57.99773406982422,23.49,0
-0.3045595586299896,-0.88022381067276,0.2159038037061691,0.938838005065918,0.5027742385864258,57.9985466003418,23.49,0
-0.3074042797088623,-0.8895478844642639,0.2057279199361801,0.3552944660186767,0.5045406818389893,57.99906539916992,23.49,0
-0.3148276209831238,-0.9179226160049438,0.1935998499393463,0.5719347596168518,0.5056743025779724,57.9994010925293,23.49,0
-0.3195915222167969,-0.9361318945884703,0.1914145350456237,1.0441415309906006,0.506401777267456,57.99961471557617,23.49,0
-0.3226487040519714,-0.9422197937965392,0.190012127161026,1.322098731994629,0.5068686604499817,57.99975204467773,23.49,0
-0.319012850522995,-0.9461266398429872,0.194709911942482,2.1310088634490967,0.5071682929992676,57.99983978271485,23.49,0
-0.3166795670986175,-0.9430360794067384,0.2033224552869796,4.573963642120361,0.507360577583313,57.99989700317383,23.49,0
-0.3095844388008117,-0.918661653995514,0.2256428152322769,8.488299369812012,0.5084018111228943,58.118160247802734,23.47,0
-0.2994334101676941,-0.8918240070343018,0.2399667352437973,13.063858032226562,0.5090700387954712,58.19405364990234,23.47,0
-0.3097123801708221,-0.8690033555030823,0.232365682721138,19.500364303588867,0.5094988942146301,58.24275970458984,23.47,0
-0.3331021666526794,-0.8767494559288025,0.2162922173738479,31.451705932617188,0.5097740888595581,58.27401351928711,23.47,0
-0.3481123745441437,-0.8817204833030701,0.2115749567747116,51.41679000854492,0.5099506974220276,58.294071197509766,23.47,0
-0.374538391828537,-0.8849105834960938,0.2029499262571334,77.44893646240234,0.5100640058517456,58.306941986083984,23.47,0
-0.3914970755577087,-0.8869578242301941,0.1974148750305175,104.86676788330078,0.5101367235183716,58.31520462036133,23.47,0
-0.4023801982402801,-0.8938694000244141,0.1994605660438537,130.84877014160156,0.5101833939552307,58.32050704956055,23.47,0
-0.3981688022613525,-0.89830482006073,0.2063711583614349,156.08486938476562,0.5097544193267822,58.32390975952149,23.47,0
-0.3842706382274627,-0.9067490100860596,0.2164037525653839,182.2359313964844,0.5094791054725647,58.32609176635742,23.47,0
-0.364156037569046,-0.9177657961845398,0.2228420823812484,207.5841064453125,0.5093024373054504,58.32749176025391,23.47,0
-0.3456498682498932,-0.9304335117340088,0.2269738316535949,224.2666931152344,0.5091890692710876,58.328392028808594,23.47,0
-0.3281759023666382,-0.9665517807006836,0.2240275889635086,221.85679626464844,0.5091162919998169,58.3289680480957,23.47,0
-0.3281576633453369,-1.017719268798828,0.2053435295820236,195.6478271484375,0.5090696215629578,58.32933807373047,23.47,0
-0.3337437212467193,-1.061751127243042,0.1877554059028625,148.68104553222656,0.5090396404266357,58.32957458496094,23.47,0
-0.3541218638420105,-1.0620194673538208,0.1708705872297287,85.01113891601562,0.5090204477310181,58.32972717285156,23.47,0
-0.3671993911266327,-1.0789849758148191,0.1600348800420761,8.537073135375977,0.5094670653343201,58.32982635498047,23.47,0
-0.3755917847156524,-1.168241262435913,0.1418855935335159,-69.0138931274414,0.5097536444664001,58.32988739013672,23.47,0
-0.3753797709941864,-1.1079676151275637,0.1302384287118911,-129.56161499023438,0.509937584400177,58.32992935180664,23.47,0
-0.3696459531784057,-1.041298508644104,0.1115683987736702,-163.5131072998047,0.5100556015968323,58.3299560546875,23.47,0
-0.3603685200214386,-0.9929163455963136,0.0939892753958702,-175.66050720214844,0.5101313591003418,58.32997131347656,23.47,0
-0.371208131313324,-0.9954541325569152,0.0771102309226989,-174.66078186035156,0.5101799368858337,58.32998275756836,23.47,0
-0.3669688105583191,-1.0362671613693235,0.0718760043382644,-165.43894958496094,0.5102111101150513,58.32999038696289,23.47,0
-0.3306616246700287,-1.0120786428451538,0.0685169771313667,-152.14439392089844,0.5102311372756958,58.32999420166016,23.47,0
-0.2905684411525726,-0.9573714137077332,0.0719591230154037,-138.8944549560547,0.5111622214317322,58.32999801635742,23.47,0
-0.2592411637306213,-0.8886768221855164,0.0797658711671829,-126.13530731201172,0.5117596983909607,58.32999801635742,23.47,0
-0.2615282237529754,-0.8277992606163025,0.0903735682368278,-111.9858169555664,0.5121431350708008,58.32999801635742,23.47,0
-0.2909848093986511,-0.7719382047653198,0.0915831997990608,-96.8545150756836,0.5123892426490784,58.32999801635742,23.47,0
-0.3154861032962799,-0.736089825630188,0.0923594757914543,-83.31076049804688,0.5125471353530884,58.32999801635742,23.47,0
-0.3256118595600128,-0.7186821699142456,0.0928576439619064,-72.24749755859375,0.5126484632492065,58.32999801635742,23.47,0
-0.3321099877357483,-0.7243042588233948,0.104372888803482,-62.11687088012695,0.5127134919166565,58.32999801635742,23.47,0
-0.3362801074981689,-0.7335099577903748,0.1229582577943801,-51.75360107421875,0.5127552151679993,58.32999801635742,23.47,0
-0.3389562666416168,-0.7841998338699341,0.151678591966629,-42.03278350830078,0.5137002468109131,58.48046875,23.53,0
-0.3294781148433685,-0.8559141159057617,0.1757074296474456,-34.193111419677734,0.5143067240715027,58.577030181884766,23.53,0
-0.3233955800533294,-0.9299250841140748,0.196725532412529,-27.972644805908203,0.5146958827972412,58.63899612426758,23.53,0
-0.3306877017021179,-1.0669854879379272,0.2102137356996536,-22.28614997863769,0.5149456262588501,58.67876434326172,23.53,0
-0.346562922000885,-1.1829317808151243,0.2076741456985473,-16.85634422302246,0.5151059031486511,58.70428466796875,23.53,0
-0.3623484969139099,-1.1957639455795288,0.200446605682373,-12.24329662322998,0.5152087807655334,58.72066116333008,23.53,0
-0.3780765533447265,-1.1536189317703247,0.2014061659574508,-8.716861724853516,0.5152747631072998,58.73117065429688,23.53,0
-0.3993654549121856,-1.0538015365600586,0.224413052201271,-5.945072650909424,0.5153171420097351,58.7379150390625,23.53,0
-0.4074296653270721,-1.017733454704285,0.2335797697305679,-3.6002509593963623,0.5194761157035828,58.74224472045898,23.53,0
-0.373420387506485,-0.9945870041847228,0.2226691246032714,-1.7981255054473877,0.5221450924873352,58.74502182006836,23.53,0
-0.2732263505458832,-0.9685373902320862,0.1820806413888931,-0.8350841999053955,0.5238578915596008,58.74680709838867,23.53,0
-0.1921342611312866,-0.9518202543258668,0.1616310626268386,-0.6075604557991028,0.5249570608139038,58.74795150756836,23.53,0
-0.1792784482240677,-0.8963099718093872,0.1541054844856262,-0.6299299001693726,0.5256624221801758,58.74868392944336,23.53,0
-0.2214083075523376,-0.8382955193519592,0.1268849074840545,-0.5726338028907776,0.5261151194572449,58.7491569519043,23.53,0
-0.2652381360530853,-0.7954674363136292,0.0926229804754257,-0.403309166431427,0.5264056324958801,58.74945831298828,23.53,0
-0.3101589381694793,-0.7511895298957825,0.048244547098875,-0.2229948490858078,0.5265920758247375,58.74965286254883,23.53,0
-0.3445842862129211,-0.7227745056152344,0.0197650231420993,-0.1753484457731247,0.5317613482475281,58.749778747558594,23.53,0
-0.3778720498085022,-0.7213326692581177,0.0238796025514602,-0.2809095978736877,0.5350787043571472,58.74985885620117,23.53,0
-0.3992342054843902,-0.7539940476417542,0.0489111989736557,-0.327157199382782,0.5372075438499451,58.749908447265625,23.53,0
-0.4129432141780853,-0.7805520296096802,0.0761705860495567,-0.1454643011093139,0.5385737419128418,58.749942779541016,23.53,0
-0.4161430895328522,-0.8535731434822083,0.1048596426844596,0.1825076937675476,0.539450466632843,58.749961853027344,23.53,0
-0.4237943589687347,-0.9228249788284302,0.1288684010505676,0.4789630770683288,0.5400131344795227,58.749977111816406,23.53,0
-0.4231067299842834,-1.0344401597976685,0.1442758440971374,0.6441330313682556,0.540374219417572,58.74998474121094,23.53,0
-0.4114699065685272,-1.150850534439087,0.1653590053319931,0.7143038511276245,0.540605902671814,58.7499885559082,23.53,0
-0.4095998406410217,-1.2087626457214355,0.1844867318868637,0.8739778399467468,0.5393775105476379,58.74999237060547,23.53,0
-0.4307908415794372,-1.2403295040130615,0.1743707060813903,1.14124596118927,0.5385891795158386,58.749996185302734,23.53,0
-0.4555855393409729,-1.2102073431015017,0.1566832810640335,1.1551299095153809,0.5380832552909851,58.749996185302734,23.53,0
-0.4714973568916321,-1.1237034797668457,0.1341369599103927,0.6123231649398804,0.5377585887908936,58.749996185302734,23.53,0
-0.4761108756065368,-1.0402013063430786,0.114070251584053,-0.3092311024665832,0.5375502109527588,58.749996185302734,23.53,0
-0.4678760170936584,-1.0034078359603882,0.0899970456957817,-1.183655023574829,0.5374165177345276,58.749996185302734,23.53,0
-0.4290046989917755,-1.030175805091858,0.0689504742622375,-1.7197319269180298,0.5373307466506958,58.749996185302734,23.53,0
-0.353679358959198,-1.0025718212127686,0.0778350904583931,-1.841635465621948,0.5372756719589233,58.749996185302734,23.53,0
-0.2829487919807434,-0.96246600151062,0.0835367292165756,-1.7013291120529177,0.5441263914108276,58.91121292114258,23.47,0
-0.2151668965816497,-0.9031417965888976,0.0871957093477249,-1.6148711442947388,0.5485227704048157,59.01467514038086,23.47,0
-0.1884616911411285,-0.8482775688171387,0.08394605666399,-1.7277684211730957,0.551344096660614,59.08106994628906,23.47,0
-0.2049104869365692,-0.8018733263015747,0.0762628465890884,-1.8933664560317995,0.553154706954956,59.12367630004883,23.47,0
-0.2266619205474853,-0.7776915431022644,0.0657344311475753,-1.9458990097045896,0.5543166399002075,59.15102005004883,23.47,0
-0.2574140727519989,-0.7789663672447205,0.0533801242709159,-1.940203070640564,0.5550622940063477,59.1685676574707,23.47,0
-0.271551251411438,-0.7797845005989075,0.056647390127182,-2.0081992149353027,0.5555408000946045,59.17982864379883,23.47,0
-0.2806236743927002,-0.8082984089851379,0.0643419027328491,-2.0912435054779053,0.5558478832244873,59.18705368041992,23.47,0
-0.2752502858638763,-0.882574737071991,0.080475352704525,-1.8256874084472656,0.5569631457328796,59.19169235229492,23.47,0
-0.2718019485473633,-0.9358387589454652,0.0964266434311866,-0.7847029566764832,0.5576788783073425,59.19466781616211,23.47,0
-0.2695890069007873,-1.031596064567566,0.1122610419988632,0.9688614010810852,0.5581381916999817,59.19657897949219,23.47,0
-0.2961577475070953,-1.0874497890472412,0.1280204206705093,2.7426443099975586,0.558432936668396,59.19780349731445,23.47,0
-0.3188058137893677,-1.1232935190200806,0.1325361132621765,3.934694766998291,0.5586221218109131,59.19858932495117,23.47,0
-0.3557311296463012,-1.0455360412597656,0.1578251123428344,4.606536865234375,0.5587435364723206,59.1990966796875,23.47,0
-0.3962209820747375,-0.9340602159500122,0.1908474564552307,5.105755805969238,0.558821439743042,59.19942092895508,23.47,0
-0.4501939117908478,-0.8961081504821777,0.2344304025173187,5.551515579223633,0.5588714480400085,59.19962692260742,23.47,0
-0.4008640348911285,-0.9445237517356871,0.2176172286272049,5.79817008972168,0.5616578459739685,59.19976043701172,23.47,0
-0.3244247436523437,-0.9755941033363342,0.17883862555027,5.65910530090332,0.5634459853172302,59.19984817504883,23.47,0
-0.2137949019670486,-0.9955332279205322,0.1707460731267929,5.107708930969238,0.564593493938446,59.19990158081055,23.47,0
-0.1595923602581024,-0.9747424125671388,0.1823460757732391,4.212885856628418,0.565329909324646,59.19993591308594,23.47,0
-0.1975793540477752,-0.8998245000839233,0.189790278673172,2.8397254943847656,0.5658025145530701,59.19995880126953,23.47,0
-0.2667394280433655,-0.84055095911026,0.1553831249475479,0.7870078682899475,0.5661057829856873,59.199974060058594,23.47,0
-0.3279156982898712,-0.8081104159355164,0.1165092661976814,-1.7161403894424438,0.5663003921508789,59.19998550415039,23.47,0
-0.3727728724479675,-0.787291944026947,0.085964486002922,-3.9996237754821777,0.5664252638816833,59.199989318847656,23.47,0
-0.4015596210956573,-0.7907251715660095,0.0663626044988632,-5.515187740325928,0.5710961222648621,59.19999313354492,23.47,0
-0.4088377654552459,-0.7873306274414062,0.0817721188068389,-6.222679138183594,0.5740936398506165,59.19999694824219,23.47,0
-0.4079106748104095,-0.7963477373123169,0.1028566062450409,-6.404430866241455,0.5760172605514526,59.19999694824219,23.47,0
-0.407315731048584,-0.852514386177063,0.1107896417379379,-6.159228324890137,0.5772517323493958,59.19999694824219,23.47,0
-0.4181294739246368,-0.9557321667671204,0.1158806085586547,-5.24953031539917,0.5780439376831055,59.19999694824219,23.47,0
-0.413873553276062,-1.066753625869751,0.119147703051567,-3.587383508682251,0.5785523056983948,59.19999694824219,23.47,0
-0.3943490386009216,-1.1715874671936035,0.1324398815631866,-1.4853490591049194,0.5788785815238953,59.19999694824219,23.47,0
-0.3874171078205108,-1.1716904640197754,0.1297744810581207,0.6553648710250854,0.5790879726409912,59.19999694824219,23.47,0
-0.3885663449764251,-1.1885498762130735,0.1224662140011787,2.5056345462799072,0.5769269466400146,59.2465705871582,23.49,0
-0.4284882843494415,-1.1433916091918943,0.1009828671813011,3.707361459732056,0.5755401253700256,59.276458740234375,23.49,0
-0.4653034508228302,-1.0864226818084717,0.0760005414485931,4.0128254890441895,0.5746501684188843,59.2956428527832,23.49,0
-0.4777337610721588,-1.0218744277954102,0.0487727709114551,3.5460784435272217,0.5740790367126465,59.307952880859375,23.49,0
-0.463319718837738,-1.0028421878814695,0.0257017835974693,2.619596242904663,0.5737125277519226,59.31585311889648,23.49,0
-0.4428740739822387,-1.0242151021957395,0.0108961509540677,1.5521334409713743,0.5734773278236389,59.3209228515625,23.49,0
-0.3961665630340576,-1.0267354249954224,0.0237858463078737,0.6915509700775146,0.5733263492584229,59.32417678833008,23.49,0
-0.3326057493686676,-1.0003639459609983,0.0320577099919319,0.2037650048732757,0.5732294917106628,59.326263427734375,23.49,0
-0.2526316344738006,-0.9386580586433412,0.0485616661608219,-0.0806072875857353,0.5759219527244568,59.32760238647461,23.49,0
-0.2069066315889358,-0.8710699081420898,0.0647507309913635,-0.4171518087387085,0.5776498317718506,59.328460693359375,23.49,0
-0.2055518329143524,-0.8109023571014404,0.0695421621203422,-0.9089850187301636,0.578758716583252,59.32901382446289,23.49,0
-0.2326712757349014,-0.7722902894020081,0.0670192539691925,-1.5219690799713137,0.5794703364372253,59.329368591308594,23.49,0
-0.2556727528572082,-0.7531090974807739,0.0598024241626262,-2.1374666690826416,0.5799269676208496,59.32959365844727,23.49,0
-0.2760315537452698,-0.7463974356651306,0.055171076208353,-2.697256088256836,0.5802200436592102,59.32973861694336,23.49,0
-0.2667055428028106,-0.7812747359275818,0.0633944943547248,-3.2069647312164307,0.5804080963134766,59.329833984375,23.49,0
-0.2551228702068329,-0.8204503059387207,0.0742695853114128,-3.4015111923217773,0.5805287957191467,59.32989501953125,23.49,0
-0.2252986878156662,-0.89597088098526,0.0868463665246963,-2.8492531776428223,0.5833605527877808,59.32993316650391,23.49,0
-0.2173547893762588,-0.978022277355194,0.1005151942372322,-1.6672707796096802,0.5851777791976929,59.3299560546875,23.49,0
-0.2402457296848297,-1.0922536849975586,0.1204826086759567,-0.5791455507278442,0.5863440036773682,59.32997131347656,23.49,0
-0.2717291414737701,-1.1711585521697998,0.1165032237768173,-0.0277350470423698,0.587092399597168,59.32998275756836,23.49,0
-0.3087266981601715,-1.210599660873413,0.1195472553372383,0.2938853204250335,0.5875726938247681,59.32999038696289,23.49,0
-0.3940451145172119,-1.1071618795394895,0.1662829369306564,0.8907834887504578,0.5878809094429016,59.32999420166016,23.49,0
-0.4823842346668243,-0.973608136177063,0.2130685299634933,1.8649632930755613,0.5880787372589111,59.32999801635742,23.49,0
-0.5054885149002075,-0.9270854592323304,0.2207017391920089,2.8878016471862797,0.5882056355476379,59.32999801635742,23.49,0
-0.3747734129428863,-0.9755987524986268,0.169622540473938,3.608686923980713,0.5887463688850403,59.32999801635742,23.49,0
-0.2293124496936798,-1.0123295783996582,0.1424406319856643,3.988910436630249,0.5890933871269226,59.32999801635742,23.49,0
-0.1079751104116439,-1.0135102272033691,0.1585834920406341,4.050204277038574,0.5893160700798035,59.32999801635742,23.49,0
-0.0636944398283958,-0.969485640525818,0.1857363730669021,3.541405439376831,0.5894590020179749,59.32999801635742,23.49,0
-0.1248420402407646,-0.8796576857566833,0.1863682121038437,2.2870004177093506,0.5895507335662842,59.32999801635742,23.49,0
-0.2256585657596588,-0.805217981338501,0.1363937109708786,0.6830812096595764,0.5896095633506775,59.32999801635742,23.49,0
-0.3015523552894592,-0.7518490552902222,0.081931859254837,-0.6865665316581726,0.5896473526954651,59.32999801635742,23.49,0
-0.3558543920516968,-0.7399910688400269,0.0245902799069881,-1.6085184812545776,0.5896716117858887,59.32999801635742,23.49,0
-0.390702337026596,-0.7435768246650696,-0.0066104726865887,-2.1285226345062256,0.5906053781509399,59.41598129272461,23.51,0
-0.4074679613113403,-0.7346824407577515,0.0069533274509012,-2.186372995376587,0.5912045836448669,59.47116088867188,23.51,0
-0.4126293957233429,-0.7345722913742065,0.0492444410920143,-1.8186670541763303,0.5915891528129578,59.506568908691406,23.51,0
-0.4159417152404785,-0.7736860513687134,0.0819822177290916,-1.328331708908081,0.5918359160423279,59.529293060302734,23.51,0
-0.4236651360988617,-0.910742461681366,0.1085892096161842,-0.8990203142166138,0.5919942855834961,59.54387664794922,23.51,0
-0.4118282496929168,-1.043479561805725,0.1200662702322006,-0.3512372374534607,0.5920959115028381,59.5532341003418,23.51,0
-0.3594498336315155,-1.156651496887207,0.138627141714096,0.4624506533145904,0.5921611189842224,59.55924224853516,23.51,0
-0.3034452795982361,-1.1621054410934448,0.1673317551612854,1.3213907480239868,0.5922030210494995,59.56309509277344,23.51,0
-0.2842980921268463,-1.187996506690979,0.180154949426651,1.8833569288253784,0.587638795375824,59.56556701660156,23.51,0
-0.3279882967472076,-1.1766231060028076,0.1659930497407913,1.9143974781036377,0.5847097635269165,59.56715393066406,23.51,0
-0.3784172534942627,-1.11894428730011,0.140111431479454,1.2966190576553345,0.5828300714492798,59.568172454833984,23.51,0
-0.433170735836029,-1.0371471643447876,0.1067087724804878,0.2481356561183929,0.5816237926483154,59.56882858276367,23.51,0
-0.4571128189563751,-1.0014477968215942,0.0852728709578514,-0.6683357357978821,0.5808496475219727,59.56924819946289,23.51,0
-0.4556841552257538,-1.0009291172027588,0.0715165436267852,-1.0522675514221191,0.5803528428077698,59.56951904296875,23.51,0
-0.3987895846366882,-1.050976276397705,0.0626885220408439,-1.1016112565994265,0.580034077167511,59.5696907043457,23.51,0
-0.317495733499527,-1.0551047325134275,0.0626209825277328,-1.2479195594787598,0.5798295140266418,59.569801330566406,23.51,0
-0.2261415868997573,-1.0185697078704834,0.0737731903791427,-1.567514181137085,0.5842892527580261,59.56987380981445,23.51,0
-0.167515754699707,-0.9615370035171508,0.0865278095006942,-1.8478455543518064,0.587151288986206,59.56991958618164,23.51,0
-0.146686390042305,-0.9193389415740968,0.0835174396634101,-2.016998529434204,0.5889879465103149,59.569950103759766,23.51,0
-0.1781014949083328,-0.8754653334617615,0.0647922307252883,-2.16495943069458,0.5901666283607483,59.569969177246094,23.51,0
-0.215055227279663,-0.836114227771759,0.0415799245238304,-2.3279812335968018,0.5909230709075928,59.56998062133789,23.51,0
-0.2499655485153198,-0.8108609318733215,0.0266836024820804,-2.5293288230896,0.5914084911346436,59.56998825073242,23.51,0
-0.2555756568908691,-0.8002526164054871,0.0227217748761177,-2.7588541507720947,0.5917199850082397,59.56999206542969,23.51,0
-0.2479803562164306,-0.7990425825119019,0.0313748493790626,-2.687613010406494,0.5919198989868164,59.56999588012695,23.51,0
-0.2375083565711975,-0.8206571340560913,0.0481234453618526,-1.918214440345764,0.5906707048416138,59.56999588012695,23.51,0
-0.2195924818515777,-0.8345280885696411,0.064469501376152,-0.6398746371269226,0.5898690223693848,59.56999588012695,23.51,0
-0.2136928886175155,-0.8714185357093811,0.0749594643712043,0.413357675075531,0.5893545746803284,59.56999588012695,23.51,0
-0.2490912824869156,-0.93427711725235,0.0984846353530883,0.8886373043060303,0.5890244245529175,59.56999588012695,23.51,0
-0.2886012494564056,-0.9746161699295044,0.1191795170307159,1.2652959823608398,0.588812530040741,59.56999588012695,23.51,0
-0.313956469297409,-1.0340900421142578,0.138058066368103,2.0873911380767822,0.5886765718460083,59.56999588012695,23.51,0
-0.3358257710933685,-1.0946481227874756,0.1501732319593429,3.256245374679565,0.5885893106460571,59.56999588012695,23.51,0
-0.366653561592102,-1.1335108280181885,0.1803391575813293,4.350275993347168,0.588533341884613,59.56999588012695,23.51,0
-0.3920348286628723,-1.0744839906692505,0.2332845479249954,5.113265514373779,0.5862020254135132,59.63448333740234,23.53,0
-0.4027253091335296,-1.0030173063278198,0.2672618627548218,5.387953758239746,0.5847059488296509,59.67586898803711,23.53,0
-0.3144236803054809,-1.007534146308899,0.2554799020290375,5.091332912445068,0.5837458372116089,59.70242691040039,23.53,0
-0.2017790228128433,-1.0440194606781006,0.2311255931854248,4.259697914123535,0.5831297039985657,59.7194709777832,23.53,0
-0.1238923892378807,-1.061835765838623,0.1931052953004837,2.8411061763763428,0.5827342867851257,59.73040771484375,23.53,0
-0.1242891997098922,-1.0564759969711304,0.1631082892417907,0.7413206696510315,0.5824805498123169,59.7374267578125,23.53,0
-0.163728266954422,-1.0306452512741089,0.138260155916214,-1.7562077045440674,0.5823177099227905,59.7419319152832,23.53,0
-0.2506135106086731,-0.930101990699768,0.1055207327008247,-4.046832084655762,0.5822132229804993,59.74482345581055,23.53,0
-0.3175670206546783,-0.8431879878044128,0.0733149051666259,-5.627882957458496,0.5830643773078918,59.74667739868164,23.53,0
-0.3493383824825287,-0.7706182599067688,0.035853736102581,-6.259174823760986,0.5836105942726135,59.74786758422852,23.53,0
-0.3641296327114105,-0.7688294053077698,0.0062155406922101,-6.066011428833008,0.5839611291885376,59.74863052368164,23.53,0
-0.3680240213871002,-0.7956702709197998,-0.0072067733854055,-5.386751174926758,0.5841860771179199,59.749122619628906,23.53,0
-0.3649254441261291,-0.8184929490089417,0.0121684316545724,-4.252238750457764,0.5843304395675659,59.74943542480469,23.53,0
-0.3629369437694549,-0.8163459300994873,0.0413956455886364,-2.3526716232299805,0.5844230651855469,59.749637603759766,23.53,0
-0.3840519487857818,-0.8205658793449402,0.0937386304140091,0.2349050641059875,0.5844824910163879,59.7497673034668,23.53,0
-0.4087978899478912,-0.8456650972366333,0.1497204452753067,2.7158725261688232,0.5845206379890442,59.74985122680664,23.53,0
-0.4134828746318817,-0.8785656690597534,0.1800485849380493,4.214868068695068,0.5790362358093262,59.74990463256836,23.53,0
-0.3717072308063507,-0.9220704436302184,0.1883158832788467,4.506895542144775,0.5755166411399841,59.74993896484375,23.53,0
-0.3225069344043731,-0.9555870890617372,0.199219137430191,4.002864360809326,0.5732579827308655,59.749961853027344,23.53,0
-0.2685419023036957,-0.9659005999565125,0.2174117714166641,3.231584310531616,0.5718084573745728,59.749977111816406,23.53,0
-0.2618991136550903,-0.9557258486747742,0.2290867567062378,2.3998591899871826,0.570878267288208,59.74998474121094,23.53,0
-0.2744295001029968,-0.9435985088348388,0.2309813052415847,1.457692265510559,0.5702813267707825,59.7499885559082,23.53,0
-0.3328507542610168,-0.9805980920791626,0.2210015803575515,0.5127190947532654,0.569898247718811,59.74999237060547,23.53,0
-0.3927332460880279,-1.0547223091125488,0.220194935798645,-0.0113110775128006,0.5696523785591125,59.749996185302734,23.53,0
-0.4199668169021606,-1.0631065368652344,0.2028839588165283,0.1718699783086776,0.573167085647583,59.749996185302734,23.53,0
-0.3926615715026855,-1.090878129005432,0.186176985502243,0.6476826071739197,0.5754226446151733,59.749996185302734,23.53,0
-0.3527475297451019,-1.1198958158493042,0.1698576360940933,0.6592605710029602,0.5768701434135437,59.749996185302734,23.53,0
-0.3159374594688415,-1.1441155672073364,0.142591506242752,-0.0247464440762996,0.5777990818023682,59.749996185302734,23.53,0
-0.2979126274585724,-1.165256142616272,0.1194958910346031,-1.0691580772399902,0.5783951878547668,59.749996185302734,23.53,0
-0.2919431030750274,-1.1116496324539185,0.0990766808390617,-2.2015535831451416,0.5787777304649353,59.749996185302734,23.53,0
-0.2881122231483459,-1.0492591857910156,0.0747772604227066,-3.2506916522979736,0.5790232419967651,59.749996185302734,23.53,0
-0.2856537699699402,-1.0148184299468994,0.0535855144262313,-3.873811960220337,0.5791807770729065,59.749996185302734,23.53,0
-0.2896738648414612,-0.998314082622528,0.02319254912436,-3.90468955039978,0.5751504302024841,60.87492752075195,23.49,0
-0.2922537326812744,-0.9877225160598756,-0.0019096795003861,-3.612820863723755,0.5725640058517456,61.59684371948242,23.49,0
-0.2715182304382324,-1.0201098918914795,-0.0236166194081306,-3.239222288131714,0.5709041953086853,62.06012725830078,23.49,0
-0.2414180636405944,-1.02410089969635,-0.0319491103291511,-2.727192640304565,0.5698390007019043,62.3574333190918,23.49,0
-0.2165037393569946,-1.0098687410354614,-0.0372964218258857,-2.036761283874512,0.5691554546356201,62.5482292175293,23.49,0
-0.2005151510238647,-0.9783443212509156,-0.0295324716717004,-1.231842041015625,0.5687167644500732,62.67066955566406,23.49,0
-0.1902545988559723,-0.9581137895584106,-0.0189522411674261,-0.292547345161438,0.5684352517127991,62.749244689941406,23.49,0
-0.2004632949829101,-0.9395331740379332,-0.0121624572202563,0.8941977620124817,0.5682545900344849,62.7996711730957,23.49,0
-0.2126124203205108,-0.9220114350318908,-0.0022073902655392,2.494105100631714,0.5672204494476318,62.83203125,23.49,0
-0.2204090356826782,-0.8995714783668518,0.0097789727151393,4.5311198234558105,0.5665568113327026,62.85279846191406,23.49,0
-0.2198146730661392,-0.8683774471282959,0.0342644527554512,6.562038898468018,0.5661309361457825,62.86612701416016,23.49,0
-0.2194332480430603,-0.8707500100135803,0.0611733756959438,7.91910457611084,0.5658575892448425,62.87467956542969,23.49,0
-0.2079929262399673,-0.9114570021629332,0.0840397477149963,8.281265258789062,0.5656821727752686,62.88016891479492,23.49,0
-0.1894556283950805,-0.987960398197174,0.0931162908673286,7.578627109527588,0.5655696392059326,62.88368988037109,23.49,0
-0.1887550055980682,-0.9810781478881836,0.1213321909308433,5.7340922355651855,0.5654973983764648,62.88595199584961,23.49,0
-0.2162942588329315,-0.9150859713554382,0.1786239594221115,2.952547311782837,0.5654510259628296,62.88740158081055,23.49,0
-0.2507607042789459,-0.8559426665306091,0.2209882885217666,-0.2189448177814483,0.5654212832450867,62.88833236694336,23.49,0
-0.2840748131275177,-0.8571723103523254,0.2537730634212494,-3.178530216217041,0.5654022097587585,62.88893127441406,23.49,0
-0.3166494369506836,-0.8859503269195557,0.2916057705879211,-5.368010520935059,0.5653899312019348,62.88931274414063,23.49,0
-0.3263584077358246,-0.965993881225586,0.3102868497371673,-6.482903957366943,0.5653820633888245,62.889556884765625,23.49,0
-0.3493824005126953,-0.9949701428413392,0.2327108830213546,-6.639496803283691,0.5653769969940186,62.88971710205078,23.49,0
-0.3417667746543884,-1.0359565019607544,0.166133776307106,-6.138116359710693,0.5653737783432007,62.88982009887695,23.49,0
-0.3760639131069183,-1.0622591972351074,0.1681906133890152,-5.214486598968506,0.5653716921806335,62.88988494873047,23.49,0
-0.3812805414199829,-1.045552134513855,0.186303898692131,-4.080785274505615,0.5653703808784485,62.88992691040039,23.49,0
-0.3398460745811462,-1.01803719997406,0.1811346411705017,-2.726290225982666,0.5653695464134216,62.88995361328125,23.49,0
-0.3244513571262359,-0.9891841411590576,0.1554262042045593,-0.9506617784500122,0.5653690099716187,62.88996887207031,23.49,0
-0.3313652276992798,-0.9706678986549376,0.1277324706315994,1.0235743522644043,0.56536865234375,62.88998031616211,23.49,0
-0.3637910485267639,-0.9531874656677246,0.0931668952107429,2.462489128112793,0.5653684139251709,62.88998794555664,23.49,0
-0.3901978433132171,-0.9363717436790466,0.070984698832035,2.948827743530273,0.5653682351112366,62.88999176025391,23.49,0
-0.4127419590950012,-0.9255803823471068,0.0623472183942794,2.820275068283081,0.5653681755065918,62.88999557495117,23.49,0
-0.4104161560535431,-0.9186550974845886,0.0735975056886673,2.59805679321289,0.565368115901947,62.88999557495117,23.49,0
-0.3977280557155609,-0.9198086261749268,0.086415059864521,2.494858264923096,0.5653680562973022,62.88999557495117,23.49,0
-0.3615966737270355,-0.926146686077118,0.1058361828327179,2.5683517456054688,0.5635315775871277,63.78922271728516,23.51,0
-0.3272140920162201,-0.947007417678833,0.1238973140716552,2.801809787750244,0.5623530745506287,64.36629486083984,23.51,0
-0.3051493465900421,-0.9659923911094666,0.1354879140853881,2.9910378456115723,0.5615967512130737,64.73662567138672,23.51,0
-0.2853916883468628,-0.9669803380966188,0.1429260820150375,2.879606246948242,0.5611113905906677,64.97428131103516,23.51,0
-0.2783101201057434,-0.9676143527030944,0.1476994752883911,2.446255683898926,0.5607998967170715,65.12680053710938,23.51,0
-0.2737655937671661,-0.9568256735801696,0.1451649963855743,1.8887152671813965,0.5606000423431396,65.22467803955078,23.51,0
-0.2764469385147095,-0.9331088066101074,0.1379407346248626,1.2980505228042605,0.560471773147583,65.28749084472656,23.51,0
-0.2725698947906494,-0.917888641357422,0.1389023959636688,0.5392428636550903,0.5603894591331482,65.32779693603516,23.51,0
-0.2644840478897095,-0.9137189984321594,0.1507150828838348,-0.4671895802021026,0.5585005879402161,65.35366821289062,23.51,0
-0.2536972463130951,-0.905445396900177,0.1582957804203033,-1.5178911685943604,0.557288408279419,65.37026977539062,23.51,0
-0.252372682094574,-0.90013587474823,0.1575628668069839,-2.321143627166748,0.5565105080604553,65.38092041015625,23.51,0
-0.2571204304695129,-0.9079240560531616,0.1570925265550613,-2.754225492477417,0.5560112595558167,65.38775634765625,23.51,0
-0.2657650411128998,-0.9185198545455932,0.1511929035186767,-2.835110902786255,0.5556908845901489,65.39214324951172,23.51,0
-0.2769104242324829,-0.9253196120262146,0.1474068760871887,-2.7293851375579834,0.5554853081703186,65.39495849609375,23.51,0
-0.2896606624126434,-0.9352810978889464,0.1393794417381286,-2.7654311656951904,0.5553533434867859,65.39676666259766,23.51,0
-0.3034408092498779,-0.9416738152503968,0.1286301165819168,-3.0465087890625,0.5552687048912048,65.3979263305664,23.51,0
-0.3122841119766235,-0.9457762837409972,0.1161340475082397,-3.2448012828826904,0.5542961359024048,65.39866638183594,23.51,0
-0.3179592192173004,-0.9428112506866456,0.1025170162320137,-3.103360652923584,0.5536720156669617,65.3991470336914,23.51,0
-0.3216011822223663,-0.9465062022209167,0.0993761643767356,-2.794055223464966,0.553271472454071,65.39945220947266,23.51,0
-0.3239383995532989,-0.9432796835899352,0.0973605513572692,-2.55256986618042,0.5530144572257996,65.39965057373047,23.51,0
-0.3254382908344269,-0.941209077835083,0.0960670411586761,-2.379685640335083,0.5528494715690613,65.39977264404297,23.51,0
-0.3319985866546631,-0.9454780220985411,0.0952369421720504,-2.2114171981811523,0.5527436137199402,65.39985656738281,23.51,0
-0.3362086117267608,-0.9482176303863524,0.094704233109951,-1.9816246032714844,0.5526756644248962,65.39990997314453,23.51,0
-0.3389103710651397,-0.9499757289886476,0.0943623706698417,-1.6048721075057983,0.5526320934295654,65.39994049072266,23.51,0
-0.3350464403629303,-0.9511039853096008,0.0997407585382461,-0.972593367099762,0.5512269735336304,65.39996337890625,23.51,0
-0.3269689977169037,-0.9518280029296876,0.1031922996044159,0.1604296267032623,0.5503252148628235,65.39997863769531,23.51,0
-0.3217853605747223,-0.9522926807403564,0.1054072976112365,1.8906596899032595,0.549746572971344,65.39998626708984,23.51,0
-0.3128610253334045,-0.9525908827781676,0.1068287566304206,3.5527384281158447,0.5493752360343933,65.39999389648438,23.51,0
-0.3015361428260803,-0.9527822136878968,0.107740968465805,4.246777057647705,0.5491368770599365,65.39999389648438,23.51,0
-0.2942684888839721,-0.9473072290420532,0.1083263754844665,4.05447244644165,0.5489839315414429,65.39999389648438,23.51,0
-0.2840067446231842,-0.9437937140464784,0.1087020561099052,3.7662642002105713,0.5488857626914978,65.39999389648438,23.51,0
-0.2774213552474975,-0.94153892993927,0.1089431419968605,3.638629913330078,0.5488227605819702,65.39999389648438,23.51,0
-0.273195207118988,-0.9400919675827026,0.1035000830888748,3.356097221374512,0.549241304397583,66.17024993896484,23.55,0
-0.2648853361606598,-0.9391633868217468,0.1000070422887802,2.7377097606658936,0.5495098829269409,66.66455841064453,23.55,0
-0.2651503384113312,-0.9385674595832824,0.0977654084563255,1.7748173475265503,0.5496822595596313,66.98177337646484,23.55,0
-0.2709181606769562,-0.9381850361824036,0.096326857805252,0.5729286670684814,0.5497928857803345,67.18534851074219,23.55,0
-0.2746196091175079,-0.9323418140411376,0.095403678715229,-0.4742325842380523,0.549863874912262,67.31598663330078,23.55,0
-0.2769950032234192,-0.934189796447754,0.094811238348484,-0.9886071085929872,0.5499094128608704,67.39982604980469,23.55,0
-0.2841171622276306,-0.9353756904602052,0.0944310426712036,-0.9640281200408936,0.5499386191368103,67.45362854003906,23.55,0
-0.2942855358123779,-0.9361367225646972,0.0941870510578155,-0.6580660939216614,0.5499573945999146,67.4881591796875,23.55,0
-0.3008109927177429,-0.9366251230239868,0.0940304771065712,-0.3255793750286102,0.5485922694206238,67.51031494140625,23.55,0
-0.3105964362621307,-0.9425363540649414,0.0939299911260604,-0.1301214396953582,0.5477162003517151,67.5245361328125,23.55,0
-0.3168761730194092,-0.9463298320770264,0.0938655063509941,-0.0584264248609542,0.5471540093421936,67.53366088867188,23.55,0
-0.3209061622619629,-0.9487642645835876,0.0882263481616973,-0.0518250167369842,0.5467932224273682,67.53951263427734,23.55,0
-0.3178945779800415,-0.9503265023231506,0.0902052372694015,-0.1693961918354034,0.5465617179870605,67.54327392578125,23.55,0
-0.3159619271755218,-0.945731282234192,0.0858774036169052,-0.4096450507640838,0.5464131236076355,67.54568481445312,23.55,0
-0.3147216737270355,-0.9427823424339294,0.0831000432372093,-0.5889010429382324,0.5463177561759949,67.54723358154297,23.55,0
-0.3139257431030273,-0.9408898949623108,0.0813176929950714,-0.5570515990257263,0.5462566018104553,67.54822540283203,23.55,0
-0.3078171908855438,-0.9396754503250122,0.0801738873124122,-0.3539010882377624,0.5466762781143188,67.54885864257812,23.55,0
-0.3038970828056335,-0.9388960599899292,0.0794398561120033,-0.1518792659044265,0.5469455718994141,67.54927062988281,23.55,0
-0.301381379365921,-0.9383959174156188,0.0789688006043434,-0.1332931220531463,0.5471184253692627,67.54953002929688,23.55,0
-0.2997669279575348,-0.9436727166175842,0.0842642784118652,-0.2718337774276733,0.5472293496131897,67.54969787597656,23.55,0
-0.2931331098079681,-0.9414612650871276,0.0876626074314117,-0.332080602645874,0.5473005175590515,67.5498046875,23.55,0
-0.2888759076595306,-0.9400421380996704,0.0954412370920181,-0.1844496130943298,0.5473461747169495,67.54987335205078,23.55,0
-0.2861438691616058,-0.9391313791275024,0.1004331111907959,0.0571770630776882,0.547375500202179,67.54991912841797,23.55,0
-0.2843905985355377,-0.938546895980835,0.1036366075277328,0.2659777700901031,0.547394335269928,67.5499496459961,23.55,0
-0.2832654416561126,-0.9381718635559082,0.1056924313306808,0.3748960196971893,0.5474063754081726,67.54997253417969,23.55,0
-0.2825433909893036,-0.9379311800003052,0.1070117428898811,0.3301510810852051,0.5474141240119934,67.54998016357422,23.55,0
-0.2820800244808197,-0.9377766847610474,0.1078583970665931,0.2082893848419189,0.5474190711975098,67.54998779296875,23.55,0
-0.2873804271221161,-0.937677562236786,0.102803960442543,0.1408332884311676,0.5474222898483276,67.54999542236328,23.55,0
-0.2907819151878357,-0.9376139640808104,0.0995603129267692,0.1011264249682426,0.54742431640625,67.54999542236328,23.55,0
-0.2929648160934448,-0.9375731348991394,0.0974787250161171,-0.0067543922923505,0.5474256277084351,67.54999542236328,23.55,0
-0.2943656742572784,-0.9319491386413574,0.0961428806185722,-0.0724035128951072,0.5474264621734619,67.54999542236328,23.55,0
-0.3008624315261841,-0.9339377880096436,0.1008833870291709,0.0645954385399818,0.5474269986152649,67.54999542236328,23.55,0
-0.2994339168071747,-0.9352139830589294,0.1039255708456039,0.2384953051805496,0.546968400478363,68.18769836425781,23.53,0
-0.2985171675682068,-0.9360329508781432,0.1058778688311576,0.1387222558259964,0.5466741323471069,68.59693908691406,23.53,0
-0.2979288399219513,-0.9365585446357728,0.1071307435631752,-0.1653389036655426,0.5464853048324585,68.85956573486328,23.53,0
-0.3031490743160248,-0.9368958473205566,0.1079347655177116,-0.3353898227214813,0.5463641285896301,69.02810668945312,23.53,0
-0.3009013533592224,-0.937112271785736,0.102852962911129,-0.3298763036727905,0.5462863445281982,69.13626098632812,23.53,0
-0.2994588911533355,-0.9372511506080629,0.0995917543768882,-0.3370857536792755,0.5462363958358765,69.20567321777344,23.53,0
-0.2985332012176513,-0.931742548942566,0.0974989011883735,-0.352460116147995,0.5462043881416321,69.25021362304688,23.53,0
-0.2979391515254974,-0.9338052272796632,0.0961558297276496,-0.2906749844551086,0.5461838245391846,69.27880096435547,23.53,0
-0.297557920217514,-0.935128927230835,0.0952939242124557,-0.1901210397481918,0.5470888614654541,69.2971420288086,23.53,0
-0.2973132729530334,-0.935978353023529,0.0947408005595207,-0.1327564716339111,0.5476696491241455,69.30891418457031,23.53,0
-0.3027540445327759,-0.9365234971046448,0.0999836102128028,-0.1138560697436332,0.548042356967926,69.31646728515625,23.53,0
-0.3062455952167511,-0.9368733167648317,0.0977503731846809,-0.073066271841526,0.5482815504074097,69.32131958007812,23.53,0
-0.3084862828254699,-0.9370978474617004,0.1019149869680404,0.0390920899808406,0.5484350323677063,69.32443237304688,23.53,0
-0.3099242150783539,-0.9372419118881226,0.1045875921845436,0.1039037182927131,0.54853355884552,69.32643127441406,23.53,0
-0.3108470141887665,-0.9373343586921692,0.1063027158379554,-0.0694584399461746,0.5485967397689819,69.32771301269531,23.53,0
-0.3058414459228515,-0.9373937249183656,0.1074033826589584,-0.3598410785198211,0.548637330532074,69.32852935791016,23.53,0
-0.3082269132137298,-0.937431812286377,0.1081097275018692,-0.3706457316875458,0.5463680028915405,69.32905578613281,23.53,0
-0.3041599988937378,-0.9374562501907348,0.108563020825386,-0.0372348688542842,0.5449116826057434,69.32939147949219,23.53,0
-0.3015500903129577,-0.9374719262123108,0.1144516915082931,0.2161373645067215,0.5439770817756653,69.3296127319336,23.53,0
-0.2998751997947693,-0.9374819993972778,0.112632930278778,0.0813833028078079,0.5433773398399353,69.32975006103516,23.53,0
-0.2988003492355346,-0.9374884366989136,0.1114657521247863,-0.2164660543203354,0.5429924726486206,69.32984161376953,23.53,0
-0.3037083446979522,-0.937492609024048,0.1107167229056358,-0.3072965145111084,0.5427454710006714,69.32990264892578,23.53,0
-0.301260232925415,-0.937495231628418,0.1102360412478447,-0.1255537122488021,0.5425869822502136,69.32994079589844,23.53,0
-0.3052869737148285,-0.9374969601631165,0.1099275648593902,0.1272162348031997,0.542485237121582,69.32996368408203,23.53,0
-0.3078711032867431,-0.9374980330467224,0.1041318327188491,0.2392733842134475,0.5433378219604492,69.3299789428711,23.53,0
-0.3095294535160064,-0.9319009780883788,0.1060102358460426,0.0854829549789428,0.5438849329948425,69.32998657226562,23.53,0
-0.3105936646461487,-0.9283090829849244,0.1072156876325607,-0.2281654477119445,0.5442360639572144,69.32999420166016,23.53,0
-0.3112766146659851,-0.9316018223762512,0.1079892739653587,-0.404368907213211,0.5444613695144653,69.32999420166016,23.53,0
-0.3117148876190185,-0.9337148666381836,0.1084857210516929,-0.2917438745498657,0.5446059703826904,69.32999420166016,23.53,0
-0.3119961619377136,-0.9294731616973876,0.108804315328598,-0.0797471553087234,0.5446987748146057,69.32999420166016,23.53,0
-0.3065789043903351,-0.9267510771751404,0.1090087667107582,-0.0332642570137977,0.5447583198547363,69.32999420166016,23.53,0
-0.3087001740932464,-0.9250041842460632,0.10913997143507,-0.1646501123905182,0.5447965264320374,69.32999420166016,23.53,0
-0.3100614845752716,-0.9238831400871276,0.1092241704463958,-0.2597137093544006,0.5443621277809143,69.87454986572266,23.55,0
-0.3109351098537445,-0.9287614822387696,0.1092782095074653,-0.1702518910169601,0.5440833568572998,70.22401428222656,23.55,0
-0.3114957511425018,-0.9318920969963074,0.1093128845095634,0.0555406138300895,0.5439044833183289,70.44828033447266,23.55,0
-0.3118555247783661,-0.9283034205436708,0.1093351393938064,0.3043359518051147,0.5437896847724915,70.59220123291016,23.55,0
-0.3120864033699035,-0.93159818649292,0.1093494221568107,0.4998242259025574,0.5437160134315491,70.68456268310547,23.55,0
-0.3122345805168152,-0.9337125420570374,0.1093585863709449,0.560791015625,0.5436686873435974,70.74382781982422,23.55,0
-0.3123296797275543,-0.9350694417953492,0.1093644648790359,0.4387000501155853,0.5436383485794067,70.78186798095703,23.55,0
-0.3123906850814819,-0.9359402060508728,0.1093682423233985,0.2170460820198059,0.5436188578605652,70.8062744140625,23.55,0
-0.3124298453330993,-0.936498999595642,0.1093706637620925,0.046140719205141,0.5431474447250366,70.82193756103516,23.55,0
-0.3068571984767914,-0.9368576407432556,0.1093722209334373,-0.0348759032785892,0.5428449511528015,70.83199310302734,23.55,0
-0.3032810091972351,-0.9370877742767334,0.1093732193112373,-0.09761543571949,0.5426508188247681,70.83843994140625,23.55,0
-0.3009860217571258,-0.9372354745864868,0.1093738600611686,-0.1342954784631729,0.5425262451171875,70.84258270263672,23.55,0
-0.3051109910011291,-0.9373302459716796,0.1093742698431015,0.0141290156170725,0.5424462556838989,70.8452377319336,23.55,0
-0.302160382270813,-0.9317932724952698,0.1093745306134224,0.3279164135456085,0.5423949360847473,70.8469467163086,23.55,0
-0.3058646321296692,-0.9282400012016296,0.1093747019767761,0.4648007452487945,0.5423620343208313,70.84803771972656,23.55,0
-0.3082418143749237,-0.9315574765205384,0.1093748062849044,0.2302134186029434,0.542340874671936,70.84873962402344,23.55,0
-0.309767335653305,-0.9336864352226256,0.1093748733401298,-0.1209554448723793,0.540949821472168,70.84918975830078,23.55,0
-0.3107463419437408,-0.9350526928901672,0.1093749180436134,-0.3391502499580383,0.5400571227073669,70.84947967529297,23.55,0
-0.3113746047019958,-0.9359294772148132,0.1093749478459358,-0.4791751205921173,0.5394842028617859,70.84966278076172,23.55,0
-0.311777800321579,-0.930894374847412,0.1093749701976776,-0.5045486688613892,0.5391165614128113,70.84978485107422,23.55,0
-0.3120365440845489,-0.9332609176635742,0.1093749776482582,-0.2270607650279998,0.5388806462287903,70.84986114501953,23.55,0
-0.3122025728225708,-0.9347795844078064,0.103777214884758,0.1767172813415527,0.5387292504310608,70.84990692138672,23.55,0
-0.3123091161251068,-0.9357541799545288,0.1057826653122901,0.281788021326065,0.5386320948600769,70.84993743896484,23.55,0
-0.3123775124549866,-0.9307818412780762,0.1070696488022804,0.0733580514788627,0.5385697484016418,70.84996032714844,23.55,0
-0.3124213814735412,-0.9331886768341064,0.1078955605626106,-0.0998086258769035,0.5399072170257568,70.8499755859375,23.55,0
-0.3124495446681976,-0.9347332119941713,0.1084255799651146,-0.1249552145600318,0.5407655239105225,70.84998321533203,23.55,0
-0.3124676346778869,-0.935724437236786,0.1087657138705253,-0.1195973977446556,0.5413163304328918,70.84999084472656,23.55,0
-0.3124792277812958,-0.930762767791748,0.1089839935302734,-0.1089939102530479,0.5416698455810547,70.84999084472656,23.55,0
-0.3124866783618927,-0.927578628063202,0.1091240718960762,0.0160357933491468,0.5418967008590698,70.84999084472656,23.55,0
-0.3124914467334747,-0.925535261631012,0.1092139706015586,0.2610711455345154,0.5420422554016113,70.84999084472656,23.55,0
-0.3180922865867615,-0.9298217296600342,0.1036738827824592,0.4828070998191833,0.5421356558799744,70.84999084472656,23.55,0
-0.3160887956619262,-0.9269747734069824,0.1057163476943969,0.5355400443077087,0.5421956181526184,70.84999084472656,23.55,0
-0.3148030936717987,-0.930745542049408,0.1070270910859108,0.3723393678665161,0.5417748093605042,71.21183776855469,23.55,0
-0.313977986574173,-0.9331653714179992,0.1078682467341423,0.0454868823289871,0.5415047407150269,71.44404602050781,23.55,0
-0.3134484887123108,-0.9347183108329772,0.1084080561995506,-0.2681629061698913,0.54133141040802,71.59306335449219,23.55,0
-0.3131086826324463,-0.9357149004936218,0.1087544709444046,-0.3046468198299408,0.5412201881408691,71.6886978149414,23.55,0
-0.3128906190395355,-0.936354398727417,0.1089767813682556,-0.0020457124337553,0.541148841381073,71.75006866455078,23.55,0
-0.3127506673336029,-0.9367648363113404,0.1091194450855255,0.3497795760631561,0.5411030650138855,71.7894515991211,23.55,0
-0.3126608729362488,-0.931430459022522,0.1092109978199005,0.4465880990028381,0.5410736799240112,71.81472778320312,23.55,0
-0.312603235244751,-0.9280071258544922,0.1036719754338264,0.3224202990531921,0.5410547852516174,71.83094787597656,23.55,0
-0.306968480348587,-0.9314080476760864,0.105715125799179,0.1280941367149353,0.5392066240310669,71.84135437011719,23.55,0
-0.3089501857757568,-0.933590531349182,0.1070263013243675,-0.1148382201790809,0.5380205512046814,71.84803771972656,23.55,0
-0.3102219402790069,-0.9293933510780334,0.1078677400946617,-0.3710503280162811,0.5372593998908997,71.85232543945312,23.55,0
-0.311038076877594,-0.9266998171806335,0.1084077283740043,-0.499646782875061,0.5367709398269653,71.85507202148438,23.55,0
-0.3115618228912353,-0.930569052696228,0.1087542623281478,-0.4854430258274078,0.5364574790000916,71.8568344116211,23.55,0
-0.3118979334831238,-0.933052122592926,0.1089766472578048,-0.429754376411438,0.5362563133239746,71.85797119140625,23.55,0
-0.3121136426925659,-0.9346455931663512,0.1091193631291389,-0.3366954028606415,0.5361272096633911,71.85869598388672,23.55,0
-0.3122520446777344,-0.9356682300567628,0.1036131754517555,-0.1838285475969314,0.5360443592071533,71.85916137695312,23.55,0
-0.3123408854007721,-0.9363244771957396,0.1056773960590362,-0.042736493051052,0.5364501476287842,71.85945892333984,23.55,0
-0.3123978972434997,-0.9311478137969972,0.1070020869374275,0.0478082634508609,0.5367105603218079,71.85964965820312,23.55,0
-0.3124344646930694,-0.9278257489204408,0.1078521981835365,0.1202449798583984,0.5368776917457581,71.85977172851562,23.55,0
-0.3124579489231109,-0.93129163980484,0.108397752046585,0.1058269143104553,0.536984920501709,71.85985565185547,23.55,0
-0.3124730288982391,-0.9335158467292786,0.1087478548288345,-0.1040499955415725,0.5370537638664246,71.85990905761719,23.55,0
-0.3124826848506927,-0.9349431991577148,0.1089725345373153,-0.371292233467102,0.5370979309082031,71.85993957519531,23.55,0
-0.3124888837337494,-0.9302614331245422,0.109116718173027,-0.4209853410720825,0.5371262431144714,71.8599624633789,23.55,0
-0.3124928772449493,-0.93285471200943,0.1092092469334602,-0.2164255380630493,0.5371444225311279,71.85997772216797,23.55,0
-0.3124954402446747,-0.9345189332962036,0.1036708578467369,0.0223264452069997,0.5357789397239685,71.8599853515625,23.55,0
-0.312497079372406,-0.9355869293212892,0.1057144105434417,0.2042043209075927,0.5349026918411255,71.85999298095703,23.55,0
-0.3124981224536896,-0.9362723231315612,0.1070258468389511,0.3782442808151245,0.5343403220176697,71.85999298095703,23.55,0
-0.3124988079071045,-0.9367121458053588,0.1078674495220184,0.4684376716613769,0.5339794158935547,71.85999298095703,23.55,0
-0.3124992251396179,-0.9313966035842896,0.1084075421094894,0.3758504092693329,0.5337478518486023,71.85999298095703,23.55,0
-0.3124994933605194,-0.9335831999778748,0.1031563654541969,0.2519468963146209,0.5335992574691772,71.85999298095703,23.55,0
-0.3124996721744537,-0.9293886423110962,0.0997864603996276,0.2225888073444366,0.5335038900375366,71.85999298095703,23.55,0
-0.3124997913837433,-0.9322946071624756,0.0976238548755645,0.1786704361438751,0.5334426760673523,71.85999298095703,23.55,0
-0.3124998807907104,-0.9341594576835632,0.1018337905406951,0.1003300994634628,0.5334033966064453,72.34005737304688,23.57,0
-0.3124999105930328,-0.9353562593460084,0.1045354828238487,0.0822989642620086,0.5333781838417053,72.64813995361328,23.57,0
-0.3124999403953552,-0.9305264949798584,0.1062692776322364,-0.0009238984202966,0.5333619713783264,72.8458480834961,23.57,0
-0.3124999701976776,-0.9330248236656188,0.1073819249868393,-0.2155474573373794,0.5333516001701355,72.97272491455078,23.57,0
-0.3124999701976776,-0.9346280694007874,0.108095958828926,-0.2852115631103515,0.5333449244499207,73.05414581298828,23.57,0
-0.3124999701976776,-0.9356569647789,0.1085541844367981,-0.0791376829147338,0.5333406329154968,73.10639953613281,23.57,0
-0.3124999701976776,-0.9307194948196412,0.108848251402378,0.0960995927453041,0.5333378911018372,73.13993072509766,23.57,0
-0.3124999701976776,-0.9331486821174622,0.1090369597077369,0.0580886118113994,0.5333361625671387,73.16145324707031,23.57,0
-0.3124999701976776,-0.9347075819969176,0.1091580688953399,-0.0092955557629466,0.5319578647613525,73.17526245117188,23.57,0
-0.3124999701976776,-0.935707986354828,0.1092357859015464,0.0871816053986549,0.5310733914375305,73.18412017822266,23.57,0
-0.3124999701976776,-0.9363499879837036,0.1092856600880622,0.2744852602481842,0.5305057764053345,73.18981170654297,23.57,0
-0.3124999701976776,-0.9367619752883912,0.1093176677823066,0.3516950607299804,0.5301414728164673,73.1934585571289,23.57,0
-0.3124999701976776,-0.9370263814926147,0.1093382090330123,0.2507756650447845,0.5299077033996582,73.19580078125,23.57,0
-0.3124999701976776,-0.9315983057022096,0.1093513891100883,0.1573508083820343,0.5297576785087585,73.19730377197266,23.57,0
-0.3124999701976776,-0.9281148314476012,0.1093598455190658,0.2048733830451965,0.5296614170074463,73.1982650756836,23.57,0
-0.3124999701976776,-0.9258793592453004,0.109365276992321,0.2317880690097808,0.529599666595459,73.19888305664062,23.57,0
-0.3124999701976776,-0.9244447946548462,0.1093687638640403,0.1272527873516082,0.5313960909843445,73.19927978515625,23.57,0
-0.3124999701976776,-0.9291219115257264,0.1093709990382194,0.024342305958271,0.5325489640235901,73.19953918457031,23.57,0
-0.3124999701976776,-0.9265256524086,0.109372429549694,-0.0381171442568302,0.5332887768745422,73.19969940185547,23.57,0
-0.3124999701976776,-0.9248595237731934,0.109373353421688,-0.1283560842275619,0.5337635278701782,73.1998062133789,23.57,0
-0.3124999701976776,-0.9237902760505676,0.1093739420175552,-0.2077616900205612,0.53406822681427,73.19987487792969,23.57,0
-0.3124999701976776,-0.928701877593994,0.1093743219971656,-0.2730499505996704,0.5342637896537781,73.19992065429688,23.57,0
-0.3124999701976776,-0.9318538904190063,0.1093745678663253,-0.411677747964859,0.5343892574310303,73.199951171875,23.57,0
-0.3124999701976776,-0.9282788634300232,0.1093747243285179,-0.565127432346344,0.5344697833061218,73.19996643066406,23.57,0
-0.3124999701976776,-0.9315823912620544,0.1093748211860656,-0.6062813997268677,0.5317671298980713,73.1999740600586,23.57,0
-0.3124999701976776,-0.9337024092674256,0.109374888241291,-0.4929711818695068,0.530032753944397,73.19998168945312,23.57,0
-0.3124999701976776,-0.9350629448890686,0.1149727031588554,-0.1981355100870132,0.5289197564125061,73.19998931884766,23.57,0
-0.3124999701976776,-0.9359360337257384,0.1129672825336456,0.1845321059226989,0.5282054543495178,73.19998931884766,23.57,0
-0.3124999701976776,-0.9364963173866272,0.1116803213953971,0.4121932685375213,0.5277470946311951,73.19998931884766,23.57,0
-0.3124999701976776,-0.9312581419944764,0.1108544245362281,0.3719991743564605,0.5274529457092285,73.19998931884766,23.57,0
-0.3069021999835968,-0.9334943294525146,0.1103244125843048,0.0918420553207397,0.5272641777992249,73.19998931884766,23.57,0
-0.3033098876476288,-0.934929370880127,0.109984278678894,-0.3351443707942962,0.5271430015563965,73.19998931884766,23.57,0
-0.3010045289993286,-0.9302525520324708,0.1097659990191459,-0.6055771112442017,0.5289013385772705,73.57616424560547,23.57,0
-0.2995250821113586,-0.9328489899635316,0.1096259206533432,-0.4817714989185333,0.5300297141075134,73.81757354736328,23.57,0
-0.2985756695270538,-0.9345152378082277,0.1095360293984413,-0.2088610976934433,0.5307538509368896,73.97249603271484,23.57,0
-0.3035641610622406,-0.935584545135498,0.1094783395528793,-0.0982092693448066,0.5312185883522034,74.07191467285156,23.57,0
-0.3011677265167236,-0.9362707734107972,0.1094413176178932,-0.0486947521567344,0.5315167903900146,74.13571166992188,23.57,0
-0.3052276074886322,-0.9367111325263976,0.1094175577163696,0.0977232381701469,0.5317081809043884,74.1766586303711,23.57,0
-0.3078329861164093,-0.9369937777519226,0.1094023138284683,0.2776677012443542,0.5318310260772705,74.20293426513672,23.57,0
-0.3095049858093261,-0.937175154685974,0.1093925312161445,0.4325540065765381,0.5319098234176636,74.21979522705078,23.57,0
-0.3105779588222503,-0.9372915625572203,0.1093862503767013,0.5355337262153625,0.5310425162315369,74.2306137084961,23.57,0
-0.311266541481018,-0.9317684769630432,0.1093822196125984,0.5228034853935242,0.5304859280586243,74.23755645751953,23.57,0
-0.3117084503173828,-0.9338218569755554,0.1093796342611312,0.4680604934692383,0.5301287770271301,74.24201202392578,23.57,0
-0.3119920194149017,-0.929541826248169,0.1037802025675773,0.486668199300766,0.529899537563324,74.244873046875,23.57,0
-0.3121740221977234,-0.9323928952217102,0.1001868098974227,0.4806966781616211,0.5297524333000183,74.24671173095703,23.57,0
-0.3122908174991607,-0.9342225790023804,0.1034785509109497,0.3228137493133545,0.5296580791473389,74.24788665771484,23.57,0
-0.3067679703235626,-0.9353967308998108,0.1055909991264343,0.0781905576586723,0.5295975208282471,74.24864196777344,23.57,0
-0.3088214993476867,-0.9305524826049804,0.1069466471672058,-0.1038725599646568,0.5295586585998535,74.24913024902344,23.57,0
-0.3101393580436706,-0.933041512966156,0.1078166216611862,-0.1347283720970153,0.5276972651481628,74.24944305419922,23.57,0
-0.3109850883483886,-0.9346387982368468,0.1083749234676361,-0.0076442509889602,0.5265027284622192,74.24964141845703,23.57,0
-0.311527818441391,-0.9356638193130492,0.1087332069873809,0.2028837352991104,0.5257361531257629,74.24977111816406,23.57,0
-0.311876118183136,-0.9363216161727904,0.108963131904602,0.3523187935352325,0.5252441763877869,74.2498550415039,23.57,0
-0.3120996356010437,-0.9367437958717346,0.1091106832027435,0.3049145936965942,0.5249285101890564,74.24990844726562,23.57,0
-0.3122430741786957,-0.9370146989822388,0.1092053800821304,0.0595387630164623,0.5247259140014648,74.24993896484375,23.57,0
-0.3123351335525512,-0.9371885657310486,0.1092661470174789,-0.1982414573431015,0.5245959162712097,74.24996185302734,23.57,0
-0.3123942017555237,-0.937300145626068,0.1093051433563232,-0.3170964419841766,0.5245124697685242,74.2499771118164,23.57,0
-0.3124321103096008,-0.9373717308044434,0.1093301698565483,-0.3324669599533081,0.5258360505104065,74.24998474121094,23.57,0
-0.3124564290046692,-0.9374176859855652,0.1093462333083152,-0.2921748161315918,0.5266854763031006,74.24999237060547,23.57,0
-0.3124720454216003,-0.937447190284729,0.1093565374612808,-0.2018312811851501,0.5272305607795715,74.24999237060547,23.57,0
-0.3124820590019226,-0.9374660849571228,0.1093631535768508,-0.1295236945152282,0.5275803804397583,74.24999237060547,23.57,0
-0.3124884963035583,-0.937478244304657,0.1093674004077911,-0.1117814555764198,0.5278048515319824,74.24999237060547,23.57,0
-0.3124926090240478,-0.9374860525131226,0.109370119869709,-0.0789000540971756,0.5279489159584045,74.24999237060547,23.57,0
-0.3124952614307403,-0.9318932890892028,0.1093718707561492,-0.0685463920235633,0.5280413627624512,74.24999237060547,23.57,0
-0.3124969601631164,-0.928304135799408,0.1093729883432388,-0.2052050232887268,0.5281007289886475,74.24999237060547,23.57,0
-0.3124980628490448,-0.9315986037254332,0.1093737110495567,-0.389634221792221,0.5263023972511292,74.47569274902344,23.57,0
-0.3124987483024597,-0.9337128400802612,0.1093741729855537,-0.3431917726993561,0.525148332118988,74.62053680419922,23.57,0
-0.3124991953372955,-0.9350696206092834,0.1093744710087776,-0.1378414928913116,0.524407684803009,74.71349334716797,23.57,0
-0.3124994933605194,-0.9359403252601624,0.1037768870592117,-0.1923534274101257,0.5239323973655701,74.77314758300781,23.57,0
-0.3124996721744537,-0.930901288986206,0.1057824566960334,-0.6106716394424438,0.5236274003982544,74.8114242553711,23.57,0
-0.3124997913837433,-0.9276675581932068,0.1070695146918296,-0.961523413658142,0.523431658744812,74.83599090576172,23.57,0
-0.3180976510047912,-0.9311901330947876,0.1078954711556434,-0.8929086923599243,0.5233060121536255,74.85175323486328,23.57,0
-0.321690022945404,-0.9334506988525392,0.1084255203604698,-0.5085310339927673,0.5232254266738892,74.86186981201172,23.57,0
-0.3183976411819458,-0.9293036460876464,0.1087656766176223,-0.0397398918867111,0.524091899394989,74.86836242675781,23.57,0
-0.3162847757339477,-0.9266422986984252,0.1089839711785316,0.4259017407894134,0.5246479511260986,74.87252807617188,23.57,0
-0.3205266296863556,-0.9249343872070312,0.1035262867808342,0.7820449471473694,0.5250048041343689,74.87520599365234,23.57,0
-0.3176510334014892,-0.9294360876083374,0.1000238582491874,0.8959547281265259,0.525233805179596,74.87692260742188,23.57,0
-0.3214034140110016,-0.9323250651359558,0.0977762043476104,0.757683515548706,0.5253807902336121,74.87802124023438,23.57,0
-0.3238114714622497,-0.9285812377929688,0.101931557059288,0.532811164855957,0.5254750847816467,74.87873077392578,23.57,0
-0.3197590410709381,-0.9317764639854432,0.1045982241630554,0.3598404228687286,0.5255355834960938,74.87918090820312,23.57,0
-0.3227562010288238,-0.933826982975006,0.1063095405697822,0.2488377541303634,0.5255744457244873,74.87947082519531,23.57,0
-0.3190818428993225,-0.9295451045036316,0.1074077636003494,0.177602618932724,0.5251404047012329,74.8796615600586,23.57,0
-0.3167238533496856,-0.9323949813842772,0.1081125438213348,0.1569660454988479,0.5248618721961975,74.8797836303711,23.57,0
-0.3208084106445312,-0.9342238903045654,0.1085648313164711,0.1723832935094833,0.5246831178665161,74.8798599243164,23.57,0
-0.3178318738937378,-0.9353975653648376,0.103257305920124,0.2109377980232238,0.5245684385299683,74.8799057006836,23.57,0
-0.3159216940402984,-0.9361507892608644,0.1054490134119987,0.2320972830057144,0.5244948267936707,74.87993621826172,23.57,0
-0.3146958351135254,-0.9310363531112672,0.1068555265665054,0.1776072829961776,0.5244476199150085,74.87995910644531,23.57,0
-0.3139091730117798,-0.9277542233467102,0.1021603718400001,0.0351614728569984,0.5244172811508179,74.87997436523438,23.57,0
-0.3134043216705322,-0.931245744228363,0.0991472899913787,-0.1279035657644271,0.5243978500366211,74.8799819946289,23.57,0
-0.3130803406238556,-0.9334864020347596,0.1028114408254623,-0.203888714313507,0.5239260792732239,74.87998962402344,23.57,0
-0.312872439622879,-0.934924304485321,0.105162888765335,-0.1308440417051315,0.5236233472824097,74.87998962402344,23.57,0
-0.3183367848396301,-0.9358470439910888,0.1066719070076942,-0.0015689335996285,0.5234290361404419,74.87998962402344,23.57,0
-0.3218434751033783,-0.9364392161369324,0.1076403111219406,0.0097408751025795,0.5233043432235718,74.87998962402344,23.57,0
-0.3240938782691955,-0.9368192553520204,0.1082617789506912,-0.1083912923932075,0.5232243537902832,74.87998962402344,23.57,0
-0.3255380690097809,-0.9314653873443604,0.1086606010794639,-0.1734539866447448,0.5231729745864868,74.87998962402344,23.57,0
-0.3264648616313934,-0.9336273074150084,0.1089165434241294,-0.122060514986515,0.523140013217926,74.87998962402344,23.57,0
-0.3270596265792846,-0.9294169545173644,0.1090807914733886,-0.0496708042919635,0.5231188535690308,74.87998962402344,23.57,0
-0.3274413049221039,-0.932312786579132,0.1091861948370933,0.0254453439265489,0.5217281579971313,75.14152526855469,23.57,0
-0.3220884799957275,-0.9285733699798584,0.1092538386583328,0.1775452494621276,0.5208356976509094,75.30935668945312,23.57,0
-0.3186533451080322,-0.9317713975906372,0.1036994680762291,0.3754663467407226,0.5202629566192627,75.41706085205078,23.57,0
-0.3164488673210144,-0.9338237047195436,0.1057327687740325,0.4594897925853729,0.5198953747749329,75.4861831665039,23.57,0
-0.3206319212913513,-0.9351407885551452,0.1070376262068748,0.3486127257347107,0.5196595191955566,75.5305404663086,23.57,0
-0.323316365480423,-0.9303882122039796,0.1078750044107437,0.1054945886135101,0.5195081233978271,75.55900573730469,23.57,0
-0.3250390887260437,-0.9273383021354676,0.108412392437458,-0.1974102556705474,0.5194109678268433,75.57727813720703,23.57,0
-0.3205468654632568,-0.9253810048103333,0.1087572574615478,-0.5171872973442078,0.5193486213684082,75.58900451660156,23.57,0
-0.3232617974281311,-0.9241249561309814,0.1089785695075988,-0.7044888734817505,0.5193086266517639,75.59652709960938,23.57,0
-0.3250040709972381,-0.9233188629150392,0.1091205924749374,-0.6348117589950562,0.5192829370498657,75.60135650634766,23.57,0
-0.3261221647262573,-0.9228016138076782,0.1092117354273796,-0.432463675737381,0.5192664861679077,75.60445404052734,23.57,0
-0.3268396854400635,-0.9280674457550048,0.1092702224850654,-0.2918605804443359,0.5192559361457825,75.60643768310547,23.57,0
-0.3273001611232757,-0.9258489608764648,0.1093077585101127,-0.2123773545026779,0.5192491412162781,75.60771179199219,23.57,0
-0.3275956511497497,-0.92442524433136,0.1093318462371826,-0.1183786839246749,0.5192447900772095,75.60852813720703,23.57,0
-0.3277852833271026,-0.9291093945503236,0.1093473061919212,0.0207609143108129,0.519241988658905,75.60905456542969,23.57,0
-0.327906996011734,-0.9265176057815552,0.1093572303652763,0.1817042082548141,0.5192402005195618,75.60939025878906,23.57,0
-0.3279851078987121,-0.924854338169098,0.1093635931611061,0.2419974505901336,0.5201572775840759,75.60961151123047,23.57,0
-0.3280352354049682,-0.9237869381904602,0.1093676760792732,0.1624651849269867,0.5207458138465881,75.60974884033203,23.57,0
-0.3280673921108246,-0.9231019616127014,0.1093702986836433,0.1042608022689819,0.521123468875885,75.6098403930664,23.57,0
-0.3280880451202392,-0.9226623773574828,0.1093719825148582,0.1493078172206878,0.5213658213615417,75.60990142822266,23.57,0
-0.3281012773513794,-0.922380268573761,0.1149708405137062,0.1961292773485183,0.5215213894844055,75.60993957519531,23.57,0
-0.3281097710132599,-0.9277970194816588,0.1129660904407501,0.2118462920188903,0.5216211676597595,75.6099624633789,23.57,0
-0.3281152248382568,-0.9312731623649596,0.1116795539855957,0.2470106035470962,0.5216852426528931,75.60997772216797,23.57,0
-0.3225209414958954,-0.9279062151908876,0.1164517030119896,0.2874899208545685,0.5217263698577881,75.6099853515625,23.57,0
-0.3189308643341064,-0.9257454872131348,0.1139164194464683,0.2883891761302948,0.5194573998451233,75.60999298095703,23.57,0
-0.3166269659996032,-0.9299566149711608,0.1122894212603569,0.2495579421520233,0.5180013179779053,75.60999298095703,23.57,0
-0.3151484429836273,-0.9270613193511964,0.1112453043460846,0.2568814754486084,0.5170668959617615,75.60999298095703,23.57,0
-0.3141996264457702,-0.925203263759613,0.1105752512812614,0.3798062801361084,0.5164672136306763,75.60999298095703,23.57,0
-0.3135907351970672,-0.9240108728408812,0.1101452484726905,0.4443620443344116,0.5160823464393616,75.60999298095703,23.57,0
-0.3131999671459198,-0.9232456684112548,0.1098693013191223,0.2780008316040039,0.5158354043960571,75.60999298095703,23.57,0
-0.3129492104053497,-0.9227546453475952,0.1096922159194946,0.0745102539658546,0.5156769156455994,75.60999298095703,23.57,0
-0.3127882778644562,-0.9280372858047484,0.1151763424277305,0.0263209398835897,0.5155752301216125,75.60999298095703,23.57,0
-0.3126850128173828,-0.9258295893669128,0.1130979657173156,-0.0153519185259938,0.5173463821411133,75.8643569946289,23.59,0
-0.3126187324523926,-0.9244128465652466,0.1173619627952575,-0.12807697057724,0.5184829831123352,76.02759552001953,23.59,0
-0.3125762045383453,-0.9235036373138428,0.1145005747675895,-0.1645916700363159,0.5192124247550964,76.13235473632812,23.59,0
-0.318146675825119,-0.9229201674461364,0.1126642972230911,-0.1844421178102493,0.5196805000305176,76.19957733154297,23.59,0
-0.3161237239837646,-0.9225457310676576,0.11708365380764,-0.4085529744625091,0.5199809074401855,76.24272155761719,23.59,0
-0.320423275232315,-0.922305464744568,0.1143219694495201,-0.7279205918312073,0.5201736688613892,76.2704086303711,23.59,0
-0.3175846934318542,-0.922151267528534,0.1181474551558494,-0.8182299733161926,0.5202974081039429,76.28817749023438,23.59,0
-0.3157630562782287,-0.922052264213562,0.1206024289131164,-0.6576482057571411,0.5203768014907837,76.29957580566406,23.59,0
-0.3201918303966522,-0.927586555480957,0.1221778914332389,-0.4829445481300354,0.5172141790390015,76.30689239501953,23.59,0
-0.3230339586734772,-0.925540328025818,0.1231889352202415,-0.360082060098648,0.5151845812797546,76.31158447265625,23.59,0
-0.3248578608036041,-0.9242271780967712,0.123837761580944,-0.1486807018518448,0.5138821005821228,76.3145980834961,23.59,0
-0.3204305768013,-0.9289822578430176,0.1242541447281837,0.1947738975286483,0.5130462646484375,76.31653594970703,23.59,0
-0.3231871724128723,-0.9320337772369384,0.1245213523507118,0.4760870933532715,0.5125098824501038,76.31777954101562,23.59,0
-0.3193584084510803,-0.9283943176269532,0.1246928349137306,0.5204798579216003,0.5121656656265259,76.31857299804688,23.59,0
-0.3169013261795044,-0.9260587096214294,0.1248028799891471,0.3268488645553589,0.5119447112083435,76.31908416748047,23.59,0
-0.3153245151042938,-0.9245598912239076,0.1248734965920448,0.0306240059435367,0.5118029713630676,76.31941223144531,23.59,0
-0.314312607049942,-0.9235979914665222,0.1249188184738159,-0.1917192339897155,0.513089120388031,76.31962585449219,23.59,0
-0.3136632144451141,-0.9229807257652284,0.1249479055404663,-0.2484245151281356,0.5139145255088806,76.31976318359375,23.59,0
-0.313246488571167,-0.922584593296051,0.1249665692448616,-0.1701722741127014,0.5144442319869995,76.3198471069336,23.59,0
-0.3129790425300598,-0.922330379486084,0.1249785497784614,-0.0124772246927022,0.5147841572761536,76.31990051269531,23.59,0
-0.3128074109554291,-0.9221672415733336,0.1249862313270568,0.128130704164505,0.5150023102760315,76.31993865966797,23.59,0
-0.3126972913742065,-0.9220625162124634,0.124991163611412,0.1538784205913543,0.5151422619819641,76.31996154785156,23.59,0
-0.3182243704795837,-0.9219953417778016,0.1249943301081657,0.1417412161827087,0.5152320861816406,76.31997680664062,23.59,0
-0.3217713534832001,-0.9219522476196288,0.1249963641166687,0.2306817919015884,0.5152897238731384,76.31998443603516,23.59,0
-0.3240475952625274,-0.9219245910644532,0.1249976679682731,0.3307496607303619,0.514408528804779,76.31999206542969,23.59,0
-0.3255083560943603,-0.92190682888031,0.1249985024333,0.2444992810487747,0.5138429999351501,76.31999206542969,23.59,0
-0.3208480179309845,-0.921895444393158,0.124999038875103,-0.0150580666959285,0.5134800672531128,76.31999206542969,23.59,0
-0.3178572654724121,-0.9218881130218506,0.1249993816018104,-0.2389482408761978,0.5132471919059753,76.31999206542969,23.59,0
-0.3159379959106445,-0.9218834042549132,0.1249996051192283,-0.2393250465393066,0.5130977630615234,76.31999206542969,23.59,0
-0.3147062957286834,-0.9218803644180298,0.1249997466802597,-0.0210297387093305,0.5130018591880798,76.31999206542969,23.59,0
-0.3083181083202362,-0.921878457069397,0.1249998360872268,0.208624005317688,0.5129402875900269,76.31999206542969,23.59,0
-0.2370452284812927,-0.860301673412323,0.1249998956918716,0.2556904554367065,0.5129007697105408,76.31999206542969,23.59,0
-0.2528819143772125,-0.9607295989990234,0.0914132893085479,0.1748351454734802,0.5133346915245056,76.56360626220703,23.59,0
-0.3526093959808349,-1.0475696325302124,0.0362726897001266,0.0978688299655914,0.5136131644248962,76.7199478149414,23.59,0
-0.1199266985058784,-0.9297674894332886,0.1352332085371017,0.030563399195671,0.5137918591499329,76.82028198242188,23.59,0
-0.1441353410482406,-0.8821577429771423,0.2435225695371627,-0.0663679838180542,0.5139065384864807,76.8846664428711,23.59,0
-0.1316821873188018,-0.9075822830200196,0.2850275933742523,-0.1679812967777252,0.5139801502227783,76.92598724365234,23.59,0
0.5536402463912964,-0.5712385177612305,0.4236186146736145,-0.2582688927650451,0.5140273571014404,76.95249938964844,23.59,0
0.5232276916503906,-0.5625101327896118,-0.1535767912864685,-0.3126277029514313,0.5140576958656311,76.96952056884766,23.59,0
0.1118664368987083,-0.7472330331802368,-0.1993166804313659,-0.2543650865554809,0.5140771269798279,76.98043823242188,23.59,0
0.0326050147414207,-0.8153976202011108,-0.1111166477203369,-0.1417414098978042,0.5003170967102051,76.9874496459961,23.59,0
-0.3373335599899292,-0.8647394776344299,-0.149677112698555,-0.1124569326639175,0.4914867281913757,76.991943359375,23.59,0
-0.2724590003490448,-0.8852087259292603,-0.0568697415292263,-0.1223244443535804,0.4858199059963226,76.99482727050781,23.59,0
-0.1972396075725555,-0.9151380062103271,0.0250797923654317,-0.1286568492650985,0.4821832776069641,76.9966812133789,23.59,0
-0.1489681303501129,-0.8951604962348938,0.0832680612802505,-0.3548403084278106,0.4798494875431061,76.99787139892578,23.59,0
-0.1179902702569961,-0.9047311544418336,0.1262077093124389,-0.8869100213050842,0.4783518016338348,76.9986343383789,23.59,0
-0.1876748502254486,-0.9220685958862304,0.1145794913172721,-1.4182381629943848,0.4773906767368316,76.9991226196289,23.59,0
-0.2323943972587585,-0.9275969862937928,0.1071171686053276,-1.7520488500595093,0.4767738580703735,76.99943542480469,23.59,0
-0.2610928416252136,-0.9367426037788392,0.1135238260030746,-2.0379209518432617,0.4800508916378021,76.99964141845703,23.59,0
-0.26271653175354,-0.9258183836936952,0.1288308054208755,-2.2930285930633545,0.4821538925170898,76.99977111816406,23.59,0
-0.2917473912239074,-0.8516345620155334,0.1162628382444381,-2.3528473377227783,0.4835034906864166,76.9998550415039,23.59,0
-0.2488021999597549,-0.949569821357727,0.1137952208518982,-2.3088364601135254,0.4843695759773254,76.99990844726562,23.59,0
-0.2548291087150574,-0.9676368236541748,0.1234071925282478,-2.509877443313598,0.4849253892898559,76.99993896484375,23.59,0
-0.2363057136535644,-0.9680356383323668,0.1127822771668434,-3.061638116836548,0.4852820634841919,76.99996185302734,23.59,0
-0.2803962230682373,-0.9570960402488708,0.1003660485148429,-3.734575510025024,0.4855109751224518,76.9999771118164,23.59,0
-0.3030931949615478,-0.9780644774436952,0.0923980250954628,-4.445868968963623,0.4856578707695007,76.99998474121094,23.59,0
-0.2672788202762604,-0.9299452900886536,0.1096757054328918,-5.457635402679443,0.4834567904472351,76.99999237060547,23.59,0
-0.2275018990039825,-0.943847358226776,0.1375568509101867,-7.124380111694336,0.4820442497730255,76.99999237060547,23.59,0
-0.2299642413854599,-0.9751600027084352,0.1554493606090545,-9.487311363220217,0.4811377823352813,76.99999237060547,23.59,0
-0.2259466499090194,-0.9840590953826904,0.1837250739336013,-12.017572402954102,0.4805560410022735,76.99999237060547,23.59,0
-0.2401617169380188,-0.9225967526435852,0.1962730139493942,-14.14291000366211,0.4801827371120453,76.99999237060547,23.59,0
