acc_x,acc_y,acc_z,bvp,eda,hr,temp,label
0.0,0.0,0.0,0.0,0.0,0.0,30.03,0
-0.0260416641831398,-0.1406249850988388,0.0911458283662796,-40.08666610717773,0.2390386462211609,13.374999046325684,30.03,0
-0.0609756112098693,-0.3208841383457184,0.217606708407402,-90.72244262695312,0.5597002506256104,31.317073822021484,30.03,0
-0.086378738284111,-0.4677118062973022,0.3276059031486511,-134.20233154296875,0.838620662689209,46.923587799072266,30.03,0
-0.1102498918771743,-0.5694922804832458,0.3971798419952392,-162.11390686035156,1.042108178138733,58.309383392333984,30.03,0
-0.1319013833999633,-0.6438916921615601,0.4387946128845215,-167.59698486328125,1.179877758026123,66.0180435180664,30.03,0
-0.107236348092556,-0.7204737663269043,0.4827591180801391,-149.7642364501953,1.2702744007110596,71.07603454589844,30.03,0
-0.1024206802248954,-0.7700722217559814,0.494494765996933,-110.0771484375,1.328819990158081,74.35185241699219,30.03,0
-0.1552202999591827,-0.7796614766120911,0.4852840304374695,-48.10147857666016,0.9997725486755372,76.4620361328125,30.03,0
-0.1667782813310623,-0.7914195656776428,0.4849585592746734,31.520227432250977,0.7882797718048096,77.81834411621094,30.03,0
-0.1797967702150344,-0.8045665621757507,0.4847495555877685,113.88965606689452,0.6524688601493835,78.68930053710938,30.03,0
-0.1937507390975952,-0.8130057454109192,0.4790181517601013,184.4060821533203,0.5652902126312256,79.24838256835938,30.03,0
-0.2027065604925155,-0.8240196704864502,0.469742089509964,243.8329315185547,0.509337842464447,79.60720825195312,30.03,0
-0.2028564661741256,-0.831088125705719,0.4693866670131683,305.594482421875,0.473429262638092,79.83748626708984,30.03,0
-0.2029526680707931,-0.8356243371963501,0.4691585898399353,374.6107482910156,0.4503847658634186,79.98526763916016,30.03,0
-0.2030144035816192,-0.8385354280471802,0.4746099710464477,436.3846435546875,0.4355960190296173,80.08010864257812,30.03,0
-0.2086517959833145,-0.8404035568237305,0.4725106060504913,472.2230224609375,0.7010660171508789,80.14097595214844,30.03,0
-0.2178673297166824,-0.8192113637924194,0.4711633324623108,478.15826416015625,0.8714295625686646,80.1800308227539,30.03,0
-0.218183547258377,-0.8280025124549866,0.4702987372875213,464.2763977050781,0.9807591438293456,80.2051010131836,30.03,0
-0.2127887159585952,-0.8336441516876221,0.4753416776657104,443.0724182128906,1.0509206056594849,80.22118377685547,30.03,0
-0.2037288397550583,-0.831666886806488,0.4785779416561126,422.2388916015625,1.095946192741394,80.23150634765625,30.03,0
-0.1979147344827652,-0.8415935039520264,0.4694592356681824,402.5386962890625,1.1248409748077393,80.23812866210938,30.03,0
-0.2053791284561157,-0.8367683291435242,0.4692051410675049,379.0697021484375,1.1433839797973633,80.24237823486328,30.03,0
-0.2213649004697799,-0.8336718082427979,0.463444322347641,345.98114013671875,1.155283808708191,80.24510955810547,30.03,0
-0.2204280942678451,-0.8372824192047119,0.4653451144695282,301.68218994140625,1.118874192237854,80.24686431884766,30.03,0
-0.2086313515901565,-0.8451972603797913,0.4665649533271789,251.5396728515625,1.0955085754394531,80.24798583984375,30.03,0
-0.2122564315795898,-0.8278854489326477,0.484141081571579,208.11181640625,1.080513834953308,80.24871063232422,30.03,0
-0.2257783561944961,-0.8447645902633667,0.4842248857021332,183.2875061035156,1.07089102268219,80.24917602539062,30.03,0
-0.2288581728935241,-0.8108144402503967,0.4898764491081238,177.25892639160156,1.0647157430648804,80.24947357177734,30.03,0
-0.2364323884248733,-0.817016065120697,0.4879055023193359,179.12225341796875,1.0607527494430542,80.24966430664062,30.03,0
-0.2300975322723388,-0.8265936970710754,0.4866406619548797,178.98171997070312,1.0582095384597778,80.24978637695312,30.03,0
-0.2260321974754333,-0.8271422982215881,0.4858289659023285,175.7675323486328,1.056577444076538,80.24986267089844,30.03,0
-0.2290210723876953,-0.8274943828582764,0.4797103106975555,170.59518432617188,1.0380851030349731,79.12498474121094,30.07,0
-0.2253413796424865,-0.8277202844619751,0.4701859354972839,162.27101135253906,1.0262178182601929,78.4030990600586,30.07,0
-0.2229799628257751,-0.822267472743988,0.4696714878082275,147.3169708251953,1.0186020135879517,77.93983459472656,30.07,0
-0.2214645445346832,-0.8243659734725952,0.4637435972690582,125.83692932128906,1.0137146711349487,77.64253997802734,30.07,0
-0.2260898202657699,-0.8257126808166504,0.4543416202068329,101.20065307617188,1.0105782747268677,77.45175170898438,30.07,0
-0.2234602719545364,-0.8265768885612488,0.448307991027832,75.49543762207031,1.0085654258728027,77.32931518554688,30.07,0
-0.2217727750539779,-0.8271315097808838,0.4500337243080139,47.41684722900391,1.00727379322052,77.25074768066406,30.07,0
-0.2206898480653762,-0.8274874091148376,0.4455434083938598,12.663409233093262,1.006444811820984,77.20032501220703,30.07,0
-0.2199948877096176,-0.8277158141136169,0.4370640218257904,-27.330102920532227,1.0031585693359375,77.16796875,30.07,0
-0.2307444512844085,-0.8222646117210388,0.4204269051551819,-69.32501983642578,1.0010496377944946,77.14720153808594,30.07,0
-0.2488384395837783,-0.8243641257286072,0.3985545933246612,-113.29217529296876,0.9996962547302246,77.13387298583984,30.07,0
-0.2604501247406006,-0.8313092589378357,0.3677248954772949,-169.3192901611328,0.9988277554512024,77.12532043457031,30.07,0
-0.2399129718542099,-0.8245707154273987,0.3311468362808227,-245.5639190673828,0.9982703924179076,77.11983489990234,30.07,0
-0.2099400758743286,-0.8146485090255737,0.2964775860309601,-340.1568298339844,0.9979127049446106,77.1163101196289,30.07,0
-0.190705195069313,-0.8026832342147827,0.2518377602100372,-442.0750732421875,0.9976831674575806,77.11405181884766,30.07,0
-0.1839591413736343,-0.800602376461029,0.217592716217041,-501.0460205078125,0.9975358843803406,77.11260223388672,30.07,0
-0.1964232325553894,-0.82725590467453,0.1844206750392913,-493.52044677734375,0.9896370768547058,77.1116714477539,30.07,0
-0.2436063885688781,-0.8723494410514832,0.1519372165203094,-443.8765258789063,0.9845680594444276,77.11107635498047,30.07,0
-0.2850813567638397,-0.9124834537506104,0.1198956593871116,-378.2557373046875,0.9813150763511658,77.11068725585938,30.07,0
-0.3228931725025177,-0.9606302380561828,0.0825399085879325,-312.7892761230469,0.9792274832725524,77.11044311523438,30.07,0
-0.3415608406066894,-0.99152809381485,0.0585671365261077,-254.8951110839844,0.9778878092765808,77.11028289794922,30.07,0
-0.3367473483085632,-1.0169543027877808,0.059976115822792,-207.62835693359372,0.9770280718803406,77.11018371582031,30.07,0
-0.3168649971485138,-1.0388691425323486,0.0776736363768577,-168.09164428710938,0.9764763116836548,77.11011505126953,30.07,0
-0.2985078692436218,-1.052932858467102,0.0890308916568756,-128.69346618652344,0.976122260093689,77.11007690429688,30.07,0
-0.2699339985847473,-1.061958074569702,0.1019170954823494,-88.00132751464844,0.9680907726287842,77.11004638671875,30.07,0
-0.2459991723299026,-1.0677499771118164,0.1045889481902122,-52.468868255615234,0.9629365801811218,77.11003112792969,30.07,0
-0.230639174580574,-1.0546735525131226,0.1007058098912239,-26.04777717590332,0.9596289396286012,77.11002349853516,30.07,0
-0.231977567076683,-1.0462819337844849,0.0982138365507125,-9.303614616394045,0.95750629901886,77.11001586914062,30.07,0
-0.2384342402219772,-1.0352988243103027,0.0910168588161468,1.6675270795822144,0.9561440944671632,77.1100082397461,30.07,0
-0.2481755316257476,-1.0226527452468872,0.0863982513546943,10.872050285339355,0.9552699327468872,77.1100082397461,30.07,0
-0.2544269263744354,-1.0033416748046875,0.0834342986345291,20.42962646484375,0.9547089338302612,77.1100082397461,30.07,0
-0.2472431659698486,-0.974155604839325,0.0647388771176338,32.134033203125,0.954348921775818,77.1100082397461,30.07,0
-0.2370352745056152,-0.9666212201118468,0.0471434593200683,47.06476211547852,0.9577903747558594,76.89147186279297,30.05,0
-0.2248866558074951,-0.9617860913276672,0.0358517318964004,60.75924301147461,0.959998905658722,76.751220703125,30.05,0
-0.2170903831720352,-0.95868319272995,0.0286053530871868,61.78771209716797,0.9614161849021912,76.66121673583984,30.05,0
-0.2120871841907501,-0.9566919207572936,0.0239550434052944,47.891719818115234,0.9623257517814636,76.60346221923828,30.05,0
-0.2032786458730697,-0.9442185163497924,0.02656851708889,32.163597106933594,0.962909460067749,76.56639862060547,30.05,0
-0.2032236009836197,-0.9194204807281494,0.0338434688746929,26.792028427124023,0.9632840156555176,76.54261016845703,30.05,0
-0.203188270330429,-0.8923109769821167,0.0441098883748054,29.990541458129883,0.9635244011878968,76.52734375,30.05,0
-0.208763375878334,-0.8805114030838013,0.0506982840597629,34.79100036621094,0.9636786580085754,76.51754760742188,30.05,0
-0.2067433893680572,-0.8841346502304077,0.0605241134762764,39.10406494140625,0.9651548266410828,76.51126098632812,30.05,0
-0.2054470777511596,-0.8920576572418213,0.0780253112316131,41.8325309753418,0.966102123260498,76.5072250366211,30.05,0
-0.2214085012674331,-0.8971421718597412,0.0836587995290756,39.653419494628906,0.9667100310325624,76.504638671875,30.05,0
-0.2372493892908096,-0.9004051089286804,0.0816762745380401,32.092960357666016,0.9671001434326172,76.50297546386719,30.05,0
-0.2418173849582672,-0.9080968499183656,0.0804040059447288,24.94108009338379,0.9673505425453186,76.50190734863281,30.05,0
-0.2391510903835296,-0.9130329489707948,0.0739897638559341,24.7329044342041,0.9675112366676332,76.501220703125,30.05,0
-0.2374400198459625,-0.9217984676361084,0.0586779192090034,32.9431266784668,0.9676143527030944,76.50078582763672,30.05,0
-0.2363419532775879,-0.9330214262008668,0.0488516613841056,47.59832382202149,0.9676805138587952,76.50050354003906,30.05,0
-0.2412350475788116,-0.9402236938476562,0.0369479581713676,67.06664276123047,0.9622140526771544,76.50032043457031,30.05,0
-0.2499729394912719,-0.9896278977394104,0.0125155244022607,90.75225067138672,0.9587059617042542,76.50020599365234,30.05,0
-0.261178195476532,-1.049321532249451,-0.0031638049986213,117.50253295898438,0.9564546942710876,76.50012969970703,30.05,0
-0.2907601594924927,-1.098824977874756,-0.0020303479395806,142.8483428955078,0.955009937286377,76.50008392333984,30.05,0
-0.2985486090183258,-1.0578224658966064,-0.0069007347337901,158.72332763671875,0.9540827870368958,76.50005340576172,30.05,0
-0.2923512458801269,-1.0035204887390137,-0.0156240426003932,159.05531311035156,0.9534878134727478,76.50003051757812,30.05,0
-0.2659830451011657,-0.985465943813324,-0.0212221592664718,144.7947540283203,0.9531059861183168,76.5000228881836,30.05,0
-0.2602570056915283,-0.9962706565856934,-0.0248147081583738,121.14447021484376,0.952860951423645,76.50001525878906,30.05,0
-0.2621801197528839,-1.0144000053405762,-0.0327179729938507,92.49301147460938,0.9563765525817872,76.50000762939453,30.05,0
-0.2914031445980072,-1.0316321849822998,-0.0489853844046592,61.66387176513672,0.9586326479911804,76.50000762939453,30.05,0
-0.3045590221881866,-1.031495213508606,-0.0650226473808288,29.859960556030277,0.9600805044174194,76.50000762939453,30.05,0
-0.296208381652832,-0.9978207349777222,-0.0697166621685028,-4.99848747253418,0.961009681224823,76.50000762939453,30.05,0
-0.285251647233963,-0.9594170451164246,-0.0671312361955642,-47.35940170288086,0.961605966091156,76.50000762939453,30.05,0
-0.2782202661037445,-0.9515650868415833,-0.0710698366165161,-98.80181884765624,0.961988627910614,76.50000762939453,30.05,0
-0.30169677734375,-0.9521239399909972,-0.0791951790452003,-153.96566772460938,0.9622341990470886,76.50000762939453,30.05,0
-0.3167626559734344,-0.94688481092453,-0.0844095572829246,-203.9513092041016,0.9623917937278748,76.50000762939453,30.05,0
-0.3096377551555633,-0.937924861907959,-0.0877558439970016,-242.36322021484372,0.9680018424987792,76.38536071777344,30.07,0
-0.2938698530197143,-0.926577091217041,-0.0843055248260498,-265.4302673339844,0.9716020226478576,76.3117904663086,30.07,0
-0.2949464619159698,-0.9136970043182372,-0.0708957538008689,-270.2487487792969,0.9739124178886414,76.26457214355469,30.07,0
-0.3012351393699646,-0.9054312705993652,-0.056692361831665,-257.6707763671875,0.9753950834274292,76.2342758178711,30.07,0
-0.3052708506584167,-0.9001268148422241,-0.0475774444639682,-233.69232177734372,0.9763466119766236,76.21482849121094,30.07,0
-0.3022629618644714,-0.9135160446166992,-0.0417280122637748,-205.3389892578125,0.9769572019577026,76.20235443115234,30.07,0
-0.2947348952293396,-0.927706241607666,-0.0379741862416267,-177.4633331298828,0.977349042892456,76.19434356689453,30.07,0
-0.278708279132843,-0.9312149286270142,-0.0243696477264165,-152.33753967285156,0.9776005148887634,76.18920135498047,30.07,0
-0.2628255486488342,-0.9446621537208556,-0.0212368108332157,-129.76461791992188,0.9782208204269408,76.18590545654297,30.07,0
-0.2526329159736633,-0.9476940035820008,-0.019226336851716,-109.53215789794922,0.9786189198493958,76.18379211425781,30.07,0
-0.2516896426677704,-0.966433048248291,-0.0011428081197664,-93.0479507446289,0.9788743853569032,76.18243408203125,30.07,0
-0.2566820979118347,-0.9560675621032716,0.016059935092926,-79.91496276855469,0.9790382981300354,76.18156433105469,30.07,0
-0.2542881965637207,-0.9102311730384828,0.0326974391937255,-66.23849487304688,0.979143500328064,76.1810073852539,30.07,0
-0.2471541464328766,-0.9144026637077332,0.0321788825094699,-49.6015510559082,0.9792110323905944,76.18064880371094,30.07,0
-0.2425759136676788,-0.928275227546692,0.0318461023271083,-31.756187438964844,0.9792543649673462,76.180419921875,30.07,0
-0.2396378815174102,-0.9707645177841188,0.0428280942142009,-14.604180335998535,0.9792821407318116,76.18026733398438,30.07,0
-0.2377524077892303,-0.9868361353874208,0.0498757027089595,1.8377567529678345,0.9806771278381348,76.18016815185547,30.07,0
-0.2309446483850479,-0.9579655528068542,0.054398451000452,16.641761779785156,0.9815723896026612,76.18010711669922,30.07,0
-0.2321735918521881,-0.9394380450248718,0.0517031177878379,27.67546272277832,0.9821469187736512,76.18006896972656,30.07,0
-0.2385600358247757,-0.9331459403038024,0.0499734096229076,34.107810974121094,0.9825155735015868,76.18004608154297,30.07,0
-0.2426584959030151,-0.9291080236434937,0.0544611550867557,36.43010330200195,0.9827521443367004,76.1800308227539,30.07,0
-0.2452886402606964,-0.9265167117118835,0.0517433583736419,35.7708740234375,0.982904016971588,76.18002319335938,30.07,0
-0.2357809692621231,-0.9248538017272948,0.0444014593958854,34.02584457397461,0.983001470565796,76.18001556396484,30.07,0
-0.2352772653102874,-0.9237866401672364,0.0452876240015029,30.831676483154297,0.9830639958381652,76.18000793457031,30.07,0
-0.2349540293216705,-0.9119062423706056,0.0514540895819664,21.54145622253418,0.9886130690574646,76.18000793457031,30.07,0
-0.2347465902566909,-0.8930865526199341,0.0498135946691036,3.660299301147461,0.9921740889549256,76.18000793457031,30.07,0
-0.2346134632825851,-0.8922047019004822,0.0487608201801776,-16.810644149780273,0.9944593906402588,76.18000793457031,30.07,0
-0.2457235753536224,-0.9028342962265016,0.0592807605862617,-30.52809333801269,0.9959259629249572,76.18000793457031,30.07,0
-0.2584511935710907,-0.9208513498306274,0.0604340769350528,-33.706520080566406,0.9968671202659608,76.18000793457031,30.07,0
-0.2554234862327575,-0.9436091780662536,0.0555764362215995,-29.67378616333008,0.9974710941314696,76.18000793457031,30.07,0
-0.2534804940223694,-0.9973982572555542,0.0300679840147495,-26.114933013916016,0.997858703136444,76.18000793457031,30.07,0
-0.2578313648700714,-1.0655035972595217,0.0136981271207332,-31.684070587158203,0.9981074333190918,76.18000793457031,30.07,0
-0.3054056763648987,-1.1260030269622805,0.019986217841506,-48.99361801147461,0.9996441602706908,76.08686065673828,30.07,0
-0.3471316993236542,-1.052872657775879,0.024021552875638,-68.46720123291016,1.0006303787231443,76.02708435058594,30.07,0
-0.3459201753139496,-0.994746208190918,0.0042201019823551,-75.35033416748047,1.0012632608413696,75.98871612548828,30.07,0
-0.3115560412406921,-1.024617314338684,-0.0196828786283731,-65.20077514648438,1.0016694068908691,75.96409606933594,30.07,0
-0.2839053571224212,-1.0661779642105105,-0.0238268878310918,-46.82188415527344,1.0019299983978271,75.94829559326172,30.07,0
-0.271758496761322,-1.076055884361267,-0.032084047794342,-29.811140060424805,1.002097249031067,75.93815612792969,30.07,0
-0.2583655714988708,-1.043210506439209,-0.048578567802906,-16.304420471191406,1.002204656600952,75.93164825439453,30.07,0
-0.2497707605361938,-0.9941433668136596,-0.0535660274326801,-3.853386163711548,1.0022735595703125,75.92747497558594,30.07,0
-0.2666462063789367,-0.968252658843994,-0.0511689148843288,11.599474906921388,1.004613161087036,75.92479705810547,30.07,0
-0.277475893497467,-0.9572352766990662,-0.0496305860579013,34.187801361083984,1.0061146020889282,75.92308044433594,30.07,0
-0.2788279950618744,-0.9445672035217284,-0.0598389245569705,62.863525390625,1.0070780515670776,75.9219741821289,30.07,0
-0.2796956896781921,-0.925242006778717,-0.0551945008337497,89.24793243408203,1.0076963901519775,75.9212646484375,30.07,0
-0.274654746055603,-0.9072424173355104,-0.0522139780223369,105.34518432617188,1.008093237876892,75.92081451416016,30.07,0
-0.2658219933509826,-0.8956913352012634,-0.0503012500703334,111.47311401367188,1.0083478689193726,75.92052459716797,30.07,0
-0.2601536512374878,-0.8882784843444824,-0.0490737706422805,112.84412384033205,1.008511304855347,75.92033386230469,30.07,0
-0.2733093500137329,-0.8779236078262329,-0.0314927212893962,110.66444396972656,1.0086162090301514,75.92021179199219,30.07,0
-0.2873497009277344,-0.8936695456504822,-0.0258079897612333,102.58055877685548,1.0105198621749878,75.92013549804688,30.07,0
-0.2963599860668182,-0.9093721508979796,-0.022159855812788,90.82951354980467,1.0117415189743042,75.92008972167969,30.07,0
-0.2909467220306396,-0.930644690990448,-0.0086231455206871,81.95206451416016,1.0125255584716797,75.92005920410156,30.07,0
-0.2762772440910339,-0.938698410987854,6.393597141141072e-05,77.02528381347656,1.0130287408828735,75.92003631591797,30.07,0
-0.2556676864624023,-0.9662579298019408,4.103042738279328e-05,69.48564910888672,1.013351559638977,75.9200210571289,30.07,0
-0.2648327350616455,-1.0007374286651611,0.016819654032588,54.168113708496094,1.0135587453842163,75.92001342773438,30.07,0
-0.2819098830223083,-0.966886579990387,0.0387827567756176,32.89187240600586,1.013691782951355,75.92000579833984,30.07,0
-0.2704779207706451,-0.917174220085144,0.0528774112462997,11.456652641296388,1.0137771368026731,75.92000579833984,30.07,0
-0.2631415426731109,-0.9020649790763856,0.061922550201416,-3.4241669178009038,1.009241223335266,75.92000579833984,30.07,0
-0.2584334909915924,-0.9371509552001952,0.0565316528081893,-6.091692924499512,1.0063303709030151,75.92000579833984,30.07,0
-0.249814361333847,-0.965264856815338,0.0642676353454589,3.062394380569458,1.0044622421264648,75.92000579833984,30.07,0
-0.2386853247880935,-0.9553179144859314,0.074829913675785,15.794010162353516,1.0032634735107422,75.92000579833984,30.07,0
-0.2315433472394943,-0.9097501039505004,0.0816081762313842,23.910690307617188,1.0024940967559814,75.92000579833984,30.07,0
-0.2325578033924102,-0.8917028307914734,0.0803603008389473,27.758129119873047,1.0020004510879517,75.92000579833984,30.07,0
-0.2444043755531311,-0.8969144821166992,0.0739617124199867,33.18998336791992,1.0016835927963257,75.92000579833984,30.07,0
-0.2576045989990234,-0.8946612477302551,0.0698554664850235,42.20016860961914,1.001480221748352,75.92000579833984,30.07,0
-0.2548801898956299,-0.8876174688339233,0.0728180930018425,51.85514831542969,1.0041040182113647,75.83760833740234,30.05,0
-0.2419362813234329,-0.8886949419975281,0.0635237842798233,61.20024490356445,1.0057878494262695,75.78472900390625,30.05,0
-0.2448251694440841,-0.900581955909729,0.0575592331588268,71.75083923339844,1.0068683624267578,75.75079345703125,30.05,0
-0.2578746378421783,-0.8914170265197754,0.0593293011188507,80.49202728271484,1.0075618028640747,75.72901153564453,30.05,0
-0.2774446010589599,-0.8911332488059998,0.0604652278125286,78.43490600585938,1.0080068111419678,75.71503448486328,30.05,0
-0.2900034487247467,-0.9077444672584534,0.0611942000687122,58.026798248291016,1.0082924365997314,75.70606994628906,30.05,0
-0.2924652397632599,-0.9687845706939696,0.056064236909151,22.69300079345703,1.008475661277771,75.7003173828125,30.05,0
-0.2940450608730316,-1.007956624031067,0.0527721233665943,-12.019648551940918,1.0085933208465576,75.69662475585938,30.05,0
-0.2726678252220154,-1.0610837936401367,0.0338661111891269,-33.14980697631836,1.0118823051452637,75.69425201416016,30.05,0
-0.2869380116462707,-1.1511555910110474,0.021733321249485,-44.2773551940918,1.0139930248260498,75.6927261352539,30.05,0
-0.3240846693515777,-1.1809695959091189,0.0307405181229114,-56.154541015625,1.015347599983215,75.6917495727539,30.05,0
-0.3423254787921905,-1.0993425846099854,0.0197274945676326,-70.69100952148438,1.0162168741226196,75.69112396240234,30.05,0
-0.3316402733325958,-1.0469590425491333,-0.0041333539411425,-83.35505676269531,1.0167747735977173,75.69071960449219,30.05,0
-0.3079898059368133,-1.0525267124176023,-0.013848097063601,-89.35047912597656,1.0171327590942385,75.69046020507812,30.05,0
-0.2928122878074646,-1.056099772453308,-0.014484685845673,-82.24964141845703,1.0173624753952026,75.69029998779297,30.05,0
-0.2774744629859924,-1.0360015630722046,-0.0260887611657381,-62.18017959594727,1.017509937286377,75.69019317626953,30.05,0
-0.2676315307617187,-0.983919322490692,-0.0335355885326862,-43.95196914672852,1.0203591585159302,75.69012451171875,30.05,0
-0.2669126689434051,-0.9504958987236024,-0.0271189846098423,-40.3471908569336,1.02218759059906,75.69007873535156,30.05,0
-0.2720491290092468,-0.9346444606781006,-0.0341967269778251,-44.00600814819336,1.0233609676361084,75.69004821777344,30.05,0
-0.2753454148769378,-0.924471914768219,-0.044336587190628,-40.808197021484375,1.024114012718201,75.69003295898438,30.05,0
-0.2718630135059356,-0.9179437756538392,-0.0508437678217887,-29.63837242126465,1.0245972871780396,75.69002532958984,30.05,0
-0.2696281969547272,-0.9025588631629944,-0.0550197027623653,-16.12906265258789,1.024907469749451,75.69001770019531,30.05,0
-0.2625962495803833,-0.8926857113838196,-0.0576995760202407,-0.670584499835968,1.025106430053711,75.69001007080078,30.05,0
-0.2636813223361969,-0.8695563673973083,-0.0538215897977352,16.873497009277344,1.0252342224121094,75.69001007080078,30.05,0
-0.2811709940433502,-0.8603110313415527,-0.0401373729109764,32.2271614074707,1.0294476747512815,75.69001007080078,30.05,0
-0.2979926168918609,-0.8599756956100464,-0.036953404545784,41.23835754394531,1.0321515798568726,75.69001007080078,30.05,0
-0.2975922226905823,-0.8933471441268921,-0.0349101163446903,40.852027893066406,1.0338867902755735,75.69001007080078,30.05,0
-0.2861397266387939,-0.920360803604126,-0.0280010774731636,30.193138122558597,1.0350003242492676,75.69001007080078,30.05,0
-0.2675946354866028,-0.9209032654762268,-0.0123717049136757,18.448331832885746,1.0357149839401243,75.69001007080078,30.05,0
-0.2444978952407837,-0.977229118347168,-0.0135372225195169,21.150192260742188,1.0361735820770264,75.69001007080078,30.05,0
-0.2520668506622314,-1.0189735889434814,-0.0142851844429969,39.886993408203125,1.0364679098129272,75.69001007080078,30.05,0
-0.2737174928188324,-0.9729917645454408,0.0076259141787886,55.9774169921875,1.0366567373275757,75.69001007080078,30.05,0
-0.2820138335227966,-0.9546787738800048,0.0328827463090419,51.99093627929688,1.0271376371383667,75.64701843261719,30.07,0
-0.2705446481704712,-0.9653176665306092,0.0490911267697811,32.2506103515625,1.021028757095337,75.61942291259766,30.07,0
-0.2463910430669784,-0.9945362210273744,0.0538949556648731,15.81711769104004,1.01710844039917,75.60171508789062,30.07,0
-0.2252928763628006,-0.996493637561798,0.0513800047338008,13.650691986083984,1.0145926475524902,75.5903549194336,30.07,0
-0.2061555236577987,-0.930576503276825,0.0665593743324279,20.142070770263672,1.0129780769348145,75.58306121826172,30.07,0
-0.2050698101520538,-0.882676899433136,0.0763006210327148,26.453826904296875,1.0119420289993286,75.57838439941406,30.07,0
-0.2211663872003555,-0.8799266219139099,0.0713564455509185,31.89438819885254,1.0112770795822144,75.57537841796875,30.07,0
-0.2426917999982834,-0.8949549198150635,0.0625857859849929,37.78973388671875,1.010850429534912,75.57344818115234,30.07,0
-0.2565055787563324,-0.8990014791488647,0.0569572784006595,41.35807418823242,1.0165444612503052,75.57221221923828,30.07,0
-0.2541749179363251,-0.8960005640983582,0.0533452257513999,42.72014236450195,1.0201985836029053,75.57141876220703,30.07,0
-0.2526792287826538,-0.8940747380256653,0.0510272197425365,47.84317398071289,1.0225435495376587,75.57090759277344,30.07,0
-0.2741104662418365,-0.8760455250740051,0.0551374293863773,57.85892105102539,1.0240484476089478,75.5705795288086,30.07,0
-0.2766682505607605,-0.8868665099143982,0.0521773509681224,64.81666564941406,1.0250141620635986,75.57037353515625,30.07,0
-0.27830970287323,-0.9106041193008424,0.0502777434885501,61.61503982543945,1.0256339311599731,75.57023620605469,30.07,0
-0.2905586361885071,-0.9650219678878784,0.0490586832165718,46.5879135131836,1.0260316133499146,75.57015228271484,30.07,0
-0.2928215265274048,-0.9943464398384094,0.0426785871386528,19.651275634765625,1.0262868404388428,75.57009887695312,30.07,0
-0.2830781638622284,-1.0859363079071045,0.0161931123584508,-13.20856475830078,1.032877802848816,75.57006072998047,30.07,0
-0.3216076195240021,-1.1447134017944336,0.0215873569250106,-37.21233367919922,1.0371074676513672,75.57003784179688,30.07,0
-0.3575291633605957,-1.1264554262161257,0.0250490717589855,-44.67400360107422,1.0398218631744385,75.57002258300781,30.07,0
-0.3525926768779754,-1.1147384643554688,-0.0175115950405597,-45.58612823486328,1.0415637493133545,75.57001495361328,30.07,0
-0.3270336091518402,-1.1184147596359253,-0.0504223555326461,-52.35858154296875,1.0426815748214722,75.57000732421875,30.07,0
-0.2938379645347595,-1.1151762008666992,-0.0603470392525196,-65.14888000488281,1.0433989763259888,75.57000732421875,30.07,0
-0.2557415962219238,-1.079511284828186,-0.0667161270976066,-75.83251953125,1.043859362602234,75.57000732421875,30.07,0
-0.2312935292720794,-1.0174391269683838,-0.0708034411072731,-75.14018249511719,1.0441547632217407,75.57000732421875,30.07,0
-0.2435930371284485,-0.9552136659622192,-0.0566331222653389,-59.29438400268555,1.0475579500198364,75.57000732421875,30.07,0
-0.257083922624588,-0.9264765381813048,-0.0531372018158435,-37.68629837036133,1.0497418642044067,75.57000732421875,30.07,0
-0.2489482760429382,-0.9248279929161072,-0.078882597386837,-25.60001373291016,1.0511434078216553,75.57000732421875,30.07,0
-0.243727296590805,-0.9013789892196656,-0.0898067280650138,-26.441913604736328,1.052042841911316,75.57000732421875,30.07,0
-0.2403767704963684,-0.8863307237625122,-0.0800238847732544,-30.238758087158203,1.0526200532913208,75.57000732421875,30.07,0
-0.2438243627548217,-0.8710758686065674,-0.0681480467319488,-26.835756301879883,1.052990436553955,75.57000732421875,30.07,0
-0.2460368275642395,-0.8556883931159973,-0.0661245882511138,-12.9476318359375,1.0532281398773191,75.57000732421875,30.07,0
-0.2754455506801605,-0.8458135724067688,-0.0536305047571659,7.78746747970581,1.0533807277679443,75.57000732421875,30.07,0
-0.3055139183998108,-0.8506720662117004,-0.0400147438049316,26.70437431335449,1.0507240295410156,75.50910186767578,30.09,0
-0.3192122876644134,-0.8649855256080627,-0.0312769338488578,37.65473937988281,1.0490190982818604,75.47001647949219,30.09,0
-0.3112097978591919,-0.8965621590614319,-0.0200717356055974,41.74434280395508,1.0479248762130735,75.44493103027344,30.09,0
-0.2948786914348602,-0.9168262481689452,-0.0016853350680321,39.10601043701172,1.0472227334976196,75.4288330078125,30.09,0
-0.2732027769088745,-0.9354283213615416,0.015711773186922,25.90564727783203,1.0467721223831177,75.41850280761719,30.09,0
-0.276085764169693,-0.986550509929657,0.0212784595787525,8.194952964782715,1.0464829206466677,75.41187286376953,30.09,0
-0.2947292029857635,-0.9969666600227356,0.0360463894903659,2.9447052478790283,1.046297311782837,75.40762329101562,30.09,0
-0.2954979538917541,-0.953271210193634,0.062316920608282,13.826884269714355,1.0461782217025757,75.40489196777344,30.09,0
-0.284795731306076,-0.9308277368545532,0.0679802820086479,22.30437469482422,1.0415111780166626,75.40313720703125,30.09,0
-0.2723298966884613,-0.9388158917427064,0.0548213794827461,14.263507843017578,1.0385160446166992,75.40201568603516,30.09,0
-0.2643300294876098,-0.9831266403198242,0.0463767535984516,0.3869366943836212,1.036594033241272,75.40129089355469,30.09,0
-0.2591961920261383,-1.0003671646118164,0.0465552546083927,-0.6043393015861511,1.03536057472229,75.40082550048828,30.09,0
-0.2503038048744201,-0.9610512256622314,0.0578653551638126,13.745430946350098,1.0345690250396729,75.40052795410156,30.09,0
-0.2445971965789795,-0.9246249198913574,0.0595257505774498,32.59499740600586,1.034061074256897,75.40033721923828,30.09,0
-0.2465327978134155,-0.923639714717865,0.054993525147438,48.481929779052734,1.0337350368499756,75.40021514892578,30.09,0
-0.2589704990386963,-0.9230074882507324,0.0520850010216236,58.906532287597656,1.033525824546814,75.40013885498047,30.09,0
-0.2613545358181,-0.9170039892196656,0.0446207039058208,60.863861083984375,1.03752338886261,75.40009307861328,30.09,0
-0.2516889274120331,-0.9019557237625122,0.0398305468261241,56.43799591064453,1.040088772773743,75.40006256103516,30.09,0
-0.2510838508605957,-0.897896409034729,0.0423542745411396,54.75131988525391,1.041735053062439,75.40003967285156,30.09,0
-0.2562933266162872,-0.8840958476066589,0.0551694072782993,59.35803985595703,1.0427916049957275,75.4000244140625,30.09,0
-0.2708320319652557,-0.8696416616439819,0.0521978735923767,63.041629791259766,1.0434695482254028,75.40001678466797,30.09,0
-0.2801621258258819,-0.8715613484382629,0.0502909123897552,57.28384780883789,1.0439046621322632,75.40000915527344,30.09,0
-0.2805518507957458,-0.9007821679115297,0.0546649098396301,38.69248580932617,1.0441838502883911,75.40000915527344,30.09,0
-0.2808019816875458,-0.9307299256324768,0.0518741160631179,12.621190071105955,1.044363021850586,75.40000915527344,30.09,0
-0.2697669267654419,-0.9835353493690492,0.0332898199558258,-6.4958600997924805,1.0435597896575928,75.40000915527344,30.09,0
-0.2682830393314361,-1.0734004974365234,0.0101679414510726,-12.161395072937012,1.0430443286895752,75.40000915527344,30.09,0
-0.2785263359546661,-1.1478641033172607,-0.0046703494153916,-18.81373786926269,1.0427135229110718,75.40000915527344,30.09,0
-0.3186865448951721,-1.145270586013794,-0.0029971613548696,-41.1103515625,1.0425012111663818,75.40000915527344,30.09,0
-0.3388612568378448,-1.0988240242004397,-0.0075211799703538,-71.01398468017578,1.0423650741577148,75.40000915527344,30.09,0
-0.3070260286331177,-1.035430669784546,-0.0272177588194608,-88.88602447509766,1.042277693748474,75.40000915527344,30.09,0
-0.2642049193382263,-1.039530634880066,-0.0398578867316246,-83.8825912475586,1.0422215461730957,75.40000915527344,30.09,0
-0.2367248088121414,-1.0421618223190308,-0.0423718206584453,-59.98588180541992,1.0421855449676514,75.40000915527344,30.09,0
-0.2190896421670913,-1.0326547622680664,-0.0495828948915004,-35.812137603759766,1.0421624183654783,75.34626770019531,30.05,0
-0.2133701890707016,-1.0153582096099854,-0.0598083212971687,-31.65916633605957,1.0421476364135742,75.31178283691406,30.05,0
-0.226493090391159,-0.9706715941429138,-0.0719681829214096,-46.13665390014648,1.0421380996704102,75.2896499633789,30.05,0
-0.2405123859643936,-0.9363965392112732,-0.0797716826200485,-57.89586639404297,1.042132019996643,75.27544403076172,30.05,0
-0.2495091706514358,-0.925596296787262,-0.0903772935271263,-53.21133804321289,1.042128086090088,75.26632690429688,30.05,0
-0.2440872341394424,-0.91866534948349,-0.0971833691000938,-36.0180778503418,1.042125582695007,75.2604751586914,30.05,0
-0.2350099831819534,-0.914217472076416,-0.1015511155128479,-14.390756607055664,1.0421239137649536,75.25672149658203,30.05,0
-0.2459780424833297,-0.9113630652427672,-0.0931585356593132,5.851066112518311,1.0421228408813477,75.25431060791016,30.05,0
-0.2586144804954529,-0.9039335250854492,-0.0821748822927475,19.407150268554688,1.04028582572937,75.25276947021484,30.05,0
-0.2667238116264343,-0.8991656303405762,-0.0751262083649635,26.369115829467773,1.039106845855713,75.25177764892578,30.05,0
-0.2607323825359344,-0.8961058855056763,-0.0594072267413139,32.36308288574219,1.038350224494934,75.25114440917969,30.05,0
-0.2680829763412475,-0.8997400999069214,-0.0437219142913818,38.07976913452149,1.0378646850585938,75.250732421875,30.05,0
-0.2839957177639007,-0.8964745402336121,-0.0280582085251808,40.08967590332031,1.0375531911849976,75.25047302246094,30.05,0
-0.2942076027393341,-0.8999766707420349,-0.023603918030858,42.8483772277832,1.037353277206421,75.25030517578125,30.05,0
-0.2951632142066955,-0.9078218936920166,-0.0151476357132196,53.80805969238281,1.0372248888015747,75.25019836425781,30.05,0
-0.2957764863967895,-0.980029821395874,-0.0209164302796125,66.48748779296875,1.0371425151824951,75.25012969970703,30.05,0
-0.3017678260803222,-1.0375642776489258,-0.0246185101568698,64.89772033691406,1.032039999961853,75.25008392333984,30.05,0
-0.3224060237407684,-1.007313251495361,0.0009945791680365,46.412445068359375,1.0287655591964722,75.25005340576172,30.05,0
-0.3300526738166809,-0.959911048412323,0.034224908798933,26.95818328857422,1.026664137840271,75.25003051757812,30.05,0
-0.3293620645999908,-0.9294910430908204,0.0611479952931404,21.11565399169922,1.0253156423568726,75.2500228881836,30.05,0
-0.3065277934074402,-0.9155669808387756,0.0672301352024078,26.852914810180664,1.024450182914734,75.25001525878906,30.05,0
-0.2750807404518127,-0.9234246611595154,0.0543399788439273,32.66280746459961,1.0238947868347168,75.25000762939453,30.05,0
-0.2269109487533569,-0.9620538949966432,0.0460678189992904,31.6909236907959,1.02353835105896,75.25000762939453,30.05,0
-0.20159612596035,-1.003637194633484,0.0519547723233699,24.593509674072266,1.0233097076416016,75.25000762939453,30.05,0
-0.2077416330575943,-1.013529658317566,0.0669282302260398,15.521170616149902,1.0199493169784546,75.25000762939453,30.05,0
-0.222881019115448,-0.9750959277153016,0.0765373334288597,10.361842155456545,1.017792820930481,75.25000762939453,30.05,0
-0.232596606016159,-0.9448335766792296,0.07710612565279,13.19499969482422,1.016408920288086,75.25000762939453,30.05,0
-0.2276359498500824,-0.9310107231140136,0.0718733742833137,21.712574005126957,1.0155208110809326,75.25000762939453,30.05,0
-0.2020613998174667,-0.9221400022506714,0.0629175156354904,30.123538970947266,1.0149508714675903,75.25000762939453,30.05,0
-0.1856491267681121,-0.9108495116233826,0.0627679377794265,35.43523025512695,1.0145851373672483,75.25000762939453,30.05,0
-0.2031055390834808,-0.909201681613922,0.0626719444990158,36.14270782470703,1.014350414276123,75.25000762939453,30.05,0
-0.2311013787984848,-0.9193397760391236,0.0570125691592693,27.60445976257324,1.0141997337341309,75.25000762939453,30.05,0
-0.2434697300195694,-0.9258458018302916,0.0533807091414928,6.494326114654541,1.0196120738983154,75.24642181396484,30.07,0
-0.240211471915245,-0.9188254475593568,0.0566477626562118,-19.57046127319336,1.023085355758667,75.2441177368164,30.07,0
-0.2325227409601211,-0.914320170879364,0.0587443709373474,-35.24406433105469,1.0253143310546875,75.24264526367188,30.07,0
-0.2275885492563247,-0.9114289879798888,0.0600898526608943,-34.36845779418945,1.026744723320007,75.24169921875,30.07,0
-0.2300198525190353,-0.9151713252067566,0.055355530232191,-26.92441749572754,1.0276626348495483,75.2410888671875,30.07,0
-0.2483734339475631,-0.9231707453727722,0.0523173175752162,-25.328588485717773,1.0282517671585083,75.2406997680664,30.07,0
-0.2657494843006134,-0.9339020848274232,0.0447697900235652,-31.67025184631348,1.0286297798156738,75.24044799804688,30.07,0
-0.2713026702404022,-0.9407888650894164,0.0399262234568595,-41.16398620605469,1.0288723707199097,75.24028778076172,30.07,0
-0.2692686021327972,-0.9620016813278198,0.0256223510950803,-48.07334518432617,1.0285688638687134,75.24018096923828,30.07,0
-0.2623654901981354,-1.00360369682312,0.0108451750129461,-47.03678131103516,1.0283740758895874,75.2401123046875,30.07,0
-0.2691310048103332,-1.0750837326049805,-0.0154312895610928,-39.5360221862793,1.0282490253448486,75.24007415771484,30.07,0
-0.279070496559143,-1.0481843948364258,-0.0322940126061439,-37.61001968383789,1.028168797492981,75.24004364013672,30.07,0
-0.2742535471916199,-1.0141286849975586,-0.0431155376136302,-49.41101837158203,1.028117299079895,75.24002838134766,30.07,0
-0.2711623013019562,-1.02586030960083,-0.0556579418480396,-65.02351379394531,1.0280842781066897,75.24002075195312,30.07,0
-0.2747763097286224,-1.0501823425292969,-0.0693047121167182,-68.75530242919922,1.0280630588531494,75.2400131225586,30.07,0
-0.2659000158309936,-1.0545952320098877,-0.072464644908905,-59.779052734375,1.0280494689941406,75.24000549316406,30.07,0
-0.2322148382663726,-1.0350360870361328,-0.0744925066828727,-48.50860977172852,1.0312542915344238,75.24000549316406,30.07,0
-0.2105976343154907,-1.0112886428833008,-0.0701960995793342,-38.56029510498047,1.0333110094070437,75.24000549316406,30.07,0
-0.2023227363824844,-0.996048867702484,-0.0730366855859756,-24.71353530883789,1.0346308946609497,75.24000549316406,30.07,0
-0.2026101499795913,-0.9750732779502868,-0.0748596116900444,-4.5459513664245605,1.035477876663208,75.24000549316406,30.07,0
-0.2083923667669296,-0.9560145735740662,-0.0704316869378089,16.80474853515625,1.0360214710235596,75.24000549316406,30.07,0
-0.2065052986145019,-0.9437838196754456,-0.0731878727674484,30.13022804260254,1.0363702774047852,75.24000549316406,30.07,0
-0.2164898365736007,-0.9303370714187622,-0.0749566331505775,28.148983001708984,1.0365941524505615,75.24000549316406,30.07,0
-0.2340928763151168,-0.9329032301902772,-0.0816894993185997,15.287900924682615,1.0367377996444702,75.24000549316406,30.07,0
-0.2397917211055755,-0.917756736278534,-0.0804124921560287,10.004353523254396,1.0386663675308228,75.24000549316406,30.07,0
-0.2658400237560272,-0.9024388194084167,-0.0739952027797699,26.65460586547852,1.039903998374939,75.24000549316406,30.07,0
-0.2881540954113006,-0.9094019532203674,-0.0754747316241264,55.90468978881836,1.0406982898712158,75.24000549316406,30.07,0
-0.2968761920928955,-0.9194682836532592,-0.0820219814777374,72.90950012207031,1.041208028793335,75.24000549316406,30.07,0
-0.3136690855026245,-0.9147327542304992,-0.0862236320972442,63.9424934387207,1.0415351390838623,75.24000549316406,30.07,0
-0.3244458138942718,-0.9060959815979004,-0.094517782330513,38.15422058105469,1.0417450666427612,75.24000549316406,30.07,0
-0.3313616812229156,-0.9061511754989624,-0.1054382696747779,15.829679489135742,1.0418797731399536,75.24000549316406,30.07,0
-0.3413976728916168,-0.9005888104438782,-0.112446404993534,10.713876724243164,1.041966199874878,75.24000549316406,30.07,0
-0.3478381931781769,-0.9306058287620544,-0.1281393766403198,21.055383682250977,1.037889838218689,75.25433349609375,30.09,0
-0.3519713282585144,-0.9554668068885804,-0.1382102221250534,32.69682312011719,1.0352739095687866,75.2635269165039,30.09,0
-0.3546237349510193,-0.9490300416946412,-0.1334775537252426,31.780820846557617,1.0335952043533323,75.26942443847656,30.09,0
-0.3619236946105957,-0.944899320602417,-0.1136470809578895,17.045392990112305,1.032517910003662,75.2732162475586,30.09,0
-0.3722061514854431,-0.9366506934165956,-0.1009210273623466,-0.5326545834541321,1.0318264961242676,75.27564239501953,30.09,0
-0.3955981731414795,-0.9257594347000122,-0.0647653043270111,-9.921634674072266,1.0313827991485596,75.27720642089844,30.09,0
-0.4050120413303375,-0.8907811641693115,-0.0135737722739577,-9.294097900390623,1.0310980081558228,75.27820587158203,30.09,0
-0.4054555594921112,-0.8571385741233826,0.0248757805675268,-3.1305997371673584,1.0309152603149414,75.27884674072266,30.09,0
-0.4113379418849945,-0.8635375499725342,0.0663438141345977,5.213433742523193,1.035388708114624,75.27925872802734,30.09,0
-0.4319062530994415,-0.8788396120071411,0.0985533818602562,14.075495719909668,1.038259506225586,75.27952575683594,30.09,0
-0.4451057910919189,-0.8942573666572571,0.1192236319184303,20.504249572753903,1.0401018857955933,75.27969360351562,30.09,0
-0.4199898540973663,-0.892956018447876,0.1436841636896133,23.182493209838867,1.041284203529358,75.27980041503906,30.09,0
-0.3982741236686706,-0.8977186679840088,0.1537837386131286,25.750307083129883,1.042042851448059,75.27986907958984,30.09,0
-0.384338229894638,-0.9007750749588012,0.143471747636795,31.887149810791016,1.0425297021865845,75.27991485595703,30.09,0
-0.3697971999645233,-0.902736485004425,0.1312563270330429,38.70939636230469,1.042842149734497,75.27994537353516,30.09,0
-0.3660633563995361,-0.9207885265350342,0.1234171763062477,37.41630172729492,1.0430426597595217,75.27996826171875,30.09,0
-0.3468738794326782,-0.9211777448654176,0.1127886846661567,21.26737594604492,1.040876030921936,75.27997589111328,30.09,0
-0.3345591723918915,-0.9102320075035096,0.1003701612353324,-4.848660469055176,1.0394856929779053,75.27998352050781,30.09,0
-0.3322540819644928,-0.9032076597213744,0.0924006626009941,-25.59941864013672,1.0385934114456177,75.27999114990234,30.09,0
-0.3475681245326996,-0.9210909008979796,0.0872863009572029,-31.267261505126957,1.0380207300186155,75.27999114990234,30.09,0
-0.3629935681819916,-0.9325673580169678,0.078406423330307,-27.87196159362793,1.0376533269882202,75.27999114990234,30.09,0
-0.3560994267463684,-0.9287367463111876,0.0671100541949272,-26.30208969116211,1.0374175310134888,75.27999114990234,30.09,0
-0.334881842136383,-0.9262784719467164,0.0654584690928459,-29.24263572692871,1.0372661352157593,75.27999114990234,30.09,0
-0.3212656080722809,-0.9414942264556884,0.0643985718488693,-33.46196746826172,1.0371689796447754,75.27999114990234,30.09,0
-0.3237230479717254,-0.9400632381439208,0.0525228455662727,-36.255672454833984,1.0366476774215698,75.27999114990234,30.09,0
-0.3308978676795959,-0.9391449093818665,0.0449016876518726,-35.41531753540039,1.0363131761550903,75.27999114990234,30.09,0
-0.3411000072956085,-0.9273600578308104,0.0456086434423923,-30.47662353515625,1.0360984802246094,75.27999114990234,30.09,0
-0.3532449305057525,-0.9141994714736938,0.0460623241961002,-26.794944763183597,1.0359607934951782,75.27999114990234,30.09,0
-0.3610388338565826,-0.9113515019416808,0.0463534705340862,-31.425443649291992,1.0358723402023315,75.27999114990234,30.09,0
-0.3660405278205871,-0.9095238447189332,0.0465403124690055,-43.28898239135742,1.0358155965805054,75.27999114990234,30.09,0
-0.3692503273487091,-0.908350944519043,0.0466602183878421,-52.71868515014648,1.0357792377471924,75.27999114990234,30.09,0
-0.3769079744815826,-0.9020004868507384,0.0411393903195858,-51.6587142944336,1.0357558727264404,75.27999114990234,30.09,0
-0.3874199688434601,-0.9035229086875916,0.0375964418053627,-41.4810791015625,1.0339044332504272,75.2728271484375,30.09,0
-0.3885681927204132,-0.9212932586669922,0.0297250058501958,-30.607576370239254,1.0327162742614746,75.26823425292969,30.09,0
-0.3837072849273681,-0.9215016961097716,0.0190757978707551,-25.26682472229004,1.0319538116455078,75.2652816772461,30.09,0
-0.3749900460243225,-0.9216354489326476,0.0122417490929365,-24.175275802612305,1.031464457511902,75.26338958740234,30.09,0
-0.3693958520889282,-0.9105257391929626,0.0078560495749115,-22.94097900390625,1.031150460243225,75.26217651367188,30.09,0
-0.3602080345153808,-0.8977983593940735,-0.0005562136648222,-20.75884056091309,1.0309489965438845,75.26139831542969,30.09,0
-0.3487140536308288,-0.8840329051017761,-0.0059547200798988,-21.242904663085938,1.0308196544647217,75.26089477539062,30.09,0
-0.3469356298446655,-0.8919923305511475,-0.0094191711395978,-27.76573371887207,1.0307366847991943,75.26057434082031,30.09,0
-0.3457943499088287,-0.9026980400085448,-0.0116424560546875,-37.51186752319336,1.0311427116394043,75.26036834716797,30.09,0
-0.3394641578197479,-0.9095683097839355,-0.0130692329257726,-42.90655899047852,1.0314033031463623,75.26023864746094,30.09,0
-0.3354018330574035,-0.9139772653579712,-0.0139848561957478,-40.475223541259766,1.031570553779602,75.2601547241211,30.09,0
-0.3215993046760559,-0.9280022382736206,0.0022208727896213,-31.764110565185547,1.0316778421401978,75.26010131835938,30.09,0
-0.3071438670158386,-0.9481981992721558,0.0126207768917083,-15.73777675628662,1.031746745109558,75.26006317138672,30.09,0
-0.2978671789169311,-0.961158812046051,0.0136970626190304,8.759078979492188,1.031790852546692,75.26004028320312,30.09,0
-0.2975117266178131,-0.9694761633872986,0.0143877603113651,35.48900604248047,1.031819224357605,75.26002502441406,30.09,0
-0.2972836196422577,-0.9748137593269348,0.0148310111835598,56.46175765991211,1.0318374633789062,75.26001739501953,30.09,0
-0.2915394604206085,-0.9726413488388062,0.0151154641062021,71.23567199707031,1.0318491458892822,75.260009765625,30.09,0
-0.2934509515762329,-0.9712472558021544,0.009700234979391,83.41439819335938,1.031856656074524,75.260009765625,30.09,0
-0.289079874753952,-0.9815481305122375,0.0062250522896647,92.69527435302734,1.031861424446106,75.260009765625,30.09,0
-0.2806769907474518,-0.9825608730316162,-0.0016028945101425,95.0578842163086,1.0318645238876345,75.260009765625,30.09,0
-0.2808822691440582,-0.9720152616500854,-0.0066264197230339,88.53118896484375,1.031866431236267,75.260009765625,30.09,0
-0.2810140252113342,-0.959649920463562,-0.0098502291366457,75.71947479248047,1.031867742538452,75.260009765625,30.09,0
-0.2810985743999481,-0.9573123455047609,-0.0175168588757514,59.96349334716797,1.031868577003479,75.260009765625,30.09,0
-0.2755550444126129,-0.9614099860191344,-0.022436860948801,42.30372619628906,1.0318690538406372,75.260009765625,30.09,0
-0.2663997709751129,-0.9528440237045288,-0.0255942344665527,24.86241340637207,1.032787561416626,75.260009765625,30.09,0
-0.2605244219303131,-0.9473469257354736,-0.027620455250144,12.02518081665039,1.0333770513534546,75.260009765625,30.09,0
-0.2567539811134338,-0.9438191652297974,-0.0233229920268058,4.428264141082764,1.0337553024291992,75.260009765625,30.09,0
-0.2543343305587768,-0.9359574913978576,-0.0205651279538869,-2.1451404094696045,1.0339981317520142,75.260009765625,30.09,0
-0.2527815103530884,-0.9309123158454896,-0.0187952890992164,-8.964523315429688,1.034153938293457,75.260009765625,30.09,0
-0.2573827803134918,-0.933272421360016,-0.0120617346838116,-12.398592948913574,1.03425395488739,75.260009765625,30.09,0
-0.260335624217987,-0.9347869753837584,-0.0077405269257724,-11.306411743164062,1.0343180894851685,75.260009765625,30.09,0
-0.2622305750846863,-0.9357589483261108,-0.01056519895792,-9.426844596862791,1.0343592166900637,75.260009765625,30.09,0
-0.2634466588497162,-0.941980481147766,-0.0067801363766193,-8.901336669921875,1.0362217426300049,75.25642395019531,30.07,0
-0.2642270624637604,-0.9459730982780457,-0.0043511013500392,-7.525148868560791,1.0374170541763306,75.25411987304688,30.07,0
-0.2759234309196472,-0.9429375529289246,-0.0027922864537686,-3.4391677379608154,1.0381840467453003,75.25264739990234,30.07,0
-0.2890272736549377,-0.9465872645378112,-0.0017919286619871,2.532687187194824,1.0386762619018557,75.25170135498047,30.07,0
-0.2918387949466705,-0.9433316588401794,-0.0011499567190185,9.60372829437256,1.038992166519165,75.25109100341797,30.07,0
-0.293643057346344,-0.9412423968315125,-0.0007379760500043,17.66318702697754,1.039194941520691,75.25070190429688,30.07,0
-0.3003987073898315,-0.9454994201660156,-0.0004735905386041,25.03498649597168,1.0393249988555908,75.25045013427734,30.07,0
-0.2991363108158111,-0.94263356924057,-0.0059016975574195,29.070762634277344,1.0394084453582764,75.25028991699219,30.07,0
-0.298326164484024,-0.9463921785354614,-0.0037873697001487,29.117063522338867,1.0376259088516235,75.25018310546875,30.07,0
-0.2978062629699707,-0.948804259300232,-0.0024305158294737,26.85750961303711,1.0364819765090942,75.25011444091797,30.07,0
-0.2974726259708404,-0.9503521919250488,-0.0015597651945427,24.06040954589844,1.0357478857040403,75.25007629394531,30.07,0
-0.2972585260868072,-0.9457477927207948,-0.0065987417474389,21.21211624145508,1.0352767705917358,75.25004577636719,30.07,0
-0.2971211373806,-0.9427929520606996,-0.0098324669525027,18.377540588378903,1.034974455833435,75.25003051757812,30.07,0
-0.2970329523086548,-0.9408966898918152,-0.011907685548067,15.798967361450195,1.034780502319336,75.2500228881836,30.07,0
-0.2913785874843597,-0.9396798014640808,-0.0076416670344769,12.410221099853516,1.034656047821045,75.25001525878906,30.07,0
-0.2877499461174011,-0.9388988614082336,-0.0049039819277822,6.036739349365234,1.034576177597046,75.25000762939453,30.07,0
-0.2854212820529938,-0.943995475769043,-0.0031470933463424,-2.639090776443481,1.0349838733673096,75.25000762939453,30.07,0
-0.2839268743991852,-0.9472662210464478,-0.0020196232944726,-9.059391975402832,1.035245418548584,75.25000762939453,30.07,0
-0.2829678654670715,-0.9493651986122132,-0.0012960779713466,-10.628777503967283,1.0354132652282717,75.25000762939453,30.07,0
-0.2823524177074432,-0.9507122039794922,-0.0064295227639377,-10.253045082092283,1.0355210304260254,75.25000762939453,30.07,0
-0.2875552475452423,-0.945978820323944,-0.0097238719463348,-11.269405364990234,1.0355901718139648,75.25000762939453,30.07,0
-0.2908941209316253,-0.9429412484169006,-0.0118379956111311,-13.154053688049316,1.0356345176696775,75.25000762939453,30.07,0
-0.2930368185043335,-0.9409918785095216,-0.0131947183981537,-14.574884414672852,1.0356630086898804,75.25000762939453,30.07,0
-0.2888140976428985,-0.9453386664390564,-0.0140653848648071,-16.19962501525879,1.0356812477111816,75.25000762939453,30.07,0
-0.2861042022705078,-0.942530393600464,-0.0146241290494799,-18.904603958129883,1.0356930494308472,75.25000762939453,30.07,0
-0.2899629175662994,-0.9407281875610352,-0.0093849245458841,-22.213254928588867,1.0357005596160889,75.25000762939453,30.07,0
-0.2924392223358154,-0.9451694488525392,-0.0060227042995393,-24.669734954833984,1.035705327987671,75.25000762939453,30.07,0
-0.2884306013584137,-0.948019564151764,-0.0038650250062346,-25.03166961669922,1.0357084274291992,75.25000762939453,30.07,0
-0.2858580946922302,-0.9498486518859864,-0.0024803506676107,-23.94196891784668,1.0357104539871216,75.25000762939453,30.07,0
-0.289804995059967,-0.9454246759414672,-0.0015917462296783,-23.615249633789062,1.0357117652893066,75.25000762939453,30.07,0
-0.2923378646373749,-0.9481833577156068,-0.0010214911308139,-24.845775604248047,1.0357125997543335,75.25000762939453,30.07,0
-0.2883655428886413,-0.9443559646606444,-0.0006555342115461,-26.058198928833008,1.0357130765914917,75.25000762939453,30.07,0
-0.285816341638565,-0.9418997764587402,-0.0004206841113045,-25.661178588867188,1.0320409536361694,75.24642181396484,30.07,0
-0.2897782027721405,-0.940323531627655,-0.0002699708566069,-23.72616577148437,1.02968430519104,75.2441177368164,30.07,0
-0.2867228984832763,-0.939311981201172,-0.0001732517557684,-21.273475646972656,1.0281720161437988,75.24264526367188,30.07,0
-0.2903599739074707,-0.9386628270149232,-0.0057089570909738,-18.81816673278809,1.027201533317566,75.24169921875,30.07,0
-0.2870962619781494,-0.938246250152588,-0.003663680050522,-16.0244140625,1.026578664779663,75.2410888671875,30.07,0
-0.2905995547771454,-0.9435766935348512,-0.0023511389736086,-12.812844276428224,1.026178956031799,75.2406997680664,30.07,0
-0.2872500121593475,-0.9469974637031556,-0.0015088256914168,-9.845452308654783,1.025922417640686,75.24044799804688,30.07,0
-0.2851004600524902,-0.9435949325561525,-0.0009682774543762,-7.493329048156738,1.0257577896118164,75.24028778076172,30.07,0
-0.283720999956131,-0.9414113759994508,-0.0006213847082108,-5.303182601928711,1.027029275894165,75.24018096923828,30.07,0
-0.2828357517719269,-0.9400100708007812,-0.0003987689269706,-2.9411251544952397,1.02784526348114,75.2401123046875,30.07,0
-0.2822676301002502,-0.9447085857391356,-0.0002559069544076,-0.6836994290351868,1.0283689498901367,75.24007415771484,30.07,0
-0.2819030582904815,-0.9421260356903076,-0.0001642263523535,1.6677956581115725,1.0287050008773804,75.24004364013672,30.07,0
-0.2816691100597381,-0.9460664987564088,-0.0001053910164046,5.018293857574463,1.0289206504821775,75.24002838134766,30.07,0
-0.2815189659595489,-0.9485952854156494,-6.763388955732808e-05,9.120954513549805,1.0290590524673462,75.24002075195312,30.07,0
-0.2870203852653503,-0.9446203112602234,-4.340353552834131e-05,11.803961753845217,1.0291478633880615,75.2400131225586,30.07,0
-0.2905508875846863,-0.942069411277771,-2.785389006021433e-05,11.268738746643066,1.0292048454284668,75.24000549316406,30.07,0
-0.292816549539566,-0.9460301399230956,-1.787502333172597e-05,8.209671020507812,1.0269460678100586,75.24000549316406,30.07,0
-0.2942705154418945,-0.9429741501808168,-1.1471161087683868e-05,4.777681350708008,1.025496482849121,75.24000549316406,30.07,0
-0.2896058261394501,-0.9466107487678528,-7.361531061178539e-06,2.0270938873291016,1.0245662927627563,75.24000549316406,30.07,0
-0.2922100722789764,-0.9433467388153076,-4.724206974060508e-06,-0.7125352621078491,1.023969292640686,75.24000549316406,30.07,0
-0.2938813269138336,-0.9412521123886108,-3.0317241908051078e-06,-3.975353479385376,1.0235861539840698,75.24000549316406,30.07,0
-0.2893560528755188,-0.9399079084396362,-1.9455860638117883e-06,-6.929060459136963,1.023340344429016,75.24000549316406,30.07,0
-0.2864519953727722,-0.939045250415802,-1.2485651268434594e-06,-8.82099723815918,1.0231826305389404,75.24000549316406,30.07,0
-0.2901861071586609,-0.9384916424751282,-8.012572152438224e-07,-9.90257740020752,1.0230814218521118,75.24000549316406,30.07,0
-0.2869846820831299,-0.9437341690063475,-5.142007353242661e-07,-9.976887702941896,1.0230164527893066,75.24000549316406,30.07,0
-0.2849301993846893,-0.9470984935760498,-3.299844308912725e-07,-8.373008728027344,1.022974729537964,75.24000549316406,30.07,0
-0.2836117446422577,-0.9492575526237488,-2.1176501263653338e-07,-5.957274913787842,1.022947907447815,75.24000549316406,30.07,0
-0.2827656269073486,-0.945045292377472,-1.3589860259344277e-07,-4.546716213226318,1.0229307413101196,75.24000549316406,30.07,0
-0.287820428609848,-0.9423421621322632,-8.721190170035699e-08,-4.36518144607544,1.022919774055481,75.24000549316406,30.07,0
-0.2854665219783783,-0.9406074285507202,-5.596757901571437e-08,-4.252265453338623,1.0229127407073977,75.24000549316406,30.07,0
-0.2839559316635132,-0.9394941926002502,-3.5916770002586424e-08,-3.5994250774383545,1.0229082107543943,75.24000549316406,30.07,0
-0.2829865217208862,-0.9443775415420532,-2.3049315345247123e-08,-2.4961977005004883,1.0229052305221558,75.24000549316406,30.07,0
-0.2879621684551239,-0.941913604736328,-1.4791723401685886e-08,-1.1397637128829956,1.0215262174606323,75.23641967773438,30.09,0
-0.2911552488803863,-0.9403324127197266,-9.492477026640245e-09,0.0029931981116533,1.020641207695007,75.23412322998047,30.09,0
-0.2932043969631195,-0.9393177032470704,-6.091725346379917e-09,0.5608026385307312,1.0200732946395874,75.23265075683594,30.09,0
-0.2945194244384765,-0.9386665225028992,-0.0055977781303226,0.8865295052528381,1.0197088718414309,75.23170471191406,30.09,0
-0.2953633368015289,-0.9382486343383788,-0.0091901067644357,1.622200846672058,1.019474983215332,75.23109436035156,30.09,0
-0.3015026748180389,-0.9379804134368896,-0.0114954560995101,2.893226623535156,1.0193248987197876,75.23070526123047,30.09,0
-0.3054425418376922,-0.9378082752227784,-0.0129748964682221,4.26777982711792,1.0192285776138306,75.23045349121094,30.09,0
-0.3023731410503387,-0.9376978278160096,-0.0139243165031075,4.899108409881592,1.0191667079925537,75.23029327392578,30.09,0
-0.3004033863544464,-0.9376269578933716,-0.0089358249679207,3.7744991779327393,1.018667697906494,75.23018646240234,30.09,0
-0.2991393208503723,-0.937581479549408,-0.0057344981469213,0.595142662525177,1.0183475017547607,75.23011779785156,30.09,0
-0.2983281016349792,-0.937552273273468,-0.003680070862174,-3.65205192565918,1.0181419849395752,75.2300796508789,30.09,0
-0.297807514667511,-0.9375335574150084,-0.0023616575635969,-7.416603565216064,1.018010139465332,75.23004913330078,30.09,0
-0.2974734306335449,-0.937521517276764,-0.0015155759174376,-9.545869827270508,1.017925500869751,75.23003387451172,30.09,0
-0.2972590327262878,-0.9431115984916688,-0.0009726093849167,-9.758721351623535,1.0178712606430054,75.23002624511719,30.09,0
-0.2971214354038238,-0.9466989636421204,-0.000624164706096,-8.75247573852539,1.0178364515304563,75.23001861572266,30.09,0
-0.2970331609249115,-0.9434033632278442,-0.0004005529917776,-7.443948745727539,1.017814040184021,75.23001098632812,30.09,0
-0.2969765067100525,-0.941288411617279,-0.0002570518408901,-5.970095634460449,1.0173407793045044,75.23001098632812,30.09,0
-0.2969401478767395,-0.9455289840698242,-0.0001649610785534,-4.214599609375,1.017037034034729,75.23001098632812,30.09,0
-0.2969168126583099,-0.9426525235176086,-0.0001058625275618,-2.8014168739318848,1.0168421268463137,75.23001098632812,30.09,0
-0.3024996221065521,-0.9408065676689148,-6.793647480662912e-05,-2.270688056945801,1.0167170763015747,75.23001098632812,30.09,0
-0.3004845678806305,-0.9452197551727296,-4.359771992312744e-05,-1.9874180555343628,1.0166367292404177,75.23001098632812,30.09,0
-0.299191415309906,-0.9480518698692322,-2.797850720526185e-05,-0.9708915948867798,1.0165852308273315,75.23001098632812,30.09,0
-0.303959310054779,-0.9442715644836426,-1.7954995200852863e-05,0.5842655897140503,1.016552209854126,75.23001098632812,30.09,0
-0.3014213144779205,-0.9418455958366394,-1.152248205471551e-05,1.499876856803894,1.016530990600586,75.23001098632812,30.09,0
-0.305390328168869,-0.940288782119751,-7.39446568331914e-06,1.2133148908615112,1.0151402950286863,75.23001098632812,30.09,0
-0.3079374134540558,-0.939289689064026,-4.745342266687658e-06,0.3523091077804565,1.0142477750778198,75.23001098632812,30.09,0
-0.3039742112159729,-0.938648521900177,-3.045287485292647e-06,-0.4259370863437652,1.0136749744415283,75.23001098632812,30.09,0
-0.3070286512374878,-0.9382370710372924,-1.9542901554814307e-06,-1.2155592441558838,1.0133074522018433,75.23001098632812,30.09,0
-0.3089888095855713,-0.9379730224609376,-0.0055990288965404,-2.0483076572418213,1.0130715370178225,75.23001098632812,30.09,0
-0.3046489357948303,-0.9378035664558412,-0.0035931344609707,-2.4000062942504883,1.0129201412200928,75.23001098632812,30.09,0
-0.3074616491794586,-0.937694787979126,-0.0023058669175952,-2.174301862716675,1.0128229856491089,75.23001098632812,30.09,0
-0.3148644566535949,-0.937624990940094,-0.0014797726180404,-1.975718975067139,1.0127606391906738,75.23001098632812,30.09,0
-0.3252129256725311,-0.9375802278518676,-0.0009496329003013,-1.6906466484069824,1.0122613906860352,75.19418334960938,30.07,0
-0.3262561857700348,-0.937551498413086,0.0105861285701394,-0.3899400234222412,1.0119409561157229,75.17118835449219,30.07,0
-0.3269256949424743,-0.9375330209732056,0.0179891176521778,1.7846617698669434,1.0117353200912476,75.15643310546875,30.07,0
-0.3217575848102569,-0.9319233894348145,0.0227399282157421,3.395150661468506,1.0116033554077148,75.14696502685547,30.07,0
-0.3184409737586975,-0.92832350730896,0.0201909504830837,3.7121546268463135,1.0115187168121338,75.14088439941406,30.07,0
-0.3163125813007355,-0.9260132908821106,0.0185551643371582,3.3423774242401123,1.0114643573760986,75.1369857788086,30.07,0
-0.3205444812774658,-0.9301285147666932,0.0119076361879706,2.8937036991119385,1.0114294290542605,75.13448333740234,30.07,0
-0.3176624774932861,-0.9271716475486756,0.0076416353695094,2.369320869445801,1.0114070177078247,75.13287353515625,30.07,0
-0.3158129751682281,-0.9252740740776062,0.0049039619043469,1.728283166885376,1.0100154876708984,75.13184356689453,30.07,0
-0.3146260678768158,-0.924056351184845,0.003147080540657,1.1126952171325684,1.0091224908828735,75.13117980957031,30.07,0
-0.3138643801212311,-0.9288726449012756,0.0020196151454001,0.3450584709644317,1.008549451828003,75.13075256347656,30.07,0
-0.3133755922317505,-0.9319634437561036,0.0068938471376895,-1.1005316972732544,1.0081816911697388,75.13048553466797,30.07,0
-0.3130618929862976,-0.933946967124939,0.010021848604083,-3.174652576446533,1.0079456567764282,75.13031005859375,30.07,0
-0.3184583783149719,-0.9296221137046814,0.0120292203500866,-4.953526020050049,1.0077942609786987,75.13019561767578,30.07,0
-0.3219215273857116,-0.9324444532394408,0.0133174359798431,-5.847906589508057,1.0076971054077148,75.130126953125,30.07,0
-0.3241439759731293,-0.92865788936615,0.0141441384330391,-6.407538414001465,1.0076347589492798,75.13008117675781,30.07,0
-0.3255701959133148,-0.9318256378173828,0.014674668200314,-7.246743202209473,1.0094311237335205,75.13005065917969,30.07,0
-0.3264854848384857,-0.9338585138320924,0.0150151317939162,-8.19729232788086,1.010583996772766,75.1300277709961,30.07,0
-0.3270728588104248,-0.9351630806922911,0.0152336219325661,-9.050915718078612,1.0113238096237185,75.13002014160156,30.07,0
-0.3274497985839844,-0.9360002875328064,0.0153738362714648,-9.699033737182615,1.011798620223999,75.13001251220703,30.07,0
-0.3276917040348053,-0.9365375638008118,0.0154638178646564,-9.290966033935549,1.0121033191680908,75.1300048828125,30.07,0
-0.3278469443321228,-0.9368823766708374,0.0155215626582503,-6.987023830413818,1.012298822402954,75.1300048828125,30.07,0
-0.3279465734958648,-0.9371036291122437,0.0155586199834942,-3.656294822692871,1.012424349784851,75.1300048828125,30.07,0
-0.3280104994773865,-0.9372456073760986,0.015582401305437,-1.0674201250076294,1.012504816055298,75.1300048828125,30.07,0
-0.3280515074729919,-0.9373367428779602,0.0155976628884673,0.224965363740921,1.0116382837295532,75.1300048828125,30.07,0
-0.3280778229236603,-0.9373952150344848,0.0156074566766619,0.7856508493423462,1.0110821723937988,75.1300048828125,30.07,0
-0.3224969506263733,-0.9374327659606934,0.0156137412413954,0.8588604927062988,1.0107252597808838,75.1300048828125,30.07,0
-0.318915456533432,-0.9374568462371826,0.0156177747994661,0.2932217717170715,1.0104962587356567,75.1300048828125,30.07,0
-0.3222148418426513,-0.9374722838401794,0.0156203629449009,-0.6107414960861206,1.0103492736816406,75.1300048828125,30.07,0
-0.3243322074413299,-0.9374822378158568,0.0156220244243741,-1.2410091161727903,1.010254979133606,75.1300048828125,30.07,0
-0.3256910145282745,-0.937488615512848,0.015623090788722,-1.656226396560669,1.0101944208145142,75.1300048828125,30.07,0
-0.3265630006790161,-0.9374926686286926,0.0156237743794918,-2.477988243103028,1.0101555585861206,75.1300048828125,30.07,0
-0.3271225988864898,-0.9374952912330629,0.0156242130324244,-3.574977159500122,1.0082942247390747,75.02252960205078,30.09,0
-0.3274817168712616,-0.9374969601631165,0.0156244952231645,-4.164319038391113,1.007099747657776,74.95355224609375,30.09,0
-0.3277121782302856,-0.9374980330467224,0.015624675899744,-4.603428363800049,1.0063331127166748,74.90928649902344,30.09,0
-0.3222622871398926,-0.9374987483024596,0.0156247923150658,-6.3361663818359375,1.0058411359786987,74.8808822631836,30.09,0
-0.318764865398407,-0.937499225139618,0.0156248668208718,-9.5439453125,1.0055254697799685,74.86265563964844,30.09,0
-0.322118192911148,-0.9374995231628418,0.0156249143183231,-12.530399322509766,1.005322813987732,74.85095977783203,30.09,0
-0.3242701888084411,-0.9319019317626952,0.015624945051968,-13.56203842163086,1.005192756652832,74.84345245361328,30.09,0
-0.3256511986255646,-0.928309679031372,0.0156249646097421,-11.701951026916504,1.0051093101501465,74.83863067626953,30.09,0
-0.3265374600887298,-0.93160218000412,0.0156249776482582,-6.409788131713867,1.0064328908920288,74.83554077148438,30.09,0
-0.3271062076091766,-0.9337151050567628,0.0156249860301613,1.618687868118286,1.0072823762893677,74.83355712890625,30.09,0
-0.3274711966514587,-0.935071051120758,0.0156249906867742,9.819673538208008,1.0078275203704834,74.83228302001953,30.09,0
-0.3277054131031036,-0.935941219329834,0.0156249944120645,15.476677894592283,1.0081772804260254,74.83146667480469,30.09,0
-0.3222579658031463,-0.9364996552467346,0.0156249962747097,17.70981216430664,1.0084017515182495,74.83094024658203,30.09,0
-0.3243598639965057,-0.936858057975769,0.0156249972060322,17.294300079345703,1.0085458755493164,74.83060455322266,30.09,0
-0.3201109766960144,-0.9370880126953124,0.0156249981373548,15.222030639648438,1.0086383819580078,74.83039093017578,30.09,0
-0.3229820728302002,-0.9372355937957764,0.0156249990686774,12.03639316558838,1.008697748184204,74.83025360107422,30.09,0
-0.3360201120376587,-0.9373303055763244,0.0268205478787422,8.275980949401855,1.007817625999451,74.83016204833984,30.09,0
-0.3499849438667297,-0.9429888725280762,0.0340052060782909,4.909799575805664,1.007252812385559,74.8301010131836,30.09,0
-0.3701423108577728,-0.946620225906372,0.0330181308090686,2.692257165908813,1.0068902969360352,74.83006286621094,30.09,0
-0.3998714983463287,-0.9433528184890748,0.0491780079901218,1.5629371404647827,1.0066577196121216,74.83003997802734,30.09,0
-0.4301455020904541,-0.9412559866905212,0.0595484860241413,1.3182697296142578,1.006508469581604,74.83002471923828,30.09,0
-0.4495736360549927,-0.939910352230072,0.0718014389276504,1.7452161312103271,1.0064126253128052,74.83001708984375,30.09,0
-0.4676392674446106,-0.9390468001365662,0.0796646773815155,1.8114163875579836,1.006351113319397,74.83000946044922,30.09,0
-0.4792327582836151,-0.9328948855400084,0.0959063991904258,0.485355943441391,1.0063116550445557,74.83000946044922,30.09,0
-0.4866727888584137,-0.923349142074585,0.1063294038176536,-1.5622135400772097,1.006286382675171,74.83000946044922,30.09,0
-0.4970451295375824,-0.9172232747077942,0.1186160594224929,-2.8189046382904053,1.006270170211792,74.83000946044922,30.09,0
-0.5092992782592773,-0.9076942205429076,0.1320987045764923,-3.0664947032928467,1.0062596797943115,74.83000946044922,30.09,0
-0.5171632766723633,-0.9015790224075316,0.1407510936260223,-3.085663318634033,1.006253004074097,74.83000946044922,30.09,0
-0.5110144019126892,-0.8920568823814392,0.1463036984205246,-2.8328540325164795,1.0062487125396729,74.83000946044922,30.09,0
-0.5182639360427856,-0.8803483247756958,0.1554648131132125,-1.5635998249053955,1.0062459707260132,74.83000946044922,30.09,0
-0.522916316986084,-0.8672366738319397,0.1669416576623916,0.486922949552536,1.00624418258667,74.83000946044922,30.09,0
-0.5203041434288025,-0.8476268649101257,0.1855023950338363,1.9174729585647583,1.0062429904937744,74.83000946044922,30.09,0
-0.5130300521850586,-0.835042417049408,0.2030113786458969,1.982864618301392,1.0067015886306765,74.81925964355469,30.09,0
-0.5307530164718628,-0.8157708644866943,0.2254431843757629,1.401461124420166,1.0069957971572876,74.81236267089844,30.09,0
-0.5421265959739685,-0.7978057265281677,0.2286430746316909,0.8886293768882751,1.007184624671936,74.80793762207031,30.09,0
-0.5438277721405029,-0.7862767577171326,0.2530876696109772,0.1797704547643661,1.0073058605194092,74.80509185791016,30.09,0
-0.5337238907814026,-0.7676825523376465,0.2967636883258819,-0.8590942621231079,1.0073835849761963,74.80326843261719,30.09,0
-0.5328376293182373,-0.7501521110534668,0.3191946744918823,-1.6834111213684082,1.007433533668518,74.8021011352539,30.09,0
-0.5378666520118713,-0.7333043217658997,0.3335895836353302,-2.2804791927337646,1.0074656009674072,74.80134582519531,30.09,0
-0.535496175289154,-0.711296796798706,0.3596207201480865,-3.4195666313171387,1.00748610496521,74.80086517333984,30.09,0
-0.5283771753311157,-0.6971736550331116,0.3819237947463989,-5.18951416015625,1.00933575630188,74.8005599975586,30.09,0
-0.5182108283042908,-0.6825124621391296,0.4074321687221527,-6.755273818969727,1.010522723197937,74.80036163330078,30.09,0
-0.5116866827011108,-0.6675059795379639,0.4238019585609436,-8.018033981323242,1.0112844705581665,74.80023193359375,30.09,0
-0.5242931842803955,-0.6690711975097656,0.4343071579933166,-9.870929718017578,1.0117733478546145,74.8001480102539,30.09,0
-0.5155899524688721,-0.6700756549835205,0.4634398818016052,-12.23867893218994,1.012087106704712,74.80009460449219,30.09,0
-0.5044069886207581,-0.6651225090026855,0.4877333641052246,-13.69367790222168,1.0122884511947632,74.80006408691406,30.09,0
-0.5084259510040283,-0.6675416231155396,0.4921279847621918,-13.88940143585205,1.0124176740646362,74.80004119873047,30.09,0
-0.5166028141975403,-0.6634963154792786,0.4949482083320617,-14.244291305541992,1.012500524520874,74.8000259399414,30.09,0
-0.5106547474861145,-0.6609002947807312,0.519149124622345,-15.55039405822754,1.0075037479400637,74.80001831054688,30.09,0
-0.4956420660018921,-0.6536365151405334,0.5346798896789551,-17.37736701965332,1.0042970180511477,74.80001068115234,30.09,0
-0.4916055500507355,-0.6489750146865845,0.5390488505363464,-19.78580093383789,1.002239227294922,74.80001068115234,30.09,0
-0.4946129322052002,-0.6403858065605164,0.5418526530265808,-23.137012481689453,1.0009186267852783,74.80001068115234,30.09,0
-0.4909451007843017,-0.6292759776115417,0.5436519384384155,-27.11115837097168,1.0000711679458618,74.80001068115234,30.09,0
-0.4941890835762024,-0.6333418488502502,0.5504043698310852,-31.305938720703125,0.9995272755622864,74.80001068115234,30.09,0
-0.4906731247901916,-0.6359511017799377,0.5603355169296265,-35.08700942993164,0.9991782307624816,74.80001068115234,30.09,0
-0.4940145611763,-0.6432233452796936,0.5611109733581543,-36.92952346801758,0.9989542365074158,74.80001068115234,30.09,0
-0.5017566680908203,-0.653488039970398,0.5672063827514648,-35.70445251464844,0.9960561990737916,74.80001068115234,30.09,0
-0.4955295622348785,-0.660075306892395,0.5711180567741394,-31.69395446777344,0.9941964149475098,74.80001068115234,30.09,0
-0.4971311390399933,-0.6587048768997192,0.568030595779419,-26.451229095458984,0.9930028915405272,74.80001068115234,30.09,0
-0.4925611615180969,-0.6522276401519775,0.577244758605957,-23.58114624023437,0.9922369718551636,74.80001068115234,30.09,0
-0.489628404378891,-0.6480709314346313,0.5775601267814636,-26.54352569580078,0.9917454719543456,74.80001068115234,30.09,0
-0.4821485579013824,-0.6398056149482727,0.5777624845504761,-33.23809814453125,0.9914300441741944,74.80001068115234,30.09,0
-0.4829461872577667,-0.6289036273956299,0.5778923630714417,-37.290672302246094,0.9912276268005372,74.80001068115234,30.09,0
-0.4834580719470978,-0.6275051236152649,0.5779756903648376,-35.2411994934082,0.9910976886749268,74.80001068115234,30.09,0
-0.4781887829303741,-0.621009886264801,0.5836269855499268,-27.731691360473636,0.9919321537017822,74.77493286132812,30.09,0
-0.4804050326347351,-0.6168416142463684,0.5816558599472046,-16.438806533813477,0.9924677014350892,74.75883483886719,30.09,0
-0.4874250888824463,-0.6085688471794128,0.5915864706039429,-4.573744297027588,0.992811381816864,74.74850463867188,30.09,0
-0.4807345867156982,-0.6032598614692688,0.6035571098327637,4.065186977386475,0.993031919002533,74.74187469482422,30.09,0
-0.4876365661621094,-0.5998528599739075,0.6000436544418335,9.601990699768066,0.9931734800338744,74.73762512207031,30.09,0
-0.4920658469200134,-0.6032642126083374,0.6145822405815125,14.975141525268556,0.9932643175125122,74.73489379882812,30.09,0
-0.4949083030223846,-0.6110512018203735,0.6183145046234131,20.769906997680664,0.9933226108551024,74.73313903808594,30.09,0
-0.4911346733570099,-0.6048529148101807,0.6207096576690674,25.49535751342773,0.9933599829673768,74.73201751708984,30.09,0
-0.4943107366561889,-0.6064729690551758,0.6166489124298096,28.17320442199707,0.9947615265846252,74.73129272460938,30.09,0
-0.490751177072525,-0.6019148826599121,0.6252385377883911,27.935606002807617,0.9956609010696412,74.73082733154297,30.09,0
-0.4996623992919922,-0.6101853251457214,0.6251530647277832,24.469247817993164,0.996238112449646,74.73052978515625,30.09,0
-0.4997833371162414,-0.6098949909210205,0.6250982284545898,19.923229217529297,0.9966084957122804,74.73033905029297,30.09,0
-0.5054587125778198,-0.6041108965873718,0.6306608319282532,17.528911590576172,0.9968461990356444,74.73021697998047,30.09,0
-0.5035030841827393,-0.6003990173339844,0.6342305541038513,18.729463577270508,0.9969987273216248,74.73014068603516,30.09,0
-0.513443648815155,-0.6036147475242615,0.6309236288070679,23.182796478271484,0.9970966577529908,74.73009490966797,30.09,0
-0.4918340444564819,-0.605678379535675,0.6343992352485657,29.89912414550781,0.997159481048584,74.73006439208984,30.09,0
-0.483564019203186,-0.5958071947097778,0.63103187084198,36.94994735717773,0.997199773788452,74.73004150390625,30.09,0
-0.5062456727027893,-0.6006679534912109,0.6288709044456482,42.16261291503906,0.9972256422042848,74.73002624511719,30.09,0
-0.5040081143379211,-0.5981895327568054,0.627484142780304,45.35375213623047,0.997242271900177,74.73001861572266,30.09,0
-0.4913766384124756,-0.5965990424156189,0.6209964156150818,48.05366897583008,0.9972529411315918,74.73001098632812,30.09,0
-0.5000637769699097,-0.5899806022644043,0.6112352013587952,50.21981048583984,0.997259795665741,74.73001098632812,30.09,0
-0.5000409483909607,-0.5801354646682739,0.6105687618255615,50.2986946105957,0.9972641468048096,74.73001098632812,30.09,0
-0.4944285154342651,-0.5682196617126465,0.6269344091415405,49.00585174560547,0.997266948223114,74.73001098632812,30.09,0
-0.4908267557621002,-0.5605728030204773,0.6318391561508179,48.99658966064453,0.9972687363624572,74.73001098632812,30.09,0
-0.5053086876869202,-0.5444698929786682,0.6293889880180359,50.66371154785156,0.9991059303283693,74.73001098632812,30.09,0
-0.5090045928955078,-0.5341359972953796,0.6390121579170227,51.58310317993164,1.0002849102020264,74.73001098632812,30.09,0
-0.5113763809204102,-0.5331020951271057,0.650785505771637,49.67605972290039,1.0010415315628052,74.73001098632812,30.09,0
-0.5184962749481201,-0.5324385762214661,0.6471454501152039,44.9198112487793,1.0015270709991455,74.73001098632812,30.09,0
-0.5230653882026672,-0.5376105308532715,0.6504071950912476,38.43541717529297,1.0018386840820312,74.73001098632812,30.09,0
-0.520399808883667,-0.5409296154975891,0.6580982208251953,30.788259506225582,1.0020387172698977,74.73001098632812,30.09,0
-0.5298847556114197,-0.5542551279067993,0.6518383026123047,22.02231979370117,1.0021671056747437,74.73001098632812,30.09,0
-0.547167181968689,-0.5684044361114502,0.6422232985496521,13.168944358825684,1.0022494792938232,74.73001098632812,30.09,0
-0.5526602864265442,-0.5662891268730164,0.6416506767272949,6.011336326599121,0.9972527027130128,74.62611389160156,30.07,0
-0.5561854243278503,-0.5649316310882568,0.6412832140922546,1.4144128561019895,0.9940460324287416,74.55944061279297,30.07,0
-0.5640454292297363,-0.5640605092048645,0.6242541074752808,-0.6005756258964539,0.9919881820678712,74.51664733886719,30.07,0
-0.5578939914703369,-0.5467081069946289,0.618923544883728,-0.3495891094207763,0.9906675815582277,74.48918914794922,30.07,0
-0.5539463758468628,-0.5411701202392578,0.6211004853248596,0.9364083409309388,0.9898200631141664,74.47156524658203,30.07,0
-0.5570107698440552,-0.5320183634757996,0.6168997287750244,1.933651089668274,0.9892762303352356,74.46025848388672,30.07,0
-0.5533795356750488,-0.526145339012146,0.6198017001152039,2.4267385005950928,0.9889271855354308,74.4530029296875,30.07,0
-0.556647002696991,-0.5279741287231445,0.6272618174552917,2.467315196990967,0.988703191280365,74.44834899902344,30.07,0
-0.56434166431427,-0.5347455143928528,0.6264514923095703,2.3428869247436523,0.9885594844818116,74.44535827636719,30.07,0
-0.569279670715332,-0.5446887612342834,0.6259315013885498,3.0726981163024902,0.9884672164916992,74.44344329833984,30.07,0
-0.5668507814407349,-0.5510697960853577,0.6311955451965332,4.393702030181885,0.9884080290794371,74.44220733642578,30.07,0
-0.5652920603752136,-0.5551647543907166,0.6345736980438232,4.188169002532959,0.9883700609207152,74.44141387939453,30.07,0
-0.5698895454406738,-0.5577926635742188,0.6311438679695129,1.863733530044556,0.9883456826210022,74.44091033935547,30.07,0
-0.561644434928894,-0.548283576965332,0.6345405578613281,-0.6239113807678223,0.9883300065994264,74.44058227539062,30.07,0
-0.5507553815841675,-0.5421811938285828,0.6311225891113281,-2.1451046466827397,0.988319993019104,74.44037628173828,30.07,0
-0.5605607628822327,-0.5494605302810669,0.6233313679695129,-3.2001357078552246,0.9883135557174684,74.44023895263672,30.07,0
-0.5612555146217346,-0.5541320443153381,0.6239291429519653,-3.7303082942962646,0.9869322776794434,74.44015502929688,30.07,0
-0.5561035871505737,-0.5515321493148804,0.6243127584457397,-3.1963939666748047,0.9860458374023438,74.44010162353516,30.07,0
-0.5583951473236084,-0.5554614663124084,0.6189612150192261,-1.8864631652832031,0.9854769706726074,74.4400634765625,30.07,0
-0.5654635429382324,-0.5523852705955505,0.609929084777832,-0.7054803371429443,0.9851119518280028,74.4400405883789,30.07,0
-0.5588040351867676,-0.5504111647605896,0.6153283715248108,-0.1088093966245651,0.9848777055740356,74.44002532958984,30.07,0
-0.5545303821563721,-0.5435465574264526,0.6243910789489746,0.4890541434288025,0.984727382659912,74.44001770019531,30.07,0
-0.5573855638504028,-0.5391412377357483,0.6246092319488525,1.9797444343566892,0.9846308827400208,74.44001007080078,30.07,0
-0.5592178702354431,-0.5475096702575684,0.6191514730453491,4.423152446746826,0.9845689535140992,74.44001007080078,30.07,0
-0.5547959208488464,-0.5472822785377502,0.6268445253372192,7.610515117645264,0.9849881529808044,74.44001007080078,30.07,0
-0.5575559735298157,-0.5471363663673401,0.6261836886405945,11.232314109802246,0.9852571487426758,74.44001007080078,30.07,0
-0.5537294149398804,-0.547042727470398,0.6257596015930176,13.32729148864746,0.9854297637939452,74.44001007080078,30.07,0
-0.5568715333938599,-0.5469826459884644,0.6198896765708923,12.034952163696287,0.9855405688285828,74.44001007080078,30.07,0
-0.5588879585266113,-0.5469440817832947,0.6217204928398132,9.299673080444336,0.9856116771697998,74.44001007080078,30.07,0
-0.5601819753646851,-0.5413215756416321,0.6228954195976257,7.8524298667907715,0.985657274723053,74.44001007080078,30.07,0
-0.5554146766662598,-0.537713348865509,0.6180516481399536,6.171331405639648,0.9856865406036376,74.44001007080078,30.07,0
-0.5523552894592285,-0.5353978276252747,0.6261387467384338,2.090301036834717,0.985705316066742,74.44001007080078,30.07,0
-0.5671852827072144,-0.5395095944404602,0.6201329827308655,-2.5743205547332764,0.9847991466522216,74.30744934082031,30.07,0
-0.5599089860916138,-0.5421482920646667,0.6218766570091248,-6.216251850128174,0.984217643737793,74.22238159179688,30.07,0
-0.5552394390106201,-0.5438416600227356,0.6229956150054932,-10.67431926727295,0.9838444590568542,74.16779327392578,30.07,0
-0.5578405857086182,-0.5449283719062805,0.6237136721611023,-16.333240509033203,0.9836049675941468,74.13275909423828,30.07,0
-0.5651076436042786,-0.5456257462501526,0.61857670545578,-20.42338180541992,0.9834513068199158,74.11027526855469,30.07,0
-0.5585756897926331,-0.546073317527771,0.6208779215812683,-22.47140312194824,0.9833526611328124,74.0958480834961,30.07,0
-0.5543838143348694,-0.5463605523109436,0.6223546862602234,-24.788827896118164,0.983289361000061,74.08658599853516,30.07,0
-0.5572915077209473,-0.5465448498725891,0.6233024001121521,-27.19315528869629,0.983248770236969,74.08064270019531,30.07,0
-0.5647552609443665,-0.5466631054878235,0.6239106059074402,-27.457136154174805,0.9827637672424316,74.07682800292969,30.07,0
-0.563947319984436,-0.5467390418052673,0.6187031269073486,-25.541484832763672,0.9824525117874146,74.07437896728516,30.07,0
-0.5634288191795349,-0.5467877388000488,0.6209590435028076,-22.74296188354492,0.9822527766227722,74.07280731201172,30.07,0
-0.5630960464477539,-0.5468189716339111,0.6224067211151123,-19.424434661865234,0.9821246266365052,74.0718002319336,30.07,0
-0.5628824830055237,-0.5412412881851196,0.6233357787132263,-16.07672119140625,0.9820423722267152,74.07115173339844,30.07,0
-0.5627454519271851,-0.5432596206665039,0.6239320039749146,-13.713396072387695,0.981989562511444,74.07073974609375,30.07,0
-0.5570597648620605,-0.5445548295974731,0.6243146061897278,-13.110306739807127,0.9819557070732116,74.07047271728516,30.07,0
-0.559008777141571,-0.5453860759735107,0.6245601773262024,-14.811920166015623,0.9819339513778688,74.07030487060547,30.07,0
-0.5602595210075378,-0.5459194779396057,0.6247177720069885,-18.014055252075195,0.9819200038909912,74.07019805908203,30.07,0
-0.5554643869400024,-0.5462617874145508,0.6304166316986084,-20.201557159423828,0.9819110631942748,74.07012939453125,30.07,0
-0.5523871779441833,-0.5464814901351929,0.6340738534927368,-19.96813201904297,0.9819053411483764,74.07008361816406,30.07,0
-0.5560101866722107,-0.5410246849060059,0.6364208459854126,-17.665205001831055,0.9819016456604004,74.07005310058594,30.07,0
-0.5527374148368835,-0.5375228524208069,0.6379269957542419,-13.292597770690918,0.9818992614746094,74.07003021240234,30.07,0
-0.5562349557876587,-0.5352755784988403,0.6388936042785645,-7.441320896148682,0.98189777135849,74.07002258300781,30.07,0
-0.55288165807724,-0.5394311547279358,0.6451116800308228,-2.274773597717285,0.9818968176841736,74.07001495361328,30.07,0
-0.5507297515869141,-0.5420979857444763,0.6491020917892456,1.259356141090393,0.981896162033081,74.07000732421875,30.07,0
-0.549348771572113,-0.5382115840911865,0.6516628861427307,3.982344150543213,0.979141116142273,74.07000732421875,30.07,0
-0.5484625101089478,-0.5357175469398499,0.653306245803833,5.292726993560791,0.9773730635643004,74.07000732421875,30.07,0
-0.547893762588501,-0.5285192131996155,0.6599586606025696,3.9984402656555176,0.9762384295463562,74.07000732421875,30.07,0
-0.5475288033485413,-0.5294975638389587,0.6642277836799622,1.996339201927185,0.97551029920578,74.07000732421875,30.07,0
-0.547294557094574,-0.5301253795623779,0.6669674515724182,2.262761354446411,0.975042998790741,74.07000732421875,30.07,0
-0.5415464639663696,-0.5361260771751404,0.6687256097793579,4.400569438934326,0.974743127822876,74.07000732421875,30.07,0
-0.5378576517105103,-0.539976954460144,0.6754516959190369,6.324208736419678,0.9745506644248962,74.07000732421875,30.07,0
-0.52989262342453,-0.5424482226371765,0.6741703152656555,8.020841598510742,0.9744271636009216,74.07000732421875,30.07,0
-0.5303789377212524,-0.5440341234207153,0.678945779800415,9.62195110321045,0.9738889932632446,73.95894622802734,30.09,0
-0.4859088063240051,-0.5898340940475464,0.614837110042572,9.19492530822754,0.973543643951416,73.8876724243164,30.09,0
-0.4909570813179016,-0.5968347787857056,0.6576624512672424,6.0297465324401855,0.9733220338821412,73.84193420410156,30.09,0
-0.4830012321472168,-0.5173608064651489,0.6627541780471802,2.3935232162475586,0.973179817199707,73.81258392333984,30.09,0
-0.4722978472709656,-0.5055434107780457,0.6940106749534607,-0.0653858035802841,0.9730885028839112,73.79374694824219,30.09,0
-0.4542334675788879,-0.5595352053642273,0.6580915451049805,-2.316896438598633,0.9730299115180968,73.78165435791016,30.09,0
-0.4426408112049103,-0.5605973601341248,0.6910184621810913,-5.345284938812256,0.9729923009872437,73.77389526367188,30.09,0
-0.496776819229126,-0.5724745392799377,0.700953483581543,-8.159296035766602,0.9729682207107544,73.7689208984375,30.09,0
-0.4643448889255523,-0.5353144407272339,0.712926983833313,-9.134008407592772,0.972034513950348,73.7657241821289,30.09,0
-0.4603252708911896,-0.5226627588272095,0.7262086868286133,-8.408891677856445,0.9714353084564208,73.763671875,30.09,0
-0.4409523904323578,-0.508945882320404,0.7347320914268494,-7.707103729248047,0.9710507988929749,73.76235961914062,30.09,0
-0.4453133344650268,-0.5057409405708313,0.745799720287323,-7.468108654022217,0.9708040356636048,73.76151275634766,30.09,0
-0.4481119215488434,-0.4980864226818084,0.7473044991493225,-6.300866603851318,0.9706456661224364,73.76097106933594,30.09,0
-0.4555056691169739,-0.487576425075531,0.7538679838180542,-4.125932693481445,0.9705440402030944,73.76062774658203,30.09,0
-0.449055016040802,-0.4752339422702789,0.7636777758598328,-2.8842360973358154,0.9704788327217102,73.76040649414062,30.09,0
