acc_x,acc_y,acc_z,bvp,eda,hr,temp,label
0.0,0.0,0.0,0.0,0.0,0.0,22.65,0
0.0104166660457849,-0.0572916641831398,0.1562499850988388,-11.60666561126709,0.1196353286504745,14.528331756591797,22.65,0
0.007621950469911,-0.1131859794259071,0.3742378056049347,-29.94268226623535,0.2801217436790466,34.01755905151367,22.65,0
0.0002076402161037,-0.1667878031730651,0.5738164782524109,-50.07950210571289,0.4197173118591308,50.96983337402344,22.65,0
0.042842298746109,-0.2325842231512069,0.7194198369979858,-68.367919921875,0.5215598344802856,63.337432861328125,22.65,0
0.1156255304813385,-0.2771311700344085,0.8015303015708923,-82.77719116210938,0.5905115008354187,71.7108154296875,22.65,0
0.0412141233682632,-0.2452765256166458,0.8443004488945007,-94.552490234375,0.6357536911964417,77.20496368408203,22.65,0
0.0543941594660282,-0.2860184907913208,0.8720005750656128,-108.28836822509766,0.6650548577308655,80.76325225830078,22.65,0
0.0684745460748672,-0.3234436810016632,0.8674834966659546,-126.87873840332033,0.7022666931152344,83.05540466308594,22.65,0
0.0383621007204055,-0.3474984467029571,0.8198230266571045,-143.16363525390625,0.7261843085289001,84.5286636352539,22.65,0
0.0078322989866137,-0.3349628746509552,0.7892176508903503,-140.7947998046875,0.7415431141853333,85.47472381591797,22.65,0
0.0609990134835243,-0.3437078595161438,0.7807661890983582,-109.8103256225586,0.7514021396636963,86.0820083618164,22.65,0
0.0223538409918546,-0.3381254076957702,0.7641468644142151,-58.91454315185547,0.7577297687530518,86.47177124023438,22.65,0
-0.1144011914730072,-0.4129103124141693,0.7366880178451538,-7.303163528442383,0.7617906332015991,86.72190856933594,22.65,0
-0.1685779094696045,-0.4888925552368164,0.7526525855064392,32.353233337402344,0.7643967270851135,86.88243865966797,22.65,0
-0.1529658436775207,-0.5208606719970703,0.7852888107299805,59.00278091430664,0.7660691738128662,86.98545837402344,22.65,0
-0.0813714265823364,-0.5021916627883911,0.8006351590156555,77.08302307128906,0.7822909951210022,87.05157470703125,22.65,0
-0.1585771739482879,-0.5405908823013306,0.7545058727264404,91.0790557861328,0.792701244354248,87.09400177001953,22.65,0
-0.2025256305932998,-0.5876244306564331,0.7137072086334229,103.16699981689452,0.7993819117546082,87.12123107910156,22.65,0
-0.1579581648111343,-0.5898189544677734,0.6987205147743225,112.02420043945312,0.8036692142486572,87.13870239257812,22.65,0
-0.1293573230504989,-0.5856295228004456,0.683505117893219,114.72395324707033,0.8064205646514893,87.14991760253906,22.65,0
-0.1501873731613159,-0.6165276169776917,0.6625452041625977,110.76737213134766,0.8081862330436707,87.15711212158203,22.65,0
-0.1747504472732544,-0.6475517749786377,0.6267032623291016,102.9403839111328,0.8093193173408508,87.16172790527344,22.65,0
-0.1793180704116821,-0.6674612760543823,0.5981041789054871,94.29190826416016,0.8100464344024658,87.16468811035156,22.65,0
-0.1766515374183654,-0.6802380681037903,0.5797509551048279,85.90441131591797,0.8063816428184509,87.16658782958984,22.67,0
-0.1917336285114288,-0.6996330618858337,0.5511795878410339,77.31897735595703,0.8040298223495483,87.16780853271484,22.67,0
-0.2014124542474746,-0.712079644203186,0.527246356010437,68.2733383178711,0.8025205731391907,87.16859436035156,22.67,0
-0.1796348839998245,-0.7312626838684082,0.500691831111908,59.97489929199219,0.8015519976615906,87.16909790039062,22.67,0
-0.1488659679889679,-0.7603665590286255,0.4724551141262054,53.96158218383789,0.8009304404258728,87.16941833496094,22.67,0
-0.1179247051477432,-0.7958371043205261,0.4487366378307342,49.89479064941406,0.8005315661430359,87.16962432861328,22.67,0
-0.114861711859703,-0.818600058555603,0.4279177188873291,46.27467346191406,0.8002755641937256,87.16976165771484,22.67,0
-0.1296893805265426,-0.8444035649299622,0.3977639973163605,43.46784210205078,0.8001112937927246,87.16984558105469,22.67,0
-0.1504004746675491,-0.8721582889556885,0.3784130811691284,43.71581268310547,0.8004651665687561,86.99794006347656,22.67,0
-0.1580938845872879,-0.901165246963501,0.354799211025238,48.16328811645508,0.8006922602653503,86.88761901855469,22.67,0
-0.1630310714244842,-0.9309757947921752,0.3396452069282532,55.92913436889648,0.8008379936218262,86.81681823730469,22.67,0
-0.1550039201974868,-0.9613020420074464,0.3467135429382324,65.9964828491211,0.8009315133094788,86.7713851928711,22.67,0
-0.0994725972414016,-0.9919592142105104,0.379238486289978,78.4651107788086,0.8009915351867676,86.74222564697266,22.67,0
-0.0526402369141578,-1.0060354471206665,0.4001111090183258,93.63549041748048,0.8010300397872925,86.72351837158203,22.67,0
-0.0505747981369495,-1.0038732290267944,0.4079082012176513,110.38206481933594,0.8010547757148743,86.71150970458984,22.67,0
-0.0604448653757572,-1.0304745435714722,0.4241074621677398,126.66055297851562,0.8010706305503845,86.70380401611328,22.67,0
-0.0667789056897163,-1.0531435012817385,0.4289054274559021,142.1478271484375,0.8010808229446411,86.69886016845703,22.67,0
-0.0708437263965606,-1.0620932579040527,0.4263867139816284,158.39199829101562,0.8010873198509216,86.69568634033203,22.67,0
-0.0790500715374946,-1.079032301902771,0.4135748147964477,175.95306396484375,0.8010914921760559,86.69364929199219,22.67,0
-0.0955119803547859,-1.1402827501296997,0.3885595500469208,193.06593322753903,0.8010941743850708,86.69234466552734,22.67,0
-0.1172718331217765,-1.235567569732666,0.3557128608226776,205.0546875,0.8010959029197693,86.6915054321289,22.67,0
-0.1368338316679,-1.285520315170288,0.3234381973743438,203.86001586914065,0.80109703540802,86.69096374511719,22.67,0
-0.1493875980377197,-1.3231748342514038,0.2747372984886169,182.35739135742188,0.8010977506637573,86.69062042236328,22.67,0
-0.157443881034851,-1.3417415618896484,0.2378861010074615,140.015869140625,0.8010982275009155,86.69039916992188,22.67,0
-0.151418387889862,-1.3032766580581665,0.1974437981843948,80.36388397216797,0.8033934831619263,86.69025421142578,22.67,0
-0.1419537961483001,-1.2002233266830444,0.1546969413757324,7.15614128112793,0.8048664927482605,86.6901626586914,22.67,0
-0.1302821934223175,-1.094905138015747,0.1216666921973228,-69.996826171875,0.8058117628097534,86.69010162353516,22.67,0
-0.1227920353412628,-1.0049269199371338,0.0948720052838325,-133.4023895263672,0.8064183592796326,86.6900634765625,22.67,0
-0.129180833697319,-0.9583796262741088,0.0720789432525634,-170.31280517578125,0.8068076372146606,86.6900405883789,22.67,0
-0.1556718945503235,-0.9620949029922484,0.0462561175227165,-183.1732482910156,0.8070574998855591,86.69002532958984,22.67,0
-0.2006611973047256,-0.9308924674987792,0.04647783562541,-181.86085510253903,0.8072178363800049,86.69001770019531,22.67,0
-0.2295327484607696,-0.8940752744674683,0.0410223491489887,-172.74288940429688,0.8073207139968872,86.69001007080078,22.67,0
-0.2256697416305542,-0.870448112487793,0.0263257827609777,-159.16030883789062,0.8092231750488281,86.69001007080078,22.69,0
-0.2063973695039749,-0.8496877551078796,0.0224921461194753,-144.60777282714844,0.8104440569877625,86.69001007080078,22.69,0
-0.1828339248895645,-0.8251693844795227,0.0312274880707263,-130.68667602539062,0.811227560043335,86.69001007080078,22.69,0
-0.1621144860982895,-0.7982394099235535,0.0424311012029647,-116.22142791748048,0.8117303848266602,86.69001007080078,22.69,0
-0.1488179415464401,-0.7753595113754272,0.0496209375560283,-100.6761245727539,0.8120530247688293,86.69001007080078,22.69,0
-0.1346872150897979,-0.7662742733955383,0.0654305070638656,-85.953125,0.812260091304779,86.69001007080078,22.69,0
-0.1312166899442672,-0.7716394662857056,0.0811739563941955,-73.69601440429688,0.8123929500579834,86.69001007080078,22.69,0
-0.1177939623594284,-0.8310602307319641,0.0856794193387031,-63.021366119384766,0.812478244304657,86.69001007080078,22.69,0
-0.1147778034210205,-0.9363663792610168,0.0773752182722091,-52.3806266784668,0.8185004591941833,86.54670715332031,22.69,0
-0.1184399798512458,-1.0375324487686155,0.0608505085110664,-42.21663665771485,0.8223651647567749,86.45474243164062,22.69,0
-0.1263879239559173,-1.1360416412353516,0.0334525778889656,-34.07822799682617,0.8248453140258789,86.39572143554688,22.69,0
-0.1370862424373626,-1.2104547023773191,0.015870165079832,-28.024311065673828,0.8264369368553162,86.35784912109375,22.69,0
-0.1943317800760269,-1.2190243005752563,0.054966751486063,-22.709806442260746,0.827458381652832,86.33354187011719,22.69,0
-0.2366664409637451,-1.1181660890579224,0.1024477928876876,-17.565298080444336,0.828113853931427,86.31793975830078,22.69,0
-0.2358455210924148,-1.0254522562026978,0.1217228397727012,-13.13891887664795,0.8285344839096069,86.30792999267578,22.69,0
-0.1737431734800338,-0.98834490776062,0.0949080362915992,-9.760937690734863,0.8288044333457947,86.30150604248047,22.69,0
-0.1114983707666397,-0.9589337706565856,0.0888953879475593,-7.156069278717041,0.8372405171394348,86.2973861694336,22.69,0
-0.0771510079503059,-0.8840816617012024,0.1298190057277679,-5.011514663696289,0.8426543474197388,86.29473876953125,22.69,0
-0.0719021707773208,-0.796861469745636,0.161679208278656,-3.2662577629089355,0.8461286425590515,86.29304504394531,22.69,0
-0.0909248664975166,-0.7520841360092163,0.1765274703502655,-1.9707061052322388,0.8483582139015198,86.29195404052734,22.69,0
-0.1031325384974479,-0.7681307792663574,0.2252406626939773,-1.0927221775054932,0.849789023399353,86.29125213623047,22.69,0
-0.1053689494729042,-0.7896241545677185,0.2453064322471618,-0.5113697052001953,0.8507072329521179,86.29080200195312,22.69,0
-0.1347930133342743,-0.8034173846244812,0.2357923835515976,-0.1024653762578964,0.8512964844703674,86.29051208496094,22.69,0
-0.1648712456226349,-0.8514534831047058,0.2520779073238373,0.2889186143875122,0.8516746163368225,86.29032897949219,22.69,0
-0.1785759478807449,-0.899073600769043,0.2681268155574798,0.8051969408988953,0.8574258685112,86.29021453857422,22.69,0
-0.1649797409772873,-0.9576223492622375,0.2952193915843963,1.3299736976623535,0.8611167073249817,86.2901382446289,22.69,0
-0.1394611448049545,-1.0287822484970093,0.3182036280632019,1.6309194564819336,0.8634852766990662,86.29009246826172,22.69,0
-0.1510736495256424,-1.1416218280792236,0.2993669509887695,1.7810581922531128,0.8650052547454834,86.2900619506836,22.69,0
-0.1529281139373779,-1.3371868133544922,0.2816808819770813,1.999216198921204,0.8659806847572327,86.2900390625,22.69,0
-0.182107076048851,-1.5130691528320312,0.281526505947113,2.2574424743652344,0.8666066527366638,86.29002380371094,22.69,0
-0.2400168776512146,-1.430018186569214,0.2590363621711731,2.326427698135376,0.86700838804245,86.2900161743164,22.69,0
-0.2659845054149627,-1.275960922241211,0.2110168188810348,2.055431842803955,0.8672661781311035,86.29000854492188,22.69,0
-0.2434646189212799,-1.182693600654602,0.1466140002012252,1.5125168561935425,0.8738583922386169,86.29000854492188,22.71,0
-0.2290126383304596,-1.1732200384140017,0.1276750713586807,0.827343225479126,0.8780889511108398,86.29000854492188,22.71,0
-0.2085426449775695,-1.1167603731155396,0.1379122585058212,0.0437110103666782,0.8808038830757141,86.29000854492188,22.71,0
-0.1954061836004257,-0.9685723781585692,0.1276885718107223,-0.6956290602684021,0.8825461268424988,86.29000854492188,22.71,0
-0.1869759559631347,-0.8510827422142029,0.1043342724442482,-1.102026104927063,0.8836641907691956,86.29000854492188,22.71,0
-0.187163695693016,-0.7868801951408386,0.0725535079836845,-1.0977176427841189,0.8843817114830017,86.29000854492188,22.71,0
-0.1928819566965103,-0.745678722858429,0.0577562153339386,-0.9373193979263306,0.8848421573638916,86.29000854492188,22.71,0
-0.2021493762731552,-0.7136402130126953,0.0538579374551773,-0.8773759603500366,0.885137677192688,86.29000854492188,22.71,0
-0.2024988979101181,-0.6930797100067139,0.0457584746181964,-1.05386221408844,0.8908358812332153,86.1610336303711,22.71,0
-0.1971254348754882,-0.6910807490348816,0.0405607037246227,-1.528961181640625,0.8944926857948303,86.07826232910156,22.71,0
-0.1824814975261688,-0.7289823293685913,0.0372250750660896,-2.170614242553711,0.8968393802642822,86.025146484375,22.71,0
-0.16748608648777,-0.8316742181777954,0.0350844599306583,-2.582390308380127,0.8983453512191772,85.99105834960938,22.71,0
-0.157862901687622,-0.908771514892578,0.0393085107207298,-2.459726333618164,0.8993117809295654,85.96918487548828,22.71,0
-0.1460895240306854,-0.9302592873573304,0.0196281652897596,-1.9188554286956787,0.8999320268630981,85.95514678955078,22.71,0
-0.1329362690448761,-1.100786566734314,-0.0433815196156501,-1.3138102293014526,0.9003300666809082,85.94613647460938,22.71,0
-0.1524841338396072,-1.2102211713790894,-0.0278397630900144,-0.753563404083252,0.9005854725837708,85.94035339355469,22.71,0
-0.2377998977899551,-1.129310131072998,0.0269162375479936,-0.0429368093609809,0.907175838947296,85.9366455078125,22.71,0
-0.2869528830051422,-1.0773860216140747,0.0564577132463455,0.8752546906471252,0.9114051461219788,85.93426513671875,22.71,0
-0.2513231337070465,-1.0608574151992798,0.058622408658266,1.7152774333953855,0.9141192436218262,85.9327392578125,22.71,0
-0.2116646915674209,-1.0390547513961792,0.0600115843117237,2.146878480911255,0.9158610105514526,85.93175506591797,22.71,0
-0.1582253128290176,-0.9466942548751832,0.0944897234439849,2.0906755924224854,0.9169787764549256,85.9311294555664,22.71,0
-0.1071376726031303,-0.8370426297187805,0.1558002233505249,1.7285934686660769,0.9176961183547974,85.93072509765625,22.71,0
-0.0855481177568435,-0.7890655994415283,0.2119390964508056,1.2920231819152832,0.9181564450263976,85.93046569824219,22.71,0
-0.0996820554137229,-0.7694723010063171,0.2479657977819442,0.8076506853103638,0.9184518456459044,85.9302978515625,22.71,0
-0.1367412656545639,-0.7792895436286926,0.271085649728775,0.1170552521944046,0.9172642827033995,85.93019104003906,22.71,0
-0.1885126084089279,-0.8471651673316956,0.3027159869670868,-0.7524555921554565,0.9165021777153016,85.93012237548828,22.71,0
-0.2161387056112289,-0.9187127351760864,0.334210067987442,-1.486003875732422,0.9160130620002748,85.9300765991211,22.71,0
-0.2394653260707855,-0.9702256321907043,0.3488233685493469,-1.870771050453186,0.9156991839408876,85.93004608154297,22.71,0
-0.2600327730178833,-1.0760546922683716,0.3414080142974853,-1.9278160333633425,0.9154977798461914,85.9300308227539,22.71,0
-0.2676340043544769,-1.1831541061401367,0.3254537284374237,-1.6778181791305542,0.9153684973716736,85.93002319335938,22.71,0
-0.222132071852684,-1.2518843412399292,0.2872263193130493,-1.2021173238754272,0.915285587310791,85.93001556396484,22.71,0
-0.1873337775468826,-1.3631647825241089,0.2459008395671844,-0.7857800126075745,0.9152323603630066,85.93000793457031,22.71,0
-0.1873933225870132,-1.4961535930633545,0.2305760681629181,-0.5866676568984985,0.9129031896591188,85.93000793457031,22.73,0
-0.2210181802511215,-1.4023693799972534,0.2095459699630737,-0.3442463278770447,0.9114084839820862,85.93000793457031,22.73,0
-0.2314011305570602,-1.2414242029190063,0.1568656414747238,0.3522945940494537,0.9104492664337158,85.93000793457031,22.73,0
-0.1932821273803711,-1.1437366008758545,0.1006673425436019,1.4907315969467163,0.9098336696624756,85.93000793457031,22.73,0
-0.1912106424570083,-1.1314263343811035,0.0646025091409683,2.4219391345977783,0.9094386100769044,85.93000793457031,22.73,0
-0.2010768204927444,-1.1011351346969604,0.0638492703437805,2.4785656929016118,0.9091851115226746,85.93000793457031,22.73,0
-0.2130061388015747,-0.9921316504478456,0.0521703362464904,1.8664591312408447,0.9090223908424376,85.93000793457031,22.73,0
-0.1926728188991546,-0.9053861498832704,0.0390776917338371,1.355419397354126,0.9089179635047911,85.93000793457031,22.73,0
-0.1740262955427169,-0.8441200852394104,0.0250778123736381,1.0955324172973633,0.9148184657096864,85.8189468383789,22.73,0
-0.1620600223541259,-0.8048030734062195,0.0160934962332248,0.5955724120140076,0.918605089187622,85.74767303466797,22.73,0
-0.1599785387516021,-0.7795717120170593,0.0103278793394565,-0.2304163724184036,0.92103511095047,85.70193481445312,22.73,0
-0.1642405390739441,-0.7577818632125854,0.0010300640715286,-0.9682778120040894,0.9225945472717284,85.6725845336914,22.73,0
-0.1613778620958328,-0.7437983751296997,0.0006610358250327,-1.574350118637085,0.9235953092575072,85.65374755859375,22.73,0
-0.1427474468946457,-0.7628134489059448,-0.0107713332399725,-2.2678112983703613,0.9242375493049622,85.64165496826172,22.73,0
-0.1307915151119232,-0.8421895503997803,-0.00131464691367,-2.791651487350464,0.924649715423584,85.63389587402344,22.73,0
-0.1231188848614692,-0.8931285738945007,0.0159496590495109,-2.765981912612915,0.9249141812324524,85.62892150878906,22.73,0
-0.1237928122282028,-0.9761982560157776,-0.0009599757031537,-2.466485023498535,0.932428538799286,85.62572479248047,22.73,0
-0.1242252960801124,-1.0742897987365725,-0.0286049284040927,-2.4068405628204346,0.9372508525848388,85.62367248535156,22.73,0
-0.1468939334154129,-1.114848256111145,-0.0015636746538802,-2.583518743515014,0.9403455257415771,85.62236022949219,22.73,0
-0.2062235623598098,-1.056909680366516,0.0493764914572238,-2.5106067657470703,0.9423314929008484,85.62151336669922,22.73,0
-0.2610912322998047,-1.0085325241088867,0.0652736350893974,-1.5538417100906372,0.9436060190200806,85.6209716796875,22.73,0
-0.2347266227006912,-1.0334645509719849,0.053084410727024,0.4788548946380615,0.9444239139556884,85.6206283569336,22.73,0
-0.2066117823123932,-1.049464464187622,0.0508598424494266,2.718374967575073,0.9449487924575806,85.62040710449219,22.73,0
-0.1661781966686248,-1.0037546157836914,0.0942144393920898,3.933450222015381,0.9452856183052064,85.6202621459961,22.73,0
-0.1066436022520065,-0.9184429049491882,0.144428014755249,3.907136201858521,0.9455018043518066,85.62017059326172,22.73,0
-0.0628399476408958,-0.8580969572067261,0.1878477483987808,3.231055498123169,0.945640504360199,85.62010955810547,22.73,0
-0.0907070338726043,-0.8305659294128418,0.2157120406627655,2.1093311309814453,0.9457295536994934,85.62007141113281,22.73,0
-0.1197860687971115,-0.807300329208374,0.2335937321186065,0.54398512840271,0.9457866549491882,85.62004852294922,22.73,0
-0.1776317358016967,-0.8371520042419434,0.2282758504152298,-0.9406287670135498,0.9458233118057252,85.62003326416016,22.73,0
-0.2259493172168731,-0.9066891074180604,0.2472542375326156,-1.9112815856933596,0.9458468556404114,85.62002563476562,22.73,0
-0.2401634305715561,-0.9625095129013062,0.2650312483310699,-2.5341906547546387,0.9458619356155396,85.6200180053711,22.73,0
-0.2492852360010147,-1.0655051469802856,0.2820372879505157,-2.833625555038452,0.945871651172638,85.62001037597656,22.73,0
-0.2439435273408889,-1.1763839721679688,0.2929507791996002,-2.4346606731414795,0.9431235790252686,85.62001037597656,22.73,0
-0.2125266641378402,-1.2475396394729614,0.2719655632972717,-1.3761311769485474,0.9413600564002992,85.62001037597656,22.73,0
-0.1811695694923401,-1.3603765964508057,0.2417051345109939,-0.2633362412452698,0.940228283405304,85.62001037597656,22.73,0
-0.1890352666378021,-1.4719732999801636,0.2222857326269149,0.4328786730766296,0.9395020008087158,85.62001037597656,22.73,0
-0.2164741158485412,-1.420438528060913,0.2042257040739059,0.7256185412406921,0.9390358924865724,85.62001037597656,22.73,0
-0.217289462685585,-1.2978020906448364,0.1590491682291031,1.0603677034378052,0.9387367963790894,85.62001037597656,22.73,0
-0.1786282956600189,-1.1911122798919678,0.0964708253741264,1.9558799266815183,0.9385448694229126,85.62001037597656,22.73,0
-0.1874044239521026,-1.1786226034164429,0.0675071999430656,3.1539363861083984,0.938421666622162,85.62001037597656,22.73,0
-0.2154275327920913,-1.1426185369491575,0.0489200092852115,3.718573093414306,0.936047613620758,85.52327728271484,22.73,0
-0.2222156077623367,-1.0467422008514404,0.0313940457999706,3.3930699825286865,0.9345240592956544,85.46119689941406,22.73,0
-0.2097784727811813,-0.9628231525421144,0.0145491175353527,2.976391315460205,0.9335463643074036,85.42135620117188,22.73,0
-0.1794059425592422,-0.8977732062339783,-0.0074565368704497,3.006344795227051,0.932918906211853,85.39579010009766,22.73,0
-0.1655123829841613,-0.8616256713867188,-0.021578500047326,3.014819383621216,0.9325162768363952,85.37938690185547,22.73,0
-0.1621940582990646,-0.838428258895874,-0.0250433888286352,2.411220073699951,0.932257890701294,85.36885833740234,22.73,0
-0.1544667780399322,-0.801150381565094,-0.0216691792011261,1.2536110877990725,0.9320920705795288,85.36209869384766,22.73,0
-0.149507850408554,-0.7772275805473328,-0.0251015815883874,-0.1233916208148002,0.93198561668396,85.3577651977539,22.73,0
-0.1407277286052703,-0.7674731016159058,-0.0329020731151104,-1.4763901233673096,0.9319173097610474,85.35498046875,22.73,0
-0.1294953823089599,-0.8059954047203064,-0.0435057543218135,-2.520212888717652,0.9318735003471376,85.35319519042969,22.73,0
-0.1278848797082901,-0.8419123888015747,-0.0447128117084503,-3.036027431488037,0.9318453669548036,85.35205078125,22.73,0
-0.1212535724043846,-0.8593640327453613,-0.0286941081285476,-3.119849920272827,0.9318273067474364,85.351318359375,22.73,0
-0.1225957572460174,-0.9209434986114502,-0.0184142272919416,-2.9336097240448,0.93181574344635,85.35084533691406,22.73,0
-0.140250414609909,-1.0332326889038086,0.0049761328846216,-2.4486687183380127,0.9318082928657532,85.35054016113281,22.73,0
-0.1739712655544281,-1.0493156909942627,0.0927577838301658,-1.7326306104660034,0.9318035244941713,85.35034942626953,22.73,0
-0.190013587474823,-1.0260502099990845,0.1546887755393982,-1.0080078840255735,0.9318004846572876,85.35022735595703,22.73,0
-0.1947108507156372,-1.0335108041763306,0.1832369714975357,-0.317284494638443,0.9327163696289062,85.35014343261719,22.73,0
-0.1921275109052658,-1.083080768585205,0.1959597766399383,0.4269184172153473,0.9333041310310364,85.35009002685547,22.73,0
-0.1624808013439178,-1.098098635673523,0.2041245400905609,1.0657209157943726,0.933681309223175,85.35005950927734,22.73,0
-0.0986730530858039,-1.0741496086120603,0.2205597758293151,1.3502774238586426,0.933923363685608,85.35003662109375,22.73,0
-0.0465293638408184,-1.0251938104629517,0.2311069518327713,1.2355356216430664,0.9340786933898926,85.35002136230469,22.73,0
-0.0466531887650489,-0.9825813174247742,0.2322777509689331,0.7427396178245544,0.9341784119606018,85.35001373291016,22.73,0
-0.0691237524151802,-0.9608328342437744,0.2274313271045684,-0.039243396371603,0.9342423677444458,85.35000610351562,22.73,0
-0.1171307116746902,-0.9524736404418944,0.2019300758838653,-0.7524470090866089,0.934283435344696,85.35000610351562,22.73,0
-0.1591343581676483,-0.9527069926261902,0.1799670755863189,-1.1420711278915403,0.9301783442497252,85.35000610351562,22.77,0
-0.1804921180009842,-0.9472589492797852,0.1658724844455719,-1.4637609720230105,0.9275439381599426,85.35000610351562,22.77,0
-0.1830027401447296,-0.9381649494171144,0.1456318348646164,-1.9424786567687988,0.9258533120155334,85.35000610351562,22.77,0
-0.1734183728694915,-0.937926709651947,0.1214470043778419,-2.2425270080566406,0.9247683882713318,85.35000610351562,22.77,0
-0.156072124838829,-0.9489693641662598,0.0891332477331161,-1.9621808528900144,0.9240721464157104,85.35000610351562,22.77,0
-0.1505380719900131,-0.9896425604820251,0.0627983585000038,-1.1159117221832275,0.923625349998474,85.35000610351562,22.77,0
-0.1525844186544418,-1.0493309497833252,0.0403003729879856,0.0648735985159874,0.9233385920524596,85.35000610351562,22.77,0
-0.1538976430892944,-1.0764399766921997,0.0258624590933322,1.367185115814209,0.923154592514038,85.35000610351562,22.77,0
-0.1491426229476928,-1.0658481121063232,0.0054014888592064,2.507452726364136,0.9193643927574158,85.28551483154297,22.77,0
-0.1348955780267715,-1.0198664665222168,-0.0245225094258785,3.260706186294556,0.9169320464134216,85.24413299560547,22.77,0
-0.1201548650860786,-0.9903580546379088,-0.0493237785995006,3.607963085174561,0.9153711199760436,85.21757507324219,22.77,0
-0.1162928938865661,-0.971421241760254,-0.0708375796675682,3.569284439086914,0.9143694043159484,85.20053100585938,22.77,0
-0.1306078284978866,-0.9928553700447084,-0.0902416780591011,3.17545747756958,0.913726568222046,85.18959045410156,22.77,0
-0.1509898751974105,-1.012208342552185,-0.1026941090822219,2.6468636989593506,0.9133139848709106,85.18257141113281,22.77,0
-0.1640699058771133,-0.9798457622528076,-0.1050875857472419,2.2646517753601074,0.9130492210388184,85.17807006835938,22.77,0
-0.1668661385774612,-0.9478817582130432,-0.1066235825419426,2.005039691925049,0.9128793478012084,85.17517852783203,22.77,0
-0.1574650555849075,-0.9273691177368164,-0.1020115241408348,1.5267516374588013,0.9100160598754884,85.17332458496094,22.77,0
-0.1514319777488708,-0.9086074829101562,-0.0878562182188034,0.6573495268821716,0.9081785678863524,85.17213439941406,22.77,0
-0.1419625282287597,-0.907762885093689,-0.0787721648812294,-0.3448221385478973,0.9069993495941162,85.17137145996094,22.77,0
-0.1414833515882492,-0.9799919724464417,-0.0673447623848915,-1.1849998235702517,0.906242609024048,85.17088317871094,22.77,0
-0.174762487411499,-1.0263444185256958,-0.0096313478425145,-1.93554949760437,0.905756950378418,85.17056274414062,22.77,0
-0.2073146700859069,-1.0169063806533811,0.0441991277039051,-2.69306755065918,0.9054452776908876,85.17035675048828,22.77,0
-0.2114114612340927,-0.966067373752594,0.0899399742484092,-3.207859516143799,0.905245304107666,85.17022705078125,22.77,0
-0.2084427773952484,-0.95023512840271,0.1192938163876533,-3.3340165615081787,0.9051169753074646,85.1701431274414,22.77,0
-0.1897443234920501,-0.9792593121528624,0.1549247503280639,-3.3182473182678223,0.9045752882957458,85.17008972167969,22.77,0
-0.1553536355495453,-1.0034831762313845,0.1721928566694259,-3.211397886276245,0.9042276740074158,85.17005920410156,22.77,0
-0.1332836747169494,-1.0134308338165283,0.1832745373249054,-2.644850015640259,0.9040045738220216,85.17003631591797,22.77,0
-0.1079248860478401,-1.00861918926239,0.2239727675914764,-1.503853440284729,0.903861403465271,85.1700210571289,22.77,0
-0.1084444001317024,-1.0111290216445925,0.2612860798835754,-0.266484260559082,0.903769552707672,85.17001342773438,22.77,0
-0.1367666721343994,-1.0015442371368408,0.2964271903038025,0.5311705470085144,0.9037106037139891,85.17000579833984,22.77,0
-0.1773333698511123,-0.9953932166099548,0.3133809566497803,0.8460178375244141,0.9036727547645568,85.17000579833984,22.77,0
-0.2481489330530166,-0.9970436096191406,0.3186631202697754,0.9979126453399658,0.9036484956741332,85.17000579833984,22.77,0
-0.2600076496601105,-0.9869071841239928,0.350041776895523,1.2028672695159912,0.902715027332306,85.17000579833984,22.77,0
-0.2508245706558227,-0.97480446100235,0.3757765591144562,1.4776983261108398,0.9021160006523132,85.17000579833984,22.77,0
-0.2449313849210739,-0.9558420777320862,0.3699005842208862,1.7400509119033811,0.9017316102981568,85.17000579833984,22.77,0
-0.257942795753479,-0.9436731338500975,0.3605319261550903,1.8009364604949951,0.9014849066734314,85.17000579833984,22.77,0
-0.2830860912799835,-0.93026602268219,0.3545196652412414,1.5605684518814087,0.901326596736908,85.17000579833984,22.77,0
-0.2824282944202423,-0.9216620922088624,0.3618569076061249,1.205689787864685,0.901224970817566,85.17000579833984,22.77,0
-0.2764083743095398,-0.9049450159072876,0.3665655255317688,0.902715027332306,0.9011597633361816,85.17000579833984,22.77,0
-0.2557518184185028,-0.8886191844940186,0.3583917021751404,0.572145402431488,0.9011179208755492,85.17000579833984,22.77,0
-0.2424956411123275,-0.8725444674491882,0.3587439656257629,0.2274495363235473,0.902468204498291,84.99446105957031,22.77,0
-0.2395863533020019,-0.851033091545105,0.3757633566856384,0.067147359251976,0.9033347368240356,84.88180541992188,22.77,0
-0.2209260165691375,-0.8204349875450134,0.3754898905754089,0.0932473689317703,0.90389084815979,84.80950927734375,22.77,0
-0.2033531218767166,-0.8231899738311768,0.3921076953411102,0.088501401245594,0.9042477607727052,84.76311492919922,22.77,0
-0.2144669443368911,-0.8305557370185852,0.3971742689609527,0.0066390433348715,0.904476761817932,84.73333740234375,22.77,0
-0.1824147403240203,-0.7960982322692871,0.4396101534366607,-0.0064871706999838,0.9046237468719482,84.71422576904297,22.77,0
-0.1786388009786605,-0.7348009943962097,0.4668430387973785,0.0459929667413234,0.9047180414199828,84.70196533203125,22.77,0
-0.1986067146062851,-0.7178550362586975,0.5235039591789246,0.0080201849341392,0.9047785997390748,84.69409942626953,22.77,0
-0.2226165235042572,-0.6733934879302979,0.5542678833007812,-0.1739818751811981,0.9075717329978944,84.68904876708984,22.77,0
-0.2828068435192108,-0.7064360976219177,0.5572171211242676,-0.3767621517181396,0.9093641638755798,84.68580627441406,22.77,0
-0.3158357441425323,-0.6828587651252747,0.5703052878379822,-0.4639039635658264,0.9105144739151,84.68372344970703,22.77,0
-0.3202384710311889,-0.684521496295929,0.5954978466033936,-0.36219322681427,0.9112526774406432,84.68238830566406,22.77,0
-0.3566505312919616,-0.6799907684326172,0.6116650104522705,-0.0712188631296157,0.911726415157318,84.68153381347656,22.77,0
-0.3520288169384002,-0.7722454071044922,0.6164423823356628,0.2695624828338623,0.9120304584503174,84.68098449707031,22.77,0
-0.3602584302425384,-0.6747114062309265,0.6754859685897827,0.3628661930561065,0.9122255444526672,84.68063354492188,22.77,0
-0.320757508277893,-0.6680974960327148,0.7245723009109497,-0.035826526582241,0.9123507142066956,84.68040466308594,22.77,0
-0.301005870103836,-0.6582552790641785,0.7336819767951965,-0.7681671380996704,0.8830518126487732,84.68025970458984,22.77,0
-0.2995259463787079,-0.6407435536384583,0.7395280599594116,-1.2560540437698364,0.8642494678497314,84.68016815185547,22.77,0
-0.3209673166275024,-0.6295055150985718,0.7376819252967834,-1.0604259967803955,0.8521832227706909,84.68010711669922,22.77,0
-0.3795093595981598,-0.639086902141571,0.6917150020599365,-0.4727309942245483,0.8444397449493408,84.68006896972656,22.77,0
-0.4394693672657013,-0.6172468662261963,0.6566182971000671,-0.1672336757183075,0.8394704461097717,84.68004608154297,22.77,0
-0.5115348696708679,-0.6032311320304871,0.6005086302757263,-0.2792845666408539,0.836281418800354,84.6800308227539,22.77,0
-0.5521845817565918,-0.6278232932090759,0.5253162384033203,-0.3153666257858276,0.834234893321991,84.68002319335938,22.77,0
-0.5558801293373108,-0.6156162619590759,0.4826598465442657,-0.0590811297297477,0.83292156457901,84.68001556396484,22.77,0
-0.306351900100708,-0.6357713937759399,0.5168609619140625,0.1304661780595779,0.7788295149803162,84.68000793457031,22.77,0
-0.1462190449237823,-0.6431080102920532,0.5556026101112366,0.1517946124076843,0.7441163063049316,84.68000793457031,22.77,0
-0.1666060388088226,-0.6422184705734253,0.5580736398696899,0.4055145382881164,0.7218393683433533,84.68000793457031,22.77,0
-0.1628959029912948,-0.6472453474998474,0.5540616512298584,0.958838164806366,0.7075433135032654,84.68000793457031,22.77,0
-0.1437216401100158,-0.616884708404541,0.5850736498832703,1.3175119161605835,0.6983689665794373,84.68000793457031,22.77,0
-0.114623375236988,-0.6197920441627502,0.6497575640678406,1.2610820531845093,0.6924813985824585,84.68000793457031,22.77,0
-0.0735586807131767,-0.6216578483581543,0.6520835161209106,1.0923134088516235,0.6887030601501465,84.68000793457031,22.77,0
-0.013619078323245,-0.6172574162483215,0.6367828845977783,0.9445990324020386,0.6862783432006836,84.68000793457031,22.77,0
0.0192489326000213,-0.6592156887054443,0.7109304070472717,0.6312673091888428,0.6672784090042114,84.52595520019531,22.77,0
0.0571350529789924,-0.7085331678390503,0.7249273657798767,0.1829913258552551,0.6550853252410889,84.42709350585938,22.77,0
0.0702526345849037,-0.7289867401123047,0.7115187048912048,-0.1046863868832588,0.6472604870796204,84.3636474609375,22.77,0
0.056279644370079,-0.7421126961708069,0.7141093611717224,-0.1997369974851608,0.642238974571228,84.32292938232422,22.77,0
0.0808992311358451,-0.7561339139938354,0.7213696837425232,-0.3216387927532196,0.6390164494514465,84.29679870605469,22.77,0
0.1470786333084106,-0.765131950378418,0.6980400681495667,-0.4177812039852142,0.6369484066963196,84.280029296875,22.77,0
0.2455265074968338,-0.770906388759613,0.6830684542655945,-0.2752730846405029,0.6356212496757507,84.26927185058594,22.77,0
0.1407714635133743,-0.7970031499862671,0.6678627729415894,-0.1157506257295608,0.6347695589065552,84.26236724853516,22.77,0
0.0007746370392851,-0.7521750330924988,0.6301157474517822,-0.3752184510231018,0.6640611886978149,84.2579345703125,22.77,0
0.162832573056221,-0.8185691237449646,0.6562718749046326,-0.9035700559616088,0.6828588843345642,84.25508880615234,22.77,0
0.361994206905365,-0.9395458698272704,0.7346329092979431,-1.1208281517028809,0.694922149181366,84.25326538085938,22.77,0
0.3162736594676971,-0.8996285200119019,0.661769449710846,-0.9915587306022644,0.7026636600494385,84.2520980834961,22.77,0
0.2197595536708831,-0.8516207337379456,0.6485965251922607,-1.0626518726348877,0.7076317071914673,84.2513427734375,22.77,0
0.1410290300846099,-0.7816277146339417,0.6233495473861694,-1.5811753273010254,0.7108199596405029,84.25086212158203,22.77,0
0.1464820504188537,-0.7758946418762207,0.6239408254623413,-2.2829389572143555,0.712865948677063,84.25055694580078,22.77,0
0.1611770391464233,-0.7274332642555237,0.5739403367042542,-2.9804883003234863,0.7141789793968201,84.25035858154297,22.77,0
0.1874007582664489,-0.6851379871368408,0.5754395127296448,-3.757732391357422,0.6897741556167603,84.25022888183594,22.77,0
0.1986318677663803,-0.7027775049209595,0.5484127402305603,-4.647023677825928,0.6741124987602234,84.2501449584961,22.77,0
0.2506215274333954,-0.7029020190238953,0.5198729634284973,-5.4971604347229,0.6640617847442627,84.25009155273438,22.77,0
0.2559966444969177,-0.7141774296760559,0.495959997177124,-6.09288501739502,0.6576117873191833,84.25006103515625,22.77,0
0.1866750121116638,-0.6822289228439331,0.4694184958934784,-6.285310745239258,0.6534725427627563,84.25003814697266,22.77,0
0.1365906000137329,-0.6617262363433838,0.4579834640026092,-6.12577486038208,0.6508162617683411,84.2500228881836,22.77,0
0.1436337232589721,-0.6933509707450867,0.4842317402362823,-5.708127021789551,0.6491115689277649,84.25001525878906,22.77,0
0.1649469286203384,-0.7024503946304321,0.5010764002799988,-4.888388156890869,0.6480175852775574,84.25000762939453,22.77,0
0.1786245107650756,-0.7194854021072388,0.5062885284423828,-3.305467128753662,0.6229858994483948,84.25000762939453,22.77,0
0.1314242482185363,-0.7975907921791077,0.515231192111969,-0.8064532279968262,0.6069220304489136,84.25000762939453,22.77,0
0.1235249415040016,-0.8757032155990601,0.4985789656639099,2.198057174682617,0.5966131687164307,84.25000762939453,22.77,0
0.152042269706726,-0.9258312582969666,0.4710991978645324,4.871354579925537,0.5899975299835205,84.25000762939453,22.77,0
0.125560849905014,-0.9244139194488524,0.4646598100662231,6.683652877807617,0.585752010345459,84.25000762939453,22.77,0
0.0805777236819267,-0.901113212108612,0.4717229306697845,7.921915531158447,0.5830274820327759,84.25000762939453,22.77,0
0.0741012394428253,-0.8357802033424377,0.4874511659145355,9.035409927368164,0.5812790393829346,84.25000762939453,22.77,0
0.0643472298979759,-0.793853223323822,0.5031424164772034,9.83596897125244,0.5801569819450378,84.25000762939453,22.77,0
0.0468921214342117,-0.7781424522399902,0.5132121443748474,9.654702186584473,0.6157014966011047,84.12461853027344,22.77,0
0.0300926640629768,-0.7736579775810242,0.5196743607521057,8.012198448181152,0.6385119557380676,84.04415130615234,22.77,0
0.0025184163823723,-0.793171226978302,0.5070281028747559,5.338809490203857,0.6531503796577454,83.99250793457031,22.77,0
-0.0207749232649803,-0.8112914562225342,0.5101079940795898,2.734703540802002,0.6625444889068604,83.95936584472656,22.77,0
-0.0357232466340065,-0.8341155052185059,0.506486713886261,0.3792663812637329,0.6685730814933777,83.93809509277344,22.77,0
-0.0453162193298339,-0.8487626910209656,0.5097605586051941,-2.694320678710937,0.6724418997764587,83.92444610595703,22.77,0
-0.0458746626973152,-0.8749557137489319,0.5006659626960754,-6.357747554779053,0.6749246716499329,83.91568756103516,22.77,0
-0.0462330393493175,-0.8973626494407654,0.4836340546607971,-8.823366165161133,0.6765179634094238,83.91006469726562,22.77,0
-0.0744519010186195,-0.9117421507835388,0.4447150826454162,-9.366711616516112,0.69085294008255,83.90645599365234,22.77,0
-0.1149522364139556,-0.9265678524971008,0.4197391271591186,-9.40013313293457,0.7000523209571838,83.90414428710938,22.77,0
-0.1577363461256027,-0.9528754949569702,0.4037109911441803,-10.105853080749512,0.7059559226036072,83.90265655517578,22.77,0
-0.1851927191019058,-0.9641604423522948,0.3934250473976135,-11.074634552001951,0.7097445130348206,83.90170288085938,22.77,0
-0.1916171014308929,-0.9714024662971495,0.3868241310119629,-11.244937896728516,0.7121757864952087,83.90109252929688,22.77,0
-0.1733487993478775,-0.9704521894454956,0.3881858289241791,-9.684748649597168,0.7137360572814941,83.90070343017578,22.77,0
-0.1504296958446502,-0.9642446041107178,0.3834618926048279,-6.569788932800293,0.7147373557090759,83.90045166015625,22.77,0
-0.1469170898199081,-0.9546631574630736,0.3580392599105835,-4.119382858276367,0.7153799533843994,83.9002914428711,22.77,0
-0.1446629017591476,-0.9485143423080444,0.3361267149448395,-3.4030888080596924,0.722678005695343,83.90018463134766,22.77,0
-0.1656073927879333,-0.9389706254005432,0.3220644891262054,-0.4965134561061859,0.7273615002632141,83.90011596679688,22.77,0
-0.1678528040647506,-0.9440415501594543,0.3242357075214386,8.623475074768066,0.7303670644760132,83.90007781982422,22.77,0
-0.1525004655122757,-0.9472957849502563,0.3256290853023529,20.49488639831543,0.7322958707809448,83.9000473022461,22.77,0
-0.1594415456056594,-0.9437863826751708,0.3209255039691925,27.901901245117188,0.7335336804389954,83.90003204345703,22.77,0
-0.1638959199190139,-0.9415342211723328,0.3179070055484772,28.85776710510254,0.734328031539917,83.9000244140625,22.77,0
-0.1667544841766357,-0.9400889277458192,0.3159699141979217,26.350765228271484,0.7348378300666809,83.90001678466797,22.77,0
-0.1517956256866455,-0.94475919008255,0.3147267997264862,22.828819274902344,0.735164999961853,83.90000915527344,22.77,0
-0.1365981101989746,-0.947756290435791,0.31392902135849,19.404300689697266,0.7381292581558228,83.90000915527344,22.79,0
-0.1268452256917953,-0.9440819025039672,0.3022215068340301,16.902122497558594,0.7400315403938293,83.90000915527344,22.79,0
-0.1261841654777526,-0.941723883152008,0.2891105413436889,14.816303253173828,0.7412523031234741,83.90000915527344,22.79,0
-0.1257599294185638,-0.9346128702163696,0.2806966602802276,11.621970176696776,0.7420356869697571,83.90000915527344,22.79,0
-0.1198899075388908,-0.9300494194030762,0.2696993350982666,6.960333347320557,0.7425384521484375,83.90000915527344,22.79,0
-0.1161228641867637,-0.9327186346054076,0.2626419067382812,1.9768511056900024,0.7428610920906067,83.90000915527344,22.79,0
-0.1025098413228988,-0.9344316124916076,0.263710618019104,-2.2996160984039307,0.7430681586265564,83.90000915527344,22.79,0
-0.0993715599179267,-0.9299331307411194,0.2587986886501312,-5.807095527648926,0.7432010173797607,83.90000915527344,22.79,0
-0.1029553711414337,-0.927046239376068,0.2612442672252655,-8.713604927062988,0.7460405826568604,83.8068618774414,22.79,0
-0.1108530238270759,-0.9195958375930786,0.2628136873245239,-10.697060585021973,0.7478628158569336,83.74708557128906,22.79,0
-0.1159212887287139,-0.9204123616218568,0.2638208568096161,-11.296403884887695,0.7490322589874268,83.7087173461914,22.79,0
-0.1135760322213172,-0.9209363460540771,0.2700649797916412,-10.67790699005127,0.7497827410697937,83.68409729003906,22.79,0
-0.1120709776878357,-0.9212726354599,0.2740721106529236,-9.697031021118164,0.7502643465995789,83.66829681396484,22.79,0
-0.1223006695508956,-0.9214884638786316,0.2766436338424682,-8.974413871765137,0.7505733966827393,83.65815734863281,22.79,0
-0.1288654953241348,-0.9272246956825256,0.2782939076423645,-8.338716506958008,0.750771701335907,83.65164947509766,22.79,0
-0.1330784261226654,-0.9309058785438538,0.2793529629707336,-7.436367511749268,0.7508990168571472,83.64747619628906,22.79,0
-0.1357820481061935,-0.9332682490348816,0.280032604932785,-6.348566055297852,0.7509806752204895,83.6447982788086,22.79,0
-0.1431148499250412,-0.9347842931747437,0.2804687321186065,-5.378201961517334,0.7510331273078918,83.64308166503906,22.79,0
-0.1478206217288971,-0.9357572197914124,0.2807486355304718,-4.648000717163086,0.7510667443275452,83.64197540283203,22.79,0
-0.1508405059576034,-0.9363815784454346,0.2809282541275024,-4.021766185760498,0.7510883212089539,83.64126586914062,22.79,0
-0.1527784913778305,-0.9367822408676147,0.2754457592964172,-3.2365493774414062,0.7511022090911865,83.64081573486328,22.79,0
-0.1540221869945526,-0.9370393753051758,0.2719273865222931,-2.248994827270508,0.7511110901832581,83.6405258178711,22.79,0
-0.1548203229904174,-0.9372044205665588,0.2696695029735565,-1.3393807411193848,0.7511168122291565,83.64033508300781,22.79,0
-0.1553325206041336,-0.9373103380203248,0.2682205438613891,-0.76997309923172,0.7511204481124878,83.64021301269531,22.79,0
-0.1556612104177475,-0.9317805171012878,0.2672906816005707,-0.5406978726387024,0.7524999380111694,83.64013671875,22.79,0
-0.1558721512556076,-0.9338295459747314,0.2610961496829986,-0.5153698325157166,0.7533852458000183,83.64009094238281,22.79,0
-0.1504097431898117,-0.935144543647766,0.2571208775043487,-0.5277763605117798,0.7539533376693726,83.64006042480469,22.79,0
-0.1469042897224426,-0.9415861964225768,0.2545697689056396,-0.4569214880466461,0.7543179392814636,83.6400375366211,22.79,0
-0.1390569061040878,-0.9401223063468932,0.252932608127594,-0.3433819711208343,0.754551887512207,83.64002227783203,22.79,0
-0.139618694782257,-0.9335850477218628,0.2574797570705414,-0.3887438476085663,0.7547020316123962,83.6400146484375,22.79,0
-0.1343814432621002,-0.9349876046180724,0.2603978514671325,-0.6650521755218506,0.754798412322998,83.64000701904297,22.79,0
-0.1310204714536667,-0.9358876943588256,0.2622705101966858,-1.021499752998352,0.7548602819442749,83.64000701904297,22.79,0
-0.128863587975502,-0.936465322971344,0.2634722888469696,-1.286073088645935,0.7571952939033508,83.64000701904297,22.83,0
-0.1274794340133667,-0.936836004257202,0.2642435133457184,-1.4236178398132324,0.7586937546730042,83.64000701904297,22.83,0
-0.1265911608934402,-0.9370738863945008,0.2647384405136108,-1.4079914093017578,0.7596554160118103,83.64000701904297,22.83,0
-0.1260211169719696,-0.9372265338897704,0.2650560438632965,-1.1650959253311155,0.7602725625038147,83.64000701904297,22.83,0
-0.1312530636787414,-0.9373245239257812,0.2652598619461059,-0.8085952997207642,0.7606685757637024,83.64000701904297,22.83,0
-0.1346106380224228,-0.9373874068260192,0.2653906643390655,-0.6299697756767273,0.7609227299690247,83.64000701904297,22.83,0
-0.1367653310298919,-0.9374277591705322,0.2654746174812317,-0.7016320824623108,0.7610858082771301,83.64000701904297,22.83,0
-0.138148084282875,-0.9374536275863647,0.2655285000801086,-0.7476208806037903,0.7611904740333557,83.64000701904297,22.83,0
-0.1390354633331298,-0.9374702572822572,0.2655630707740783,-0.6230830550193787,0.7621755003929138,83.5504379272461,22.83,0
-0.1452026963233947,-0.937480926513672,0.2655852437019348,-0.4930058121681213,0.7628076076507568,83.49295806884766,22.83,0
-0.1491604745388031,-0.937487781047821,0.2655994892120361,-0.4310251772403717,0.7632132768630981,83.45606994628906,22.83,0
-0.1461025774478912,-0.9374921321868896,0.2656086385250091,-0.2945200204849243,0.763473629951477,83.4323959350586,22.83,0
-0.1497379690408706,-0.937494933605194,0.2600167393684387,-0.0421204082667827,0.7636407017707825,83.41720581054688,22.83,0
-0.1520709544420242,-0.9430945515632628,0.2620259523391723,0.2058369517326355,0.7637479305267334,83.40745544433594,22.83,0
-0.1535681337118148,-0.9354925155639648,0.2577175498008728,0.3076405227184295,0.7638167142868042,83.40119934082031,22.83,0
-0.1545289307832718,-0.9362117052078248,0.2605504393577575,0.1257744580507278,0.7638608813285828,83.39718627929688,22.83,0
-0.14954774081707,-0.9366732239723206,0.2623684406280517,-0.259629875421524,0.7652663588523865,83.39461517333984,22.83,0
-0.1463510990142822,-0.9369693994522096,0.257937341928482,-0.5284556746482849,0.7661682963371277,83.39295959472656,22.83,0
-0.1442996859550476,-0.9371594786643982,0.2606914937496185,-0.5254263877868652,0.7667471170425415,83.39189910888672,22.83,0
-0.1429831981658935,-0.9372814893722534,0.2568611800670624,-0.3586838543415069,0.7671185731887817,83.39122009277344,22.83,0
-0.1421383619308471,-0.9373597502708436,0.2544031143188476,-0.126287966966629,0.7673569917678833,83.39078521728516,22.83,0
-0.141596183180809,-0.9374099969863892,0.2528256773948669,0.0407632254064083,0.7675099968910217,83.3905029296875,22.83,0
-0.1412482559680938,-0.9374422430992126,0.2518133521080017,0.0154117653146386,0.7676081657409668,83.39031982421875,22.83,0
-0.1410249769687652,-0.9374629259109496,0.2511636912822723,-0.0617611296474933,0.7676711678504944,83.39020538330078,22.83,0
-0.1408816874027252,-0.9374762177467346,0.24514901638031,-0.0109741352498531,0.768629789352417,83.39012908935547,22.83,0
-0.1407897323369979,-0.9374847412109376,0.2412891387939453,0.0431134924292564,0.7692449688911438,83.39008331298828,22.83,0
-0.1407307088375091,-0.9374902248382568,0.2388120889663696,-0.0153231490403413,0.769639790058136,83.39005279541016,22.83,0
-0.1406928449869156,-0.9374937415122986,0.2372224628925323,-0.0671547278761863,0.7698931694030762,83.39002990722656,22.83,0
-0.1406685411930084,-0.9374960064888,0.2362023442983627,-0.0681740716099739,0.7700557708740234,83.39002227783203,22.83,0
-0.1406529396772384,-0.9374974370002748,0.2411454617977142,-0.0616630725562572,0.7701600790023804,83.3900146484375,22.83,0
-0.1406429260969162,-0.9430961012840272,0.2443176656961441,0.0141668273136019,0.7702270150184631,83.39000701904297,22.83,0
-0.1406365036964416,-0.9466890096664428,0.2463534027338028,0.098655842244625,0.7702699899673462,83.39000701904297,22.83,0
-0.1406323760747909,-0.9433969855308532,0.2476598173379898,0.0382336117327213,0.7725926041603088,83.39000701904297,22.83,0
-0.1406297385692596,-0.9412843585014344,0.2484982013702392,-0.022037349641323,0.7740830779075623,83.39000701904297,22.83,0
-0.1406280398368835,-0.9399285912513732,0.2490362375974655,0.154238760471344,0.7750396132469177,83.39000701904297,22.83,0
-0.1406269520521164,-0.9390585422515868,0.2493815124034881,0.4178307950496673,0.7756534218788147,83.39000701904297,22.83,0
-0.1406262516975402,-0.944097936153412,0.2440053224563598,0.522502601146698,0.7760473489761353,83.39000701904297,22.83,0
-0.1406258046627044,-0.9417341947555542,0.2405551820993423,0.5251885652542114,0.7763001322746277,83.39000701904297,22.83,0
-0.1406255215406417,-0.9402172565460204,0.2439388632774353,0.5018342733383179,0.7764623761177063,83.39000701904297,22.83,0
-0.1406253278255462,-0.9392437934875488,0.2461103051900863,0.3327960669994354,0.7765665054321289,83.39000701904297,22.83,0
-0.1406252086162567,-0.9442168474197388,0.2475038170814514,0.0451883040368557,0.7766333222389221,83.33985137939453,22.83,0
-0.1406251341104507,-0.9418104887008668,0.248398095369339,-0.1322166472673416,0.7766761779785156,83.30766296386719,22.83,0
-0.1462228596210479,-0.940266251564026,0.2489719837903976,-0.1457528173923492,0.7767037153244019,83.28700256347656,22.83,0
-0.144217386841774,-0.9392752051353456,0.2493402808904647,-0.1186137944459915,0.7767213582992554,83.27374267578125,22.83,0
-0.1429303884506225,-0.938639223575592,0.2495766282081604,-0.1226929873228073,0.7767326831817627,83.2652359008789,22.83,0
-0.1421044617891311,-0.9382311105728148,0.2441305369138717,-0.1468062400817871,0.7767399549484253,83.25978088378906,22.83,0
-0.141574427485466,-0.937969207763672,0.2462333142757415,-0.0906292200088501,0.7767446041107178,83.25627899169922,22.83,0
-0.1412342935800552,-0.9378011226654052,0.2475827634334564,0.1639590710401535,0.7767476439476013,83.2540283203125,22.83,0
-0.1410160064697265,-0.9376932382583618,0.2428509891033172,0.4348164498806,0.7785859704017639,83.2525863647461,22.83,0
-0.1408759206533432,-0.9376240372657776,0.2398144006729126,0.3471091091632843,0.7797657251358032,83.25166320800781,22.83,0
-0.1407860219478607,-0.9375795722007751,0.2378657013177871,-0.0316082276403903,0.7805228233337402,83.25106811523438,22.83,0
-0.1407283395528793,-0.9431488513946532,0.2422129064798355,-0.2531517446041107,0.7810086607933044,83.25068664550781,22.83,0
-0.1406913101673126,-0.9467228651046752,0.2450026869773864,-0.2161968499422073,0.7813204526901245,83.25044250488281,22.83,0
-0.1406675577163696,-0.9434186816215516,0.2467930167913437,-0.1638207286596298,0.7815205454826355,83.25028228759766,22.83,0
-0.1406523138284683,-0.941298246383667,0.2479419410228729,-0.1230435892939567,0.7816489934921265,83.25018310546875,22.83,0
-0.1406425237655639,-0.9399374723434448,0.2486792504787445,0.0571755804121494,0.7817314267158508,83.25011444091797,22.83,0
-0.1406362503767013,-0.9446619749069214,0.2491524219512939,0.34837606549263,0.7799478769302368,83.25007629394531,22.83,0
-0.140632227063179,-0.947693943977356,0.2438582926988601,0.5997381210327148,0.778803288936615,83.25004577636719,22.83,0
-0.1406296342611313,-0.944041907787323,0.2460586130619049,0.6643182635307312,0.7780687808990479,83.25003051757812,22.83,0
-0.1406279802322387,-0.94169819355011,0.2530684173107147,0.4585644006729126,0.7775973677635193,83.2500228881836,22.83,0
-0.1406269073486328,-0.951389729976654,0.2631646692752838,0.0506651140749454,0.7772948741912842,83.25001525878906,22.83,0
-0.1574195474386215,-0.963206946849823,0.2696438729763031,-0.3830648064613342,0.7771007418632507,83.25000762939453,22.83,0
-0.1514027714729309,-0.959595024585724,0.2849974036216736,-0.6972334384918213,0.7769761681556702,83.25000762939453,22.83,0
-0.1531393229961395,-0.9572770595550536,0.3228392899036407,-0.7591283917427063,0.7768962383270264,83.25000762939453,22.83,0
-0.2270248085260391,-0.9781806468963624,0.3135373890399933,-0.5659815669059753,0.7777631282806396,83.25000762939453,22.83,0
-0.2464513927698135,-0.9803998470306396,0.3075679540634155,-0.330971211194992,0.7783194780349731,83.25000762939453,22.83,0
-0.2085382938385009,-0.9650306701660156,0.3541170954704284,-0.2267285734415054,0.7786765098571777,83.25000762939453,22.83,0
-0.2177944928407669,-0.9607653617858888,0.3951852023601532,-0.2028225511312484,0.7789056301116943,83.25000762939453,22.83,0
-0.2349301278591156,-0.9580281376838684,0.3935514688491821,-0.1624030172824859,0.7790526747703552,83.25000762939453,22.83,0
-0.1955468356609344,-0.9282826781272888,0.4316874742507934,-0.0755603015422821,0.7791470289230347,83.25000762939453,22.83,0
-0.1870662271976471,-0.909193754196167,0.4561609625816345,0.012413534335792,0.7792075872421265,83.25000762939453,22.83,0
-0.2096127271652221,-0.885748028755188,0.460671067237854,-0.0027814344502985,0.77924644947052,83.25000762939453,22.83,0
-0.1904951333999633,-0.8651041388511658,0.4859564900398254,-0.0913493558764457,0.7760581374168396,83.24642181396484,22.83,0
-0.1894221007823944,-0.8574538826942444,0.524574339389801,-0.0693704858422279,0.7740120887756348,83.2441177368164,22.83,0
-0.1999290436506271,-0.8581421375274658,0.5381615161895752,0.0593767017126083,0.7726990580558777,83.24264526367188,22.83,0
-0.20107401907444,-0.8361927270889282,0.5580765008926392,0.0775128826498985,0.771856427192688,83.24169921875,22.83,0
-0.2018087953329086,-0.8165090680122375,0.5876501202583313,-0.0434036590158939,0.7713156342506409,83.2410888671875,22.83,0
-0.1966825574636459,-0.7982794642448425,0.6066287755966187,-0.0493494234979152,0.7709686160087585,83.2406997680664,22.83,0
-0.1598061919212341,-0.7473963499069214,0.6188081502914429,0.2119455337524414,0.7707459330558777,83.24044799804688,22.83,0
-0.1697277128696441,-0.6979491710662842,0.6322219967842102,0.6053318381309509,0.7706030011177063,83.24028778076172,22.83,0
-0.1760947704315185,-0.6606190204620361,0.6464279890060425,0.8900277018547058,0.7714294791221619,83.24018096923828,22.83,0
-0.1521919071674347,-0.6198693513870239,0.6723378896713257,0.8971829414367676,0.7719599008560181,83.2401123046875,22.83,0
-0.13685242831707,-0.5881208181381226,0.7001609206199646,0.5721777677536011,0.7723003029823303,83.24007415771484,22.83,0
-0.1382039785385131,-0.5677464008331299,0.7236139178276062,0.0590892471373081,0.7725187540054321,83.24004364013672,22.83,0
-0.1166802272200584,-0.5434757471084595,0.7554580569267273,-0.3239200711250305,0.7726589441299438,83.24002838134766,22.83,0
-0.1084652990102768,-0.527900218963623,0.7814915180206299,-0.404914915561676,0.7727488875389099,83.24002075195312,22.83,0
-0.0975956544280052,-0.5011114478111267,0.803796112537384,-0.4210669696331024,0.7728065848350525,83.2400131225586,22.83,0
-0.090620145201683,-0.4783221781253814,0.8181098699569702,-0.6499695181846619,0.7728436589241028,83.24000549316406,22.83,0
-0.0917414426803588,-0.4525017738342285,0.8272956609725952,-0.9867425560951232,0.766899585723877,83.24000549316406,22.83,0
-0.0980587974190712,-0.4303339421749115,0.8331905603408813,-1.1813685894012451,0.7630850076675415,83.24000549316406,22.83,0
-0.1021129116415977,-0.4161079227924347,0.8425713181495667,-1.248947262763977,0.7606370449066162,83.24000549316406,22.83,0
-0.1103123873472213,-0.4013806879520416,0.8429936170578003,-1.245741844177246,0.7590660452842712,83.24000549316406,22.83,0
-0.1211721077561378,-0.3919295966625213,0.8432645797729492,-1.0717211961746216,0.7580578923225403,83.24000549316406,22.83,0
-0.133739024400711,-0.3802666664123535,0.8490362763404846,-0.7844985127449036,0.7574109435081482,83.24000549316406,22.83,0
-0.1306082010269165,-0.3727820813655853,0.8583379983901978,-0.743478536605835,0.7569957375526428,83.24000549316406,22.83,0
-0.1285990178585052,-0.3623811304569244,0.8643072843551636,-1.1578110456466677,0.7567293047904968,83.24000549316406,22.83,0
-0.1441029608249664,-0.3557063937187195,0.8681380152702332,-1.7783808708190918,0.7565582990646362,83.24000549316406,22.87,0
-0.1428569555282592,-0.3514229357242584,0.8761941194534302,-2.276938915252685,0.7564485669136047,83.24000549316406,22.87,0
-0.1420573443174362,-0.3430762887001037,0.881364107131958,-2.6004674434661865,0.7563781142234802,83.24000549316406,22.87,0
-0.1639352887868881,-0.3489154279232025,0.8846818804740906,-2.851080179214477,0.7563329339027405,83.24000549316406,22.87,0
-0.1667797565460205,-0.3526626527309418,0.8868110775947571,-3.04056978225708,0.7563039064407349,83.24000549316406,22.87,0
-0.1630073934793472,-0.3494696319103241,0.893775224685669,-3.090521812438965,0.7562853097915649,83.24000549316406,22.87,0
-0.1717820614576339,-0.3530183136463165,0.8982443809509277,-2.9828577041625977,0.7562733888626099,83.24000549316406,22.87,0
-0.1662175804376602,-0.3441000878810882,0.8955146670341492,-2.7955400943756104,0.7562656998634338,83.24000549316406,22.87,0
-0.1626466214656829,-0.3327791094779968,0.8993606567382812,-2.646669864654541,0.7567200660705566,83.207763671875,22.87,0
-0.1603549867868423,-0.3255139589309692,0.9018288254737854,-2.629950046539306,0.7570116519927979,83.18707275390625,22.87,0
-0.1588843464851379,-0.3264493942260742,0.9034127593040466,-2.801931619644165,0.7571988105773926,83.17378997802734,22.87,0
-0.1579405665397644,-0.3270497024059295,0.9044291973114014,-3.1451668739318848,0.757318913936615,83.16526794433594,22.87,0
-0.1685304641723632,-0.3330326974391937,0.8994837403297424,-3.429921865463257,0.7573959827423096,83.15979766845703,22.87,0
-0.1641308963298797,-0.3312744796276092,0.9019078016281128,-3.3368029594421387,0.7574454545974731,83.15628814697266,22.87,0
-0.1613074988126754,-0.3301461637020111,0.8978656530380249,-2.8256399631500244,0.7574771642684937,83.15403747558594,22.87,0
-0.1650933921337127,-0.3294220566749573,0.9008694291114808,-2.1214346885681152,0.7574975490570068,83.152587890625,22.87,0
-0.1675229519605636,-0.3289573788642883,0.9027970433235168,-1.382910132408142,0.7552152276039124,83.15166473388672,22.87,0
-0.1690821051597595,-0.3342569470405578,0.909631848335266,-0.4933888018131256,0.7537505626678467,83.15106964111328,22.87,0
-0.1700826734304428,-0.3432556688785553,0.902822494506836,0.7259010076522827,0.7528106570243835,83.15068817138672,22.87,0
-0.1651270091533661,-0.343432754278183,0.9040504097938538,2.203390598297119,0.7522074580192566,83.15044403076172,22.87,0
-0.1731422990560531,-0.3435464203357696,0.8992406725883484,3.5671372413635254,0.7518203854560852,83.15028381347656,22.87,0
-0.1726882755756378,-0.3492171168327331,0.9017518162727356,4.449476718902588,0.7515719532966614,83.15018463134766,22.87,0
-0.1723969131708145,-0.3528562486171722,0.9033633470535278,4.861660480499268,0.751412570476532,83.15011596679688,22.87,0
-0.1834054887294769,-0.3551916480064392,0.8987997174263,5.115428447723389,0.7513102889060974,83.15007781982422,22.87,0
-0.1848723739385604,-0.356690376996994,0.8958710432052612,5.364264011383057,0.7526217699050903,83.1500473022461,22.87,0
-0.1802159696817398,-0.3576521575450897,0.8939915895462036,5.545447826385498,0.7534633874893188,83.15003204345703,22.87,0
-0.1772277504205703,-0.3582693934440613,0.8927854895591736,5.6294779777526855,0.7540035247802734,83.1500244140625,22.87,0
-0.1865056306123733,-0.3698610365390777,0.8920114636421204,5.536518096923828,0.7543501257896423,83.15001678466797,22.87,0
-0.1756663173437118,-0.3717021048069,0.891514778137207,5.104273796081543,0.7545725703239441,83.15000915527344,22.87,0
-0.1631125062704086,-0.367285817861557,0.8800004720687866,4.404140472412109,0.7547153234481812,83.15000915527344,22.87,0
-0.1494584083557129,-0.3476583957672119,0.8390246033668518,3.743463277816773,0.7548069357872009,83.15000915527344,22.87,0
-0.1295004487037658,-0.3182693123817444,0.8015331029891968,3.2263317108154297,0.7548657059669495,83.15000915527344,22.87,0
-0.1558769941329956,-0.3273979723453522,0.7606799006462097,2.736833095550537,0.7539852261543274,83.15000915527344,22.89,0
-0.1168262064456939,-0.3332562148571014,0.7064737677574158,2.2328245639801025,0.7534201741218567,83.15000915527344,22.89,0
-0.086167886853218,-0.3314179182052612,0.6548940539360046,1.7696603536605835,0.7530575394630432,83.15000915527344,22.89,0
-0.1280686557292938,-0.3750204145908355,0.5938042998313904,1.3470381498336792,0.7528248429298401,83.15000915527344,22.89,0
-0.1941425800323486,-0.4365886151790619,0.560198187828064,0.8716166615486145,0.7526755332946777,83.15000915527344,22.89,0
-0.2589361071586609,-0.5488706231117249,0.516240656375885,0.3193208277225494,0.7525796890258789,83.15000915527344,22.89,0
-0.3117124140262604,-0.6657089591026306,0.4824334383010864,-0.1031797677278518,0.7525181770324707,83.15000915527344,22.89,0
-0.3175923526287079,-0.7742757201194763,0.4383468329906463,-0.2059352844953537,0.7524787187576294,83.15000915527344,22.89,0
-0.2709857821464538,-0.855143129825592,0.3932612538337707,-0.2324695289134979,0.7538304924964905,83.18941497802734,22.89,0
-0.2298808246850967,-0.9294303059577942,0.3811212480068207,-0.5325211882591248,0.7546980381011963,83.21470642089844,22.89,0
-0.1587198227643966,-1.0386790037155151,0.4461015462875366,-1.0188482999801636,0.7552547454833984,83.2309341430664,22.89,0
-0.1410416662693023,-1.0807996988296509,0.4542155265808105,-1.3596055507659912,0.7556120157241821,83.24134826660156,22.89,0
-0.1408923864364624,-1.0966347455978394,0.448227047920227,-1.4313983917236328,0.7558413147926331,83.24803161621094,22.89,0
-0.1519921422004699,-1.1011990308761597,0.4331884384155273,-1.248186111450195,0.7559884190559387,83.2523193359375,22.89,0
-0.1591153293848037,-1.0929325819015503,0.4235375523567199,-0.8296746015548706,0.7560828328132629,83.25507354736328,22.89,0
-0.15249103307724,-1.0708342790603638,0.4173441529273987,-0.3318131566047668,0.7561434507369995,83.2568359375,22.89,0
-0.1314466148614883,-1.0398595333099363,0.4077718257904053,0.0557545647025108,0.7589366436004639,83.25797271728516,22.89,0
-0.1347348392009735,-1.0143840312957764,0.3848355114459991,0.3976202011108398,0.7607291340827942,83.25869750976562,22.89,0
-0.1648339033126831,-0.9980353116989136,0.3533229827880859,0.8570424318313599,0.7618794441223145,83.25916290283203,22.89,0
-0.1897475272417068,-0.9875436425209044,0.3275022804737091,1.2450201511383057,0.7626176476478577,83.25946044921875,22.89,0
-0.2057356536388397,-0.9808107018470764,0.2997364997863769,1.1859004497528076,0.7630913853645325,83.25965118408203,22.89,0
-0.1992025971412658,-0.970892071723938,0.2819180190563202,0.7323819994926453,0.7633954286575317,83.25977325439453,22.89,0
-0.1894122809171676,-0.964526891708374,0.2648853659629822,0.2944543659687042,0.7635905146598816,83.25985717773438,22.89,0
-0.1831294149160385,-0.960442066192627,0.2539547979831695,0.1388078033924102,0.7637156844139099,83.2599105834961,22.89,0
-0.173499658703804,-0.9522228837013244,0.2469401806592941,0.2717902064323425,0.765632152557373,83.25994110107422,22.89,0
-0.1729176193475723,-0.941350519657135,0.2368408292531967,0.5398420095443726,0.7668619751930237,83.25996398925781,22.89,0
-0.1669463217258453,-0.9343732595443726,0.2303596585988998,0.7011145353317261,0.7676512598991394,83.25997924804688,22.89,0
-0.1631142795085907,-0.9298956394195556,0.2262004166841507,0.7401235699653625,0.7681577801704407,83.2599868774414,22.89,0
-0.1550573259592056,-0.9270221590995787,0.2291290163993835,0.9908596277236938,0.7684828042984009,83.25999450683594,22.89,0
-0.1498868316411972,-0.9251781702041626,0.2310084253549575,1.5673463344573977,0.76869136095047,83.25999450683594,22.89,0
-0.1465687155723571,-0.923994779586792,0.2378122955560684,2.094935655593872,0.7688252329826355,83.25999450683594,22.89,0
-0.1444393396377563,-0.9288331270217896,0.2421786338090896,2.311704635620117,0.7689111232757568,83.25999450683594,22.89,0
-0.1430728286504745,-0.931938111782074,0.2449806928634643,2.4221537113189697,0.7671301960945129,83.25999450683594,22.91,0
-0.1421958804130554,-0.9339306950569152,0.2467788904905319,2.690075397491455,0.7659872770309448,83.25999450683594,22.91,0
-0.1472308784723281,-0.9352094531059264,0.247932881116867,3.091296911239624,0.7652538418769836,83.25999450683594,22.91,0
-0.1560598164796829,-0.9360300302505492,0.2486734390258789,3.477750539779663,0.7647831439971924,83.25999450683594,22.91,0
-0.167323499917984,-0.93655663728714,0.2491486966609954,3.729336738586426,0.7644810676574707,83.25999450683594,22.91,0
-0.1745518893003463,-0.9368945956230164,0.2494536787271499,3.847799301147461,0.7642872333526611,83.25999450683594,22.91,0
-0.1847884207963943,-0.937111496925354,0.2440516352653503,3.8915786743164062,0.7641628384590149,83.25999450683594,22.91,0
-0.1913576424121856,-0.9372506737709044,0.2461826801300048,3.6223199367523193,0.7640829682350159,83.25999450683594,22.91,0
-0.1955733895301818,-0.9429377913475036,0.2419524937868118,2.482229709625244,0.7649499773979187,83.281494140625,22.91,0
-0.1982788145542144,-0.9465874433517456,0.2448355704545974,0.3856242001056671,0.7655063271522522,83.2952880859375,22.91,0
-0.2000149935483932,-0.9489295482635498,0.2466857731342315,-1.9199869632720947,0.7658633589744568,83.30413818359375,22.91,0
-0.1955313980579376,-0.9504325985908508,0.2478731125593185,-3.650375843048096,0.7660924792289734,83.30982208251953,22.91,0
-0.192654088139534,-0.9457994103431702,0.2486350834369659,-4.617536544799805,0.7662395238876343,83.31346893310547,22.91,0
-0.1908075958490371,-0.9428260922431946,0.2491240799427032,-4.905025005340576,0.7663338780403137,83.31581115722656,22.91,0
-0.1840248554944992,-0.94091796875,0.2494378834962844,-4.613036155700684,0.7663944363594055,83.31731414794922,22.91,0
-0.1796720772981643,-0.9452912211418152,0.2496392726898193,-3.970667362213135,0.7664332985877991,83.31827545166016,22.91,0
-0.165683165192604,-0.9424999356269836,0.2553662657737732,-3.210922241210937,0.7673761248588562,83.31889343261719,22.91,0
-0.1567058861255645,-0.9407086968421936,0.2646393179893493,-2.3400259017944336,0.7679811716079712,83.31929016113281,22.91,0
-0.1565425544977188,-0.9395591616630554,0.270590215921402,-1.3404780626296997,0.7683694958686829,83.31954193115234,22.91,0
-0.1564377397298813,-0.9388214349746704,0.2688113749027252,-0.3980894684791565,0.7686187028884888,83.3197021484375,22.91,0
-0.1619682610034942,-0.9383479952812196,0.2676698267459869,0.2640025615692138,0.7687786221504211,83.31980895996094,22.91,0
-0.1655174195766449,-0.9380441904067992,0.266937255859375,0.5706701278686523,0.7688812017440796,83.31987762451172,22.91,0
-0.1733928471803665,-0.9322514533996582,0.2664671242237091,0.545352041721344,0.7689470648765564,83.3199234008789,22.91,0
-0.1784468442201614,-0.9285340309143066,0.2549698650836944,0.2460808455944061,0.7689893245697021,83.31995391845703,22.91,0
-0.1816902011632919,-0.9261483550071716,0.2531893849372864,-0.2110847681760788,0.7676396369934082,83.3199691772461,22.91,0
-0.1837716102600097,-0.9246174097061156,0.2520467638969421,-0.6979264616966248,0.766773521900177,83.31997680664062,22.91,0
-0.1907051056623459,-0.9180371165275574,0.2513135075569153,-1.1035003662109375,0.7662177085876465,83.31998443603516,22.91,0
-0.1951546221971511,-0.919412076473236,0.2508429288864136,-1.3566092252731323,0.7658609747886658,83.31999206542969,22.91,0
-0.1924123018980026,-0.920294463634491,0.2561387121677398,-1.486796736717224,0.7656320333480835,83.31999206542969,22.91,0
-0.1962502002716064,-0.9208607077598572,0.2595372498035431,-1.6025867462158203,0.7654851675033569,83.31999206542969,22.91,0
-0.1987131536006927,-0.921224057674408,0.2617182433605194,-1.7091373205184937,0.7653908729553223,83.31999206542969,22.91,0
-0.1946959495544433,-0.921457290649414,0.2687156498432159,-1.69869863986969,0.7653303742408752,83.31999206542969,22.91,0
-0.1921179443597793,-0.9216069579124452,0.2788039445877075,-1.5558618307113647,0.7666683197021484,83.31999206542969,22.93,0
-0.196061298251152,-0.9217029809951782,0.2852780222892761,-1.3567200899124146,0.7675269842147827,83.31999206542969,22.93,0
-0.1929941475391388,-0.921764612197876,0.2894327342510223,-1.142940640449524,0.7680779695510864,83.31999206542969,22.93,0
-0.191025823354721,-0.921804130077362,0.2920989692211151,-0.9484280347824096,0.7684316039085388,83.31999206542969,22.93,0
-0.1953604519367218,-0.9218295216560364,0.2938100099563598,-0.8486790657043457,0.7686585187911987,83.31999206542969,22.93,0
-0.1925443857908249,-0.92184579372406,0.2893103063106537,-0.8061614036560059,0.768804132938385,83.31999206542969,22.93,0
-0.1907372027635574,-0.9218562841415404,0.2864226400852203,-0.6642335653305054,0.7688975930213928,83.31999206542969,22.93,0
-0.1895774453878402,-0.9218629598617554,0.284569501876831,-0.4370145797729492,0.7689575552940369,83.31999206542969,22.93,0
-0.1888331919908523,-0.9218672513961792,0.2833802700042724,-0.3664326071739197,0.7685371041297913,83.36656951904297,22.93,0
-0.1939533352851867,-0.9218700528144836,0.2826170921325683,-0.5504220128059387,0.7682672739028931,83.3964614868164,22.93,0
-0.1916413754224777,-0.916274070739746,0.282127320766449,-0.7544776201248169,0.7680941224098206,83.41564178466797,22.93,0
-0.2013532519340515,-0.9294762015342712,0.2650196850299835,-0.7600386142730713,0.7679830193519592,83.42794799804688,22.93,0
-0.2075857669115066,-0.9155574440956116,0.2708343267440796,-0.6274694800376892,0.7679117321968079,83.43584442138672,22.93,0
-0.1779987961053848,-0.8674407601356506,0.2745658159255981,-0.5173162221908569,0.7678659558296204,83.44091796875,22.93,0
-0.1870004534721374,-0.909333348274231,0.282558262348175,-0.489617109298706,0.7678365707397461,83.44416809082031,22.93,0
-0.1815816462039947,-0.8914353847503662,0.2932851016521454,-0.5219974517822266,0.7678177356719971,83.44625854492188,22.93,0
-0.1948974877595901,-0.9359272718429564,0.2889734208583832,-0.535612165927887,0.7687238454818726,83.44760131835938,22.93,0
-0.2090406119823455,-0.94768625497818,0.2806086838245392,-0.4082114100456238,0.7693053483963013,83.44845581054688,22.93,0
-0.2013235241174698,-0.9440369606018066,0.2696428894996643,-0.1258287131786346,0.76967853307724,83.44900512695312,22.93,0
-0.1963711380958557,-0.9584883451461792,0.257007896900177,0.1485352218151092,0.7699180245399475,83.4493637084961,22.93,0
-0.2099863141775131,-0.9845557808876038,0.2433017194271087,0.281615287065506,0.7700716853141785,83.44959259033203,22.93,0
-0.2075282037258148,-0.9732954502105712,0.2401036620140075,0.3240275084972381,0.7701703310012817,83.44973754882812,22.93,0
-0.2171462774276733,-0.9940581321716307,0.2492468804121017,0.3512452244758606,0.7702336311340332,83.4498291015625,22.93,0
-0.2457097023725509,-1.0129802227020264,0.2495166957378387,0.3042256236076355,0.7702742218971252,83.44989013671875,22.93,0
-0.3200178146362304,-1.097894310951233,0.1993098706007003,0.1737390458583831,0.7643327713012695,83.4499282836914,22.93,0
-0.2501512169837951,-1.0796163082122805,0.2510566413402557,0.1437388956546783,0.7605199217796326,83.449951171875,22.93,0
-0.1717281937599182,-0.9447354674339294,0.2954602837562561,0.2606244087219238,0.7580730319023132,83.44996643066406,22.93,0
-0.2053674310445785,-0.8861655592918396,0.3295537531375885,0.2998090386390686,0.7565028071403503,83.4499740600586,22.93,0
-0.2045640647411346,-0.8373832106590271,0.3626285493373871,0.1314963847398758,0.7554950714111328,83.44998168945312,22.93,0
-0.2208418250083923,-0.8396641612052917,0.40064737200737,-0.0445859096944332,0.7548484206199646,83.44998931884766,22.93,0
-0.2200924158096313,-0.8299323916435242,0.4194478690624237,0.032291118055582,0.7544333934783936,83.44998931884766,22.93,0
