acc_x,acc_y,acc_z,bvp,eda,hr,temp,label
0.0,0.0,0.0,0.0,0.0,0.0,29.67,0
-0.0494791641831398,-0.1223958283662796,0.1067708283662796,1.084999918937683,0.2753451466560364,13.166666030883787,29.67,0
-0.1116615906357765,-0.2865853607654571,0.25,2.840975522994995,0.6447106599807739,30.829269409179688,29.67,0
-0.1557828187942505,-0.4294019937515259,0.3646179437637329,4.865913391113281,0.9659950137138368,46.19269180297852,29.67,0
-0.1826334297657013,-0.5282562375068665,0.3948559165000915,6.9479265213012695,1.2003892660140991,57.40113830566406,29.67,0
-0.2666890621185303,-0.5732258558273315,0.4757152199745178,8.789688110351562,1.359084129333496,64.98973083496094,29.67,0
-0.2940762639045715,-0.6638162136077881,0.5121113061904907,10.403300285339355,1.4632107019424438,69.96893310546875,29.67,0
-0.3062343001365661,-0.6834318041801453,0.5412626266479492,12.45174503326416,1.5306484699249268,73.1937255859375,29.67,0
-0.3420170247554779,-0.7016578316688538,0.5432705879211426,15.35622215270996,1.5438339710235596,75.27104187011719,29.67,0
-0.3482321798801422,-0.718967080116272,0.5501558184623718,18.436866760253903,1.5523087978363037,76.6062240600586,29.67,0
-0.3522232472896576,-0.7300822734832764,0.5545771718025208,20.748218536376957,1.557750940322876,77.46361541748047,29.67,0
-0.3323962092399597,-0.7148283123970032,0.5574153065681458,22.41101455688477,1.5612443685531616,78.01398468017578,29.67,0
-0.3308660686016083,-0.7274283170700073,0.5592368841171265,24.509958267211918,1.5634864568710327,78.36721801757812,29.67,0
-0.3298840820789337,-0.7299169898033142,0.5604059100151062,27.72349166870117,1.5649254322052002,78.59391021728516,29.67,0
-0.3124606609344482,-0.7259163856506348,0.5667538642883301,31.279714584350582,1.5658488273620603,78.73939514160156,29.67,0
-0.3180725276470184,-0.7289467453956604,0.5596321225166321,33.45801544189453,1.5664414167404177,78.83275604248047,29.67,0
-0.3272716701030731,-0.7308914661407471,0.5494640469551086,33.69517517089844,1.6191530227661133,78.89266967773438,29.67,0
-0.3219796121120453,-0.7321394681930542,0.5541342496871948,33.693321228027344,1.6529804468154907,78.93112182617188,29.67,0
-0.3185834586620331,-0.7329403758049011,0.5627291202545166,35.55506896972656,1.6746889352798462,78.95579528808594,29.67,0
-0.3331973254680633,-0.7334543466567993,0.5626470446586609,39.27196502685547,1.6886202096939087,78.97163391113281,29.67,0
-0.3425756692886352,-0.7337841987609863,0.5625943541526794,42.88249588012695,1.697560429573059,78.98179626464844,29.67,0
-0.3373986184597015,-0.7339958548545837,0.5681583285331726,44.526004791259766,1.703297734260559,78.98831939697266,29.67,0
-0.3340762853622436,-0.7341316938400269,0.5717289447784424,43.416839599609375,1.7069796323776243,78.99250030517578,29.67,0
-0.3431397378444671,-0.7342188358306885,0.5684226155281067,39.30159378051758,1.7093424797058103,78.99518585205078,29.67,0
-0.3321628272533417,-0.7286770343780518,0.5718985795974731,32.060638427734375,1.7246302366256714,78.99691009521484,29.65,0
-0.3195206820964813,-0.7307183742523193,0.5797269940376282,22.133092880249023,1.7344410419464111,78.99801635742188,29.65,0
-0.328201025724411,-0.7264305949211121,0.5735552906990051,10.897027969360352,1.7407370805740356,78.99872589111328,29.65,0
-0.3393693268299103,-0.7236789464950562,0.5639968514442444,0.0142281549051404,1.7447774410247805,78.99918365478516,29.65,0
-0.3297431766986847,-0.733108639717102,0.5634605884552002,-9.29840087890625,1.747370362281799,78.99947357177734,29.65,0
-0.3235656917095184,-0.7391601204872131,0.5631164312362671,-16.059293746948242,1.7490342855453491,78.99966430664062,29.65,0
-0.3251990973949432,-0.7374458312988281,0.5572978258132935,-19.50598526000977,1.750102162361145,78.99978637695312,29.65,0
-0.3262473344802856,-0.7363457083702087,0.5423682332038879,-19.955245971679688,1.7507874965667725,78.99986267089844,29.65,0
-0.3213222622871399,-0.7300419211387634,0.5327872633934021,-18.69588279724121,1.752604365348816,76.8503646850586,29.65,0
-0.295770525932312,-0.7259964942932129,0.5322365164756775,-16.250457763671875,1.753770351409912,75.47093963623047,29.65,0
-0.2961662113666534,-0.7345959544181824,0.515089750289917,-12.10883617401123,1.7545186281204224,74.58570861816406,29.65,0
-0.3300067782402038,-0.7457123398780823,0.4928904175758362,-6.606417179107666,1.754998803138733,74.01761627197266,29.65,0
-0.3069415092468261,-0.7584439516067505,0.4898397028446197,-1.158603310585022,1.7553069591522217,73.65304565429688,29.65,0
-0.2809440195560455,-0.7610166072845459,0.4934796988964081,3.516157865524292,1.7555047273635864,73.4190902709961,29.65,0
-0.3426291644573211,-0.7738631367683411,0.4790223240852356,7.630331039428711,1.755631685256958,73.26895141601562,29.65,0
-0.3766173720359802,-0.7765095233917236,0.4809399545192718,11.223535537719728,1.7557131052017212,73.17259979248047,29.65,0
-0.3480490744113922,-0.7782078385353088,0.5045616626739502,14.03817367553711,1.759896755218506,73.11076354980469,29.65,0
-0.3353133499622345,-0.7792977094650269,0.5253185033798218,15.17092227935791,1.7625815868377686,73.07108306884766,29.65,0
-0.3383358418941498,-0.7855948805809021,0.5330412983894348,12.358269691467283,1.7643046379089355,73.04561614990234,29.65,0
-0.3626666069030761,-0.7952338457107544,0.5156062245368958,3.800116539001465,1.765410304069519,73.0292739868164,29.65,0
-0.3782806992530823,-0.7958217859268188,0.5044174194335938,-9.011215209960938,1.7661198377609253,73.01878356933594,29.65,0
-0.3827031254768371,-0.7906013131141663,0.4916392862796783,-22.509923934936523,1.7665752172470093,73.01205444335938,29.65,0
-0.3911389708518982,-0.7816533446311951,0.4722434878349304,-34.53307342529297,1.7668675184249878,73.00773620605469,29.65,0
-0.4133459329605102,-0.7759110927581787,0.4541985988616943,-44.40555191040039,1.7670550346374512,73.00496673583984,29.65,0
-0.4052059948444366,-0.7610304951667786,0.4426184296607971,-50.870113372802734,1.7671754360198977,73.00318908691406,29.65,0
-0.3887867033481598,-0.7514809370040894,0.4407847225666046,-52.847652435302734,1.7672526836395264,73.00204467773438,29.65,0
-0.3894452750682831,-0.7509503960609436,0.4340101778507232,-51.52652359008789,1.7673022747039795,73.00131225585938,29.65,0
-0.4066612422466278,-0.7506099343299866,0.4240648746490478,-49.37464141845703,1.7673341035842896,73.00083923339844,29.65,0
-0.417709469795227,-0.75039142370224,0.4176825582981109,-47.59960174560547,1.7673544883728027,73.00054168701172,29.65,0
-0.4136040210723877,-0.7502511739730835,0.419184535741806,-45.95892333984375,1.767367601394653,73.00035095214844,29.65,0
-0.4165671765804291,-0.7501611709594727,0.414550632238388,-44.13219451904297,1.767375946044922,73.00022888183594,29.65,0
-0.4184687435626983,-0.7557011842727661,0.4115768671035766,-42.08934020996094,1.7673813104629517,73.0001449584961,29.65,0
-0.4084935188293457,-0.7592564821243286,0.4152662456035614,-39.76806640625,1.7678437232971191,73.00009155273438,29.63,0
-0.4020919799804687,-0.7671357989311218,0.4176338911056518,-37.20005035400391,1.768140435218811,73.00006103515625,29.63,0
-0.4091793894767761,-0.7889856696128845,0.4079577624797821,-34.656402587890625,1.7683308124542236,73.00003814697266,29.63,0
-0.4137277007102966,-0.8421920537948608,0.4017481803894043,-32.35051345825195,1.7684530019760132,73.0000228881836,29.63,0
-0.4278420805931091,-0.9043257236480712,0.3921654522418976,-30.164958953857425,1.7685314416885376,73.00001525878906,29.63,0
-0.476084291934967,-1.0337638854980469,0.3748202621936798,-27.863168716430664,1.768581748008728,73.00000762939453,29.63,0
-0.5070433616638184,-1.1336232423782349,0.3580913245677948,-25.52619361877441,1.7686140537261963,73.00000762939453,29.63,0
-0.4653356075286865,-1.0801539421081543,0.3417578935623169,-23.58580207824707,1.768634796142578,73.00000762939453,29.63,0
-0.4161788821220398,-1.0178515911102295,0.3312760293483734,-22.30116081237793,1.770484209060669,72.46261596679688,29.63,0
-0.40142622590065,-1.0114561319351196,0.3133538365364074,-21.444509506225582,1.7716710567474363,72.11775207519531,29.63,0
-0.3919588327407837,-1.0129497051239014,0.2850590646266937,-20.55799674987793,1.7724326848983765,71.89643859863281,29.63,0
-0.3802854418754577,-0.9971148371696472,0.2613033354282379,-19.512601852416992,1.772921442985535,71.75440979003906,29.63,0
-0.3504030108451843,-0.9197795987129213,0.2348627299070358,-18.58378219604492,1.7732350826263428,71.66326904296875,29.63,0
-0.3256284296512604,-0.8477592468261719,0.2122969031333923,-17.994884490966797,1.773436427116394,71.60477447509766,29.63,0
-0.3265228569507599,-0.7847473621368408,0.2034132182598114,-17.724441528320312,1.773565649986267,71.5672378540039,29.63,0
-0.3214990496635437,-0.7275166511535645,0.1977121829986572,-17.71210289001465,1.7736485004425049,71.54315185546875,29.63,0
-0.3070795238018036,-0.6907892823219299,0.1940535902976989,-17.664775848388672,1.7718656063079834,71.52769470214844,29.63,0
-0.2978259027004242,-0.6896108984947205,0.1973034888505935,-16.960880279541016,1.770721435546875,71.51777648925781,29.63,0
-0.308680772781372,-0.7112457752227783,0.193791314959526,-15.2695894241333,1.7699872255325315,71.51140594482422,29.63,0
-0.33803790807724,-0.7419230937957764,0.1915374100208282,-12.976887702941896,1.7695159912109375,71.50731658935547,29.63,0
-0.3400843143463135,-0.8119900226593018,0.2124820798635482,-10.602754592895508,1.7692136764526367,71.50469207763672,29.63,0
-0.3413975834846496,-0.9129326939582824,0.2371187061071396,-8.323249816894531,1.769019603729248,71.50301361083984,29.63,0
-0.3702292144298553,-1.005700707435608,0.2473313063383102,-6.244191646575928,1.7688950300216677,71.5019302368164,29.63,0
-0.3943294882774353,-1.0876250267028809,0.237091839313507,-4.576792240142822,1.7688151597976685,71.50123596191406,29.63,0
-0.4265889823436737,-1.2129703760147097,0.2529118359088897,-3.381361246109009,1.7715181112289429,71.50079345703125,29.63,0
-0.4360957145690918,-1.1422698497772217,0.2798575162887573,-2.392082691192627,1.7732527256011963,71.5005111694336,29.63,0
-0.3974143862724304,-1.035322904586792,0.2803563773632049,-1.3488070964813232,1.7743659019470217,71.50032806396484,29.63,0
-0.2942220866680145,-1.0002771615982056,0.2638832032680511,-0.2923746109008789,1.775080323219299,71.50021362304688,29.63,0
-0.2447925359010696,-0.9721890091896056,0.2645072042942047,0.6578586101531982,1.7755388021469116,71.50013732910156,29.63,0
-0.2690492570400238,-0.9261747598648072,0.2649076581001282,1.536356806755066,1.775833010673523,71.50009155273438,29.63,0
-0.2398336231708526,-0.8294721841812134,0.2651646435260772,2.24342942237854,1.7760218381881714,71.50006103515625,29.63,0
-0.21548692882061,-0.7506207227706909,0.2541340291500091,2.396251678466797,1.776142954826355,71.50003814697266,29.63,0
-0.2222537249326706,-0.6888228058815002,0.2414574325084686,1.8279650211334229,1.7725481986999512,71.5000228881836,29.63,0
-0.232194036245346,-0.6491644978523254,0.2445178776979446,0.961710810661316,1.7702412605285645,71.50001525878906,29.63,0
-0.2273776084184646,-0.6349096298217773,0.2576774358749389,0.2947388291358948,1.7687608003616333,71.50000762939453,29.63,0
-0.23548224568367,-0.6313594579696655,0.2773180305957794,-0.3231619000434875,1.7678108215332031,71.50000762939453,29.63,0
-0.2518788874149322,-0.6346789002418518,0.295520007610321,-1.4147146940231323,1.7672011852264404,71.50000762939453,29.63,0
-0.3015857338905334,-0.6871891021728516,0.3239943087100982,-2.9714460372924805,1.7668099403381348,71.50000762939453,29.63,0
-0.3334847390651703,-0.7992559671401978,0.3758541345596313,-4.489940166473389,1.7665587663650513,71.50000762939453,29.63,0
-0.3539556562900543,-0.8935651183128357,0.3979392349720001,-5.68295955657959,1.7663975954055786,71.50000762939453,29.63,0
-0.3782882690429687,-1.1108249425888062,0.3785255253314972,-6.484396457672119,1.765376329421997,71.89408874511719,29.63,0
-0.4498812854290008,-1.2838364839553833,0.3828602433204651,-6.604629039764404,1.7647209167480469,72.14698791503906,29.63,0
-0.5518032908439636,-1.2437254190444946,0.3576531410217285,-5.718074321746826,1.7643003463745115,72.30928039550781,29.63,0
-0.5444399118423462,-1.1508111953735352,0.3246833682060241,-3.658783197402954,1.7640304565429688,72.4134292602539,29.63,0
-0.4613456726074219,-1.141564130783081,0.3147208094596863,-0.3130934834480285,1.7638572454452517,72.48027038574219,29.63,0
-0.4472050070762634,-1.1244343519210815,0.2971318662166595,3.811559200286865,1.7637460231781006,72.52316284179688,29.63,0
-0.4269347786903381,-1.0630614757537842,0.2746487557888031,7.221612453460693,1.7636747360229492,72.55068969726562,29.63,0
-0.3747420907020569,-0.928513765335083,0.2378292828798294,8.869019508361816,1.7636289596557615,72.56835174560547,29.63,0
-0.3468456268310547,-0.8141798973083496,0.2142006605863571,9.485573768615724,1.7649767398834229,72.5796890258789,29.63,0
-0.3457365930080414,-0.7072203755378723,0.2046349495649337,10.368473052978516,1.7658416032791138,72.58696746826172,29.63,0
-0.3226337730884552,-0.6385799050331116,0.2040939927101135,11.572765350341797,1.7663966417312622,72.59163665771484,29.63,0
-0.2966121733188629,-0.6113237142562866,0.1925512999296188,12.33486270904541,1.76675283908844,72.59463500976562,29.63,0
-0.2799130082130432,-0.6442122459411621,0.1795460879802703,12.368946075439451,1.7669814825057983,72.5965576171875,29.63,0
-0.2747942209243774,-0.6933070421218872,0.171200081706047,11.688633918762209,1.7671282291412354,72.59779357910156,29.63,0
-0.2715092897415161,-0.7807910442352295,0.1714418828487396,10.041138648986816,1.7672224044799805,72.59858703613281,29.63,0
-0.2805967330932617,-0.8929109573364258,0.1659992784261703,7.547257900238037,1.7672828435897827,72.59909057617188,29.63,0
-0.2976240813732147,-0.998449683189392,0.179299846291542,5.262557029724121,1.765944480895996,72.59941864013672,29.63,0
-0.3141490519046783,-1.161340594291687,0.2046287059783935,4.065060615539551,1.7650855779647827,72.59962463378906,29.63,0
-0.3415471315383911,-1.2098968029022217,0.2320788651704788,3.647668838500977,1.7645343542099,72.59976196289062,29.63,0
-0.3927162885665893,-1.03953754901886,0.26648810505867,3.53027892112732,1.7641806602478027,72.59984588623047,29.63,0
-0.3863692879676819,-1.014177322387695,0.3053632974624634,4.225198745727539,1.763953685760498,72.59989929199219,29.63,0
-0.3599050641059875,-1.0594781637191772,0.352702260017395,6.419455051422119,1.763808012008667,72.59993743896484,29.63,0
-0.3261285126209259,-1.0325719118118286,0.3774839043617248,9.862505912780762,1.7637144327163696,72.59996032714844,29.63,0
-0.2988548874855041,-0.9705228209495544,0.3709962666034698,13.530165672302246,1.7636544704437256,72.5999755859375,29.63,0
-0.3093411326408386,-0.8467366695404053,0.350039541721344,16.030744552612305,1.7599434852600098,72.59998321533203,29.61,0
-0.3104728162288666,-0.7225156426429749,0.3365907073020935,16.1881103515625,1.7575619220733645,72.59999084472656,29.61,0
-0.3111990690231323,-0.6371999382972717,0.3167644739151001,14.11805820465088,1.7560336589813232,72.59999084472656,29.61,0
-0.3004695773124695,-0.576851487159729,0.2984433770179748,11.17745876312256,1.755052924156189,72.59999084472656,29.61,0
-0.2879862487316131,-0.5549166202545166,0.2922837138175964,8.391125679016113,1.7544234991073608,72.59999084472656,29.61,0
-0.2967684864997864,-0.5576333999633789,0.2827330231666565,5.682295322418213,1.7540196180343628,72.59999084472656,29.61,0
-0.324795514345169,-0.5985613465309143,0.2822017073631286,2.550302028656006,1.7537603378295898,72.59999084472656,29.61,0
-0.3595749735832214,-0.6752064824104309,0.2874585390090942,-1.2903274297714231,1.7535940408706665,72.59999084472656,29.61,0
-0.3874922096729278,-0.8699350357055664,0.3076253831386566,-5.628709316253662,1.7562415599822998,71.66852569580078,29.61,0
-0.4054078757762909,-1.034085035324097,0.3205673098564148,-9.738386154174805,1.7579405307769775,71.07076263427734,29.61,0
-0.4616873264312744,-1.1954047679901123,0.3456660211086273,-12.884466171264648,1.759030818939209,70.6871566772461,29.61,0
-0.5481842160224915,-1.2093662023544312,0.3561751544475555,-14.84969997406006,1.759730577468872,70.44097900390625,29.61,0
-0.5421174168586731,-1.1679458618164062,0.334930419921875,-15.74545192718506,1.76017963886261,70.28299713134766,29.61,0
-0.45425745844841,-1.1637557744979858,0.3156990110874176,-15.60019588470459,1.760467767715454,70.18161010742188,29.61,0
-0.4258628785610199,-1.1442734003067017,0.3145529329776764,-14.109773635864258,1.7606526613235474,70.11654663085938,29.61,0
-0.4076408743858337,-1.0478041172027588,0.2914263606071472,-10.666999816894531,1.76077139377594,70.07479095458984,29.61,0
-0.3623603880405426,-0.8739402294158936,0.2653895020484924,-5.444679260253906,1.7553390264511108,70.0479965209961,29.61,0
-0.3277041912078857,-0.734375536441803,0.2598761022090912,-0.3808236718177795,1.7518527507781982,70.03079986572266,29.61,0
-0.3054638504981994,-0.6392132043838501,0.2563379108905792,2.5321054458618164,1.7496155500411987,70.01976776123047,29.61,0
-0.3023868203163147,-0.5837412476539612,0.2428717613220214,3.881982326507568,1.7481797933578491,70.01268768310547,29.61,0
-0.2892166078090668,-0.5761314034461975,0.2118388563394546,5.751376628875732,1.7472584247589111,70.00814056396484,29.61,0
-0.2751669585704803,-0.6272255778312683,0.1919237226247787,8.44498062133789,1.7466671466827393,70.0052261352539,29.61,0
-0.2773462533950805,-0.6991993188858032,0.1735455691814422,10.35270881652832,1.7462877035140991,70.00335693359375,29.61,0
-0.2955381274223327,-0.8181589841842651,0.1785448491573333,10.412642478942873,1.7460441589355469,70.00215148925781,29.61,0
-0.3128103911876678,-0.9280871152877808,0.1929486542940139,8.788788795471191,1.7500193119049072,70.00138092041016,29.61,0
-0.3350902795791626,-1.1329792737960815,0.2021921873092651,5.91241455078125,1.752570390701294,70.00088500976562,29.61,0
-0.3773771226406097,-1.2588694095611572,0.2025263756513595,2.46511173248291,1.7542074918746948,70.00056457519531,29.61,0
-0.3989166021347046,-1.199714183807373,0.2419252544641494,-0.1806604117155075,1.755258083343506,70.00035858154297,29.61,0
-0.3175772428512573,-1.0721873044967651,0.2896002829074859,-0.8969389796257019,1.755932331085205,70.00022888183594,29.61,0
-0.2038027942180633,-1.0799123048782349,0.2978042662143707,0.2340583056211471,1.7563650608062744,70.0001449584961,29.61,0
-0.1923644244670868,-1.0344897508621216,0.2862758040428161,2.779815673828125,1.7566426992416382,70.00009155273438,29.61,0
-0.2186105847358703,-0.9381669163703918,0.3068663775920868,6.849687576293945,1.7568209171295166,70.00006103515625,29.61,0
-0.2354538589715957,-0.8259724974632263,0.3144824504852295,12.080360412597656,1.7537219524383545,70.00003814697266,29.63,0
-0.2462628930807113,-0.7147881388664246,0.3025766611099243,16.393651962280273,1.7517333030700684,70.0000228881836,29.63,0
-0.2531995177268982,-0.6490342020988464,0.2893384397029876,17.19125747680664,1.7504570484161377,70.00001525878906,29.63,0
-0.2576510310173034,-0.6124349236488342,0.2808429300785064,13.99156665802002,1.7496380805969238,70.00000762939453,29.63,0
-0.27170330286026,-0.588947594165802,0.2809887528419494,9.054216384887695,1.7491124868392944,70.00000762939453,29.63,0
-0.2807212471961975,-0.5738747715950012,0.2810823321342468,4.932744026184082,1.7487751245498655,70.00000762939453,29.63,0
-0.3088995516300201,-0.5809952020645142,0.292337954044342,2.2125861644744877,1.7485586404800415,70.00000762939453,29.63,0
-0.360569417476654,-0.7087157368659973,0.3219522535800934,-0.016702551394701,1.7484197616577148,70.00000762939453,29.63,0
-0.3993259370326996,-0.8466571569442749,0.3465547859668731,-2.504191398620605,1.755216360092163,69.28349304199219,29.63,0
-0.413002073764801,-1.0975154638290403,0.3343544006347656,-5.293516159057617,1.759577989578247,68.82366943359375,29.63,0
-0.4497675001621246,-1.3312729597091677,0.3321226835250854,-7.900371551513672,1.7623770236968994,68.5285873413086,29.63,0
-0.5517302751541138,-1.3581340312957764,0.3250927031040191,-9.634204864501951,1.7641732692718506,68.33921813964844,29.63,0
-0.5723819136619568,-1.3026008605957031,0.2757990658283233,-10.173667907714844,1.7653260231018066,68.21768951416016,29.63,0
-0.4848750233650207,-1.2613650560379028,0.2329697161912918,-9.642132759094238,1.7660658359527588,68.13970184326172,29.63,0
-0.4567070007324219,-1.1901201009750366,0.2390709370374679,-7.846498489379883,1.76654052734375,68.08965301513672,29.63,0
-0.4274348616600036,-1.1052148342132568,0.2317908108234405,-4.0036492347717285,1.7668452262878418,68.05753326416016,29.63,0
-0.3526719212532043,-0.92757648229599,0.2159232944250106,2.166853666305542,1.7642865180969238,68.03691864013672,29.63,0
-0.2990956008434295,-0.7687962055206299,0.2113382071256637,9.247150421142578,1.7626444101333618,68.02368927001953,29.63,0
-0.2927022874355316,-0.6501068472862244,0.2083957642316818,14.622035026550291,1.761590600013733,68.01520538330078,29.63,0
-0.2941972017288208,-0.596329927444458,0.1897141486406326,16.659791946411133,1.760914325714111,68.00975799560547,29.63,0
-0.2671676576137543,-0.5730145573616028,0.1777253597974777,16.18338394165039,1.7604804039001465,68.00626373291016,29.63,0
-0.249821662902832,-0.5916387438774109,0.1812271922826767,15.20412826538086,1.760201930999756,68.00402069091797,29.63,0
-0.2498855590820312,-0.6539706587791443,0.1834744662046432,14.36074447631836,1.7600232362747192,68.00257873535156,29.63,0
-0.2835132181644439,-0.7891338467597961,0.1737210899591446,12.45096492767334,1.7599085569381714,68.00165557861328,29.63,0
-0.2994957268238067,-0.9262537360191344,0.1842552572488784,8.427387237548828,1.771769881248474,68.00106048583984,29.63,0
-0.3153501451015472,-1.0870205163955688,0.1854177117347717,2.936234951019287,1.7793818712234497,68.00067901611328,29.63,0
-0.3647090196609497,-1.3133423328399658,0.1693703830242157,-2.2034122943878174,1.784266710281372,68.00043487548828,29.63,0
-0.424373596906662,-1.341029405593872,0.1982565522193908,-5.437255382537842,1.787401556968689,68.00028228759766,29.63,0
-0.429076224565506,-1.134886384010315,0.261576235294342,-6.179831981658936,1.789413332939148,68.00018310546875,29.63,0
-0.3033452928066253,-1.12014901638031,0.2462334185838699,-4.453090667724609,1.790704369544983,68.00011444091797,29.63,0
-0.2394517362117767,-1.0715069770812988,0.2363872826099395,-0.4180034697055816,1.7915328741073608,68.00007629394531,29.63,0
-0.2320351898670196,-0.967520236968994,0.2300685942173004,5.603590488433838,1.792064547538757,68.00004577636719,29.63,0
-0.2608623206615448,-0.8168209195137024,0.2316114008426666,12.7674560546875,1.7937829494476318,68.00003051757812,29.63,0
-0.2961552441120147,-0.6977196335792542,0.2326014786958694,19.055788040161133,1.794885754585266,68.0000228881836,29.63,0
-0.3076086640357971,-0.6044939756393433,0.2332368493080139,21.40746688842773,1.7955933809280396,68.00001525878906,29.63,0
-0.286969929933548,-0.54466712474823,0.2336446046829223,18.13748359680176,1.796047568321228,68.00000762939453,29.63,0
-0.3129096031188965,-0.5398603677749634,0.2451018244028091,11.460464477539062,1.7963390350341797,68.00000762939453,29.63,0
-0.3519472777843475,-0.5703622698783875,0.2748455107212066,5.549047946929932,1.7965260744094849,68.00000762939453,29.63,0
-0.3658038675785064,-0.6067299842834473,0.2939333021640777,1.9202401638031008,1.7966461181640625,68.00000762939453,29.63,0
-0.3635006844997406,-0.6692531108856201,0.317378282546997,-1.1501131057739258,1.7967231273651123,68.00000762939453,29.63,0
-0.4068048298358917,-0.765354573726654,0.3380216956138611,-5.141061782836914,1.8064124584198,67.55218505859375,29.63,0
-0.4569860398769378,-0.9837646484375,0.3344761431217193,-9.604570388793944,1.812630534172058,67.2647933959961,29.63,0
-0.466798335313797,-1.1911009550094604,0.3042119145393371,-13.533018112182615,1.816620945930481,67.08036804199219,29.63,0
-0.5346708297729492,-1.3017663955688477,0.3015834093093872,-16.36933708190918,1.8191817998886108,66.9620132446289,29.63,0
-0.5670319199562073,-1.2328407764434814,0.2383210659027099,-17.81693458557129,1.820825219154358,66.88605499267578,29.63,0
-0.5374194383621216,-1.2054015398025513,0.1809296160936355,-17.624574661254883,1.8218798637390137,66.83731079101562,29.63,0
-0.4568403363227844,-1.1877926588058472,0.2168701589107513,-15.527129173278809,1.8225566148757932,66.8060302734375,29.63,0
-0.3939337730407715,-1.1652966737747192,0.2343369424343109,-11.017694473266602,1.822990894317627,66.78595733642578,29.63,0
-0.3647595047950744,-1.0277090072631836,0.1895683854818344,-3.7315616607666016,1.821892499923706,66.77307891845703,29.63,0
-0.3348415791988373,-0.8386532664299011,0.1776318252086639,5.26842737197876,1.8211876153945925,66.76480865478516,29.63,0
-0.3156419992446899,-0.7061326503753662,0.1867649406194687,13.079005241394045,1.820735216140747,66.75950622558594,29.63,0
-0.2865274846553802,-0.615490734577179,0.1870282739400863,17.202905654907227,1.820444941520691,66.756103515625,29.63,0
-0.2510501444339752,-0.5741152763366699,0.1760017275810241,18.097509384155277,1.820258617401123,66.75391387939453,29.63,0
-0.2338805943727493,-0.5979428887367249,0.1465344280004501,18.134227752685547,1.820139050483704,66.75251007080078,29.63,0
-0.2396554946899414,-0.6692118048667908,0.144417330622673,18.279598236083984,1.8200623989105225,66.7516098022461,29.63,0
-0.2545570433139801,-0.7485347390174866,0.1430587023496627,17.273038864135742,1.820013165473938,66.75102996826172,29.63,0
-0.2809133231639862,-0.8498196005821228,0.1365890353918075,13.807600021362305,1.8282444477081297,66.75066375732422,29.63,0
-0.3146205842494964,-0.954002857208252,0.1268393993377685,8.201728820800781,1.8335267305374143,66.75042724609375,29.63,0
-0.364240825176239,-1.1664037704467771,0.1317781955003738,1.9602622985839844,1.83691668510437,66.75027465820312,29.63,0
-0.4576597809791565,-1.19635272026062,0.1909253746271133,-3.4710161685943604,1.8390921354293823,66.75017547607422,29.63,0
-0.551197350025177,-1.098019003868103,0.2624692618846893,-7.024567127227783,1.8404881954193115,66.75011444091797,29.63,0
-0.4544866681098938,-1.0740984678268433,0.2356109619140625,-7.674959659576416,1.8413841724395752,66.75007629394531,29.63,0
-0.319652259349823,-1.0755410194396973,0.2127770781517028,-4.717557907104492,1.8419591188430784,66.75004577636719,29.63,0
-0.2779054939746856,-1.020488977432251,0.2149169296026229,1.7373688220977783,1.8423280715942385,66.75003051757812,29.63,0
-0.2902992367744446,-0.901193141937256,0.221887931227684,10.712663650512695,1.8448601961135864,66.7500228881836,29.63,0
-0.3430350124835968,-0.7854515314102173,0.2151659727096557,19.825782775878903,1.846485137939453,66.75001525878906,29.63,0
-0.3824755847454071,-0.6943818926811218,0.222047746181488,24.93246459960937,1.8475279808044436,66.75000762939453,29.63,0
-0.3909929394721985,-0.6359386444091797,0.2264640778303146,22.710384368896484,1.8481972217559812,66.75000762939453,29.63,0
-0.3572744727134704,-0.5984331369400024,0.2292982190847396,14.502565383911133,1.848626732826233,66.75000762939453,29.63,0
-0.3524292409420013,-0.6023531556129456,0.2255192399024963,5.491468906402588,1.8489023447036743,66.75000762939453,29.63,0
-0.3549176156520843,-0.6104665398597717,0.22309410572052,-0.5492799878120422,1.849079251289368,66.75000762939453,29.63,0
-0.3733078241348266,-0.6268687844276428,0.2327333390712738,-3.999558210372925,1.84919273853302,66.75000762939453,29.63,0
-0.4075007140636444,-0.6821770071983337,0.2557125687599182,-6.994749546051025,1.8621187210083008,66.40249633789062,29.63,0
-0.4630303680896759,-0.8520172238349915,0.2536659836769104,-10.579206466674805,1.870413899421692,66.17948150634766,29.63,0
-0.4986661076545715,-1.1401396989822388,0.2355592995882034,-14.470168113708496,1.875737309455872,66.03636169433594,29.63,0
-0.5327306389808655,-1.2858556509017944,0.2463305592536926,-17.826980590820312,1.8791534900665283,65.94451904296875,29.63,0
-0.5881779193878174,-1.2506190538406372,0.2252540737390518,-19.85221672058105,1.8813458681106567,65.88558197021484,29.63,0
-0.59017413854599,-1.1608328819274902,0.1837395131587982,-20.38880920410156,1.882752776145935,65.8477554321289,29.63,0
-0.5130863785743713,-1.136799931526184,0.1794889569282531,-19.669137954711918,1.883655667304993,65.82347869873047,29.63,0
-0.4636158943176269,-1.0877903699874878,0.1991522908210754,-17.07924461364746,1.8842350244522093,65.80789947509766,29.63,0
-0.4374663531780243,-1.011556625366211,0.1893799901008606,-11.329482078552246,1.8947057723999023,65.79790496826172,29.63,0
-0.3982939720153808,-0.8506786823272705,0.1607175916433334,-2.724321126937866,1.9014253616333008,65.79148864746094,29.63,0
-0.3787531852722168,-0.7194476127624512,0.1423237174749374,5.707027435302734,1.9057376384735107,65.78736877441406,29.63,0
-0.3774085640907287,-0.635231077671051,0.1529106944799423,10.809679985046388,1.9085049629211424,65.78472900390625,29.63,0
-0.3485568165779114,-0.6091746091842651,0.1597048044204712,12.586751937866213,1.9102808237075808,65.78303527832031,29.63,0
-0.3132480978965759,-0.6092463731765747,0.158467099070549,13.562376022338867,1.911420464515686,65.78194427490234,29.63,0
-0.2961867749691009,-0.6540746688842773,0.1464772522449493,15.22383975982666,1.9121519327163696,65.78125,29.63,0
-0.3132266700267792,-0.7052339911460876,0.1387828588485717,16.58026123046875,1.912621259689331,65.78079986572266,29.63,0
-0.3465529680252075,-0.7884450554847717,0.1506383717060089,16.0786075592041,1.9441378116607664,65.78050994873047,29.63,0
-0.3511465489864349,-0.8922250866889954,0.1694421023130417,13.374261856079102,1.9643633365631104,65.78032684326172,29.63,0
-0.3652900159358978,-1.0204006433486938,0.181509256362915,9.173955917358398,1.9773428440093996,65.78021240234375,29.63,0
-0.4191486537456512,-1.181025147438049,0.1724599301815033,4.6871538162231445,1.9856723546981807,65.78013610839844,29.63,0
-0.476103127002716,-1.2057359218597412,0.177848145365715,1.6107407808303833,1.991017818450928,65.78009033203125,29.63,0
-0.5238487720489502,-1.0592584609985352,0.2204904109239578,1.542406439781189,1.994448184967041,65.78005981445312,29.63,0
-0.3921537399291992,-1.0940064191818235,0.2086713463068008,4.937826156616211,1.9966496229171755,65.78003692626953,29.63,0
-0.2964438796043396,-1.0827189683914185,0.1954887807369232,11.0504789352417,1.9980623722076416,65.78002166748047,29.63,0
-0.2742072343826294,-1.013899803161621,0.2038222849369049,18.104398727416992,2.0297963619232178,65.78001403808594,29.61,0
-0.2711325883865356,-0.9305512309074402,0.209170252084732,22.93930053710937,2.050161361694336,65.7800064086914,29.61,0
-0.3027460873126983,-0.804291844367981,0.2126022726297378,22.23736572265625,2.063230514526367,65.7800064086914,29.61,0
-0.3230338096618652,-0.7064725160598755,0.2148047387599945,15.485154151916504,2.071617603302002,65.7800064086914,29.61,0
-0.3304555416107178,-0.6492955088615417,0.2162181586027145,5.667049884796143,2.07699990272522,65.7800064086914,29.61,0
-0.3184250593185425,-0.6349936723709106,0.222722977399826,-3.3134100437164307,2.080453872680664,65.7800064086914,29.61,0
-0.3163023591041565,-0.6370111107826233,0.2324951738119125,-9.130290985107422,2.0826704502105717,65.7800064086914,29.61,0
-0.3205378949642181,-0.6327080130577087,0.2387664169073104,-11.75263214111328,2.084092855453491,65.7800064086914,29.61,0
-0.3568426668643951,-0.6635332107543945,0.2483887076377868,-12.78347110748291,2.136878252029419,65.50056457519531,29.61,0
-0.3913365304470062,-0.7169016599655151,0.2601615190505981,-13.842669486999512,2.170752763748169,65.32123565673828,29.61,0
-0.4190704822540283,-0.8463126420974731,0.2677166163921356,-15.238917350769045,2.1924915313720703,65.2061538696289,29.61,0
-0.4256730079650879,-1.0021322965621948,0.2557717263698578,-16.35706901550293,2.20644211769104,65.1323013305664,29.61,0
-0.4578990042209625,-1.15250825881958,0.2425084114074707,-16.78444480895996,2.215394973754883,65.08489990234375,29.61,0
-0.5569486021995544,-1.1706421375274658,0.2395945489406585,-16.524906158447266,2.2211403846740723,65.05448150634766,29.61,0
-0.5981218814849854,-1.1542904376983645,0.2041379660367965,-15.229838371276855,2.224827527999878,65.03496551513672,29.61,0
-0.5405778884887695,-1.1661880016326904,0.1813839673995971,-11.675981521606444,2.227193593978882,65.0224380493164,29.61,0
-0.4924539029598236,-1.1570298671722412,0.2003684043884277,-5.089064121246338,2.2773709297180176,65.01439666748047,29.61,0
-0.4447773694992065,-1.0839793682098389,0.2069537490606308,2.6059725284576416,2.3095719814300537,65.00923919677734,29.61,0
-0.3973880112171173,-0.9363398551940918,0.1887887418270111,7.46180534362793,2.3302366733551025,65.00592803955078,29.61,0
-0.3669762313365936,-0.8024088740348816,0.1827292591333389,7.350098609924316,2.3434979915618896,65.0038070678711,29.61,0
-0.3362641632556915,-0.6884708404541016,0.184438407421112,3.9501988887786874,2.35200834274292,65.00244140625,29.61,0
-0.3165549337863922,-0.6209497451782227,0.1799374669790268,0.3997950851917267,2.3574697971343994,65.0015640258789,29.61,0
-0.3039066791534424,-0.6056074500083923,0.1546579301357269,-1.6744427680969238,2.3609747886657715,65.00100708007812,29.61,0
-0.2845942080020904,-0.6405438780784607,0.1328372061252594,-2.665224552154541,2.363224029541016,65.00064849853516,29.61,0
-0.2833961248397827,-0.6965506672859192,0.1132361441850662,-3.7918641567230233,2.4082767963409424,65.00041961669922,29.61,0
-0.2938227951526642,-0.7884703874588013,0.1062550842761993,-5.772360324859619,2.437189102172852,65.0002670288086,29.61,0
-0.3061118125915527,-0.8866435885429382,0.1073728203773498,-8.3187255859375,2.4557433128356934,65.00016784667969,29.61,0
-0.3307915329933166,-1.0280143022537231,0.1248834431171417,-10.658604621887209,2.4676501750946045,65.00010681152344,29.61,0
-0.3634228706359863,-1.213900089263916,0.1305229812860489,-12.120795249938965,2.4752914905548096,65.00006866455078,29.61,0
-0.3955593407154083,-1.2716153860092163,0.1453376561403274,-12.034528732299805,2.4801952838897705,65.00004577636719,29.61,0
-0.416182667016983,-1.118329405784607,0.2052248269319534,-9.80812644958496,2.483342170715332,65.00003051757812,29.61,0
-0.384635329246521,-1.0535459518432615,0.2324614226818084,-5.391481876373291,2.4853615760803223,65.0000228881836,29.61,0
-0.3252056539058685,-1.045558214187622,0.2387447506189346,0.6206111907958984,2.520704507827759,65.00001525878906,29.61,0
-0.2870671153068542,-0.9788566827774048,0.253972589969635,6.947220802307129,2.543385505676269,65.00000762939453,29.61,0
-0.2457986623048782,-0.868878185749054,0.2637449204921722,11.46584415435791,2.55794095993042,65.00000762939453,29.61,0
-0.2640971541404724,-0.7367247939109802,0.2420273721218109,12.151604652404783,2.567281723022461,65.00000762939453,29.61,0
-0.3038289248943329,-0.6575140953063965,0.228090301156044,8.85147762298584,2.5732762813568115,65.00000762939453,29.61,0
-0.3349242806434631,-0.6234745979309082,0.2191462963819503,3.523658514022827,2.5771231651306152,65.00000762939453,29.61,0
-0.326890617609024,-0.6072277426719666,0.2190043181180954,-1.4538497924804688,2.579591751098633,65.00000762939453,29.61,0
-0.327332854270935,-0.6079970002174377,0.2189132124185562,-4.83083963394165,2.5811760425567627,65.00000762939453,29.61,0
-0.3556055128574371,-0.6420773267745972,0.2244525104761123,-6.639739513397217,2.6060631275177,64.77072143554688,29.61,0
-0.3737492859363556,-0.6751436591148376,0.2336050868034362,-7.632206439971924,2.622034311294556,64.62358093261719,29.61,0
-0.402186244726181,-0.7355481386184692,0.25627201795578,-8.623788833618164,2.6322836875915527,64.5291519165039,29.61,0
-0.4484243094921112,-0.9030610918998718,0.265220582485199,-9.96231460571289,2.638861179351806,64.46855163574219,29.61,0
-0.4669016897678375,-1.116918921470642,0.2485721409320831,-11.308533668518066,2.6430821418762207,64.4296646118164,29.61,0
-0.5235416293144226,-1.270953893661499,0.2546814680099487,-12.11155605316162,2.6457908153533936,64.40470886230469,29.61,0
-0.5934765338897705,-1.2914358377456665,0.2530042827129364,-12.261466979980469,2.647529125213623,64.3886947631836,29.61,0
-0.5431945323944092,-1.2206133604049685,0.2071457803249359,-11.66265106201172,2.6486446857452397,64.37841796875,29.61,0
-0.4941331148147583,-1.1751636266708374,0.2224986255168914,-9.447669982910156,2.6580827236175537,64.37181854248047,29.61,0
-0.4570505619049072,-1.1515944004058838,0.2603400647640228,-4.66218376159668,2.66413950920105,64.36758422851562,29.61,0
-0.3884709179401397,-1.035709023475647,0.234244555234909,2.077423095703125,2.6680264472961426,64.3648681640625,29.61,0
-0.3500582277774811,-0.8997649550437927,0.1895090937614441,8.387262344360352,2.670520782470703,64.36312103271484,29.61,0
-0.3477982580661773,-0.756546139717102,0.1831915527582168,12.063965797424316,2.672121524810791,64.36199951171875,29.61,0
-0.3351523876190185,-0.6702343225479126,0.1847350895404815,12.82563304901123,2.67314887046814,64.36128234863281,29.61,0
-0.3214392364025116,-0.6372354626655579,0.1745300889015197,11.945883750915527,2.6738080978393555,64.36082458496094,29.61,0
-0.2902478277683258,-0.6440475583076477,0.156785562634468,10.71495246887207,2.6742310523986816,64.36052703857422,29.61,0
-0.2702309787273407,-0.6652125120162964,0.1453981399536132,9.473607063293455,2.6790928840637207,64.36033630371094,29.61,0
-0.2853741645812988,-0.717979371547699,0.1268948018550872,7.666696548461914,2.682213068008423,64.36021423339844,29.61,0
-0.3062877357006073,-0.8022220730781555,0.1318137496709823,4.608360290527344,2.6842153072357178,64.36013793945312,29.61,0
-0.3253066539764404,-0.9010663628578186,0.1461659967899322,0.4209168553352356,2.685500383377075,64.36009216308594,29.61,0
-0.3207185864448547,-1.048465609550476,0.1609742194414138,-3.828346014022827,2.6863250732421875,64.36006164550781,29.61,0
-0.3289697766304016,-1.1710468530654907,0.1592817306518554,-6.859797477722168,2.686854124069214,64.36003875732422,29.61,0
-0.3790470957756042,-1.160148024559021,0.1917822360992431,-7.8379130363464355,2.6871936321258545,64.36002349853516,29.61,0
-0.4111838340759277,-1.0691871643066406,0.2406280636787414,-6.46653413772583,2.6874115467071533,64.36001586914062,29.61,0
-0.3926229178905487,-1.055595874786377,0.271974503993988,-2.745479822158813,2.681124687194824,64.3600082397461,29.63,0
-0.3415271937847137,-1.0244827270507812,0.2808952927589416,3.031595468521118,2.677090167999268,64.3600082397461,29.63,0
-0.3031391203403473,-0.9765271544456482,0.2866201400756836,9.741188049316406,2.6745009422302246,64.3600082397461,29.63,0
-0.2729060649871826,-0.856187641620636,0.2958917915821075,15.2686767578125,2.672839403152466,64.3600082397461,29.63,0
-0.2982864379882812,-0.7285807132720947,0.2738529443740845,17.47960090637207,2.671773195266724,64.3600082397461,29.63,0
-0.3257696628570556,-0.6522877216339111,0.2541118860244751,15.459171295166016,2.671088933944702,64.3600082397461,29.63,0
-0.3154179453849792,-0.6089250445365906,0.2582365572452545,10.236072540283203,2.670649766921997,64.3600082397461,29.63,0
-0.3031770288944244,-0.5922929048538208,0.2608835101127624,4.387133598327637,2.670367956161499,64.3600082397461,29.63,0
-0.3289081454277038,-0.6152060031890869,0.2569844126701355,0.0245834179222583,2.6683509349823,64.17012786865234,29.63,0
-0.3566164374351501,-0.6411058902740479,0.2600799798965454,-2.9971699714660645,2.6670565605163574,64.04827880859375,29.63,0
-0.3743980228900909,-0.668922483921051,0.273262083530426,-6.107859611511231,2.666225910186768,63.9700813293457,29.63,0
-0.4137980937957763,-0.7931312918663025,0.3097104728221893,-9.773601531982422,2.6656928062438965,63.91989517211914,29.63,0
-0.4502783417701721,-0.9456124305725098,0.3386987149715423,-13.218749046325684,2.6653506755828857,63.887691497802734,29.63,0
-0.4680914878845215,-1.1610193252563477,0.3349106013774872,-15.61594009399414,2.665131092071533,63.86702346801758,29.63,0
-0.5410984754562378,-1.2488750219345093,0.3380773961544037,-16.656341552734375,2.664990186691284,63.853759765625,29.63,0
-0.5935479402542114,-1.2156914472579956,0.3233163356781006,-16.270734786987305,2.6648998260498047,63.84524917602539,29.63,0
-0.5376425981521606,-1.1552116870880127,0.2746590971946716,-14.160334587097168,2.6574971675872803,63.839786529541016,29.63,0
-0.4793746471405029,-1.1555836200714111,0.2658247947692871,-9.685577392578123,2.6527466773986816,63.83628082275391,29.63,0
-0.4251883029937744,-1.111040115356445,0.2657532095909118,-2.536340713500977,2.64969801902771,63.83403015136719,29.63,0
-0.368023544549942,-0.9593036770820618,0.2321206331253051,5.9709649085998535,2.6477415561676025,63.83258819580078,29.63,0
-0.3257407248020172,-0.8059502243995667,0.2105371803045272,12.80259132385254,2.6464860439300537,63.831661224365234,29.63,0
-0.3209971487522125,-0.6907434463500977,0.2022839337587356,15.34170913696289,2.645680427551269,63.8310661315918,29.63,0
-0.3235507607460022,-0.6168103814125061,0.2025852501392364,13.682364463806152,2.6451632976531982,63.830684661865234,29.63,0
-0.3027984201908111,-0.6029510498046875,0.1971808522939682,10.331809043884276,2.644831418991089,63.83044052124024,29.63,0
-0.2950785458087921,-0.6444368958473206,0.1601259708404541,7.622733592987059,2.6372735500335693,63.83028411865234,29.63,0
-0.3013199269771576,-0.6934512257575989,0.1363462805747985,5.776727676391602,2.632423162460327,63.83018112182617,29.63,0
-0.3221186101436615,-0.7584924697875977,0.1434769332408905,3.4348955154418945,2.629310607910156,63.830116271972656,29.63,0
-0.3242704570293426,-0.8282210230827332,0.1704440712928772,-0.4109620451927185,2.627313137054444,63.830074310302734,29.63,0
-0.3424446880817413,-0.9457398653030396,0.1933478116989135,-5.322328567504883,2.6260311603546143,63.83004760742188,29.63,0
-0.3764989674091339,-1.1275144815444946,0.1968505680561065,-9.946599006652832,2.625208616256714,63.83003234863281,29.63,0
-0.3983530402183532,-1.216178059577942,0.2046962082386016,-13.118396759033203,2.624680757522583,63.830020904541016,29.63,0
-0.4067799746990204,-1.0715572834014893,0.2545132935047149,-14.247482299804688,2.62434196472168,63.83001327514648,29.63,0
-0.3506123721599579,-1.0515191555023191,0.2920807898044586,-13.159281730651855,2.6144845485687256,63.83000946044922,29.65,0
-0.3033716678619385,-1.083441972732544,0.2993961274623871,-9.935220718383787,2.608158588409424,63.83000564575195,29.65,0
-0.3066419661045074,-1.0703415870666504,0.304090678691864,-4.899831771850586,2.604099035263061,63.83000564575195,29.65,0
-0.2919473350048065,-1.011554479598999,0.3071033954620361,1.2334771156311035,2.6014938354492188,63.83000564575195,29.65,0
-0.293712705373764,-0.8562750816345215,0.2922434508800506,7.147063732147217,2.5998218059539795,63.83000564575195,29.65,0
-0.3060411810874939,-0.7286368608474731,0.2883049547672272,11.049540519714355,2.5987489223480225,63.83000564575195,29.65,0
-0.3139528632164001,-0.657921552658081,0.2745819091796875,11.759055137634276,2.598060369491577,63.83000564575195,29.65,0
-0.3078345954418182,-0.618138313293457,0.2713730335235595,9.92869758605957,2.597618579864502,63.83000564575195,29.65,0
-0.3095059990882873,-0.5982054471969604,0.2637159824371338,7.467934608459473,2.580350399017334,63.64371109008789,29.65,0
-0.3273719549179077,-0.5966092348098755,0.264399915933609,5.43018913269043,2.5692687034606934,63.5241584777832,29.65,0
-0.3444350659847259,-0.6123782396316528,0.2760343551635742,3.1121950149536133,2.562156915664673,63.44743347167969,29.65,0
-0.3777762949466705,-0.7064644694328308,0.2946962118148803,-0.4532541632652282,2.5575931072235107,63.398197174072266,29.65,0
-0.3991727530956268,-0.8676035404205322,0.3178678750991821,-5.012707233428955,2.554664373397827,63.36660003662109,29.65,0
-0.4073060154914856,-1.0437843799591064,0.3215425610542297,-9.396810531616213,2.552784919738769,63.3463249206543,29.65,0
-0.451709896326065,-1.1680426597595217,0.3183029890060425,-12.55420207977295,2.5515787601470947,63.33331298828125,29.65,0
-0.5137923955917358,-1.2086000442504885,0.333017349243164,-14.082456588745115,2.550804615020752,63.3249626159668,29.65,0
-0.5312422513961792,-1.145063042640686,0.297677993774414,-14.22846221923828,2.5388317108154297,63.319602966308594,29.65,0
-0.4808650612831116,-1.132277488708496,0.2749992311000824,-13.372777938842772,2.531148195266724,63.316162109375,29.65,0
-0.4317425489425659,-1.124072551727295,0.2772386074066162,-11.18641185760498,2.526217460632324,63.3139533996582,29.65,0
-0.4058163166046142,-1.0572315454483032,0.2450890690088272,-6.867111206054688,2.5230531692504883,63.312538146972656,29.65,0
-0.383580595254898,-0.9583590626716614,0.2076640278100967,-0.6702902317047119,2.5210225582122803,63.31163024902344,29.65,0
-0.341322124004364,-0.7997462153434753,0.2116356641054153,5.398696899414063,2.519719362258911,63.3110466003418,29.65,0
-0.3198008239269256,-0.6867620944976807,0.2309777587652206,9.150120735168455,2.518882989883423,63.310672760009766,29.65,0
-0.2947941422462463,-0.6310487389564514,0.2321948409080505,10.443387031555176,2.518346309661865,63.31043243408203,29.65,0
-0.2619529664516449,-0.6288817524909973,0.19938924908638,11.115697860717772,2.501476287841797,63.310279846191406,29.65,0
-0.2520729601383209,-0.6442844271659851,0.1783365160226822,12.335314750671388,2.490649938583374,63.3101806640625,29.65,0
-0.2849169671535492,-0.7045489549636841,0.1704238504171371,13.07142162322998,2.4837021827697754,63.31011581420898,29.65,0
-0.3059943318367004,-0.8159943222999573,0.1765415072441101,11.756107330322266,2.479243516921997,63.31007385253906,29.65,0
-0.3083250224590301,-0.9099045991897584,0.1916630119085312,8.268073081970215,2.476382255554199,63.3100471496582,29.65,0
-0.3098207414150238,-1.048539638519287,0.2125626802444458,3.5003552436828613,2.474546194076538,63.31003189086914,29.65,0
-0.3219761550426483,-1.1990832090377808,0.2203771024942398,-1.533290982246399,2.473367691040039,63.310020446777344,29.65,0
-0.3801567554473877,-1.2565089464187622,0.2365875095129013,-5.465780258178711,2.472611427307129,63.31001281738281,29.65,0
-0.3783093094825744,-1.0862438678741455,0.2861748337745666,-6.900322437286377,2.466617584228516,63.31000900268555,29.63,0
-0.3211459815502167,-0.982575297355652,0.2956060171127319,-5.524497985839844,2.46277117729187,63.31000518798828,29.63,0
-0.2452774196863174,-0.988817811012268,0.2792673110961914,-1.940311074256897,2.460302829742432,63.31000518798828,29.63,0
-0.2021871209144592,-0.987226128578186,0.2743798494338989,3.2402050495147705,2.458718776702881,63.31000518798828,29.63,0
-0.2137186676263809,-0.9134336113929749,0.2712433636188507,9.022408485412598,2.457702159881592,63.31000518798828,29.63,0
-0.2547056078910827,-0.7933067679405212,0.2580350041389465,13.163002967834473,2.45704984664917,63.31000518798828,29.63,0
-0.2866064310073852,-0.7106184959411621,0.2439608573913574,13.276569366455078,2.456631183624268,63.31000518798828,29.63,0
-0.2958829998970032,-0.6687494516372681,0.2517221868038177,9.340547561645508,2.45636248588562,63.31000518798828,29.63,0
-0.2906406223773956,-0.6418803334236145,0.2678985297679901,4.403562068939209,2.4433367252349854,63.19894409179688,29.63,0
-0.2984718978404999,-0.6246373057365417,0.2670840322971344,1.7511799335479736,2.434977531433105,63.12767028808594,29.63,0
-0.3314864337444305,-0.6135717034339905,0.2721590995788574,1.5178898572921753,2.4296131134033203,63.08193206787109,29.63,0
-0.3638688325881958,-0.6064704060554504,0.2810137569904327,1.1138148307800293,2.426170587539673,63.05257797241211,29.63,0
-0.407041072845459,-0.6802820563316345,0.3202828168869018,-1.3129554986953735,2.4239614009857178,63.03374099731445,29.63,0
-0.4347465336322784,-0.7780300974845886,0.3510812222957611,-5.231234073638916,2.422543525695801,63.02165222167969,29.63,0
-0.4357329905033111,-0.935921311378479,0.3428569734096527,-9.168042182922363,2.421633720397949,63.01389694213867,29.63,0
-0.4643549025058746,-1.1268112659454346,0.3375791311264038,-12.210350036621094,2.421049833297729,63.00891876220703,29.63,0
-0.538700520992279,-1.2773022651672363,0.3621809780597687,-14.048086166381836,2.41654372215271,63.00572204589844,29.63,0
-0.575215756893158,-1.19474995136261,0.2940024137496948,-14.643479347229004,2.413651943206787,63.0036735534668,29.63,0
-0.5146824717521667,-1.1585659980773926,0.2278582453727722,-13.893474578857422,2.4117960929870605,63.00235748291016,29.63,0
-0.4814334809780121,-1.1521384716033936,0.2413884699344635,-11.262619018554688,2.410605192184448,63.00151443481445,29.63,0
-0.4656939804553985,-1.120024800300598,0.2220825254917144,-6.306978702545166,2.409841060638428,63.000972747802734,29.63,0
-0.433202177286148,-1.0378406047821045,0.1984975188970565,0.0617586113512516,2.409350633621216,63.00062561035156,29.63,0
-0.361970841884613,-0.8955351114273071,0.1945575773715973,5.649946212768555,2.4090359210968018,63.00040054321289,29.63,0
-0.3274542093276977,-0.78182053565979,0.1920291483402252,8.849205017089844,2.4088339805603027,63.0002555847168,29.63,0
-0.3276945352554321,-0.6976495385169983,0.1792109906673431,10.024574279785156,2.394932985305786,63.00016403198242,29.63,0
-0.3054576516151428,-0.6660245060920715,0.1597894877195358,10.66063404083252,2.386012077331543,63.00010681152344,29.63,0
-0.2855895161628723,-0.6569249629974365,0.1305325627326965,11.49156379699707,2.380287170410156,63.00006866455078,29.63,0
-0.278437077999115,-0.679074227809906,0.1117571592330932,11.820600509643556,2.376613140106201,63.00004577636719,29.63,0
-0.2962381541728973,-0.7044839262962341,0.0997081845998764,10.369441986083984,2.374255418777466,63.000030517578125,29.63,0
-0.3356507420539856,-0.748779296875,0.1087691709399223,6.615102767944336,2.3727424144744877,63.00001907348633,29.63,0
-0.3553456962108612,-0.8443787693977356,0.1369750797748565,1.4472007751464844,2.371771335601806,63.0000114440918,29.63,0
-0.3735825419425964,-0.9169245958328248,0.1662715673446655,-3.2234749794006348,2.3711483478546143,63.00000762939453,29.63,0
-0.396481454372406,-0.9970669746398926,0.1962679177522659,-5.565234661102295,2.3739616870880127,63.00000381469727,29.63,0
-0.4223722219467163,-1.070888876914978,0.2267133891582489,-4.760862350463867,2.3757669925689697,63.00000381469727,29.63,0
-0.4837695956230163,-1.1126656532287598,0.2966315150260925,-1.249629259109497,2.376925468444824,63.00000381469727,29.63,0
-0.4895842671394348,-0.9883357286453248,0.3526964783668518,3.934224843978882,2.377669095993042,63.00000381469727,29.63,0
-0.4485335946083069,-0.9421345591545104,0.3606868982315063,9.92277717590332,2.378146171569824,63.00000381469727,29.63,0
-0.3997985422611236,-0.974060833454132,0.3490213453769684,15.668232917785645,2.37845230102539,63.00000381469727,29.63,0
-0.3741209506988525,-0.9777559638023376,0.3583284020423889,18.99349594116211,2.3786487579345703,63.00000381469727,29.63,0
-0.3520447909832001,-0.9241495132446288,0.3363122642040252,17.41232681274414,2.378774881362915,63.00000381469727,29.63,0
-0.3546708822250366,-0.8169769644737244,0.3165857791900635,10.80522346496582,2.366002559661865,62.90327453613281,29.63,0
-0.3731494843959808,-0.7481997609138489,0.3151220083236694,2.3520565032958984,2.357806205749512,62.8411979675293,29.63,0
-0.3850080072879791,-0.7096602916717529,0.3253782093524933,-4.323019027709961,2.352546215057373,62.801361083984375,29.63,0
-0.3702270090579986,-0.673732340335846,0.326362282037735,-8.291431427001953,2.349170684814453,62.77579498291016,29.63,0
-0.3327525556087494,-0.656273603439331,0.3269937932491302,-10.856042861938477,2.3470044136047363,62.7593879699707,29.63,0
-0.3478880226612091,-0.6954495906829834,0.3441923856735229,-13.225543022155762,2.345614194869995,62.74885940551758,29.63,0
-0.3631988763809204,-0.7261882424354553,0.3440338969230652,-15.652543067932127,2.344722032546997,62.74210357666016,29.63,0
-0.3786222636699676,-0.7347189784049988,0.343932181596756,-17.74385643005371,2.344149589538574,62.73776626586914,29.63,0
-0.3941178917884826,-0.7457913160324097,0.3550624549388885,-18.74201393127441,2.34470009803772,62.7349853515625,29.63,0
-0.4040620923042297,-0.7864835262298584,0.3622052371501922,-18.243314743041992,2.345053195953369,62.73320007324219,29.63,0
-0.4048459231853485,-0.8014019131660461,0.3555935025215149,-16.655046463012695,2.3452799320220947,62.732051849365234,29.63,0
-0.3941533863544464,-0.7941823601722717,0.3457527160644531,-14.206338882446287,2.3454253673553467,62.73131561279297,29.63,0
-0.3984870910644531,-0.8455269932746887,0.3394374549388885,-10.12351417541504,2.3455188274383545,62.73084259033203,29.63,0
-0.4124637544155121,-0.9344547390937804,0.3353846967220306,-3.655706167221069,2.345578670501709,62.73054122924805,29.63,0
-0.4942042529582977,-1.0475012063980105,0.3439794182777405,4.16710090637207,2.3456170558929443,62.7303466796875,29.63,0
-0.49068284034729,-0.9801035523414612,0.2879194915294647,10.387491226196287,2.345641851425171,62.73022079467773,29.63,0
-0.4380430281162262,-0.942449390888214,0.2407478988170623,12.505691528320312,2.3406083583831787,62.73014068603516,29.63,0
-0.404261827468872,-0.9798606634140016,0.2384647578001022,11.181682586669922,2.3373782634735107,62.7300910949707,29.63,0
-0.3769852221012115,-1.0430535078048706,0.2481951266527176,9.49368667602539,2.3353052139282227,62.73005676269531,29.63,0
-0.3538829088211059,-1.022031545639038,0.2264506369829177,9.23083782196045,2.333974838256836,62.73003768920898,29.63,0
-0.3334594070911407,-0.913378655910492,0.206898495554924,9.348762512207031,2.3331212997436523,62.73002243041992,29.63,0
-0.3315483033657074,-0.8380537033081055,0.2055466175079345,8.09888744354248,2.332573413848877,62.73001480102539,29.63,0
-0.3135285675525665,-0.817703366279602,0.2102768272161483,4.968114852905273,2.332221746444702,62.730010986328125,29.63,0
-0.2907689809799194,-0.8158392310142517,0.207714632153511,0.4189193546772003,2.331996202468872,62.73000717163086,29.63,0
-0.3041520714759826,-0.831436276435852,0.1892770379781723,-4.678699016571045,2.3268017768859863,62.7300033569336,29.63,0
-0.3407294154167175,-0.8358477354049683,0.1830426305532455,-8.895856857299805,2.3234682083129883,62.7300033569336,29.63,0
-0.3474093377590179,-0.8498743176460266,0.1902372986078262,-10.674298286437988,2.32132887840271,62.7300033569336,29.63,0
-0.3349027931690216,-0.8812668919563293,0.2004521936178207,-9.501255989074709,2.319956064224243,62.7300033569336,29.63,0
-0.3380723595619201,-0.9070106148719788,0.2070075273513794,-6.147515296936035,2.319075107574463,62.7300033569336,29.63,0
-0.3513019680976867,-0.9515203237533568,0.2056165784597396,-1.526882886886597,2.318509817123413,62.7300033569336,29.63,0
-0.3485964238643646,-0.991279661655426,0.2159194946289062,3.9031851291656494,2.3181469440460205,62.7300033569336,29.63,0
-0.3580557107925415,-1.0055993795394895,0.2281290888786316,9.573261260986328,2.3179140090942383,62.7300033569336,29.63,0
-0.3585283458232879,-0.9420178532600404,0.2415622770786285,14.3619966506958,2.3177645206451416,62.64760208129883,29.63,0
-0.3420383334159851,-0.8676282167434692,0.2557806968688965,16.7401123046875,2.3176686763763428,62.594722747802734,29.63,0
-0.3314560055732727,-0.8590736389160156,0.2649052739143371,15.274798393249512,2.3176071643829346,62.56078720092773,29.63,0
-0.3246648609638214,-0.8647793531417847,0.2763586640357971,10.13208293914795,2.317567586898804,62.53900909423828,29.63,0
-0.3259044885635376,-0.8572454452514648,0.2837088108062744,3.947811126708984,2.317542314529419,62.52503204345703,29.63,0
-0.3434933125972748,-0.8580083847045898,0.2772301435470581,-0.3218345940113067,2.31752610206604,62.51606369018555,29.63,0
-0.3603785932064056,-0.8808890581130981,0.2730725109577179,-2.2414379119873047,2.31751561164856,62.51030731201172,29.63,0
-0.3600190579891205,-0.9123659133911132,0.2871977090835571,-3.4088423252105717,2.3175089359283447,62.506614685058594,29.63,0
-0.3373972177505493,-0.8989793062210083,0.3074579834938049,-5.053659439086914,2.31520938873291,62.50424575805664,29.63,0
-0.3340753614902496,-0.8735952377319336,0.3204598724842071,-7.45267391204834,2.3137335777282715,62.502723693847656,29.63,0
-0.3487369120121002,-0.8405118584632874,0.3176081776618957,-10.636625289916992,2.31278657913208,62.501747131347656,29.63,0
-0.3469503223896026,-0.8080853223800659,0.3213759064674377,-14.16308879852295,2.31217885017395,62.501121520996094,29.63,0
-0.3402059972286224,-0.8040691614151001,0.329391598701477,-16.72710609436035,2.31178879737854,62.5007209777832,29.63,0
-0.3638667464256286,-0.8574695587158203,0.3345355987548828,-17.158052444458008,2.3115384578704834,62.50046157836914,29.63,0
-0.3846486508846283,-0.8805432915687561,0.3322389423847198,-15.55017375946045,2.311377763748169,62.50029754638672,29.63,0
-0.3811919391155243,-0.9009484648704528,0.3419606387615204,-12.691216468811035,2.311274766921997,62.50019073486328,29.63,0
-0.3733758628368377,-0.8860544562339783,0.3481994569301605,-9.129700660705566,2.312585830688477,62.5001220703125,29.63,0
-0.3683599531650543,-0.8708985447883606,0.3466054201126098,-5.393181324005127,2.313426971435547,62.50008010864258,29.63,0
-0.3651410341262817,-0.8835634589195251,0.3343868851661682,-1.96709942817688,2.313966989517212,62.50004959106445,29.63,0
-0.3686730861663818,-0.8972888588905334,0.3265457451343536,1.5392030477523804,2.3143134117126465,62.500030517578125,29.63,0
-0.3653419911861419,-0.8781081438064575,0.3103182017803192,5.7812581062316895,2.314535856246948,62.50001907348633,29.63,0
-0.3576065003871918,-0.8713968396186829,0.3055020868778229,9.825535774230955,2.314678430557251,62.5000114440918,29.63,0
-0.3694356381893158,-0.8446988463401794,0.3192046880722046,11.672161102294922,2.314769983291626,62.50000762939453,29.63,0
-0.3714291155338287,-0.8499566912651062,0.3224004507064819,11.040853500366213,2.314828634262085,62.50000381469727,29.63,0
-0.3783061802387237,-0.8589286208152771,0.3188535273075104,9.897706031799316,2.3235883712768555,62.50000381469727,29.63,0
-0.3603284060955047,-0.8702840805053711,0.3165773153305053,9.694320678710938,2.329210042953491,62.50000381469727,29.63,0
-0.3655846118927002,-0.8607780337333679,0.3151165843009949,9.757259368896484,2.332817554473877,62.50000381469727,29.63,0
-0.3857510685920715,-0.8546776175498962,0.3477658331394195,8.71571159362793,2.335132837295532,62.50000381469727,29.63,0
-0.376301646232605,-0.8339694142341614,0.3687182366847992,6.098385334014893,2.336618661880493,62.50000381469727,29.63,0
-0.3870308697223663,-0.8206800818443298,0.3765664994716644,2.3480069637298584,2.3375720977783203,62.50000381469727,29.63,0
-0.3715251684188843,-0.8065539598464966,0.398396372795105,-1.509713053703308,2.338183879852295,62.50000381469727,29.63,0
-0.3503789603710174,-0.8086841702461243,0.4180033206939697,-4.314972400665283,2.338576555252075,62.50000381469727,29.63,0
-0.3591996431350708,-0.7988556623458862,0.4305859208106994,-5.549179553985596,2.323220729827881,62.406856536865234,29.63,0
-0.3480669260025024,-0.7981460690498352,0.4498562514781952,-5.574551582336426,2.313366174697876,62.34708023071289,29.63,0
-0.3409225940704345,-0.7976906895637512,0.4622228443622589,-4.913726806640625,2.307042121887207,62.308719635009766,29.63,0
-0.3587288558483124,-0.8029962182044983,0.4701590240001678,-3.6656553745269775,2.30298376083374,62.28409957885742,29.63,0
