acc_x,acc_y,acc_z,bvp,eda,hr,temp,label
0.0,0.0,0.0,0.0,0.0,0.0,34.75,0
-0.0182291660457849,-0.1484374850988388,0.0729166641831398,2.0883331298828125,0.5616269707679749,10.333333015441896,34.75,0
-0.0720274373888969,-0.3266006112098694,0.1665396392345428,5.700000286102295,1.3150291442871094,24.19512176513672,34.75,0
-0.0988891199231147,-0.4616383016109466,0.2679090499877929,11.141063690185549,1.970359206199646,36.25249099731445,34.75,0
0.0042924294248223,-0.7042869329452515,0.2991579174995422,16.743675231933594,2.448457956314087,45.04899215698242,34.75,0
-0.1619073152542114,-0.7313272953033447,0.2324791848659515,20.466609954833984,2.772150754928589,51.00459671020508,34.75,0
-0.1043659597635269,-0.8101534843444824,0.2775775492191314,23.6059684753418,2.9845399856567383,54.91232681274414,34.75,0
-0.1396305710077285,-0.8221500515937805,0.2788889110088348,28.75646209716797,3.122093915939331,57.443172454833984,34.75,0
-0.1064453050494194,-0.8522385954856873,0.3076845109462738,34.63948440551758,3.289093017578125,59.0734748840332,34.73,0
-0.0907103717327117,-0.8827670812606812,0.315003365278244,37.48622512817383,3.396430253982544,60.121337890625,34.73,0
-0.0917990878224372,-0.8967745900154114,0.3197032213211059,37.70606231689453,3.4653573036193848,60.794227600097656,34.73,0
-0.0813034623861312,-0.9001688957214355,0.3283173441886902,40.9852180480957,3.5096025466918945,61.22616195678711,34.73,0
-0.068969689309597,-0.8967498540878296,0.3282484412193298,51.20045471191406,3.537999629974365,61.50338363647461,34.73,0
-0.0666519105434417,-0.9001532793045044,0.3226065337657928,66.60870361328125,3.5562241077423096,61.681297302246094,34.73,0
-0.0707622021436691,-0.9023374319076538,0.3189858198165893,80.55245971679688,3.5679197311401367,61.79547500610352,34.73,0
-0.0789977312088012,-0.9037391543388368,0.3166622221469879,86.10455322265625,3.575425386428833,61.86874771118164,34.73,0
-0.0898806080222129,-0.9046387076377868,0.3151710629463196,83.8888931274414,3.50241494178772,61.915771484375,34.73,0
-0.102462388575077,-0.9052159786224364,0.314214140176773,82.19114685058594,3.4555609226226807,61.945945739746094,34.73,0
-0.1161344274878501,-0.9111841917037964,0.3136000335216522,83.98202514648438,3.425492763519287,61.96531295776367,34.73,0
-0.1249083578586578,-0.9150142669677734,0.3132059276103973,78.02347564697266,3.4061968326568604,61.97774124145508,34.73,0
-0.1305389702320099,-0.923069953918457,0.3129530251026153,51.3714485168457,3.3938138484954834,61.98571395874024,34.73,0
-0.1285545974969864,-0.928239643573761,0.3183884918689728,3.5471253395080566,3.385867118835449,61.9908332824707,34.73,0
-0.1328789144754409,-0.9315572381019592,0.3218766748905182,-53.91635894775391,3.380767345428467,61.994117736816406,34.73,0
-0.1524473279714584,-0.9336862564086914,0.3129196465015411,-111.57921600341795,3.37749457359314,61.99622344970703,34.73,0
-0.1482118964195251,-0.9294548034667968,0.3183670938014984,-165.6728057861328,3.3726398944854736,61.99757766723633,34.73,0
-0.1398960649967193,-0.9267392754554749,0.3162651658058166,-208.3796844482422,3.369524478912353,61.998443603515625,34.73,0
-0.1401572078466415,-0.9305943846702576,0.3149162530899048,-228.70016479492188,3.367525339126587,61.999000549316406,34.73,0
-0.1347270160913467,-0.9274706244468688,0.3140506148338318,-227.33872985839844,3.3662424087524414,61.999359130859375,34.73,0
-0.1312422454357147,-0.9254659414291382,0.3134950995445251,-221.6357269287109,3.3654189109802246,61.99958801269531,34.73,0
-0.1290059089660644,-0.9241794347763062,0.3131386041641235,-210.4560394287109,3.3648905754089355,61.99973678588867,34.73,0
-0.1275707632303238,-0.9233538508415222,0.3073120415210724,-172.9944610595703,3.364551544189453,61.99983215332031,34.73,0
-0.1210519969463348,-0.9284217953681946,0.309170663356781,-113.1674346923828,3.3643338680267334,61.99989318847656,34.73,0
-0.1224664002656936,-0.926076352596283,0.3103634119033813,-52.4365348815918,3.3628170490264893,61.5234489440918,34.73,0
-0.1233740821480751,-0.92457115650177,0.3111288547515869,-1.3860732316970823,3.3618435859680176,61.21769332885742,34.73,0
-0.1239565759897232,-0.9236052632331848,0.3060223162174225,40.07008361816406,3.3612189292907715,61.02147674560547,34.73,0
-0.1243303939700126,-0.9229853749275208,0.3027452230453491,69.7552719116211,3.3608181476593018,60.89555740356445,34.73,0
-0.1245702877640724,-0.9225875735282898,0.3006421625614166,85.8749771118164,3.360560894012451,60.81475067138672,34.73,0
-0.1247242391109466,-0.9223322868347168,0.2992925345897674,92.95236206054688,3.360395669937134,60.76289367675781,34.73,0
-0.1304208040237426,-0.9221684336662292,0.2984264492988586,98.43643951416016,3.3602898120880127,60.7296142578125,34.73,0
-0.1284787654876709,-0.9220632910728456,0.2978706359863281,102.77262878417967,3.3602218627929688,60.708255767822266,34.73,0
-0.1328302472829818,-0.9219958186149596,0.2975139319896698,101.71124267578124,3.356046676635742,60.69454956054688,34.73,0
-0.1356227695941925,-0.9219525456428528,0.2972850203514099,94.40950775146484,3.353367328643799,60.68575286865234,34.73,0
-0.1318170875310897,-0.9219247698783876,0.2971381247043609,83.30728149414062,3.3516478538513184,60.68010711669922,34.73,0
-0.1349725872278213,-0.9219069480895996,0.2914460897445678,69.28605651855469,3.3505444526672363,60.67648696899414,34.73,0
-0.1313998252153396,-0.9218955039978028,0.2933910489082336,49.90931701660156,3.3498363494873047,60.674163818359375,34.73,0
-0.1291070431470871,-0.9218881726264954,0.2946391999721527,25.214866638183597,3.349381923675537,60.67267227172852,34.73,0
-0.133233442902565,-0.921883463859558,0.2954401969909668,1.0988072156906128,3.349090337753296,60.67171478271485,34.73,0
-0.1302837431430816,-0.9218804240226746,0.2959542274475097,-18.626426696777344,3.348903179168701,60.67110061645508,34.73,0
-0.1283908039331436,-0.9274762272834778,0.2962841093540191,-34.98933029174805,3.348783016204834,60.67070388793945,34.73,0
-0.1271760165691375,-0.9254695177078248,0.2964957952499389,-49.51333236694336,3.348706007003784,60.67045211791992,34.73,0
-0.1263964474201202,-0.9241817593574524,0.2966316342353821,-60.80083465576172,3.34865665435791,60.6702880859375,34.73,0
-0.125896155834198,-0.9177575707435608,0.3023166060447693,-67.46412658691406,3.3486249446868896,60.67018508911133,34.73,0
-0.1255750954151153,-0.9192326664924622,0.3059648871421814,-70.74070739746094,3.348604440689087,60.67011642456055,34.73,0
-0.13096684217453,-0.9201793074607848,0.3027083575725555,-73.43455505371094,3.3485913276672363,60.67007446289063,34.73,0
-0.140024721622467,-0.9207867980003356,0.3006184995174408,-77.58870697021484,3.348582983016968,60.670047760009766,34.73,0
-0.1458375453948974,-0.9267744421958924,0.2992773652076721,-80.3620834350586,3.3485774993896484,60.67002868652344,34.73,0
-0.1495678871870041,-0.9306169748306274,0.2984167039394378,-72.53699493408203,3.3481152057647705,60.67001724243164,34.73,0
-0.1519618034362793,-0.93308287858963,0.2978643774986267,-48.73185729980469,3.347818374633789,60.67000961303711,34.73,0
-0.1534980833530426,-0.9290675520896912,0.2975099384784698,-16.910757064819336,3.347627878189087,60.67000579833984,34.73,0
-0.1544839739799499,-0.9208930134773254,0.3028802275657654,9.51817512512207,3.347505807876587,60.67000198364258,34.73,0
-0.1495188921689987,-0.9212448000907898,0.3063265979290008,25.407550811767575,3.3474273681640625,60.67000198364258,34.73,0
-0.1519303619861602,-0.921470582485199,0.3085382580757141,33.21485900878906,3.347377061843872,60.67000198364258,34.73,0
-0.1534779071807861,-0.921615481376648,0.3099575936794281,35.344749450683594,3.3473448753356934,60.67000198364258,34.73,0
-0.1544710248708725,-0.9217084646224976,0.30527064204216,34.08914566040039,3.3473241329193115,60.67000198364258,34.73,0
-0.1551083624362945,-0.910572588443756,0.2966650724411011,33.186641693115234,3.345015525817871,62.57951354980469,34.73,0
-0.1555173695087433,-0.903426229953766,0.2911424934864044,33.513858795166016,3.343533992767334,63.80492782592773,34.73,0
-0.1445842981338501,-0.9044378399848938,0.2820006608963012,31.98988151550293,3.342583179473877,64.5913314819336,34.73,0
-0.1375680714845657,-0.916282594203949,0.2761339545249939,26.60531234741211,3.341973066329956,65.09600067138672,34.73,0
-0.1274676918983459,-0.9294816851615906,0.2779668271541595,19.4669189453125,3.341581344604492,65.41986846923828,34.73,0
-0.1097903028130531,-0.9267565608024596,0.2903386056423187,13.33823585510254,3.341330051422119,65.6277084350586,34.73,0
-0.0984459668397903,-0.9194099307060242,0.3094736337661743,8.219367027282715,3.3411688804626465,65.7610855102539,34.73,0
-0.0911658257246017,-0.8923041820526123,0.3329489529132843,3.1753275394439697,3.3410654067993164,65.8466796875,34.73,0
-0.0864938497543335,-0.869311511516571,0.3424162864685058,-1.494676947593689,3.340998888015747,65.901611328125,34.73,0
-0.1058867424726486,-0.854556143283844,0.3484918773174286,-4.5919294357299805,3.340956211090088,65.93685913085938,34.73,0
-0.1183319836854934,-0.8562825322151184,0.3579886257648468,-5.791400909423828,3.340928792953491,65.95948028564453,34.73,0
-0.1263186186552047,-0.8629882335662842,0.3640830814838409,-6.167069435119629,3.340911388397217,65.9739990234375,34.73,0
-0.137041762471199,-0.8728893399238586,0.3735919296741485,-6.848808765411377,3.340900182723999,65.98331451416016,34.73,0
-0.1439232528209686,-0.8848410248756409,0.3740963935852051,-7.759209632873535,3.340893030166626,65.98929595947266,34.73,0
-0.1539371758699417,-0.9037064909934998,0.3744201064109802,-8.35420036315918,3.340888261795044,65.99313354492188,34.73,0
-0.1659613102674484,-0.93260657787323,0.369030088186264,-9.001141548156738,3.340885162353516,65.99559020996094,34.73,0
-0.1736777126789093,-0.9567508101463318,0.3655710816383362,-10.494667053222656,3.339506149291992,65.9971694946289,34.73,0
-0.1730318814516067,-1.0058318376541138,0.3577535152435303,-12.65687084197998,3.338621139526367,65.99818420410156,34.73,0
-0.172617420554161,-1.031731367111206,0.3583344221115112,-14.54242706298828,3.3380532264709477,65.99883270263672,34.73,0
-0.172351449728012,-1.053949952125549,0.3587072193622589,-15.928013801574709,3.337688684463501,65.99925231933594,34.73,0
-0.1889740824699401,-1.0850019454956057,0.3533486723899841,-17.4907283782959,3.3374547958374023,65.99951934814453,34.73,0
-0.1884459853172302,-1.1105271577835083,0.3499098718166351,-19.7439079284668,3.3373048305511475,65.99969482421875,34.73,0
-0.1713137626647949,-1.070930004119873,0.336507499217987,-22.25389289855957,3.3372085094451904,65.99980163574219,34.73,0
-0.1659170538187027,-1.0511165857315063,0.3055155277252197,-23.495651245117188,3.337146759033203,65.99987030029297,34.73,0
-0.1568559855222702,-1.0160104036331177,0.2688333392143249,-21.591279983520508,3.33343505859375,65.99991607666016,34.73,0
-0.156638890504837,-0.9822856783866882,0.2284995019435882,-16.016334533691406,3.3310530185699463,65.99994659423828,34.73,0
-0.1564995646476745,-0.9606431126594543,0.1914200186729431,-8.608880996704102,3.329524278640747,65.99996948242188,34.73,0
-0.1508123874664306,-0.9411563873291016,0.1676245480775833,-2.049586296081543,3.328543186187744,65.9999771118164,34.73,0
-0.1415649056434631,-0.9230531454086304,0.1523539870977401,2.349668264389038,3.327913761138916,65.99998474121094,34.73,0
-0.1300326287746429,-0.9114355444908142,0.136956438422203,4.879085540771484,3.327509641647339,65.99999237060547,34.73,0
-0.1282296478748321,-0.8983822464942932,0.1270751804113388,6.24437427520752,3.3272504806518555,65.99999237060547,34.73,0
-0.1270726025104522,-0.8844075798988342,0.1263317316770553,6.859010219573975,3.3270840644836426,65.99999237060547,34.73,0
-0.1095367521047592,-0.8586461544036865,0.1370501816272735,7.013415336608887,3.328354358673096,64.78192138671875,34.73,0
-0.0982832536101341,-0.8365161418914795,0.1495264321565628,6.944122791290283,3.329169750213623,64.00022888183594,34.73,0
-0.0910614058375358,-0.8111188411712646,0.1687285304069519,6.627378940582275,3.329692840576172,63.49858474731445,34.73,0
-0.0920246168971061,-0.8172114491462708,0.1922468692064285,5.897472381591797,3.330028533935547,63.17665863037109,34.73,0
-0.0870449766516685,-0.8603057265281677,0.2129373699426651,4.812857627868652,3.3302440643310547,62.97006607055664,34.73,0
-0.0838493257761001,-0.9551344513893129,0.2430086582899093,3.493446111679077,3.3303823471069336,62.83748626708984,34.73,0
-0.0817985460162162,-1.0383812189102173,0.2679044604301452,1.4608911275863647,3.33047103881836,62.752403259277344,34.73,0
-0.0860802456736564,-1.142184138298035,0.2894789278507232,-2.13633394241333,3.3305280208587646,62.69780349731445,34.73,0
-0.1112190932035446,-1.164016604423523,0.3145197331905365,-7.264313697814941,3.33699107170105,62.66276550292969,34.71,0
-0.1329495310783386,-1.0996586084365845,0.3305894732475281,-12.310617446899414,3.3411386013031006,62.64027786254883,34.71,0
-0.1748837530612945,-0.9911841154098512,0.2849243581295013,-15.144213676452637,3.3438003063201904,62.62584686279297,34.71,0
-0.2017947137355804,-0.9439625144004822,0.2444235682487487,-15.042391777038574,3.345508337020874,62.61658477783203,34.71,0
-0.174282431602478,-0.9528428316116332,0.2408235967159271,-13.436541557312012,3.346604585647583,62.61064147949219,34.71,0
-0.1510288566350937,-0.9473461508750916,0.249708890914917,-12.49198055267334,3.3473079204559326,62.60682678222656,34.71,0
-0.152899369597435,-0.9046342968940736,0.2498131841421127,-13.007162094116213,3.347759246826172,62.6043815612793,34.71,0
-0.1596975326538086,-0.8380398154258728,0.2274890094995498,-13.753355026245115,3.3480489253997803,62.60280990600586,34.71,0
-0.1584624350070953,-0.7897055745124817,0.2131626456975937,-12.480339050292969,3.356956720352173,62.60180282592773,34.71,0
-0.1464742720127105,-0.758687436580658,0.2319576740264892,-7.851530075073242,3.362673044204712,62.60115814208984,34.71,0
-0.1499765068292617,-0.7499773502349854,0.2552148103713989,-0.965271294116974,3.366341590881348,62.60074234008789,34.71,0
-0.1466262638568878,-0.7499854564666748,0.2813354432582855,5.367027759552002,3.3686957359313965,62.6004753112793,34.71,0
-0.1444762647151947,-0.7947728633880615,0.3204892575740814,8.982911109924316,3.370206594467163,62.60030364990234,34.71,0
-0.1542920619249344,-0.8738948106765747,0.3456159234046936,9.644644737243652,3.371176242828369,62.60019302368164,34.71,0
-0.1605912894010543,-1.0030395984649658,0.3841318488121032,8.475061416625977,3.371798515319824,62.60012435913086,34.71,0
-0.1590359956026077,-1.091515064239502,0.3976536095142364,6.9004974365234375,3.37219762802124,62.60007858276367,34.71,0
-0.1860267668962478,-1.16508686542511,0.4007333219051361,5.843459606170654,3.3839304447174072,62.60004806518555,34.71,0
-0.1977501064538955,-1.122736573219299,0.3859163820743561,5.333494663238525,3.3914597034454346,62.60002899169922,34.71,0
-0.2052734792232513,-1.056374192237854,0.3652121722698211,4.999063014984131,3.396291732788086,62.60001754760742,34.71,0
-0.2380904108285904,-1.0529710054397583,0.3295343220233917,4.547994136810303,3.399392604827881,62.60000991821289,34.71,0
-0.2199660092592239,-1.0731781721115112,0.3066383302211761,3.409453630447388,3.4013824462890625,62.600006103515625,34.71,0
-0.1915414929389953,-1.0805481672286987,0.2919449806213379,0.7872039675712585,3.4026594161987305,62.60000228881836,34.71,0
-0.1509091705083847,-1.0069090127944946,0.2545267641544342,-3.338921308517456,3.4034788608551025,62.60000228881836,34.71,0
-0.1416270136833191,-0.9372605085372924,0.2193183749914169,-7.831857681274414,3.4040048122406006,62.60000228881836,34.71,0
-0.1524635851383209,-0.8757708072662354,0.1855280995368957,-11.338534355163574,3.413982391357422,61.78675842285156,34.71,0
-0.1426245421171188,-0.8307124376296997,0.175038993358612,-13.201998710632324,3.420385360717773,61.26486587524414,34.71,0
-0.1251148730516433,-0.8073943853378296,0.1683076918125152,-13.538044929504396,3.424494504928589,60.9299430847168,34.71,0
-0.1082803979516029,-0.7980279326438904,0.1527923792600631,-13.065845489501951,3.427131414413452,60.71500778198242,34.71,0
-0.0974769964814186,-0.7920171022415161,0.1484333276748657,-12.89895248413086,3.428823709487915,60.57707595825195,34.71,0
-0.0905440002679824,-0.816148579120636,0.1400381624698639,-14.163976669311523,3.4299097061157227,60.48855972290039,34.71,0
-0.097290351986885,-0.8540258407592773,0.1626394987106323,-16.949796676635742,3.4306066036224365,60.43175506591797,34.71,0
-0.0960219949483871,-0.878333330154419,0.193937063217163,-19.3430290222168,3.431053876876831,60.395301818847656,34.71,0
-0.0840124860405922,-0.9611057639122008,0.2308153510093689,-18.603933334350582,3.435013055801392,60.37190628051758,34.71,0
-0.093098796904087,-1.0030287504196167,0.2544817328453064,-14.016827583312988,3.437553882598877,60.356895446777344,34.71,0
-0.1213209703564643,-1.013139247894287,0.2864627540111542,-7.508423805236816,3.4391844272613525,60.347259521484375,34.71,0
-0.167421206831932,-1.047616481781006,0.2733997106552124,-0.8525634407997131,3.4402308464050293,60.3410758972168,34.71,0
-0.17461459338665,-1.0809375047683716,0.2762121260166168,6.661016464233398,3.4409022331237797,60.33710861206055,34.71,0
-0.1008620485663414,-1.0743321180343628,0.3227991759777069,17.025043487548828,3.441333055496216,60.334564208984375,34.71,0
-0.0647274553775787,-1.0365065336227417,0.3470982909202575,30.314592361450195,3.4416096210479736,60.33293151855469,34.71,0
-0.0975160971283912,-0.9282656311988832,0.3123120963573456,42.80538940429688,3.441787004470825,60.33188247680664,34.71,0
-0.1353512853384018,-0.8476073145866394,0.2843905389308929,48.5606575012207,3.4373104572296143,60.33120727539063,34.71,0
-0.1540339589118957,-0.7846499085426331,0.2776676416397095,44.38314056396485,3.4344377517700195,60.33077621459961,34.71,0
-0.1660234183073043,-0.7610407471656799,0.2901465892791748,34.11077117919922,3.4325942993164062,60.33049774169922,34.71,0
-0.1737175732851028,-0.7514875531196594,0.3037526309490204,26.235994338989254,3.4314112663269043,60.33031845092773,34.71,0
-0.1674596816301345,-0.7845412492752075,0.3292775452136993,25.560321807861328,3.430651903152466,60.330204010009766,34.71,0
-0.1578459590673446,-0.8953176140785217,0.3400601744651794,28.977983474731445,3.4301645755767822,60.33013153076172,34.71,0
-0.1572742015123367,-1.0055919885635376,0.3525776267051697,30.655351638793945,3.42985200881958,60.33008575439453,34.71,0
-0.1513095051050186,-1.1043485403060913,0.3718061745166778,28.489559173583984,3.429651260375977,60.330055236816406,34.71,0
-0.1418839246034622,-1.2237025499343872,0.3897437155246734,24.244365692138672,3.429981470108032,60.33003616333008,34.71,0
-0.1470306813716888,-1.19953715801239,0.4068527519702911,20.330629348754883,3.430193424224853,60.33002471923828,34.71,0
-0.1615291237831115,-1.100062608718872,0.3450613021850586,17.833349227905273,3.4303293228149414,60.33001708984375,34.71,0
-0.1820289343595504,-1.0642144680023191,0.2942115366458893,16.205659866333008,3.4304165840148926,60.33001327514648,34.71,0
-0.1895867586135864,-1.041209101676941,0.2727746367454529,14.22605037689209,3.430472612380981,60.33000946044922,34.71,0
-0.183241382241249,-1.03204345703125,0.259017676115036,11.329161643981934,3.430508613586426,60.33000564575195,34.71,0
-0.1679737418889999,-0.9701836705207824,0.2389937043190002,8.241281509399414,3.430531740188598,60.33000564575195,34.71,0
-0.1693713963031768,-0.8913012146949768,0.2093501538038253,6.288318634033203,3.430546522140503,60.33000564575195,34.71,0
-0.1702683269977569,-0.8294834494590759,0.1903266161680221,5.608231544494629,3.4241297245025635,59.80336380004883,34.71,0
-0.1596483737230301,-0.7842145562171936,0.1781184077262878,4.695308208465576,3.4200117588043213,59.46539688110352,34.71,0
-0.1472353339195251,-0.7663591504096985,0.1646861135959625,3.045421838760376,3.41736912727356,59.24850845336914,34.71,0
-0.1392693519592285,-0.7828894853591919,0.1560660302639007,2.8106119632720947,3.415673017501831,59.10932159423828,34.71,0
-0.1285594701766967,-0.8102909922599792,0.1617297083139419,5.576140880584717,3.4145846366882324,59.02000045776367,34.71,0
-0.1216864883899688,-0.8446690440177917,0.1597665548324585,9.09919548034668,3.413886308670044,58.96268081665039,34.71,0
-0.1116780266165733,-0.9283064007759094,0.1697022765874862,9.572383880615234,3.413438081741333,58.92589569091797,34.71,0
-0.0940596237778663,-0.9875777959823608,0.1872739940881729,6.053440570831299,3.4131503105163574,58.902286529541016,34.71,0
-0.0883509218692779,-1.0927881002426147,0.2321371585130691,1.1476620435714722,3.407457113265991,58.88713836669922,34.71,0
-0.1014807298779487,-1.0651438236236572,0.2889166176319122,-2.004166841506958,3.403803586959839,58.87741470336914,34.71,0
-0.1155044585466384,-1.0082188844680786,0.3253544270992279,-2.40750503540039,3.401458978652954,58.87117767333984,34.71,0
-0.1412973999977111,-0.9996766448020936,0.3207492232322693,-1.258392095565796,3.399954319000244,58.86717224121094,34.71,0
-0.1298609524965286,-0.9997925162315368,0.3177938759326935,-0.1089613512158393,3.398988723754883,58.86460113525391,34.71,0
-0.0777395069599151,-0.9886713027954102,0.3438861668109894,0.7110763788223267,3.398369073867798,58.86295318603516,34.71,0
-0.0722798407077789,-0.9367521405220032,0.3326418399810791,2.656029224395752,3.3979713916778564,58.86189651489258,34.71,0
-0.0855694636702537,-0.8810423016548157,0.3030347824096679,7.762622356414795,3.3977162837982178,58.8612174987793,34.71,0
-0.1108912974596023,-0.8284976482391357,0.2728391289710998,15.45705509185791,3.3911256790161133,58.860782623291016,34.71,0
-0.1271414011716842,-0.7891797423362732,0.2590590715408325,21.41593360900879,3.386896133422852,58.86050415039063,34.71,0
-0.1431675553321838,-0.7639477252960205,0.2614113688468933,22.098079681396484,3.38418197631836,58.86032485961914,34.71,0
-0.1366588920354843,-0.7645485997200012,0.2909097969532013,19.229124069213867,3.382440090179444,58.86021041870117,34.71,0
-0.1268842369318008,-0.7761297821998596,0.3210357427597046,17.09780502319336,3.381322145462036,58.86013412475586,34.71,0
-0.1150136440992355,-0.8339418768882751,0.334771066904068,16.919462203979492,3.3806047439575195,58.860084533691406,34.71,0
-0.1129935607314109,-0.9102267622947692,0.3547811508178711,16.61871910095215,3.3801443576812744,58.86005401611328,34.71,0
-0.1284905076026916,-1.0039641857147217,0.3732202649116516,15.039261817932127,3.379848957061768,58.86003494262695,34.71,0
-0.1608266532421112,-1.15368390083313,0.3906511962413788,13.85727596282959,3.37552809715271,58.86002349853516,34.71,0
-0.1983714550733566,-1.2049832344055176,0.4130329191684723,15.126483917236328,3.372755289077759,58.86001586914063,34.71,0
-0.2056722193956375,-1.1259486675262451,0.3714184761047363,18.208759307861328,3.3709757328033447,58.86001205444336,34.71,0
-0.2159552127122879,-1.097619891166687,0.3335171639919281,20.419652938842773,3.369833707809448,58.860008239746094,34.71,0
-0.2169564664363861,-1.0738424062728882,0.2979987263679504,20.50934219360352,3.36910080909729,58.86000442504883,34.71,0
-0.1952079087495803,-1.041790008544922,0.269607275724411,19.96502685546875,3.3686304092407227,58.86000442504883,34.71,0
-0.1756531745195388,-0.9820362329483032,0.2569850385189056,20.78363609313965,3.36832857131958,58.86000442504883,34.71,0
-0.1742996126413345,-0.898907482624054,0.2208959460258484,22.82081794738769,3.3681349754333496,58.86000442504883,34.71,0
-0.1734309792518615,-0.8455602526664734,0.1921382695436477,23.06772232055664,3.3703060150146484,58.5089111328125,34.71,0
-0.1672757565975189,-0.8057273030281067,0.1792810261249542,17.977697372436523,3.371699333190918,58.283599853515625,34.71,0
-0.1521301418542862,-0.7913603782653809,0.1654322147369384,7.922232627868652,3.372593402862549,58.139007568359375,34.71,0
-0.1424105614423751,-0.793336033821106,0.1565448492765426,-1.7837642431259155,3.3731672763824463,58.04621505737305,34.71,0
-0.1249775439500808,-0.8169949650764465,0.1564392149448394,-6.257052898406982,3.373535394668579,57.98666763305664,34.71,0
-0.1081922650337219,-0.8433734774589539,0.1619691997766494,-6.121970653533936,3.3737716674804688,57.94845199584961,34.71,0
-0.0862248912453651,-0.8994861245155334,0.1823113560676574,-5.970796585083008,3.3739233016967773,57.923927307128906,34.71,0
-0.0665297210216522,-0.9578870534896852,0.2121590971946716,-9.502930641174316,3.374020576477051,57.9081916809082,34.71,0
-0.0594882704317569,-1.062538743019104,0.2481069862842559,-16.742265701293945,3.3860180377960205,57.89809036254883,34.71,0
-0.0829583406448364,-1.096111536026001,0.29916512966156,-24.608789443969727,3.3937172889709477,57.89160919189453,34.71,0
-0.1148134097456932,-1.1008632183074951,0.3487246334552765,-29.757383346557617,3.398658275604248,57.887451171875,34.71,0
-0.1296583861112594,-1.0367393493652344,0.3413446545600891,-30.91549301147461,3.401829242706299,57.88478088378906,34.71,0
-0.0832072868943214,-1.017979383468628,0.3142175078392029,-28.412887573242188,3.4038641452789307,57.8830680847168,34.71,0
-0.0422021001577377,-1.005940318107605,0.2968088686466217,-22.253406524658203,3.40516996383667,57.8819694519043,34.71,0
-0.0550717525184154,-0.964627742767334,0.2744414508342743,-11.422060012817385,3.406008005142212,57.88126373291016,34.71,0
-0.0857218503952026,-0.910126805305481,0.2600873410701751,4.281107425689697,3.406545877456665,57.88080978393555,34.71,0
-0.1389779597520828,-0.8471623659133911,0.25087571144104,21.190467834472656,3.416990280151367,57.88051986694336,34.71,0
-0.1451658010482788,-0.7955598831176758,0.2505619823932647,32.48257827758789,3.4236927032470703,57.880332946777344,34.71,0
-0.1435390263795852,-0.7680421471595764,0.2503606379032135,34.48073196411133,3.4279940128326416,57.88021469116211,34.71,0
-0.1424950510263443,-0.7783717513084412,0.2838180959224701,30.82624244689941,3.4307544231414795,57.8801383972168,34.71,0
-0.1474228650331497,-0.7961962223052979,0.3220824897289276,27.793148040771484,3.432525873184204,57.88008880615234,34.71,0
-0.1617808043956756,-0.8692104816436768,0.3522361218929291,27.100584030151367,3.4336626529693604,57.88005828857422,34.71,0
-0.1709949076175689,-0.9608489871025084,0.3827825486660003,26.086505889892575,3.434392213821411,57.88003921508789,34.71,0
-0.1769079864025116,-0.9972662329673768,0.3967877030372619,23.035402297973636,3.4348604679107666,57.88002395629883,34.71,0
-0.2086915224790573,-1.0878100395202637,0.3945798575878143,19.293258666992188,3.443882703781128,57.8800163269043,34.71,0
-0.2514794766902923,-1.112329125404358,0.4099563360214233,16.76995849609375,3.4496724605560303,57.88001251220703,34.71,0
-0.2397538870573043,-1.060890793800354,0.4030307531356811,15.637879371643066,3.453388214111328,57.880008697509766,34.71,0
-0.2490224093198776,-1.05027174949646,0.3594018816947937,14.45280647277832,3.455772638320923,57.8800048828125,34.71,0
-0.2549704015254974,-1.0490548610687256,0.3258056044578552,11.524836540222168,3.4573028087615967,57.8800048828125,34.71,0
-0.2307986170053482,-1.0650672912597656,0.2930499017238617,6.672296524047852,3.458284854888916,57.8800048828125,34.71,0
-0.2040910124778747,-1.047354221343994,0.272029161453247,2.082194566726685,3.458914995193481,57.8800048828125,34.71,0
-0.1813538372516632,-0.963215947151184,0.2417459487915039,0.3510244190692901,3.4593193531036377,57.8800048828125,34.71,0
-0.166762426495552,-0.8868297338485718,0.2111163735389709,0.9704429507255554,3.467841863632202,57.68296051025391,34.71,0
-0.1573984920978546,-0.8266139030456543,0.1970578581094741,0.1928653120994568,3.473311185836792,57.55651092529297,34.71,0
-0.1289981603622436,-0.7823730707168579,0.1936336904764175,-4.132329940795898,3.476820945739746,57.47536087036133,34.71,0
-0.110772468149662,-0.7651774287223816,0.1858384758234024,-9.182927131652832,3.4790732860565186,57.42328643798828,34.71,0
-0.1046740412712097,-0.776533305644989,0.1808359622955322,-10.618491172790527,3.4805188179016118,57.38986587524414,34.71,0
-0.0839670971035957,-0.839798629283905,0.1776256263256073,-7.985838413238525,3.4814465045928955,57.3684196472168,34.71,0
-0.07627634704113,-0.913985311985016,0.1811631917953491,-4.5802998542785645,3.482041835784912,57.35465621948242,34.71,0
-0.065743088722229,-0.9951806664466858,0.2002267241477966,-3.333456039428711,3.482423782348633,57.3458251953125,34.71,0
-0.0589834526181221,-1.120058298110962,0.2236561477184295,-4.7115092277526855,3.481750726699829,57.34015655517578,34.71,0
-0.0770366042852401,-1.1386220455169678,0.2722784578800201,-7.261762142181396,3.481318712234497,57.336517333984375,34.71,0
-0.0942198559641838,-1.055372953414917,0.3146770000457763,-8.837464332580566,3.481041431427002,57.33418273925781,34.71,0
-0.1052470728754997,-0.9963507652282716,0.3082993030548095,-8.27232551574707,3.480863571166992,57.33268356323242,34.71,0
-0.0899326130747795,-0.9808648228645324,0.2818153500556946,-6.415718078613281,3.4807493686676025,57.33172225952149,34.71,0
-0.0577135756611824,-0.970926821231842,0.276015043258667,-4.425340175628662,3.4806761741638184,57.33110427856445,34.71,0
-0.065026119351387,-0.936560332775116,0.2778905034065246,-0.9411635994911194,3.480629205703736,57.33070755004883,34.71,0
-0.1145010888576507,-0.8697236776351929,0.2623007595539093,7.266933917999268,3.480599164962769,57.3304557800293,34.71,0
-0.1518490463495254,-0.8212339878082275,0.2411005944013595,20.670448303222656,3.4709396362304688,57.33029174804688,34.71,0
-0.1534257233142852,-0.7789205312728882,0.2442888766527176,33.442169189453125,3.464740753173828,57.3301887512207,34.71,0
-0.1600353121757507,-0.762961745262146,0.2519327104091644,36.32536697387695,3.4607627391815186,57.33012008666992,34.71,0
-0.1586792021989822,-0.7751114368438721,0.2848269343376159,25.48257064819336,3.458209753036499,57.330078125,34.71,0
-0.1466133743524551,-0.8052995204925537,0.3227298855781555,7.615345478057861,3.456571578979492,57.33005142211914,34.71,0
-0.1444679945707321,-0.8582591414451599,0.3470538258552551,-6.351449966430664,3.4555201530456543,57.33003234863281,34.71,0
-0.1486889868974685,-0.9482232928276062,0.3626635372638702,-11.219651222229004,3.454845428466797,57.330020904541016,34.71,0
-0.1569955497980117,-1.0059571266174316,0.3782787024974823,-8.747798919677734,3.4544124603271484,57.33001327514648,34.71,0
-0.1791195422410965,-1.1157784461975098,0.3827018439769745,-2.1172399520874023,3.453216791152954,57.33000946044922,34.71,0
-0.2045129984617233,-1.1302776336669922,0.3911381363868713,6.956435203552246,3.4524495601654053,57.33000564575195,34.71,0
-0.2152112871408462,-1.100398063659668,0.3741609752178192,17.142974853515625,3.4519572257995605,57.33000564575195,34.71,0
-0.2276746034622192,-1.0756253004074097,0.3296793699264526,26.11267852783203,3.451641082763672,57.33000564575195,34.71,0
-0.2412706166505813,-1.070923089981079,0.2955358624458313,30.69383430480957,3.4514381885528564,57.33000564575195,34.71,0
-0.2164091169834137,-1.0735032558441162,0.2736245095729828,28.496341705322266,3.451308012008667,57.33000564575195,34.71,0
-0.1780633330345153,-1.0079857110977173,0.25396528840065,19.83856773376465,3.451224565505981,57.33000564575195,34.71,0
-0.1534552127122879,-0.9379515051841736,0.2301535904407501,8.360508918762207,3.451170921325684,57.33000564575195,34.71,0
-0.1544564664363861,-0.8762142062187195,0.2036770731210708,-1.409356713294983,3.450218439102173,57.24760437011719,34.71,0
-0.149501234292984,-0.8253992199897766,0.1922837346792221,-8.080343246459961,3.4496071338653564,57.19472503662109,34.71,0
-0.1295279264450073,-0.7871913313865662,0.1849721521139145,-13.615300178527832,3.4492149353027344,57.160789489746094,34.71,0
-0.1223079860210418,-0.790660560131073,0.1746822297573089,-18.786640167236328,3.448963165283203,57.13901138305664,34.71,0
-0.1120768710970878,-0.7984846830368042,0.1736765205860138,-21.56075668334961,3.4488015174865723,57.12503433227539,34.71,0
-0.094315581023693,-0.8538857698440552,0.1730311065912246,-21.173566818237305,3.448697805404663,57.11606597900391,34.71,0
-0.0829174071550369,-0.9118300676345824,0.1782146990299224,-20.308887481689453,3.4486312866210938,57.11030960083008,34.71,0
-0.0644071698188781,-0.960210919380188,0.2039323300123214,-21.799636840820312,3.4485886096954346,57.10661697387695,34.71,0
-0.0749194622039794,-1.0528345108032229,0.2428275197744369,-25.58296775817871,3.4591193199157715,57.10424423217773,34.68,0
-0.0928611904382705,-1.0674928426742554,0.273386001586914,-29.716196060180664,3.4658772945404053,57.10272216796875,34.68,0
-0.1211684867739677,-1.0265196561813354,0.2929966747760772,-32.63735580444336,3.470214366912842,57.10174560546875,34.68,0
-0.1449322551488876,-1.005823254585266,0.2831905782222748,-33.673667907714844,3.4729974269866943,57.10111999511719,34.68,0
-0.1209980472922325,-1.026128172874451,0.2768975794315338,-32.24290466308594,3.4747836589813232,57.1007194519043,34.68,0
-0.0552584826946258,-1.005571961402893,0.300847977399826,-27.254919052124023,3.4759297370910645,57.10046005249024,34.68,0
-0.0242661647498607,-0.9531958103179932,0.3050223886966705,-17.096553802490234,3.4766652584075928,57.10029602050781,34.68,0
-0.0659525990486145,-0.8803993463516235,0.26851686835289,-0.9618683457374572,3.477137327194214,57.100189208984375,34.68,0
-0.103900097310543,-0.8280850052833557,0.2506875097751617,18.34530067443848,3.491670608520508,57.1001205444336,34.68,0
-0.1226548478007316,-0.7889149188995361,0.2560389637947082,33.34722900390625,3.500997304916382,57.10007858276367,34.68,0
-0.1402883380651474,-0.7861689329147339,0.2762665450572967,37.05618667602539,3.5069825649261475,57.10004806518555,34.68,0
-0.1460067182779312,-0.7900044918060303,0.3060407638549804,30.72714233398437,3.5108234882354736,57.10002899169922,34.68,0
-0.1272853463888168,-0.814857006072998,0.3419414758682251,23.24774742126465,3.5132884979248047,57.10001754760742,34.68,0
-0.1096732839941978,-0.869990348815918,0.3593827188014984,21.324710845947266,3.514870405197144,57.10000991821289,34.68,0
-0.1151641979813575,-0.97814279794693,0.3761732876300812,24.00995445251465,3.515885591506958,57.100006103515625,34.68,0
-0.1242857202887535,-1.0531466007232666,0.3869484961032867,27.37401008605957,3.5165369510650635,57.10000228881836,34.68,0
-0.1413349360227584,-1.146061897277832,0.3994611799716949,29.70483016967773,3.530267238616944,57.10000228881836,34.68,0
-0.1746672391891479,-1.1385163068771362,0.3962955474853515,30.60590934753418,3.5390784740448,57.10000228881836,34.68,0
-0.1792646795511245,-1.0720984935760498,0.3718729317188263,28.769514083862305,3.544733047485352,57.10000228881836,34.68,0
-0.1934105902910232,-1.0462687015533447,0.3226132690906524,22.600492477416992,3.5483617782592773,57.10000228881836,34.68,0
-0.2024886310100555,-1.0520837306976318,0.2910012304782867,12.185769081115724,3.5506906509399414,57.10000228881836,34.68,0
-0.1971188336610794,-1.0614131689071655,0.2707144618034363,-0.2263390123844146,3.55218505859375,57.10000228881836,34.68,0
-0.1656839400529861,-1.0114225149154663,0.2520978152751922,-11.580832481384276,3.553144216537476,57.10000228881836,34.68,0
-0.1511086076498031,-0.9457547664642334,0.2289551645517349,-19.70939826965332,3.5537595748901367,57.10000228881836,34.68,0
-0.1473527699708938,-0.8756241202354431,0.202907994389534,-24.664316177368164,3.5564498901367188,57.06417465209961,34.68,0
-0.1337469518184662,-0.8194227814674377,0.1917901933193206,-28.890209197998047,3.558176279067993,57.04118347167969,34.68,0
-0.1194177418947219,-0.7721604704856873,0.1846554279327392,-34.16010284423828,3.559284210205078,57.02642822265625,34.68,0
-0.1158198565244674,-0.7530257701873779,0.1744789630174636,-38.12955856323242,3.559995174407959,57.01696014404297,34.68,0
-0.1135109364986419,-0.7463439702987671,0.167948305606842,-36.7969970703125,3.56045150756836,57.01088333129883,34.68,0
-0.1120292022824287,-0.7756426334381104,0.1749528497457504,-30.27778625488281,3.560744285583496,57.00698471069336,34.68,0
-0.1054805368185043,-0.8616181015968323,0.1850457340478897,-23.07760238647461,3.5609323978424072,57.00448226928711,34.68,0
-0.0956802070140838,-0.9447811245918274,0.1971205472946167,-18.983577728271484,3.5610530376434326,57.00287628173828,34.68,0
-0.0893909186124801,-1.076519250869751,0.2328583300113678,-18.090234756469727,3.5625076293945312,57.00184631347656,34.68,0
-0.10214813798666,-1.1498656272888184,0.2669883370399475,-18.208375930786133,3.563441038131714,57.00118637084961,34.68,0
-0.1103349924087524,-1.129761815071106,0.3224776685237884,-17.424373626708984,3.564039945602417,57.000762939453125,34.68,0
-0.12118661403656,-1.0664803981781006,0.3077075481414795,-15.366408348083496,3.564424514770508,57.00048828125,34.68,0
-0.1337483376264572,-1.042663335800171,0.2758378386497497,-12.630607604980469,3.564671277999878,57.00031280517578,34.68,0
-0.0970275327563285,-1.021781086921692,0.294570118188858,-9.162456512451172,3.5648295879364014,57.00020217895508,34.68,0
-0.0678644627332687,-1.0027823448181152,0.3121891915798187,-3.286152601242065,3.564931154251098,57.00012969970703,34.68,0
-0.0883337035775184,-0.9290145039558412,0.3011049926280975,6.507230281829834,3.5649962425231934,57.00008392333984,34.68,0
-0.1182630062103271,-0.8424900770187378,0.2660029232501983,17.88290023803711,3.5613656044006348,57.00005340576172,34.68,0
-0.1374699026346206,-0.7757681608200073,0.2434764355421066,24.72099876403809,3.559035539627075,57.00003433227539,34.68,0
-0.1497957855463028,-0.7329498529434204,0.2570090889930725,23.83574485778809,3.5575404167175293,57.0000228881836,34.68,0
-0.1577058285474777,-0.7222648859024048,0.2768891155719757,19.860610961914062,3.556580781936645,57.00001525878906,34.68,0
-0.1571842730045318,-0.7601900696754456,0.3232336342334747,19.43764877319336,3.555964946746826,57.0000114440918,34.68,0
-0.1568495631217956,-0.8349082469940186,0.3417793214321136,22.75237464904785,3.555569887161255,57.00000762939453,34.68,0
-0.1566347628831863,-0.9276402592658995,0.3480831086635589,25.302318572998047,3.555316209793091,57.00000381469727,34.68,0
-0.1788880228996276,-1.0431281328201294,0.3745196163654327,25.663328170776367,3.555153608322144,57.00000381469727,34.68,0
-0.187571108341217,-1.1060459613800049,0.3914850354194641,26.851551055908203,3.5495405197143555,57.00000381469727,34.68,0
-0.2267300486564636,-1.152020812034607,0.4079702496528625,30.78108024597168,3.545938491821289,57.00000381469727,34.68,0
-0.2294689118862152,-1.0639715194702148,0.3849628567695617,34.19488906860352,3.5436267852783203,57.00000381469727,34.68,0
-0.2200310081243515,-1.0018688440322876,0.3534047305583954,31.20168685913086,3.5421433448791504,57.00000381469727,34.68,0
-0.2419631779193878,-1.012394905090332,0.3163591921329498,19.930299758911133,3.541191339492798,57.00000381469727,34.68,0
-0.2504402101039886,-1.024747610092163,0.2869877219200134,5.048173904418945,3.5405802726745605,57.00000381469727,34.68,0
-0.2110980749130249,-1.0326749086380005,0.2737365961074829,-6.748593330383301,3.5401883125305176,57.00000381469727,34.68,0
-0.1802527904510498,-0.9761866927146912,0.2484394609928131,-12.269845962524414,3.539936780929565,57.00000381469727,34.68,0
-0.1772513836622238,-0.9231424927711488,0.2154118865728378,-13.763834953308104,3.527840375900269,56.97134017944336,34.68,0
-0.175325259566307,-0.8555151224136353,0.1942166984081268,-16.793319702148438,3.5200774669647217,56.95294570922852,34.68,0
-0.1684914082288742,-0.8009201884269714,0.1806148439645767,-24.125661849975582,3.5150957107543945,56.94114303588867,34.68,0
-0.1529102772474289,-0.7602865695953369,0.1550926268100738,-31.56464195251465,3.5118987560272217,56.93356704711914,34.68,0
-0.1485089808702469,-0.7566013336181641,0.1331161707639694,-32.97093200683594,3.5098471641540527,56.928707122802734,34.68,0
-0.1400867104530334,-0.7710296511650085,0.1302084922790527,-28.338327407836918,3.508530378341675,56.92558670043945,34.68,0
-0.1290840059518814,-0.8418644666671753,0.1451358348131179,-23.24092102050781,3.507685422897339,56.923583984375,34.68,0
-0.1276208758354187,-0.9097132682800292,0.149117574095726,-21.83622169494629,3.507143259048462,56.92229843139648,34.68,0
-0.1098886057734489,-0.9980369210243224,0.185259461402893,-23.610950469970703,3.4999096393585205,56.92147445678711,34.71,0
-0.1209001541137695,-1.0659135580062866,0.2420398890972137,-25.76373863220215,3.495267391204834,56.92094421386719,34.71,0
-0.1391622722148895,-1.0702884197235107,0.2840760946273803,-26.332029342651367,3.49228835105896,56.92060470581055,34.71,0
-0.1564796268939972,-1.0115203857421875,0.299856960773468,-25.281606674194336,3.4903764724731445,56.920387268066406,34.71,0
-0.1675929129123687,-0.9961975812911988,0.2875930964946747,-23.46466445922852,3.489149570465088,56.92024612426758,34.71,0
-0.1355403512716293,-1.0143531560897827,0.2853206396102905,-20.478708267211918,3.4883623123168945,56.92015838623047,34.71,0
-0.0813842192292213,-0.9980154633522034,0.3230467140674591,-13.432244300842283,3.4878571033477783,56.92010116577149,34.71,0
-0.063423253595829,-0.9483464956283568,0.3416593670845032,0.9740968942642212,3.4875328540802,56.92006301879883,34.71,0
-0.1022769138216972,-0.866091787815094,0.2976261675357818,21.56527328491211,3.470798969268799,56.920040130615234,34.71,0
-0.1384065002202987,-0.8077077269554138,0.2637704014778137,39.72704315185547,3.4600601196289062,56.92002487182617,34.71,0
-0.1559946238994598,-0.7646424174308777,0.264434814453125,44.589656829833984,3.453168630599976,56.920013427734375,34.71,0
-0.1672816574573516,-0.7649944424629211,0.2872523069381714,34.404518127441406,3.4487459659576416,56.92000961303711,34.71,0
-0.1801228076219558,-0.7820136547088623,0.3074930310249328,19.975868225097656,3.4459078311920166,56.92000579833984,34.71,0
-0.1771679669618606,-0.8489133715629578,0.3316779136657715,12.726215362548828,3.44408655166626,56.92000198364258,34.71,0
-0.1752717196941375,-0.9310301542282104,0.3471983671188354,13.096576690673828,3.442917823791504,56.92000198364258,34.71,0
-0.1852503716945648,-1.0229123830795288,0.3627562820911407,14.935664176940918,3.4421677589416504,56.92000198364258,34.71,0
-0.2140451967716217,-1.1714415550231934,0.3783382475376129,15.804201126098633,3.445358991622925,56.92000198364258,34.71,0
-0.2437195926904678,-1.2331724166870115,0.3995333909988403,17.622644424438477,3.447406768798828,56.92000198364258,34.71,0
-0.2291762679815292,-1.1384410858154297,0.3739508092403412,21.01797866821289,3.448720932006836,56.92000198364258,34.71,0
-0.231038749217987,-1.1056368350982666,0.3351422548294067,23.30796813964844,3.449564218521118,56.92000198364258,34.71,0
-0.2378317564725875,-1.0901827812194824,0.2990416288375854,20.8331356048584,3.4501054286956787,56.92000198364258,34.71,0
-0.2086044698953628,-1.0690696239471436,0.2646787762641907,12.180091857910156,3.4504528045654297,56.92000198364258,34.71,0
-0.1786525398492813,-1.0219337940216064,0.242626667022705,-0.4879285395145416,3.4506757259368896,56.92000198364258,34.71,0
-0.1762244403362274,-0.930109202861786,0.2060838043689727,-13.282048225402832,3.4508187770843506,56.92000198364258,34.71,0
-0.1802639961242675,-0.8655837178230286,0.1770349144935608,-23.846330642700195,3.445401906967163,56.92000198364258,34.71,0
-0.1716607958078384,-0.8017838597297668,0.1583930104970932,-32.62137222290039,3.4419257640838623,56.92000198364258,34.71,0
-0.1493464410305023,-0.7720363736152649,0.1408319324254989,-40.33774948120117,3.439694881439209,56.92000198364258,34.71,0
-0.1350263655185699,-0.7697394490242004,0.1295622438192367,-45.02098083496094,3.438263416290283,56.92000198364258,34.71,0
-0.1258365660905838,-0.8018520474433899,0.1279277801513672,-43.63417434692383,3.437344789505005,56.92000198364258,34.71,0
-0.1087435334920883,-0.8504489660263062,0.132476657629013,-36.49260711669922,3.4367551803588867,56.92000198364258,34.71,0
-0.0809808894991874,-0.9376134276390076,0.1465914100408554,-27.59613800048828,3.4363768100738525,56.92000198364258,34.71,0
-0.0687621980905532,-1.032734990119934,0.1612472236156463,-20.973339080810547,3.436133861541748,56.92000198364258,34.71,0
-0.0777142643928527,-1.1217674016952517,0.1874458044767379,-18.29595947265625,3.430928468704224,56.92000198364258,34.66,0
-0.1002525091171264,-1.0781433582305908,0.2378451973199844,-18.59476089477539,3.427587985992432,56.92000198364258,34.66,0
-0.1259118020534515,-0.9997679591178894,0.2757863998413086,-19.14835357666016,3.4254441261291504,56.92000198364258,34.66,0
-0.1591717898845672,-0.9998511075973512,0.27774378657341,-17.8413028717041,3.4240684509277344,56.92000198364258,34.66,0
-0.1077450662851333,-0.999904453754425,0.2957932353019714,-14.899541854858398,3.4231855869293213,56.92000198364258,34.66,0
-0.0467534847557544,-0.9943408966064452,0.3129740953445434,-11.43893814086914,3.422618865966797,56.92000198364258,34.66,0
-0.0467970184981823,-0.9347928166389464,0.3072064816951751,-6.520442485809326,3.422255277633667,56.92000198364258,34.66,0
-0.0748138278722763,-0.8797849416732788,0.2811140418052673,2.912637710571289,3.4220218658447266,56.92000198364258,34.66,0
-0.0983911752700805,-0.8332884907722473,0.2699671983718872,17.618165969848633,3.414527416229248,56.92000198364258,34.66,0
-0.1135217621922493,-0.7978519797325134,0.2740093469619751,31.859560012817383,3.4097180366516118,56.92000198364258,34.66,0
-0.1288294792175293,-0.7863064408302307,0.2822011411190033,36.29136276245117,3.4066317081451416,56.92000198364258,34.66,0
-0.1330553144216537,-0.8012882471084595,0.3154470324516296,27.47057342529297,3.404650926589966,56.92000198364258,34.66,0
-0.1301694363355636,-0.8109027147293091,0.347977876663208,12.7244873046875,3.4033799171447754,56.92000198364258,34.66,0
-0.1339152157306671,-0.8730504512786865,0.3576587438583374,2.254593849182129,3.402564287185669,56.92000198364258,34.66,0
-0.1531123667955398,-0.9857043623924256,0.3694691658020019,-1.7810322046279907,3.402040719985962,56.92000198364258,34.66,0
-0.1654319912195205,-1.052401423454285,0.3826461732387543,-4.270552158355713,3.401704788208008,56.92000198364258,34.66,0
-0.2069246619939804,-1.1791703701019287,0.3911024332046509,-7.688131332397461,3.4014892578125,56.92000198364258,34.66,0
-0.2391500473022461,-1.198947787284851,0.4077247083187103,-9.583983421325684,3.401350975036621,56.92000198364258,34.66,0
-0.2262438088655471,-1.105282187461853,0.384805291891098,-8.163856506347656,3.401262044906616,56.92000198364258,34.66,0
-0.2403524219989776,-1.0619663000106812,0.3421080410480499,-4.533325672149658,3.401205062866211,56.92000198364258,34.66,0
-0.2326131910085678,-1.0341686010360718,0.3147073984146118,-0.036001831293106,3.4011685848236084,56.92000198364258,34.66,0
-0.2052554935216903,-1.0107319355010986,0.2859277129173279,4.272404193878174,3.4011449813842773,56.92000198364258,34.66,0
-0.1876989006996154,-0.9733005166053772,0.2674585580825805,6.5321478843688965,3.401129961013794,56.92000198364258,34.66,0
-0.1708343178033828,-0.9100947380065918,0.2388128042221069,5.911592960357666,3.40112042427063,56.92000198364258,34.66,0
-0.1600116044282913,-0.8527395725250244,0.2092340588569641,3.6253390312194815,3.3974416255950928,57.28184127807617,34.66,0
-0.1418706625699997,-0.8047367930412292,0.1902521252632141,0.2056489437818527,3.395080804824829,57.5140495300293,34.66,0
-0.1246310696005821,-0.7795291543006897,0.1724728345870971,-4.89796257019043,3.3935658931732178,57.66306686401367,34.66,0
-0.1135676950216293,-0.7801456451416016,0.1554653346538543,-9.846229553222656,3.3925936222076416,57.758697509765625,34.66,0
-0.1064678579568862,-0.8029323816299438,0.1501486748456955,-11.065655708312988,3.391969680786133,57.820068359375,34.66,0
-0.0963138118386268,-0.8679355978965759,0.152334526181221,-8.423271179199219,3.391569137573242,57.85945129394531,34.66,0
-0.0841997563838958,-0.9376397728919984,0.159335047006607,-5.856975078582764,3.3913121223449707,57.884727478027344,34.66,0
-0.070827879011631,-0.9991652369499208,0.1918164491653442,-6.373949527740479,3.3911473751068115,57.90094757080078,34.66,0
-0.073442131280899,-1.0946264266967771,0.2238567024469375,-9.331742286682127,3.386451244354248,57.911354064941406,34.68,0
-0.0751198008656501,-1.083116888999939,0.2724071443080902,-12.516027450561523,3.383437395095825,57.91803359985352,34.68,0
-0.0985875353217125,-1.0141552686691284,0.2923685014247894,-14.573848724365234,3.3815033435821533,57.92232131958008,34.68,0
-0.1304410994052887,-0.992290735244751,0.2827874422073364,-15.22091579437256,3.3802621364593506,57.925071716308594,34.68,0
-0.1172962337732315,-1.000650405883789,0.2934321761131286,-14.478994369506836,3.3794655799865723,57.92683792114258,34.68,0
-0.0696761980652809,-1.0060151815414429,0.3226544559001922,-11.853326797485352,3.3789544105529785,57.92797088623047,34.68,0
-0.033518623560667,-0.959078013896942,0.3302120864391327,-5.521723747253418,3.3786263465881348,57.9286994934082,34.68,0
-0.0550969690084457,-0.8673809170722961,0.3014754951000213,6.183167934417725,3.378415822982788,57.92916488647461,34.68,0
-0.0857380330562591,-0.8029372096061707,0.277436226606369,20.845516204833984,3.3759853839874268,57.92946243286133,34.68,0
-0.1109994798898696,-0.7559831738471985,0.2788025438785553,31.831298828125,3.3744258880615234,57.92965698242188,34.68,0
-0.1328085958957672,-0.7314485311508179,0.2908748984336853,35.22711563110352,3.373425006866455,57.929779052734375,34.68,0
-0.1412066519260406,-0.760485827922821,0.3210133612155914,34.87347412109375,3.3727827072143555,57.92985916137695,34.68,0
-0.1354004889726638,-0.8071091771125793,0.3459522426128387,36.78890609741211,3.372370481491089,57.929908752441406,34.68,0
-0.126076653599739,-0.876213788986206,0.3563588261604309,40.90209579467773,3.372105836868286,57.9299430847168,34.68,0
-0.1480820327997207,-1.0045278072357178,0.3686349391937256,42.53141784667969,3.371936082839966,57.929962158203125,34.68,0
-0.1622038185596466,-1.0980678796768188,0.3765130341053009,39.78307342529297,3.3718271255493164,57.92997741699219,34.68,0
-0.1992552429437637,-1.2196719646453855,0.3871665298938751,35.24284744262695,3.367166757583618,57.92998504638672,34.68,0
-0.1894460618495941,-1.1353750228881836,0.3828077912330627,31.73090362548828,3.364176034927368,57.929988861083984,34.68,0
-0.1775533258914947,-1.0420937538146973,0.3576194941997528,29.0687255859375,3.3622567653656006,57.92999267578125,34.68,0
-0.1923123449087143,-0.9934266805648804,0.3246617615222931,24.429746627807617,3.361025094985962,57.92999649047852,34.68,0
-0.1961860656738281,-0.9621949791908264,0.3091091811656952,15.193957328796388,3.36023473739624,57.92999649047852,34.68,0
-0.1818786710500717,-0.9477500319480896,0.2879328727722168,2.345423698425293,3.359727621078491,57.92999649047852,34.68,0
-0.1615014523267746,-0.9104912281036376,0.2575498223304748,-9.081353187561035,3.3594021797180176,57.92999649047852,34.68,0
-0.1428267508745193,-0.8809828758239746,0.2380517125129699,-14.529966354370115,3.3591933250427246,57.92999649047852,34.68,0
-0.1308424025774002,-0.8508505821228027,0.219941183924675,-15.78029727935791,3.3622725009918213,58.21660232543945,34.68,0
-0.1119559928774833,-0.8203178644180298,0.2027211040258407,-20.050621032714844,3.364248514175415,58.40053176879883,34.68,0
-0.0998357832431793,-0.8007237315177917,0.1804746985435485,-30.92351531982422,3.365516662597656,58.5185661315918,34.68,0
-0.0920577272772789,-0.7993448972702026,0.1661982387304306,-42.96329116821289,3.36633038520813,58.59431457519531,34.68,0
-0.0926639959216117,-0.8208511471748352,0.1626342087984085,-48.46494674682617,3.3668525218963623,58.64292526245117,34.68,0
-0.0874552875757217,-0.8962281346321106,0.1603470146656036,-46.077178955078125,3.367187738418579,58.67412185668945,34.68,0
-0.0785148665308952,-0.9669918417930604,0.1644770056009292,-39.82301330566406,3.3674027919769287,58.69414138793945,34.68,0
-0.0727774202823638,-1.0627838373184204,0.1839207112789154,-33.45927810668945,3.3675408363342285,58.70698928833008,34.68,0
-0.0802910029888153,-1.101866602897644,0.218789666891098,-28.397357940673828,3.395172357559204,58.71523284912109,34.66,0
-0.0795150175690651,-1.0877631902694702,0.2467643320560455,-24.228185653686523,3.412904500961304,58.72052383422852,34.66,0
-0.0958103537559509,-0.9947458505630492,0.2535213232040405,-19.63597297668457,3.424283981323242,58.72391891479492,34.66,0
-0.1286588609218597,-0.9798348546028136,0.2466620057821273,-13.998441696166992,3.431586742401123,58.7260971069336,34.66,0
-0.082565851509571,-0.959070324897766,0.2926400601863861,-7.901455879211426,3.4362733364105225,58.72749328613281,34.66,0
-0.0417904630303382,-0.9289515018463136,0.3165483474731445,-1.3269081115722656,3.4392807483673096,58.72838973999024,34.66,0
-0.0436120368540287,-0.8872318863868713,0.3206957578659057,7.875621318817139,3.4412107467651367,58.728965759277344,34.66,0
-0.0671721175312995,-0.8380675315856934,0.3065640032291412,21.75250625610352,3.4424493312835693,58.72933578491211,34.66,0
-0.0934871658682823,-0.812114417552948,0.2974950671195984,37.464786529541016,3.505215644836426,58.72957229614258,34.66,0
-0.121570199728012,-0.801056981086731,0.3084684610366821,47.10020065307617,3.5454952716827397,58.7297248840332,34.66,0
-0.1283967196941375,-0.8163520693778992,0.3379016518592834,46.00386047363281,3.571344375610352,58.72982406616211,34.66,0
-0.127179816365242,-0.831765353679657,0.3623879551887512,39.95867156982422,3.58793306350708,58.72988510131836,34.66,0
-0.120801106095314,-0.8640478253364563,0.3725040853023529,38.873626708984375,3.598578691482544,58.72992706298828,34.66,0
-0.1279031634330749,-0.9407426118850708,0.3733982741832733,44.35725021362305,3.60541033744812,58.72995376586914,34.66,0
-0.1436564028263092,-1.0123519897460938,0.38516765832901,49.05857467651367,3.6097946166992183,58.7299690246582,34.66,0
-0.153765931725502,-1.0806978940963743,0.3815250098705292,47.32511901855469,3.612608194351196,58.72998046875,34.66,0
-0.1770469695329666,-1.1525472402572632,0.3847851455211639,40.63103485107422,3.7117316722869873,58.72998809814453,34.66,0
-0.1807918399572372,-1.1034938097000122,0.3700839877128601,32.566287994384766,3.775343418121338,58.7299919128418,34.66,0
-0.177597314119339,-1.0440253019332886,0.3438563048839569,23.324573516845703,3.8161656856536874,58.72999572753906,34.66,0
-0.209133893251419,-1.0450462102890017,0.3102315664291382,10.404167175292969,3.842363119125366,58.72999572753906,34.66,0
-0.1901878416538238,-1.0680924654006958,0.2718598246574402,-6.686211109161377,3.859174966812134,58.72999572753906,34.66,0
-0.1556382626295089,-1.0772844552993774,0.2472350597381591,-23.38595390319824,3.8699638843536377,58.72999572753906,34.66,0
-0.1166730001568794,-0.9824234247207642,0.2202367484569549,-33.106929779052734,3.876887559890747,58.72999572753906,34.66,0
-0.0972651168704032,-0.8991559743881226,0.1861174702644348,-34.01800537109375,3.881330966949463,58.72999572753906,34.66,0
-0.112799122929573,-0.8177308440208435,0.1698194444179535,-31.76169776916504,3.956711530685425,59.18498611450195,34.66,0
-0.0947790816426277,-0.7766724228858948,0.1649580895900726,-34.057518005371094,4.005086421966553,59.47697067260742,34.66,0
-0.0832148566842079,-0.7727146148681641,0.1618383526802063,-42.43446731567383,4.036130905151367,59.66434860229492,34.66,0
-0.0813913792371749,-0.8093591332435608,0.1654340624809265,-50.58322525024414,4.056053161621094,59.78459930419922,34.66,0
-0.0746233984827995,-0.8440710306167603,0.1677415817975998,-51.75357055664063,4.068838119506836,59.86176681518555,34.66,0
-0.0702800974249839,-0.9167270660400392,0.1804179549217224,-45.89119720458984,4.077043056488037,59.91128921508789,34.66,0
-0.0786883682012558,-0.974549114704132,0.2053462415933609,-37.96611022949219,4.082308292388916,59.94306945800781,34.66,0
-0.0952798575162887,-1.0676337480545044,0.2213437855243683,-31.96669006347656,4.085687160491943,59.96346664428711,34.66,0
-0.1227206438779831,-1.0937833786010742,0.259598970413208,-28.47844696044922,4.187329292297363,59.97655487060547,34.65,0
-0.1403305679559707,-1.071380376815796,0.2953445017337799,-25.999860763549805,4.252557277679443,59.984954833984375,34.65,0
-0.1572293788194656,-1.0234167575836182,0.2958928048610687,-22.979799270629883,4.294416904449463,59.9903450012207,34.65,0
-0.1288896352052688,-0.9870386719703674,0.3298313319683075,-18.899316787719727,4.321280002593994,59.99380493164063,34.65,0
-0.0827139467000961,-0.9636933207511902,0.3628066778182983,-13.52211570739746,4.33851957321167,59.99602508544922,34.65,0
-0.0810699239373207,-0.920722723007202,0.3559794723987579,-5.643274307250977,4.349582672119141,59.9974479675293,34.65,0
-0.0856126546859741,-0.8595600128173828,0.3404026329517364,6.166067123413086,4.356682300567627,59.99836349487305,34.65,0
-0.1109190210700035,-0.8203092813491821,0.3304063081741333,20.66974258422852,4.361238479614258,59.99895095825195,34.65,0
-0.1439525038003921,-0.7951204776763916,0.3295890092849731,32.22364044189453,4.399508953094482,59.99932861328125,34.65,0
-0.1707492768764495,-0.7845535278320312,0.3290645182132721,35.03824234008789,4.424068450927734,59.99956893920898,34.65,0
-0.1767503470182418,-0.7889677882194519,0.3567168116569519,31.16610717773437,4.439829349517822,59.99972152709961,34.65,0
-0.1694059371948242,-0.7973983883857727,0.3856579959392547,30.15005111694336,4.449944019317627,59.99982070922852,34.65,0
-0.1758882701396942,-0.830797553062439,0.3874374628067016,37.51222610473633,4.456434726715088,59.99988555908203,34.65,0
-0.2024393528699875,-0.9250022768974304,0.3885794281959533,47.96538543701172,4.46060037612915,59.99992752075195,34.65,0
-0.202684998512268,-0.9742618799209596,0.3949100375175476,52.82859420776367,4.463273525238037,59.99995422363281,34.65,0
-0.1860493123531341,-1.0114716291427612,0.3877771198749542,49.354000091552734,4.464989185333252,59.99996948242188,34.65,0
-0.1865690350532531,-1.0633395910263062,0.3943951725959778,39.9232292175293,4.487855911254883,59.99998092651367,34.65,0
-0.1925003379583358,-1.0350499153137207,0.381848931312561,26.268877029418945,4.502530097961426,59.9999885559082,34.65,0
-0.2131000310182571,-1.0056997537612915,0.3290152847766876,8.177271842956543,4.511947154998779,59.99999237060547,34.65,0
-0.2319175004959106,-0.9980599880218506,0.2951096892356872,-13.284961700439451,4.517990589141846,59.999996185302734,34.65,0
-0.2327979207038879,-1.0155483484268188,0.2621554732322693,-34.1875114440918,4.52186918258667,59.999996185302734,34.65,0
-0.2109718173742294,-1.0155757665634155,0.2354095876216888,-50.256256103515625,4.524357795715332,59.999996185302734,34.65,0
-0.1745739877223968,-0.9372245669364928,0.2182456105947494,-59.31435012817383,4.5259552001953125,59.999996185302734,34.65,0
-0.1680092811584472,-0.8645521998405457,0.2128285318613052,-61.43367767333984,4.526980400085449,59.999996185302734,34.65,0
-0.1637964248657226,-0.812317430973053,0.2093521654605865,-59.135929107666016,4.5244245529174805,60.3797492980957,34.65,0
-0.1554950922727584,-0.80118727684021,0.2183167785406112,-56.59375762939453,4.52278470993042,60.62345504760742,34.65,0
-0.144569993019104,-0.8052401542663574,0.229667529463768,-55.617950439453125,4.521732330322266,60.77985000610352,34.65,0
-0.1487544476985931,-0.8246343731880188,0.2537451088428497,-53.44406127929688,4.521056652069092,60.88021469116211,34.65,0
-0.16823311150074,-0.8370804786682129,0.2747944891452789,-47.34148025512695,4.520623207092285,60.94462585449219,34.65,0
-0.1863311678171157,-0.8674587607383728,0.2939005494117737,-39.67424011230469,4.520345211029053,60.985958099365234,34.65,0
-0.1867499053478241,-0.9261382222175598,0.3173572719097137,-35.26615524291992,4.520166873931885,61.01248550415039,34.65,0
-0.1870186328887939,-0.9805886149406432,0.3268126547336578,-34.84120559692383,4.520052433013916,61.02950668334961,34.65,0
-0.1927888542413711,-1.0883028507232666,0.3384783565998077,-34.192325592041016,4.495649337768555,61.04043197631836,34.66,0
-0.1741007566452026,-1.0958521366119385,0.3403669595718384,-29.77417755126953,4.4799885749816895,61.04744338989258,34.66,0
-0.1677055954933166,-1.078305721282959,0.3303834199905395,-22.324506759643555,4.469938278198242,61.05194091796875,34.66,0
-0.1412104368209839,-1.0334588289260864,0.3015854656696319,-14.405400276184082,4.463488578796387,61.05482864379883,34.66,0
-0.1074140518903732,-0.993483066558838,0.2943001389503479,-6.82990026473999,4.459349632263184,61.05668258666992,34.66,0
-0.0689321532845497,-0.967828929424286,0.2784292697906494,1.5031352043151855,4.456693649291992,61.0578727722168,34.66,0
-0.0722255632281303,-0.95136559009552,0.2402554005384445,11.46157169342041,4.454988956451416,61.05863571166992,34.66,0
-0.0743390843272209,-0.9184092879295348,0.2101598232984542,21.4384822845459,4.453895092010498,61.05912399291992,34.66,0
-0.0700976401567459,-0.8804664611816406,0.1908462196588516,27.443422317504883,4.444012641906738,61.0594367980957,34.66,0
-0.0673757269978523,-0.8449214100837708,0.1840496361255645,27.187833786010746,4.437670707702637,61.05963897705078,34.66,0
-0.048835638910532,-0.8165128827095032,0.190883532166481,23.674102783203125,4.433600902557373,61.05976867675781,34.66,0
-0.0313399024307727,-0.8206729888916016,0.2120624482631683,22.03181266784668,4.430988788604736,61.059852600097656,34.66,0
-0.0257099196314811,-0.8345382809638977,0.2312516421079635,23.424785614013672,4.429312705993652,61.059906005859375,34.66,0
-0.0276946946978569,-0.8378384709358215,0.2491639256477356,24.89192771911621,4.428236961364746,61.059940338134766,34.66,0
-0.0401639603078365,-0.8511518836021423,0.2662567794322967,23.8522891998291,4.427546501159668,61.05996322631836,34.66,0
-0.0649593397974968,-0.9100756049156188,0.282823771238327,19.853315353393555,4.427103519439697,61.05997848510742,34.66,0
-0.0864693596959114,-0.9814761281013488,0.3046510517597198,13.303178787231444,4.494298934936523,61.05998611450195,34.66,0
-0.1058710291981697,-1.0440901517868042,0.3242563307285309,4.940309047698975,4.537421226501465,61.05998992919922,34.66,0
-0.1463107764720916,-1.0898700952529907,0.3536311686038971,-4.216865539550781,4.565094470977783,61.05999374389648,34.66,0
-0.1666648983955383,-1.0912600755691528,0.3836778104305267,-13.006046295166016,4.582853317260742,61.05999755859375,34.66,0
-0.1461403518915176,-1.0025876760482788,0.3693733811378479,-20.158283233642575,4.594250202178955,61.05999755859375,34.66,0
-0.1609577536582946,-1.012856125831604,0.3434002995491028,-24.70876884460449,4.601563930511475,61.05999755859375,34.66,0
-0.1536733955144882,-1.0306414365768433,0.3267322480678558,-26.05984115600586,4.606257438659668,61.05999755859375,34.66,0
-0.132205381989479,-1.0476528406143188,0.2880467772483825,-24.02499389648437,4.609269618988037,61.05999755859375,34.66,0
-0.129623994231224,-1.0361785888671875,0.2576228976249695,-20.27583122253418,4.698880195617676,61.33585739135742,34.66,0
-0.1223696395754814,-0.9560440182685852,0.2269030660390854,-18.027467727661133,4.756387233734131,61.51288986206055,34.66,0
-0.1065186634659767,-0.8766294121742249,0.2183844000101089,-17.652204513549805,4.793292045593262,61.62649917602539,34.66,0
-0.0907486453652381,-0.8200679421424866,0.2185153812170028,-15.519782066345217,4.816975116729736,61.699405670166016,34.66,0
-0.0806283578276634,-0.7949655652046204,0.2130016535520553,-9.827147483825684,4.832173824310303,61.746192932128906,34.66,0
-0.0797315090894699,-0.7956496477127075,0.2094632685184478,-3.762869119644165,4.841927528381348,61.77621841430664,34.66,0
-0.0903515145182609,-0.8128819465637207,0.2071925401687622,-0.8492074012756348,4.84818696975708,61.79548645019531,34.66,0
-0.0915690511465072,-0.8519295454025269,0.216930866241455,-0.7491792440414429,4.852203845977783,61.80785369873047,34.66,0
-0.0923503935337066,-0.8937813639640808,0.228778138756752,-0.9787580966949464,4.91262149810791,61.81578826904297,34.66,0
-0.0872540399432182,-0.9374327659606934,0.2419788092374801,-0.255522757768631,4.951394081115723,61.82088088989258,34.66,0
-0.0895812660455703,-0.9878368377685548,0.2560480237007141,0.8033156394958496,4.97627592086792,61.82415008544922,34.66,0
-0.0966725200414657,-1.042574405670166,0.2706745862960815,1.163967847824097,4.992243766784668,61.82624816894531,34.66,0
-0.1180166006088256,-1.0609084367752075,0.2800610959529876,0.6681509017944336,5.002490997314453,61.82759475708008,34.66,0
-0.1317140012979507,-1.0166964530944824,0.2916825711727142,0.2138262391090393,5.009067058563232,61.82845687866211,34.66,0
-0.1516997516155243,-0.982725977897644,0.2711516916751861,1.0722736120224,5.01328706741333,61.829010009765625,34.66,0
-0.1645254641771316,-0.977718949317932,0.263573944568634,3.597174882888794,5.015995502471924,61.82936477661133,34.66,0
-0.1223762929439544,-1.0248857736587524,0.2755042910575866,6.145398139953613,5.069387912750244,61.82959365844727,34.66,0
-0.0785340592265129,-1.0047746896743774,0.2887582778930664,6.27243709564209,5.103652000427246,61.82973861694336,34.66,0
-0.0615941882133483,-0.9638797044754028,0.2860683798789978,3.6061277389526367,5.125640869140625,61.829833984375,34.66,0
-0.0451253801584243,-0.9096468091011048,0.2787443697452545,0.4046924412250519,5.13975191116333,61.82989501953125,34.66,0
-0.034556645900011,-0.8748432397842407,0.2796420454978943,-0.969115138053894,5.148807525634766,61.82993316650391,34.66,0
-0.0445675626397132,-0.8693016171455383,0.2858158946037292,0.0802625641226768,5.154619216918945,61.8299560546875,34.66,0
-0.0621875412762165,-0.8825386762619019,0.2953756749629974,2.7456047534942627,5.158348560333252,61.82997131347656,34.66,0
-0.0678972527384758,-0.9022290110588074,0.3071083724498749,5.849689960479736,5.160741806030273,61.82998275756836,34.66,0
-0.0603658705949783,-0.9204629063606262,0.3258332908153534,8.468664169311523,5.161359786987305,61.82999038696289,34.66,0
-0.0555326640605926,-0.9321643710136414,0.3378498554229736,10.43239402770996,5.16175651550293,61.82999420166016,34.66,0
-0.063626542687416,-0.9284781217575072,0.3399636149406433,12.333884239196776,5.16201114654541,61.82999801635742,34.66,0
-0.0688207224011421,-0.920514702796936,0.3357223272323608,14.353065490722656,5.162174224853516,61.82999801635742,34.66,0
-0.072154052555561,-0.909806489944458,0.3274027407169342,15.093560218811035,5.16227912902832,61.82999801635742,34.66,0
-0.0742931887507438,-0.9029345512390136,0.3164659440517425,13.017973899841309,5.162346363067627,61.82999801635742,34.66,0
-0.0700681880116462,-0.9097201228141784,0.3038495779037475,9.328646659851074,5.162389755249023,61.82999801635742,34.66,0
-0.0841501504182815,-0.9812480211257936,0.2957531213760376,7.4554443359375,5.162417411804199,61.82999801635742,34.66,0
-0.0875893682241439,-0.9935638308525084,0.2849594950675964,9.26986026763916,5.149122714996338,61.98405075073242,34.66,0
-0.0897964611649513,-0.9678807854652404,0.2724349796772003,13.002954483032228,5.140591144561768,62.08291244506836,34.66,0
-0.0856150686740875,-0.9234099984169006,0.2476041615009308,14.588976860046388,5.135115623474121,62.14635467529297,34.66,0
-0.0829316973686218,-0.9116645455360411,0.2316691726446151,10.96377658843994,5.131601810455322,62.18706893920898,34.66,0
-0.0756118893623352,-0.9601047039031982,0.2214430123567581,3.453345537185669,5.12934684753418,62.21319580078125,34.66,0
-0.0765122324228286,-0.991190791130066,0.2036848962306976,-2.9642457962036133,5.127900123596191,62.22996139526367,34.66,0
-0.0882855653762817,-0.9943467378616332,0.1866909861564636,-5.072861671447754,5.12697172164917,62.24072265625,34.66,0
-0.0958410128951072,-0.9739809632301332,0.1701875030994415,-4.3947296142578125,5.126375675201416,62.24762725830078,34.66,0
-0.0950918942689895,-0.9553136229515076,0.1651942878961563,-4.034777641296387,5.091564655303955,62.25205993652344,34.66,0
-0.0890133753418922,-0.9433339834213256,0.1675876975059509,-5.186655521392822,5.069224834442139,62.2549057006836,34.66,0
-0.0683192089200019,-0.9468417167663574,0.1691236495971679,-7.290825843811035,5.054888725280762,62.25672912597656,34.66,0
-0.049441110342741,-0.9602882862091064,0.1645115613937378,-9.031661987304688,5.045688629150391,62.25790023803711,34.66,0
-0.0429240092635154,-0.9633197784423828,0.1615517884492874,-8.783868789672852,5.03978443145752,62.25865173339844,34.66,0
-0.0443394817411899,-0.959667444229126,0.1540546119213104,-6.109881401062012,5.0359954833984375,62.25913238525391,34.66,0
-0.0508456230163574,-0.9461280107498168,0.1604388952255249,-2.8390324115753174,5.03356409072876,62.25944137573242,34.66,0
-0.0494231171905994,-0.94303697347641,0.1701337397098541,-1.015848159790039,5.032003402709961,62.25963973999024,34.66,0
-0.0485102348029613,-0.9466511011123656,0.1763553321361541,-0.1252742558717727,4.980506896972656,62.25976943969727,34.66,0
-0.0591199472546577,-0.971361517906189,0.1803479939699173,2.1336379051208496,4.947459220886231,62.25984954833984,34.66,0
-0.0715264230966568,-0.9816214442253112,0.1829102486371994,6.818343639373779,4.926251411437988,62.25990295410156,34.66,0
-0.0794881880283355,-0.9658145904541016,0.1901523321866989,12.192800521850586,4.912641525268555,62.25993728637695,34.66,0
-0.0845975875854492,-0.9444751143455504,0.2059954404830932,14.613618850708008,4.903907299041748,62.25996017456055,34.66,0
-0.082278735935688,-0.9363784790039062,0.221760407090187,11.979129791259766,4.89830207824707,62.25997543334961,34.66,0
-0.0807906314730644,-0.9647691249847412,0.2374752312898636,7.089225769042969,4.894705295562744,62.25998306274414,34.66,0
-0.0854334235191345,-0.9941841959953308,0.2475600987672805,5.15491247177124,4.892396926879883,62.259986877441406,34.66,0
-0.1052062213420867,-1.0186588764190674,0.2540319859981537,7.202385902404785,4.825730800628662,62.25999069213867,34.66,0
-0.0955041721463203,-0.9783875346183776,0.2749786078929901,9.354659080505373,4.78294849395752,62.25999450683594,34.66,0
-0.0724846273660659,-0.9189570546150208,0.2884209156036377,8.883672714233398,4.7554931640625,62.25999450683594,34.66,0
-0.057712011039257,-0.8976113200187683,0.2802540957927704,7.137642860412598,4.737874031066895,62.25999450683594,34.66,0
-0.0426340214908123,-0.9007061719894409,0.2582197785377502,6.235678195953369,4.726567268371582,62.25999450683594,34.66,0
-0.0217622872442007,-0.9698655605316162,0.2272861152887344,6.054515361785889,4.719311237335205,62.25999450683594,34.66,0
0.0196208637207746,-0.9974547624588012,0.1794457882642746,5.214574813842773,4.714654445648193,62.25999450683594,34.66,0
0.0573737360537052,-0.9927688241004944,0.1431468427181244,3.145789623260498,4.711666107177734,62.25999450683594,34.66,0
0.0760035812854766,-0.9617727994918824,0.1198522746562957,0.5284352898597717,4.64823579788208,62.41762924194336,34.66,0
0.0767635926604271,-0.9474791288375854,0.1049031615257263,-1.6277145147323608,4.607530117034912,62.51879119873047,34.66,0
0.0436646789312362,-0.9550995826721193,0.1009074598550796,-2.8072006702423096,4.58140754699707,62.58370971679688,34.66,0
-0.0111629432067275,-0.9823810458183287,0.1039410233497619,-3.105557441711426,4.564643383026123,62.625370025634766,34.66,0
-0.0407503806054592,-0.9886931777000428,0.1114855632185936,-2.7453088760375977,4.553884983062744,62.65210723876953,34.66,0
-0.0541401207447052,-0.9927439093589784,0.1331205368041992,-1.475175142288208,4.546980857849121,62.66926574707031,34.66,0
-0.0459395609796047,-0.972952365875244,0.1637979447841644,1.378408908843994,4.542550563812256,62.680274963378906,34.66,0
-0.0070902667939662,-0.95465350151062,0.2002782523632049,5.678069591522217,4.539707183837891,62.68734359741211,34.66,0
0.0066454238258302,-0.9541059136390686,0.2124936729669571,9.372396469116213,4.490141868591309,62.69187927246094,34.66,0
0.0042646504007279,-0.9593522548675536,0.20913727581501,10.245686531066896,4.458333969116211,62.69478988647461,34.66,0
-0.0028609675355255,-0.9571213126182556,0.2013855576515197,9.322927474975586,4.437921047210693,62.6966552734375,34.66,0
-0.0074337790720164,-0.9556896090507508,0.2076064944267273,10.292757034301758,4.424821376800537,62.697853088378906,34.66,0
-0.0103683453053236,-0.9491730332374572,0.2171965092420578,14.820144653320312,4.416414737701416,62.69862365722656,34.66,0
-0.0290449038147926,-0.950588881969452,0.2233508378267288,20.777915954589844,4.411019802093506,62.69911575317383,34.66,0
-0.029834896326065,-0.951497495174408,0.2328981012105941,25.56498336791992,4.407557964324951,62.69943237304688,34.66,0
-0.0135485446080565,-0.9520805478096008,0.2390249818563461,28.504493713378903,4.405336380004883,62.69963455200195,34.66,0
-0.0086946757510304,-0.94685697555542,0.2373590916395187,29.99323463439941,4.367404460906982,62.69976425170898,34.66,0
1.8031656509265304e-05,-0.9435047507286072,0.2362900227308273,30.86622428894043,4.343061923980713,62.69984817504883,34.66,0
-0.0055862027220427,-0.9525490403175354,0.2300061732530594,32.74126434326172,4.32744026184082,62.69990158081055,34.66,0
-0.0147804515436291,-0.9583531618118286,0.2203757911920547,37.14021301269531,4.317415237426758,62.69993591308594,34.66,0
-0.0094852428883314,-0.950882375240326,0.2197933346033096,43.728492736816406,4.310981750488281,62.69995880126953,34.66,0
-0.0004893084987998,-0.9516857862472534,0.2194195538759231,50.27439880371094,4.306853294372559,62.699974060058594,34.66,0
0.0108815394341945,-0.9522013664245604,0.2191796749830246,54.994659423828125,4.304203987121582,62.69998550415039,34.66,0
0.0013853712007403,-0.9525322914123536,0.2190257459878921,59.10578918457031,4.30250358581543,62.699989318847656,34.66,0
-0.0047087231650948,-0.958342432975769,0.2301225066184997,66.4193344116211,4.263311386108398,62.69999313354492,34.66,0
-0.0310106594115495,-0.9564732313156128,0.2260482162237167,79.44581604003906,4.238160133361816,62.69999694824219,34.66,0
-0.0366941802203655,-0.955273687839508,0.229031354188919,96.03105926513672,4.222019672393799,62.69999694824219,34.66,0
-0.0291459877043962,-0.954503893852234,0.2309457510709762,110.97360229492188,4.211661338806152,62.69999694824219,34.66,0
-0.0075086690485477,-0.9540098905563354,0.2377720773220062,121.42626190185548,4.205014228820801,62.69999694824219,34.66,0
0.0007791428361088,-0.9536928534507751,0.2421528249979019,129.6496124267578,4.200748443603516,62.69999694824219,34.66,0
-0.0106955403462052,-0.947891652584076,0.244964137673378,139.8027801513672,4.198010921478272,62.69999694824219,34.66,0
-0.0124615561217069,-0.9609621167182922,0.2411704957485199,152.75279235839844,4.196254253387451,62.69999694824219,34.66,0
-0.030388206243515,-0.9917410612106324,0.2331381887197494,163.83985900878906,4.172174453735352,62.85763168334961,34.66,0
-0.0083058523014187,-0.9723088145256042,0.2391790598630905,164.9755859375,4.156721591949463,62.95879364013672,34.66,0
0.0114631047472357,-0.9878271818161012,0.2430557459592819,149.71180725097656,4.1468048095703125,63.023712158203125,34.66,0
0.0185519084334373,-0.9362104535102844,0.2567391395568847,116.9879150390625,4.140440940856934,63.065372467041016,34.66,0
-0.0160833243280649,-0.8750969171524048,0.2655203342437744,68.87825012207031,4.136356830596924,63.09210968017578,34.66,0
0.0120697449892759,-0.9086488485336304,0.2767533659934997,6.911067962646484,4.13373613357544,63.10926818847656,34.66,0
-0.0146454302594065,-0.9133872389793396,0.2671687602996826,-64.42556762695312,4.132054328918457,63.12027740478516,34.66,0
-0.0261919163167476,-0.9276235699653624,0.2722134590148926,-132.61431884765625,4.130974769592285,63.12734222412109,34.66,0
-0.0168084651231765,-0.9423574209213256,0.2810486555099487,-183.37071228027344,4.099525451660156,63.13187789916992,34.63,0
-0.0163844805210828,-0.9350194334983826,0.2923163473606109,-212.58636474609372,4.079343318939209,63.1347885131836,34.63,0
0.0006809330079704,-0.9359081387519836,0.3051450550556183,-226.91796875,4.066391468048096,63.13665390014648,34.63,0
0.0172303058207035,-0.9364784359931946,0.3133777976036072,-234.12326049804688,4.058079719543457,63.13785171508789,34.63,0
0.0166551936417818,-0.9368444085121156,0.318661093711853,-237.1959381103516,4.052745819091797,63.13862228393555,34.63,0
0.0050905710086226,-0.920285940170288,0.3220516145229339,-234.69317626953125,4.049322605133057,63.13911437988281,34.63,0
0.0088646095246076,-0.9208552241325378,0.3242274522781372,-222.74057006835935,4.047125816345215,63.13943099975586,34.63,0
