acc_x,acc_y,acc_z,bvp,eda,hr,temp,label
0.0,0.0,0.0,0.0,0.0,0.0,24.19,0
-0.0364583320915699,-0.0546874962747097,0.1536458283662796,0.0183333326131105,0.1020793244242668,8.166666030883789,24.19,0
-0.0895579308271408,-0.115472562611103,0.3597561120986938,-0.0831707417964935,0.2390150129795074,19.12195205688477,24.19,0
-0.1606623828411102,-0.1633617132902145,0.5340531468391418,0.061362124979496,0.3581255078315735,28.65116310119629,24.19,0
-0.2071987092494964,-0.2089758366346359,0.6558740735054016,0.5699474811553955,0.4450230300426483,35.60323715209961,24.19,0
-0.2222366034984588,-0.2398585230112075,0.7658005952835083,1.009143590927124,0.5038563013076782,40.31008529663086,24.19,0
-0.2209974825382232,-0.2934404611587524,0.82682204246521,1.0627574920654297,0.5424594283103943,43.39845275878906,24.19,0
-0.2369329631328582,-0.2946668565273285,0.849604606628418,0.7439740896224976,0.5674607753753662,45.39863967895508,24.19,0
-0.269558846950531,-0.3066372275352478,0.8475099802017212,-0.0123448073863983,0.5803570747375488,46.687103271484375,24.19,0
-0.2737449407577514,-0.3199257254600525,0.8573529720306396,-1.2074161767959597,0.5886460542678833,47.51525115966797,24.19,0
-0.2540471255779266,-0.3284589946269989,0.8692702054977417,-2.3939011096954346,0.5939688682556152,48.04705047607422,24.19,0
-0.2470001131296157,-0.3283393383026123,0.8769199848175049,-3.2056710720062256,0.5973856449127197,48.38842010498047,24.19,0
-0.2480747997760772,-0.3282625675201416,0.8762321472167969,-4.002522468566895,0.5995785593986511,48.607513427734375,24.19,0
-0.2543621957302093,-0.333810955286026,0.8813884258270264,-5.201762199401856,0.6009859442710876,48.74812316894531,24.19,0
-0.2527994215488434,-0.3429694175720215,0.8846974968910217,-6.458606719970703,0.6018891334533691,48.83835983276367,24.19,0
-0.2573942840099334,-0.3432490527629852,0.8868210911750793,-7.1899495124816895,0.602468729019165,48.89626693725586,24.19,0
-0.2715385258197784,-0.3434285223484039,0.8881838917732239,-7.59479808807373,0.6143167614936829,48.93342971801758,24.19,0
-0.2694199681282043,-0.3379459083080292,0.8946561813354492,-8.485139846801758,0.6219201683998108,48.957279205322266,24.19,0
-0.2736581563949585,-0.3400252759456634,0.8932119607925415,-10.281750679016112,0.6267995834350586,48.97258377075195,24.19,0
-0.2763780057430267,-0.3413596749305725,0.892285168170929,-12.638458251953123,0.6299309134483337,48.98240661621094,24.19,0
-0.2725256681442261,-0.3422160148620605,0.8916903734207153,-15.361767768859863,0.6319404244422913,48.98870849609375,24.19,0
-0.275651216506958,-0.3427655696868896,0.8913087248802185,-19.15866470336914,0.6332300305366516,48.99275207519531,24.19,0
-0.2776570320129394,-0.3375204801559448,0.8910637497901917,-24.844690322875977,0.6340575814247131,48.9953498840332,24.19,0
-0.2901397943496704,-0.3341544866561889,0.8797110319137573,-31.99382972717285,0.6345886588096619,48.99701690673828,24.19,0
-0.2869549691677093,-0.3263966143131256,0.8724254965782166,-39.290164947509766,0.639060914516449,48.998085021972656,24.19,0
-0.2849111258983612,-0.3326135873794555,0.8677500486373901,-46.566314697265625,0.6419309377670288,48.99877166748047,24.19,0
-0.2780017256736755,-0.3422010540962219,0.8759451508522034,-55.38435363769531,0.6437727808952332,48.999210357666016,24.19,0
-0.2679699063301086,-0.3427559733390808,0.8923998475074768,-66.47086334228516,0.6449547410011292,48.99949264526367,24.19,0
-0.3175098001956939,-0.3319165408611297,0.8749706745147705,-77.9383773803711,0.6457132697105408,48.99967575073242,24.19,0
-0.3101172149181366,-0.330558180809021,0.8805789351463318,-87.88060760498047,0.6462000608444214,48.99979019165039,24.19,0
-0.2885797619819641,-0.3296864628791809,0.8841780424118042,-97.17717742919922,0.6465124487876892,48.9998664855957,24.19,0
-0.2915515899658203,-0.3179315030574798,0.8808899521827698,-108.07638549804688,0.6467128992080688,48.99991607666016,24.19,0
-0.2878609597682953,-0.31598562002182,0.8787798285484314,-122.10346221923828,0.6477597951889038,50.31475067138672,24.19,0
-0.307883620262146,-0.3035413324832916,0.8606323599815369,-138.12350463867188,0.6484315991401672,51.15853500366211,24.19,0
-0.2983419299125671,-0.3123486042022705,0.8545840978622437,-148.47589111328125,0.6488627195358276,51.70002746582031,24.19,0
-0.2978163957595825,-0.3235983848571777,0.8451049327850342,-140.39149475097656,0.649139404296875,52.04752731323242,24.19,0
-0.2974791228771209,-0.3420133888721466,0.8166306614875793,-105.63997650146484,0.6493169665336609,52.2705307006836,24.19,0
-0.2860671281814575,-0.3650266528129577,0.7759664058685303,-45.05146408081055,0.6494309306144714,52.41364288330078,24.19,0
-0.289939135313034,-0.3741974532604217,0.6882948875427246,35.653743743896484,0.6495040655136108,52.50548553466797,24.19,0
-0.2868261933326721,-0.3744849860668182,0.6320323944091797,125.39591979980467,0.6495509743690491,52.56442260742188,24.19,0
-0.2680351436138153,-0.3690717220306396,0.6071218848228455,206.1522216796875,0.6495810747146606,52.60224533081055,24.17,0
-0.2671716809272766,-0.3655977845191955,0.5687446594238281,263.94195556640625,0.6496003866195679,52.62651824951172,24.17,0
-0.2890086770057678,-0.3801617622375488,0.5385186076164246,299.9927062988281,0.6496127843856812,52.64209365844727,24.17,0
-0.3254134953022003,-0.4678769111633301,0.5471101403236389,324.2242736816406,0.649620771408081,52.65209197998047,24.17,0
-0.3375804722309112,-0.5633518695831299,0.5582214593887329,340.5700378417969,0.6496258974075317,52.65850830078125,24.17,0
-0.3397907614707947,-0.641415536403656,0.5597542524337769,342.9058532714844,0.6496291756629944,52.66262435913086,24.17,0
-0.3076225519180298,-0.7195011377334595,0.5775312781333923,323.07061767578125,0.6496312618255615,52.66526794433594,24.17,0
-0.2813810706138611,-0.7752097845077515,0.5833417773246765,278.7790222167969,0.6496326327323914,52.66696166992188,24.17,0
-0.2589430212974548,-0.8389492630958557,0.5590817332267761,212.53396606445312,0.6496334671974182,52.66804885864258,24.17,0
-0.2557391226291656,-0.9134402275085448,0.5211219191551208,128.406494140625,0.6496340036392212,52.66874694824219,24.17,0
-0.2648786008358001,-0.9780375957489014,0.5079570412635803,37.177467346191406,0.6496343612670898,52.66919708251953,24.17,0
-0.2707437872886657,-1.0362857580184937,0.5554863214492798,-41.63470458984375,0.649634599685669,52.66948318481445,24.17,0
-0.2521166205406189,-1.068068265914917,0.6307700872421265,-93.63768768310548,0.6496347784996033,52.6696662902832,24.17,0
-0.262553870677948,-1.0660734176635742,0.6454962491989136,-120.92341613769533,0.649634838104248,52.66978454589844,24.17,0
-0.314034104347229,-1.0703909397125244,0.5653822422027588,-133.05996704101562,0.6496348977088928,52.66986083984375,24.17,0
-0.3470711410045624,-1.0675638914108276,0.5027741193771362,-135.04830932617188,0.6496349573135376,52.6699104309082,24.17,0
-0.3682724237442016,-1.0657497644424438,0.4849869608879089,-129.55682373046875,0.6473396420478821,52.66994094848633,24.17,0
-0.3762803971767425,-1.0813788175582886,0.4903655052185058,-121.28221130371094,0.6458666324615479,52.669960021972656,24.17,0
-0.3590283691883087,-1.113799810409546,0.521806001663208,-112.9805908203125,0.6449213027954102,52.66997528076172,24.17,0
-0.3703480958938598,-1.1178123950958252,0.5475804805755615,-103.25010681152344,0.6443146467208862,52.66998291015625,24.17,0
-0.4223946332931518,-1.1315829753875732,0.5473277568817139,-91.26277160644533,0.6439253687858582,52.66998672485352,24.17,0
-0.4166106879711151,-1.084442377090454,0.4967855811119079,-79.36763000488281,0.6436755061149597,52.66999053955078,24.17,0
-0.3737144768238067,-1.0317991971969604,0.4419594407081604,-69.55938720703125,0.6435151696205139,52.66999435424805,24.17,0
-0.3070017397403717,-1.0036135911941528,0.3675907552242279,-60.80379104614258,0.6434122920036316,52.66999435424805,24.17,0
-0.2697871029376983,-1.0023189783096311,0.3142674267292022,-51.36592864990234,0.6433462500572205,55.0273323059082,24.17,0
-0.2571004629135132,-1.0238792896270752,0.2856453657150268,-41.67293930053711,0.6433038711547852,56.54013442993164,24.17,0
-0.2601544559001922,-1.0489109754562378,0.289668470621109,-33.36030960083008,0.6432766914367676,57.510963439941406,24.17,0
-0.2509187757968902,-1.053779363632202,0.3090435862541199,-26.804086685180664,0.6432592272758484,58.13398742675781,24.17,0
-0.2281985133886337,-1.0457080602645874,0.3158796429634094,-21.02034568786621,0.6432480216026306,58.53380584716797,24.17,0
-0.2136179655790329,-1.0349305868148804,0.3090710937976837,-15.474394798278809,0.6432408690452576,58.79038619995117,24.17,0
-0.2098587751388549,-1.0224164724349976,0.2767128646373749,-10.639925956726074,0.6432362794876099,58.95504760742188,24.17,0
-0.1962507963180542,-1.0087878704071045,0.2503494620323181,-6.935569286346436,0.6432332992553711,59.06071472167969,24.17,0
-0.1763224303722381,-0.9832484722137452,0.2334309369325637,-4.192903995513916,0.6446085572242737,59.1285285949707,24.17,0
-0.1691313236951828,-0.9388698935508728,0.2113780528306961,-2.1247174739837646,0.6454911231994629,59.17204666137695,24.17,0
-0.1757120341062545,-0.9103902578353882,0.1972257792949676,-0.5861023664474487,0.6460574865341187,59.199974060058594,24.17,0
-0.1967284828424453,-0.9033092260360718,0.1937414407730102,0.5481777787208557,0.646420955657959,59.2178955078125,24.17,0
-0.2158134132623672,-0.8819716572761536,0.2194942682981491,1.2653456926345823,0.6466541886329651,59.22939682006836,24.17,0
-0.2280610203742981,-0.8626806735992432,0.2528142631053924,1.4282290935516355,0.6468038558959961,59.236778259277344,24.17,0
-0.2303230464458465,-0.8782896995544434,0.2630015909671783,1.0670233964920044,0.646899938583374,59.24151611328125,24.17,0
-0.2373724579811096,-0.8827089071273804,0.2583436667919159,0.4124784469604492,0.6469615697860718,59.24455642700195,24.17,0
-0.2530919313430786,-0.8631538152694702,0.2665500342845917,-0.2762639820575714,0.647460401058197,59.24650573730469,24.17,0
-0.2799730896949768,-0.8450067043304443,0.2998052835464477,-0.7612501382827759,0.6477805376052856,59.24775695800781,24.17,0
-0.2972238659858703,-0.8613498210906982,0.3267443478107452,-0.9399310350418092,0.6479859948158264,59.24856185913086,24.17,0
-0.2691100239753723,-0.922217845916748,0.3440322875976562,-0.9256254434585572,0.6481178402900696,59.24907684326172,24.17,0
-0.2230792939662933,-0.9332905411720276,0.366322249174118,-0.7946373820304871,0.6482024192810059,59.24940872192383,24.17,0
-0.159952774643898,-0.9124075174331664,0.3806266784667969,-0.5135350823402405,0.6482567191123962,59.2496223449707,24.17,0
-0.1474306732416153,-0.8598215579986572,0.3562197685241699,-0.2328276932239532,0.6482915878295898,59.249755859375,24.17,0
-0.1561880409717559,-0.8204771280288696,0.3293612897396087,-0.2533101141452789,0.6483139395713806,59.24984359741211,24.17,0
-0.1953946650028228,-0.8288148045539856,0.3121250569820404,-0.6318772435188293,0.6497050523757935,59.24990081787109,24.17,0
-0.2373485416173935,-0.8509587645530701,0.2954660654067993,-1.000209927558899,0.6505978107452393,59.24993515014648,24.17,0
-0.2642721235752105,-0.8651694655418396,0.2903730571269989,-0.7744324803352356,0.6511707305908203,59.24995803833008,24.17,0
-0.3039412200450897,-0.8518980145454407,0.2983002066612243,0.2374417781829834,0.6515383720397949,59.24997329711914,24.17,0
-0.3405941128730774,-0.8377833962440491,0.3033874034881592,1.3489567041397097,0.6517743468284607,59.24998474121094,24.17,0
-0.3753113746643066,-0.8623120784759521,0.301054298877716,1.643101692199707,0.6519257426261902,59.2499885559082,24.17,0
-0.4255797863006592,-0.9228353500366212,0.3219481408596039,1.0508655309677124,0.6520228981971741,59.24999237060547,24.17,0
-0.4634369313716888,-1.045642375946045,0.3801387846469879,0.2265630066394806,0.6520852446556091,59.249996185302734,24.17,0
-0.4765359163284302,-1.1636372804641724,0.4398733079433441,-0.28809654712677,0.6525845527648926,59.8052978515625,24.17,0
-0.4681487679481506,-1.2169684171676636,0.5005985498428345,-0.3066913485527038,0.6529049873352051,60.16165542602539,24.17,0
-0.4235819578170776,-1.172824501991272,0.511579692363739,0.2187618911266327,0.6531106233596802,60.39034652709961,24.17,0
-0.3893837928771972,-1.1221044063568115,0.479442298412323,1.0790235996246338,0.6532425880432129,60.537109375,24.17,0
-0.350644052028656,-1.1007506847381592,0.4196339547634125,1.7314021587371826,0.6533272862434387,60.631290435791016,24.17,0
-0.3481742143630981,-1.081449270248413,0.3532635271549225,1.723734736442566,0.6533816456794739,60.69173049926758,24.17,0
-0.3353936672210693,-1.0690628290176392,0.3050730526447296,1.1993407011032104,0.6534165143966675,60.73051834106445,24.17,0
-0.271214097738266,-1.044320583343506,0.2853427231311798,0.6657731533050537,0.6534388661384583,60.755409240722656,24.17,0
-0.1852451413869857,-0.9780624508857728,0.2950720191001892,0.3305253386497497,0.6534532308578491,60.77138519287109,24.17,0
-0.1356729865074157,-0.9243462085723876,0.3013157248497009,0.0508962385356426,0.6534624695777893,60.78163528442383,24.17,0
-0.1318493038415908,-0.8730809092521667,0.2885292470455169,-0.153631642460823,0.6534683704376221,60.78821563720703,24.17,0
-0.1517865806818008,-0.845779538154602,0.2691280841827392,-0.0556010417640209,0.6534721851348877,60.79243850708008,24.17,0
-0.1981678307056427,-0.8562479615211487,0.2342864274978637,0.2330116331577301,0.6534746289253235,60.79514694213867,24.17,0
-0.2223348766565323,-0.8685637712478638,0.211927056312561,0.2176023870706558,0.6534761786460876,60.7968864440918,24.17,0
-0.2098550200462341,-0.915651798248291,0.2031758725643158,-0.3225075602531433,0.6534771919250488,60.79800033569336,24.17,0
-0.2074439376592636,-0.9738590717315674,0.2031576484441757,-1.0596197843551636,0.6534778475761414,60.7987174987793,24.17,0
-0.205896645784378,-1.0056153535842896,0.2031459510326385,-1.5469863414764404,0.6539371609687805,60.79917526245117,24.17,0
-0.2216970026493072,-1.0203969478607178,0.2031384408473968,-1.5946394205093384,0.6542319655418396,60.79946899414063,24.17,0
-0.2094456702470779,-1.0466762781143188,0.2199269533157348,-1.2311371564865112,0.6544211506843567,60.79965972900391,24.17,0
-0.17359459400177,-1.069138526916504,0.2251030802726745,-0.6682654023170471,0.6545425653457642,60.799781799316406,24.17,0
-0.2289562821388244,-0.9715980887413024,0.2340225875377655,-0.1995694190263748,0.6546204686164856,60.79985809326172,24.17,0
-0.2644842267036438,-0.8978066444396973,0.2565399408340454,0.043891467154026,0.6546704769134521,60.79990768432617,24.17,0
-0.2313062697649002,-0.9232226610183716,0.29338139295578,0.1643048971891403,0.6547025442123413,60.79994201660156,24.17,0
-0.198819026350975,-0.9339354038238524,0.3058285415172577,0.2379967272281646,0.6547231078147888,60.79996109008789,24.17,0
-0.1387861520051956,-0.9016258120536804,0.3194141983985901,0.2781227529048919,0.6561135053634644,60.79997634887695,24.17,0
-0.1114560589194297,-0.8473047018051147,0.328132688999176,0.3970202803611755,0.6570057272911072,60.79998397827149,24.17,0
-0.1163082793354988,-0.8012490272521973,0.3225321471691131,0.666780948638916,0.6575783491134644,60.79998779296875,24.17,0
-0.1418132483959198,-0.7716931104660034,0.3189380466938019,0.9115493297576904,0.6579458117485046,60.799991607666016,24.17,0
-0.1525830924510955,-0.7639213800430298,0.3222293555736542,0.8715859651565552,0.6581816077232361,60.79999542236328,24.17,0
-0.1986789852380752,-0.7925205826759338,0.3075481951236725,0.4840995967388153,0.6583329439163208,60.79999542236328,24.17,0
-0.2282606810331344,-0.8220694661140442,0.3149199783802032,-0.0977463722229003,0.6584300398826599,60.79999542236328,24.17,0
-0.2640378177165985,-0.8354344367980957,0.3252485394477844,-0.6431052684783936,0.658492386341095,60.79999542236328,24.17,0
-0.3093886375427246,-0.8552068471908569,0.3262790441513061,-0.9608420133590698,0.6594505906105042,60.51338958740234,24.17,0
-0.355285495519638,-0.8958845138549805,0.3325381577014923,-1.0106964111328125,0.6600655317306519,60.32946395874024,24.17,0
-0.4071305692195892,-1.0227490663528442,0.3757393062114715,-0.9746211767196656,0.6604601740837097,60.21142959594727,24.17,0
-0.4348039627075195,-1.1489455699920654,0.4146588742733001,-1.033869385719299,0.6607134342193604,60.135684967041016,24.17,0
-0.4525631666183471,-1.2411267757415771,0.462026298046112,-1.1256301403045654,0.6608759164810181,60.08707427978516,24.17,0
-0.430373340845108,-1.249903440475464,0.5036195516586304,-1.091369867324829,0.660980224609375,60.05587768554688,24.17,0
-0.3937421143054962,-1.1883624792099,0.502322793006897,-0.7971078753471375,0.6610471606254578,60.03585815429688,24.17,0
-0.3534409701824188,-1.115282416343689,0.4455128908157348,-0.0171425398439168,0.661090075969696,60.02301025390625,24.17,0
-0.3219802379608154,-1.0571882724761963,0.3922622501850128,1.1999094486236572,0.661117672920227,60.014766693115234,24.19,0
-0.3185838758945465,-1.0255045890808103,0.3524912595748901,2.152906894683838,0.6611353754997253,60.00947570800781,24.19,0
-0.2940131723880768,-1.005171775817871,0.3325663208961487,2.18410873413086,0.6611467003822327,60.006080627441406,24.19,0
-0.2614518105983734,-0.9921234250068665,0.319779634475708,1.5198602676391602,0.6611539721488953,60.003902435302734,24.19,0
-0.206969141960144,-0.9557608366012572,0.3059760928153991,0.7998126149177551,0.6611586213111877,60.00250625610352,24.19,0
-0.172005295753479,-0.9044365882873536,0.2915199995040893,0.2660759687423706,0.6611616611480713,60.001609802246094,24.19,0
-0.1663608402013778,-0.8714995980262756,0.27664515376091,-0.0764454752206802,0.6611635684967041,60.00103378295898,24.19,0
-0.1907274276018142,-0.8671558499336243,0.2503060102462768,-0.1529529988765716,0.6611648201942444,60.00066375732422,24.19,0
-0.2119622677564621,-0.8699660897254944,0.2278052866458892,-0.0193397663533687,0.6607062816619873,60.00042724609375,24.19,0
-0.2199918031692505,-0.8997583985328674,0.2133656144142151,0.0914835408329963,0.660412073135376,60.000274658203125,24.19,0
-0.2027535885572433,-0.9636595845222472,0.2152946144342422,0.0300482641905546,0.6602232456207275,60.00017547607422,24.19,0
-0.1860933303833007,-1.0270588397979736,0.2221303135156631,-0.2314970344305038,0.6601020693778992,60.00011444091797,24.19,0
-0.1809995025396347,-1.039755940437317,0.2209192961454391,-0.625044047832489,0.6600242853164673,60.00007247924805,24.19,0
-0.1833283603191375,-1.042306423187256,0.2033488005399704,-0.8883475661277771,0.6599743962287903,60.00004577636719,24.19,0
-0.1512362360954284,-1.043943166732788,0.2256597131490707,-0.7814623117446899,0.6599423885345459,60.000030517578125,24.19,0
-0.158630222082138,-0.9834179878234864,0.2399775832891464,-0.4549240469932556,0.6599218249320984,60.00001907348633,24.19,0
-0.2081574648618698,-0.9109897613525392,0.2603615224361419,-0.1844667941331863,0.6608268618583679,60.0000114440918,24.19,0
-0.2063545435667038,-0.9148894548416138,0.3014316260814667,0.0285054333508014,0.6614076495170593,60.00000762939453,24.19,0
-0.1884042173624038,-0.9229898452758788,0.3221902847290039,0.2762385904788971,0.6617803573608398,60.00000381469727,24.19,0
-0.1600914001464843,-0.9001993536949158,0.3243164420127868,0.4710452258586883,0.6620195508003235,60.00000381469727,24.19,0
-0.1419218629598617,-0.8463892936706543,0.3200831115245819,0.5351571440696716,0.6621730327606201,60.00000381469727,24.19,0
-0.1470550298690796,-0.7950637936592102,0.3117686212062835,0.4974837899208069,0.6622715592384338,60.00000381469727,24.19,0
-0.1559469699859619,-0.7733215689659119,0.3064328730106354,0.3622473776340484,0.6623347401618958,60.00000381469727,24.19,0
-0.1672510802745819,-0.7705641984939575,0.3030087053775787,0.1823134571313858,0.6623753309249878,60.00000381469727,24.19,0
-0.1801031827926635,-0.7911857962608337,0.2952134907245636,0.0059384428896009,0.6624013781547546,60.92072296142578,24.19,0
-0.2275353372097015,-0.8268106579780579,0.3014065027236938,-0.3114557266235351,0.6624180674552917,61.51158905029297,24.19,0
-0.2691701054573059,-0.8496726155281067,0.3109786212444305,-0.8590682744979858,0.6624287962913513,61.89077377319336,24.19,0
-0.3182800114154815,-0.8643441200256348,0.3171214461326599,-1.335884690284729,0.6624356508255005,62.13411331176758,24.19,0
-0.3665892481803894,-0.8905527591705322,0.3266613185405731,-1.4090105295181274,0.6624400615692139,62.2902717590332,24.19,0
-0.4311779737472534,-0.9801430106163024,0.3719678819179535,-1.1370892524719238,0.6624429225921631,62.39048767089844,24.19,0
-0.4334428906440735,-1.065625786781311,0.4178363680839538,-0.8443608283996582,0.6624447107315063,62.45479965209961,24.19,0
-0.4292986094951629,-1.148472547531128,0.4640654325485229,-0.7317386865615845,0.6624459028244019,62.496070861816406,24.19,0
-0.4042479395866394,-1.1904432773590088,0.5273192524909973,-0.6522991061210632,0.6624466776847839,62.52255630493164,24.15,0
-0.3937696516513824,-1.189388871192932,0.5455207824707031,-0.3290436267852783,0.6624471545219421,62.53955459594727,24.15,0
-0.3814474940299988,-1.1495277881622314,0.4844304323196411,0.311894804239273,0.662447452545166,62.55046081542969,24.15,0
-0.3567465245723724,-1.1239471435546875,0.4172372817993164,1.135208249092102,0.6624476313591003,62.55746078491211,24.15,0
-0.340894877910614,-1.101933240890503,0.3685187995433807,1.889265775680542,0.6624477505683899,62.561954498291016,24.15,0
-0.2915377914905548,-1.0710126161575315,0.3372541069984436,2.1725523471832275,0.6624478101730347,62.56483840942383,24.15,0
-0.2430699169635772,-1.0343762636184692,0.3115924298763275,1.7273986339569092,0.6624478697776794,62.566688537597656,24.15,0
-0.1839771568775177,-0.9772785305976868,0.3007220327854156,0.9437465071678162,0.6624479293823242,62.56787490844727,24.15,0
-0.1516525894403457,-0.9126476049423218,0.2881482541561126,0.4157656729221344,0.6619890332221985,62.56863784790039,24.15,0
-0.1477018743753433,-0.8711711764335632,0.2744813561439514,0.1951629519462585,0.6616945266723633,62.56912612915039,24.15,0
-0.1675576269626617,-0.850151777267456,0.2433196306228637,0.0249322317540645,0.6615055203437805,62.56943893432617,24.15,0
-0.1914954632520675,-0.8478583097457886,0.2177240550518036,-0.0843120515346527,0.6613842248916626,62.56964111328125,24.15,0
-0.2012596130371093,-0.8575820326805115,0.1957005113363266,-0.0576891973614692,0.6613064408302307,62.56977081298828,24.15,0
-0.201927900314331,-0.9030065536499025,0.1815670728683471,-0.1194208413362503,0.6612564921379089,62.56985092163086,24.15,0
-0.2023567706346511,-0.9489507675170898,0.1836925894021988,-0.4241472780704498,0.6612244248390198,62.56990432739258,24.15,0
-0.2026319950819015,-0.9784350991249084,0.1850566267967224,-0.7630062103271484,0.6612038612365723,62.56993865966797,24.15,0
-0.2028086185455322,-0.9917586445808412,0.180334210395813,-0.8371633291244507,0.6621085405349731,62.56996154785156,24.15,0
-0.1973241865634918,-1.045091152191162,0.2276836037635803,-0.5659038424491882,0.6626890897750854,62.56997680664063,24.15,0
-0.1658157259225845,-1.0345346927642822,0.2468741685152053,-0.115966796875,0.6630616784095764,62.56998443603516,24.15,0
-0.1903776079416275,-0.9661846160888672,0.2535918056964874,0.2050200700759887,0.6633007526397705,62.56998825073242,24.15,0
-0.2005422264337539,-0.9391148090362548,0.2914894223213196,0.2748731076717376,0.6634541749954224,62.56999206542969,24.15,0
-0.1734786480665207,-0.9553295969963074,0.3214077055454254,0.2767098546028137,0.6635526418685913,62.56999588012695,24.15,0
-0.1505130380392074,-0.9601375460624696,0.3126186728477478,0.3782006800174713,0.6636158227920532,62.56999588012695,24.15,0
-0.1357750296592712,-0.924038589000702,0.3181739449501037,0.5758869647979736,0.6636563539505005,62.56999588012695,24.15,0
-0.1431103497743606,-0.8784812688827515,0.3161412179470062,0.7314112186431885,0.6623052358627319,63.26143264770508,24.15,0
-0.1646110564470291,-0.8268541097640991,0.3092389404773712,0.5840200185775757,0.6614381670951843,63.70515823364258,24.15,0
-0.1840067356824875,-0.8049182891845703,0.2992116808891296,0.0774366408586502,0.660881757736206,63.98991775512695,24.15,0
-0.1964537799358368,-0.8188300728797913,0.2871789932250976,-0.4267882108688354,0.6605246663093567,64.17266082763672,24.15,0
-0.2212348878383636,-0.8389533758163452,0.296250432729721,-0.642893373966217,0.6602954864501953,64.28993225097656,24.15,0
-0.253931313753128,-0.8574651479721069,0.3076697289943695,-0.7994901537895203,0.6601484417915344,64.36518859863281,24.15,0
-0.3029028475284576,-0.8749426603317261,0.309400200843811,-1.1543477773666382,0.660054087638855,64.41348266601562,24.15,0
-0.3511233031749725,-0.9029520750045776,0.3105107247829437,-1.4788044691085815,0.6599935293197632,64.4444808959961,24.15,0
-0.4156550467014313,-0.97130686044693,0.3448100388050079,-1.4147464036941528,0.6608728766441345,64.46437072753906,24.17,0
-0.4458722770214081,-1.054357409477234,0.3836146891117096,-0.9831368923187256,0.6614371538162231,64.47713470458984,24.17,0
-0.4652639329433441,-1.141241192817688,0.4197128415107727,-0.4697047472000122,0.6617993116378784,64.4853286743164,24.17,0
-0.421730637550354,-1.191400408744812,0.482062965631485,-0.0363188721239566,0.6620317101478577,64.49058532714844,24.17,0
-0.3937934935092926,-1.2011985778808594,0.5164779424667358,0.3134547472000122,0.6621808409690857,64.49395751953125,24.17,0
-0.3702672719955444,-1.1515088081359863,0.4769879579544067,0.6633094549179077,0.662276566028595,64.49612426757812,24.17,0
-0.3495717048645019,-1.1364140510559082,0.4180589020252228,1.1744321584701538,0.6623379588127136,64.49751281738281,24.17,0
-0.3418882489204407,-1.121129274368286,0.3690460920333862,1.832038164138794,0.6623773574829102,64.49840545654297,24.17,0
-0.3257619142532348,-1.1113204956054688,0.3263969421386719,2.2612171173095703,0.66148442029953,64.49897766113281,24.17,0
-0.2930218577384949,-1.0994279384613037,0.2990271747112274,2.070904493331909,0.6609114408493042,64.49934387207031,24.17,0
-0.2216312140226364,-1.0526115894317627,0.2814628183841705,1.343317627906799,0.66054368019104,64.49958038330078,24.17,0
-0.153425708413124,-0.977785348892212,0.2813865840435028,0.5038064122200012,0.6603077054023743,64.4997329711914,24.17,0
-0.120850883424282,-0.9129728674888612,0.2757398784160614,-0.1603337824344635,0.66015625,64.49983215332031,24.17,0
-0.1391306519508361,-0.8713799118995667,0.2497250437736511,-0.5757930278778076,0.6600590944290161,64.49989318847656,24.17,0
-0.1732526570558548,-0.8502857089042664,0.2218346744775772,-0.7170206904411316,0.659996747970581,64.49993133544922,24.17,0
-0.217541292309761,-0.8535420298576355,0.1871429234743118,-0.6141933798789978,0.659956693649292,64.49995422363281,24.17,0
-0.223572090268135,-0.8780228495597839,0.1704775243997573,-0.5052137970924377,0.660390317440033,64.49996948242188,24.17,0
-0.2162467688322067,-0.9105265140533448,0.1653804033994674,-0.5821625590324402,0.6606685519218445,64.4999771118164,24.17,0
-0.1947524696588516,-0.9481788277626038,0.1677071452140808,-0.7640991806983948,0.6608471274375916,64.49998474121094,24.17,0
-0.1865564435720443,-0.9667441248893738,0.1636025309562683,-0.8880207538604736,0.6609617471694946,64.49999237060547,24.17,0
-0.1868944764137268,-1.0066471099853516,0.1721639782190323,-0.9532161951065063,0.6610352993011475,64.49999237060547,24.17,0
-0.1759158670902252,-1.043450117111206,0.1832560002803802,-0.9663942456245422,0.6610825061798096,64.49999237060547,24.17,0
-0.2024570703506469,-1.0054926872253418,0.1959719955921173,-0.8351307511329651,0.6611127853393555,64.49999237060547,24.17,0
-0.236283004283905,-0.953144907951355,0.2265234887599945,-0.5072782635688782,0.6611322164535522,64.49999237060547,24.17,0
-0.2300016731023788,-0.9419422149658204,0.262923002243042,-0.1392480880022049,0.6611446738243103,65.07678985595703,24.17,0
-0.2091773599386215,-0.951546311378479,0.2806843221187591,0.0826022252440452,0.6611526608467102,65.44694519042969,24.17,0
-0.1622268557548523,-0.9409163594245912,0.3088758587837219,0.2070600986480713,0.6611577868461609,65.68448638916016,24.17,0
-0.1320967227220535,-0.9173012971878052,0.3381631076335907,0.4123201370239258,0.6611611247062683,65.83692932128906,24.17,0
-0.1463475972414016,-0.8741576671600342,0.3569579720497131,0.6551041007041931,0.6611632108688354,65.93476104736328,24.17,0
-0.1666885316371917,-0.8464705944061279,0.3578238785266876,0.7428398728370667,0.6611645817756653,65.99754333496094,24.17,0
-0.1965354979038238,-0.8454959392547607,0.3415862619876861,0.5806065797805786,0.6611654758453369,66.03783416748047,24.17,0
-0.215689554810524,-0.8448704481124878,0.3479592204093933,0.1934711039066314,0.6611660122871399,66.06369018554688,24.17,0
-0.2391770780086517,-0.8500668406486511,0.3576467931270599,-0.2878375649452209,0.6607070565223694,66.08028411865234,24.17,0
-0.2766411304473877,-0.8589993119239807,0.3582659363746643,-0.6540349721908569,0.6604125499725342,66.09092712402344,24.17,0
-0.3118789494037628,-0.8703294396400452,0.3530654907226562,-0.8173878788948059,0.6602235436439514,66.09776306152344,24.17,0
-0.3568836450576782,-0.9055893421173096,0.360923707485199,-0.8326539993286133,0.6601022481918335,66.1021499633789,24.17,0
-0.3857650756835937,-0.9953904151916504,0.3883577287197113,-0.7528865337371826,0.6600244045257568,66.10496520996094,24.17,0
-0.3875061869621277,-1.0642151832580566,0.4003655314445495,-0.5798887610435486,0.6599744558334351,66.10676574707031,24.17,0
-0.3942213058471679,-1.1475672721862793,0.4304625689983368,-0.3291483223438263,0.6599423885345459,66.10792541503906,24.17,0
-0.3985306620597839,-1.195460081100464,0.4609726667404175,-0.0715080127120018,0.6599218249320984,66.1086654663086,24.17,0
-0.3956983983516693,-1.1590216159820557,0.4469656348228454,0.1404041945934295,0.6594496965408325,66.10914611816406,24.17,0
-0.3602941632270813,-1.1188442707061768,0.3987922966480255,0.4376131594181061,0.6591467261314392,66.10945129394531,24.17,0
-0.3263782262802124,-1.104256272315979,0.3622796535491943,1.054671287536621,0.6589522957801819,66.10964965820312,24.17,0
-0.3102107048034668,-1.094894528388977,0.3276523947715759,1.8375818729400637,0.658827543258667,66.10977172851562,24.17,0
-0.2942375242710113,-1.0888867378234863,0.3054306209087372,2.2217838764190674,0.6587474942207336,66.10985565185547,24.17,0
-0.2448024451732635,-1.05144464969635,0.3023655116558075,1.9022955894470213,0.6586961150169373,66.10990905761719,24.17,0
-0.1850889921188354,-0.9994275569915771,0.294800728559494,1.181375503540039,0.6586630940437317,66.10993957519531,24.17,0
-0.1467683315277099,-0.954850435256958,0.2843483090400696,0.5718448758125305,0.6586419343948364,66.1099624633789,24.17,0
-0.1501652151346206,-0.9150478839874268,0.266444981098175,0.2487521320581436,0.6590872406959534,66.10997772216797,24.17,0
-0.1635406911373138,-0.8895048499107361,0.2493578940629959,0.0485749617218971,0.6593730449676514,66.1099853515625,24.17,0
-0.1833198368549347,-0.8787106275558472,0.2215990573167801,-0.1264607161283493,0.6595564484596252,66.10999298095703,24.17,0
-0.1904151886701584,-0.8773812651634216,0.1981872618198394,-0.206545352935791,0.6596741676330566,66.10999298095703,24.17,0
-0.189370796084404,-0.8877236843109131,0.1831629276275634,-0.2543565034866333,0.6597496867179871,66.10999298095703,24.17,0
-0.1998961120843887,-0.9055564403533936,0.1735211610794067,-0.4068464934825897,0.6597981452941895,66.10999298095703,24.17,0
-0.2122484296560287,-0.9281960129737854,0.1729314178228378,-0.5799399018287659,0.6598292589187622,66.10999298095703,24.17,0
-0.2201754450798034,-0.9427247643470764,0.1949440389871597,-0.6086220741271973,0.659849226474762,66.10999298095703,24.17,0
-0.2364580929279327,-0.9520484805107116,0.2202660292387008,-0.5267164707183838,0.6589441895484924,66.17806243896484,24.17,0
-0.2413095831871032,-0.986020803451538,0.2421139925718307,-0.4419110119342804,0.658363401889801,66.22174835205078,24.17,0
-0.2500207722187042,-0.9462467432022096,0.2561347484588623,-0.3659922778606415,0.6579906940460205,66.24978637695312,24.17,0
-0.2780022025108337,-0.88713538646698,0.2763280272483825,-0.3208546042442322,0.6577515006065369,66.26777648925781,24.17,0
-0.2791657447814941,-0.9051789045333862,0.3284713327884674,-0.3599567711353302,0.6575979590415955,66.2793197631836,24.17,0
-0.2407280206680297,-0.9503448009490968,0.3507383465766907,-0.4280411899089813,0.6574994325637817,66.28672790527344,24.17,0
-0.1936698108911514,-0.9737319350242616,0.3594302535057068,-0.4215777814388275,0.6574362516403198,66.2914810180664,24.17,0
-0.1522750109434127,-0.9495559930801392,0.3594104647636413,-0.3386133015155792,0.6573956608772278,66.2945327758789,24.17,0
-0.1481013000011444,-0.9004546403884888,0.3537999987602234,-0.2674585878849029,0.6582874655723572,66.29649353027344,24.17,0
-0.1678139567375183,-0.8521509170532227,0.3446017503738403,-0.2397084683179855,0.6588597893714905,66.2977523803711,24.17,0
-0.202855497598648,-0.8155545592308044,0.3107099533081054,-0.1968220025300979,0.6592270731925964,66.2985610961914,24.17,0
-0.2253431528806686,-0.7976669073104858,0.2833623886108398,-0.1549696326255798,0.6594627499580383,66.29907989501953,24.17,0
-0.2565677464008331,-0.8085787296295166,0.2882033884525299,-0.239171028137207,0.6596140265464783,66.29940795898438,24.17,0
-0.2933992147445678,-0.8211790919303894,0.2969078421592712,-0.4221793711185455,0.6597111225128174,66.29962158203125,24.17,0
-0.3394266366958618,-0.829265296459198,0.3024938404560089,-0.4751372337341308,0.6597734093666077,66.29975891113281,24.17,0
-0.3745621740818023,-0.8456500768661499,0.3116763830184936,-0.2798376977443695,0.659813404083252,66.29984283447266,24.17,0
-0.408305674791336,-0.9121426343917848,0.3287647664546966,-0.011202672496438,0.6598390340805054,66.2999038696289,24.17,0
-0.4243625402450561,-1.01638925075531,0.3677199780941009,0.1432789415121078,0.6598554849624634,66.29994201660156,24.17,0
-0.4402646720409393,-1.1112775802612305,0.3927192091941833,0.2245034724473953,0.6598660349845886,66.29996490478516,24.17,0
-0.4392742216587066,-1.2113559246063232,0.4535444676876068,0.3482802212238312,0.659872829914093,66.29998016357422,24.17,0
-0.4386385977268219,-1.247591495513916,0.4869808256626129,0.5101122260093689,0.6598771810531616,66.29998779296875,24.17,0
-0.3934485018253326,-1.1644877195358276,0.4524606168270111,0.6677053570747375,0.6598799824714661,66.29999542236328,24.17,0
-0.3420569896697998,-1.1055587530136108,0.4023186564445495,0.8010827302932739,0.6598817706108093,66.29999542236328,24.17,0
-0.3034791052341461,-1.073339343070984,0.3645426630973816,0.7971122860908508,0.6598829030990601,66.29999542236328,24.17,0
-0.2899175882339477,-1.0638582706451416,0.3347024321556091,0.5760271549224854,0.6580475568771362,66.29999542236328,24.17,0
-0.2700190246105194,-1.046578288078308,0.315552681684494,0.2621837854385376,0.6568697690963745,66.29999542236328,24.17,0
-0.2348581850528717,-1.0019023418426514,0.2976657152175903,0.0285340175032615,0.6561139225959778,66.29999542236328,24.17,0
-0.1843051165342331,-0.9452430605888368,0.2861868739128113,-0.0640877485275268,0.6556288599967957,66.29999542236328,24.17,0
-0.1518630683422088,-0.9032846093177797,0.2732226550579071,-0.0482929795980453,0.6553176045417786,66.29999542236328,24.17,0
-0.1590324938297271,-0.8651625514030457,0.2481096386909485,-0.0632348358631134,0.6551178693771362,66.29999542236328,24.17,0
-0.1692311912775039,-0.8518935441970825,0.226395770907402,-0.2412047088146209,0.6549896597862244,66.29999542236328,24.17,0
-0.1869716793298721,-0.8489760756492615,0.2012655138969421,-0.5023011565208435,0.6549074053764343,66.29999542236328,24.17,0
-0.1871609538793563,-0.8862882256507874,0.1907361447811126,-0.6232843399047852,0.6553138494491577,66.28924560546875,24.17,0
-0.1872824132442474,-0.9382218718528748,0.1895767748355865,-0.5719516277313232,0.6555746793746948,66.2823486328125,24.17,0
-0.1817625910043716,-0.9771476984024048,0.1888327598571777,-0.5067660808563232,0.6557421088218689,66.27792358398438,24.17,0
-0.189415842294693,-0.9797369241714478,0.1827575117349624,-0.53658527135849,0.6558495163917542,66.27508544921875,24.17,0
-0.194327250123024,-1.020582914352417,0.1844565421342849,-0.6022949814796448,0.6559184789657593,66.27326202392578,24.17,0
-0.1918813288211822,-1.0691866874694824,0.191144660115242,-0.5262386798858643,0.6559627056121826,66.2720947265625,24.17,0
-0.2183005511760711,-1.0164111852645874,0.2066322565078735,-0.2015718221664428,0.6559910774230957,66.2713394165039,24.17,0
-0.2352548986673355,-0.95455402135849,0.2445601820945739,0.2145700305700302,0.656009316444397,66.27085876464844,24.17,0
-0.1789619177579879,-0.9428465366363524,0.2577045857906341,0.4314698874950409,0.6564799547195435,66.27055358886719,24.15,0
-0.1372385621070861,-0.9353333115577698,0.2437488138675689,0.4488561749458313,0.6567819714546204,66.27035522460938,24.15,0
-0.0992673560976982,-0.9193162322044371,0.2459883540868759,0.549578070640564,0.6569758057594299,66.27022552490234,24.15,0
-0.0972907245159149,-0.9034395813941956,0.2642188668251037,0.7539360523223877,0.6571002006530762,66.2701416015625,24.15,0
-0.1575977504253387,-0.8708598017692566,0.2815159559249878,0.7381955981254578,0.6571800112724304,66.27008819580078,24.15,0
-0.2074948847293853,-0.8611475229263306,0.2814206779003143,0.434323102235794,0.6572312116622925,66.27005767822266,24.15,0
-0.2395159900188446,-0.8549147248268127,0.2757617533206939,0.1640811413526535,0.6572641134262085,66.27003479003906,24.15,0
-0.2600652873516083,-0.8565126657485962,0.2945212721824646,0.0085682915523648,0.657285213470459,66.27001953125,24.15,0
-0.2844482064247131,-0.8687336444854736,0.3177556097507477,-0.2882725596427917,0.6563805341720581,66.27001190185547,24.15,0
-0.3056935369968414,-0.8765763640403748,0.3326660692691803,-0.6614793539047241,0.6557999849319458,66.27000427246094,24.15,0
-0.3305231034755707,-0.8872071504592896,0.3422347605228424,-0.6788622140884399,0.6554273962974548,66.27000427246094,24.15,0
-0.346457302570343,-0.9164205193519592,0.3651686906814575,-0.3425077199935913,0.6551883220672607,66.27000427246094,24.15,0
-0.3622807264328003,-1.0023412704467771,0.4078752398490906,-0.1983062773942947,0.6550348997116089,66.27000427246094,24.15,0
-0.3668375015258789,-1.0742735862731934,0.4352818429470062,-0.449693351984024,0.6549364328384399,66.27000427246094,24.15,0
-0.3809573352336883,-1.1708155870437622,0.4696631729602813,-0.6611751914024353,0.654873251914978,66.27000427246094,24.15,0
-0.3844208419322967,-1.2159773111343384,0.5029226541519165,-0.5067034363746643,0.654832661151886,66.27000427246094,24.15,0
-0.3810457587242126,-1.1609928607940674,0.4906800389289856,-0.1030533835291862,0.6538884043693542,66.27000427246094,24.15,0
-0.3508909344673157,-1.108913779258728,0.4380412399768829,0.40318363904953,0.6532824635505676,66.27000427246094,24.15,0
-0.3259415328502655,-1.0922856330871582,0.3930651545524597,1.0003331899642944,0.652893602848053,66.27000427246094,24.15,0
-0.3043326735496521,-1.0984079837799072,0.3530065417289734,1.5125221014022827,0.6526440382003784,66.27000427246094,24.15,0
-0.2848675847053528,-1.1023370027542114,0.3272992074489593,1.654921531677246,0.6524838805198669,66.27000427246094,24.15,0
-0.2499849051237106,-1.0824673175811768,0.3052039444446563,1.384465217590332,0.6523811221122742,66.27000427246094,24.15,0
-0.1996103376150131,-1.0529227256774902,0.2910244762897491,0.8920526504516602,0.6523151397705078,66.27000427246094,24.15,0
-0.1504895240068435,-1.022767186164856,0.2819249331951141,0.3539309203624725,0.6522728204727173,66.27000427246094,24.15,0
-0.1357599347829818,-0.9754262566566468,0.2592920362949371,-0.0738038420677185,0.6522456407546997,66.2628402709961,24.15,0
-0.1375028789043426,-0.9338499903678894,0.2391697764396667,-0.2157441079616546,0.6522282361984253,66.25823974609375,24.15,0
-0.1610125005245208,-0.907168745994568,0.2038653641939163,-0.0488877594470977,0.6522170305252075,66.25528717041016,24.15,0
-0.1928929388523101,-0.8900462985038757,0.1756112575531005,0.165668323636055,0.6522098779678345,66.2533950805664,24.15,0
-0.2133519798517227,-0.8846558332443237,0.1630771607160568,0.1170641183853149,0.6522052884101868,66.25218200683594,24.15,0
-0.226481407880783,-0.8811965584754944,0.1662290543317794,-0.2007333040237426,0.652202308177948,66.25140380859375,24.15,0
-0.2293093502521515,-0.8845743536949158,0.1794473081827163,-0.472746342420578,0.6522004008293152,66.25090026855469,24.15,0
-0.2255263775587082,-0.8699487447738647,0.2047233432531356,-0.4072760939598083,0.6521992087364197,66.25057983398438,24.15,0
-0.2230986952781677,-0.8661606311798096,0.2153462767601013,-0.042829256504774,0.6512805819511414,66.25037384033203,24.15,0
-0.2327362895011901,-0.8861207365989685,0.2109679132699966,0.2662858664989471,0.650691032409668,66.25023651123047,24.15,0
-0.2613122463226318,-0.8709411025047302,0.2305492311716079,0.2067126929759979,0.6503127217292786,66.25015258789062,24.15,0
-0.2964439690113067,-0.8500041365623474,0.2543109357357025,-0.1503671705722808,0.6500699520111084,66.2500991821289,24.15,0
-0.3133917152881622,-0.8981435298919678,0.303146481513977,-0.4655022919178009,0.6499141454696655,66.25006103515625,24.15,0
-0.2626922726631164,-0.9570254683494568,0.3456818759441376,-0.5244348645210266,0.6498141288757324,66.25003814697266,24.15,0
-0.1965696513652801,-0.9780191779136658,0.3673808574676513,-0.4511945247650146,0.6497499346733093,66.2500228881836,24.15,0
-0.1205493137240409,-0.9467095732688904,0.3869037926197052,-0.5689915418624878,0.6497087478637695,66.25001525878906,24.15,0
-0.08295938372612,-0.9098235368728638,0.3938347101211548,-1.01359224319458,0.6506001949310303,66.25000762939453,24.15,0
-0.1148140728473663,-0.8805544376373291,0.3814892470836639,-1.470874905586243,0.6511722803115845,66.25000762939453,24.15,0
-0.1744410097599029,-0.8673689961433411,0.3511755466461181,-1.495639443397522,0.6515393853187561,66.25000762939453,24.15,0
-0.2127061337232589,-0.8645051121711731,0.3317219614982605,-1.0995357036590576,0.6517750024795532,66.25000762939453,24.15,0
-0.242860272526741,-0.8738627433776855,0.3416288793087005,-0.7092012763023376,0.6519261598587036,66.25000762939453,24.15,0
-0.2790047824382782,-0.8742702007293701,0.342388778924942,-0.5446889400482178,0.652023196220398,66.25000762939453,24.15,0
-0.3301891088485718,-0.8633360862731934,0.337278664112091,-0.4785227477550506,0.6520854830741882,66.25000762939453,24.15,0
-0.3910251557826996,-0.9011014103889464,0.3563903868198395,-0.3966527581214905,0.6521254181861877,66.25000762939453,24.15,0
-0.4356639981269836,-0.9645214676856996,0.3854485154151916,-0.2724618017673492,0.6512331962585449,66.25000762939453,24.15,0
-0.4419195353984833,-1.061198592185974,0.4152919054031372,-0.0709556117653846,0.6506606340408325,66.25000762939453,24.15,0
-0.4403361976146698,-1.1512292623519895,0.4456392228603363,0.2124102413654327,0.6502931714057922,66.25000762939453,24.15,0
-0.4113312363624573,-1.2090057134628296,0.4819076955318451,0.5303959846496582,0.6500573754310608,66.25000762939453,24.15,0
-0.370326429605484,-1.1565189361572266,0.4548027515411377,0.8956767916679382,0.6499060392379761,66.25000762939453,24.15,0
-0.3384141325950622,-1.1116403341293335,0.4150172770023346,1.3952035903930664,0.649808943271637,66.25000762939453,24.15,0
-0.3123368620872497,-1.082839846611023,0.3670941293239593,1.9414734840393064,0.6497466564178467,66.25000762939453,24.15,0
-0.3011997640132904,-1.0699551105499268,0.3307420611381531,2.155900001525879,0.6497066617012024,66.25000762939453,24.15,0
-0.2828570604324341,-1.0616865158081057,0.3130111694335937,1.7561203241348269,0.6487627625465393,66.29657745361328,24.15,0
-0.2374991178512573,-1.0283913612365725,0.3184258043766022,1.023082256317139,0.6481570601463318,66.32646179199219,24.15,0
-0.1971954554319381,-0.9902310967445374,0.3163028359413147,0.5347477197647095,0.6477683186531067,66.34564208984375,24.15,0
-0.1713308840990066,-0.9377531409263612,0.2981471121311188,0.4327346980571747,0.6475188732147217,66.35794830322266,24.15,0
-0.1659280359745025,-0.8928802609443665,0.2753002643585205,0.3708511888980865,0.647358775138855,66.3658447265625,24.15,0
-0.1792541295289993,-0.8640834093093872,0.2438451498746872,0.1269310861825943,0.6472560167312622,66.37091827392578,24.15,0
-0.1934038251638412,-0.851201057434082,0.2180612981319427,-0.1908186674118042,0.6471900939941406,66.3741683959961,24.15,0
-0.1968865096569061,-0.8485316634178162,0.2015147060155868,-0.466383695602417,0.6471477746963501,66.37625885009766,24.15,0
-0.1935237199068069,-0.8636119365692139,0.1964938342571258,-0.6969640851020813,0.6480388641357422,66.37760162353516,24.17,0
-0.1913656741380691,-0.884485125541687,0.1932717263698578,-0.8771805167198181,0.6486107110977173,66.37845611572266,24.17,0
-0.2067740857601165,-0.9258692264556884,0.1968017369508743,-0.9928330779075624,0.6489776968955994,66.3790054321289,24.17,0
-0.2166623175144195,-0.9524271488189696,0.2102626413106918,-1.106460452079773,0.6492131948471069,66.37936401367188,24.17,0
-0.2174102514982223,-0.963872730731964,0.2244988530874252,-1.175797462463379,0.6493642926216125,66.37959289550781,24.17,0
-0.2122924476861953,-1.0104022026062012,0.23923259973526,-1.0089219808578491,0.6494612693786621,66.3797378540039,24.17,0
-0.2202036827802658,-1.0010777711868286,0.2542856633663177,-0.5614862442016602,0.6495234966278076,66.37982940673828,24.17,0
-0.2700628638267517,-0.9503116607666016,0.2919346988201141,-0.0988015234470367,0.6495634317398071,66.37989044189453,24.17,0
-0.2460818737745285,-0.9513195753097534,0.3384867906570434,0.1049759238958358,0.6486708521842957,66.37992858886719,24.17,0
-0.2138989269733429,-0.951966404914856,0.3571656942367553,0.0530372001230716,0.6480980515480042,66.37995147705078,24.17,0
-0.1708546578884124,-0.9411859512329102,0.3579571843147278,-0.0197024121880531,0.6477304697036743,66.37996673583984,24.17,0
-0.1488291025161743,-0.917474329471588,0.3528673648834228,0.0339296050369739,0.6474945545196533,66.37997436523438,24.17,0
-0.1570854634046554,-0.8630731701850891,0.349601000547409,0.1435816287994384,0.6473431587219238,66.3799819946289,24.17,0
-0.184775024652481,-0.8225638270378113,0.3419070541858673,0.221115157008171,0.6472460031509399,66.37998962402344,24.17,0
-0.2081423699855804,-0.807762861251831,0.320176213979721,0.2278807908296585,0.6471836566925049,66.37998962402344,24.17,0
-0.2287359535694122,-0.8206555247306824,0.3006328344345093,0.0459286496043205,0.6471436619758606,66.37998962402344,24.17,0
-0.2475495040416717,-0.8345270752906799,0.3048843443393707,-0.3323657512664795,0.6466590762138367,66.37998962402344,24.17,0
-0.2932096123695373,-0.8434290289878845,0.3244060277938843,-0.6611151695251465,0.6463480591773987,66.37998962402344,24.17,0
-0.333707183599472,-0.8547395467758179,0.3313361406326294,-0.7359497547149658,0.6461485028266907,66.37998962402344,24.17,0
-0.3652939796447754,-0.878791332244873,0.3469790518283844,-0.6155931949615479,0.6460204124450684,66.37998962402344,24.17,0
-0.3911623358726501,-0.9558019042015076,0.3906044065952301,-0.4416257739067077,0.6459382176399231,66.37998962402344,24.17,0
-0.3965676128864288,-1.022016167640686,0.4241984188556671,-0.2547493875026703,0.6458854675292969,66.37998962402344,24.17,0
-0.394438624382019,-1.1316819190979004,0.456952691078186,-0.0345107540488243,0.6458516120910645,66.37998962402344,24.17,0
-0.3762790560722351,-1.213254690170288,0.5003635883331299,0.2429635822772979,0.6458299160003662,66.37998962402344,24.17,0
-0.3590275049209595,-1.198430061340332,0.5058311223983765,0.6324025988578796,0.6462749242782593,66.42298126220703,24.17,0
-0.3311631381511688,-1.110547661781311,0.4421665668487549,1.1832585334777832,0.6465604901313782,66.45057678222656,24.17,0
-0.302085816860199,-1.059747576713562,0.3901147544384002,1.723060131072998,0.6467437744140625,66.4682846069336,24.17,0
-0.2834256887435913,-1.0439403057098389,0.3567109107971191,1.890344858169556,0.6468613743782043,66.47964477539062,24.17,0
-0.2770484685897827,-1.0337961912155151,0.3352742493152618,1.635858416557312,0.64693683385849,66.4869384765625,24.17,0
-0.2617603838443756,-1.0160906314849854,0.3215174376964569,1.2826671600341797,0.6469852924346924,66.49161529541016,24.17,0
-0.2239604890346527,-0.9711416363716124,0.3014935553073883,0.9843578338623048,0.6470163464546204,66.49462127685547,24.17,0
-0.1885071396827697,-0.925502598285675,0.2886433601379394,0.5922958850860596,0.6470363140106201,66.49655151367188,24.17,0
-0.1713529974222183,-0.879420816898346,0.2692013084888458,0.1114082336425781,0.6465901732444763,66.49778747558594,24.15,0
-0.1827355623245239,-0.8666414618492126,0.2399311959743499,-0.2007803469896316,0.6463038325309753,66.49858093261719,24.15,0
-0.1956380009651184,-0.8696359992027283,0.2155495434999466,-0.232743963599205,0.6461201310157776,66.49909210205078,24.15,0
-0.1983202695846557,-0.8939487934112549,0.2055005878210067,-0.1708571314811706,0.6460022330284119,66.49942016601562,24.15,0
-0.1944438219070434,-0.9095513224601746,0.1990517377853393,-0.1812977790832519,0.6459265351295471,66.49962615966797,24.15,0
-0.1975539177656173,-0.919564127922058,0.1893154680728912,-0.284727543592453,0.6458779573440552,66.49976348876953,24.15,0
-0.2163431197404861,-0.9483808875083924,0.1886650621891021,-0.4800755381584167,0.6458467841148376,66.49984741210938,24.15,0
-0.2228031754493713,-0.9724715948104858,0.1882476657629013,-0.673507571220398,0.6458268165588379,66.4999008178711,24.15,0
-0.2213511019945144,-1.0103226900100708,0.1935775876045227,-0.6543380618095398,0.6458140015602112,66.49993896484375,24.15,0
-0.2260170131921768,-1.051406741142273,0.2305846661329269,-0.4449945390224457,0.6458057761192322,66.49996185302734,24.15,0
-0.2066202312707901,-0.9770121574401855,0.2599314451217651,-0.3608059585094452,0.6458004713058472,66.4999771118164,24.15,0
-0.2333569079637527,-0.8620966672897339,0.2787645161151886,-0.5002376437187195,0.645797073841095,66.49998474121094,24.15,0
-0.2393194288015365,-0.8331327438354492,0.3020460605621338,-0.5789691805839539,0.6457948684692383,66.49999237060547,24.15,0
-0.2207547277212143,-0.8873164057731628,0.3337801396846771,-0.3715490996837616,0.6457934975624084,66.49999237060547,24.15,0
-0.2032431960105896,-0.922088384628296,0.3541452288627624,0.0374195016920566,0.6457926034927368,66.49999237060547,24.15,0
-0.192005306482315,-0.9164141416549684,0.3672143816947937,0.3715235292911529,0.6457920074462891,66.49999237060547,24.15,0
-0.2071845680475235,-0.8735883235931396,0.3700036406517029,0.3888905942440033,0.645332396030426,66.49999237060547,24.15,0
-0.2169257402420044,-0.840507447719574,0.3717936277389526,0.1062645688652992,0.6450374126434326,66.49999237060547,24.15,0
-0.2175792902708053,-0.8304735422134399,0.3617467880249023,-0.2004987001419067,0.644848108291626,66.49999237060547,24.15,0
-0.2124009281396865,-0.8352299332618713,0.3497015237808227,-0.3436230719089508,0.6447266340255737,66.49999237060547,24.15,0
-0.2090777605772018,-0.8438800573348999,0.3475693464279175,-0.4856280982494354,0.6446486711502075,66.49999237060547,24.15,0
-0.2461295574903488,-0.8494312167167664,0.351798802614212,-0.8561996221542358,0.644598662853241,66.49999237060547,24.15,0
-0.2699072659015655,-0.8473958969116211,0.3489152491092682,-1.2982178926467896,0.644566535949707,66.49999237060547,24.15,0
-0.301959753036499,-0.8460897207260132,0.3414669930934906,-1.3669252395629885,0.6445459127426147,66.49999237060547,24.15,0
-0.3393225371837616,-0.8676425814628601,0.3422848880290985,-0.9058745503425598,0.6449919939041138,66.7042007446289,24.15,0
-0.3744953572750091,-0.9542450308799744,0.3819941878318786,-0.26607146859169,0.6452782154083252,66.83525085449219,24.15,0
-0.3522850573062897,-1.104983687400818,0.4298684298992157,0.1588476151227951,0.645461916923523,66.91934967041016,24.15,0
-0.29884734749794,-1.2073168754577637,0.4773846864700317,0.3670498430728912,0.6455798149108887,66.97332000732422,24.15,0
-0.2981407344341278,-1.1946195363998413,0.4854868054389953,0.5973916053771973,0.6456554532051086,67.0079574584961,24.15,0
-0.3088828325271606,-1.1416889429092407,0.4570996165275574,0.9816616773605348,0.6457040309906006,67.03018188476562,24.15,0
-0.3157764971256256,-1.0741344690322876,0.4052956998348236,1.4432185888290403,0.6457352042198181,67.04444885253906,24.15,0
-0.3034071326255798,-1.025184154510498,0.3664531707763672,1.7071760892868042,0.6457551717758179,67.05360412597656,24.15,0
-0.3010669350624084,-0.9881728887557985,0.3415262699127197,1.5147286653518677,0.6453087329864502,67.05947875976562,24.17,0
-0.2995651364326477,-0.9532256126403807,0.3255296051502228,0.97923082113266,0.6450222134590149,67.06324768066406,24.17,0
-0.2762102782726288,-0.9307984709739684,0.309666097164154,0.5209367275238037,0.6448383331298828,67.06566619873047,24.17,0
-0.2332336008548736,-0.9164060354232788,0.2938880324363708,0.3056465983390808,0.6447203755378723,67.06721496582031,24.17,0
-0.1832625418901443,-0.9183653593063354,0.2837625741958618,0.1029994338750839,0.6446446776390076,67.0682144165039,24.17,0
-0.1511939913034439,-0.9196227192878724,0.277264654636383,-0.2169243842363357,0.6445960998535156,67.06885528564453,24.17,0
-0.1306142508983612,-0.9204295873641968,0.2674968838691711,-0.4580588042736053,0.6445649266242981,67.06926727294922,24.17,0
-0.1230051293969154,-0.9097518920898438,0.2500329315662384,-0.5053277015686035,0.6445448994636536,67.06952667236328,24.17,0
-0.1349153518676757,-0.8917039632797241,0.2276300340890884,-0.4926712810993194,0.6440731287002563,67.06969451904297,24.17,0
-0.1761453002691269,-0.8969151973724365,0.1964598298072815,-0.5275400280952454,0.6437703371047974,67.0698013305664,24.17,0
-0.213799849152565,-0.9282483458518982,0.1652610301971435,-0.5678296685218811,0.6435760259628296,67.06986999511719,24.17,0
-0.2435621470212936,-0.9483561515808104,0.1900216341018676,-0.6008504033088684,0.6434513330459595,67.06991577148438,24.17,0
-0.2570641040802002,-0.9444668292999268,0.2227048873901367,-0.7080230116844177,0.6433713436126709,67.0699462890625,24.17,0
-0.237740010023117,-0.919579803943634,0.2548746764659881,-0.8627820014953613,0.6433199644088745,67.0699691772461,24.17,0
-0.2589255571365356,-0.9204020500183104,0.269921600818634,-0.8582027554512024,0.6432870030403137,67.06997680664062,24.17,0
-0.2613256871700287,-0.9041364192962646,0.296371191740036,-0.6259791851043701,0.6432658433914185,67.06998443603516,24.17,0
-0.2740615010261535,-0.8545136451721191,0.3357360959053039,-0.3515613675117492,0.6437112092971802,67.06999206542969,24.17,0
-0.259843498468399,-0.8394619226455688,0.3609982430934906,-0.1396300345659256,0.6439970135688782,67.06999206542969,24.17,0
-0.2227303385734558,-0.8745847940444946,0.3604167103767395,0.0966873988509178,0.644180417060852,67.06999206542969,24.17,0
-0.1821199357509613,-0.9195157289505004,0.3600434958934784,0.2805855274200439,0.6442981362342834,67.06999206542969,24.17,0
-0.1560585051774978,-0.9427520632743835,0.3709995448589325,0.1979765146970749,0.6443737149238586,67.06999206542969,24.17,0
-0.1505293399095535,-0.9240771532058716,0.3948238492012024,-0.0090879462659358,0.644422173500061,67.06999206542969,24.17,0
-0.1581765860319137,-0.8952993154525757,0.4045151174068451,0.0765671208500862,0.6444532871246338,67.06999206542969,24.17,0
-0.1854752451181411,-0.8712335824966431,0.3771477937698364,0.4468022584915161,0.6444732546806335,67.06999206542969,24.17,0
-0.2253850549459457,-0.8725829124450684,0.3315961360931396,0.6557372212409973,0.6444860696792603,67.3351058959961,24.17,0
-0.2565946280956268,-0.8734488487243652,0.3023636937141418,0.4279795587062835,0.6444942951202393,67.50524139404297,24.17,0
-0.3046120107173919,-0.8684067726135254,0.2947995662689209,-0.0477791614830493,0.6444995403289795,67.61442565917969,24.17,0
-0.3466223776340484,-0.8539755344390869,0.3011408746242523,-0.2921899557113647,0.6445029377937317,67.68449401855469,24.17,0
-0.3735821843147278,-0.8559099435806274,0.3164059221744537,-0.0083819134160876,0.6445051431655884,67.72945404052734,24.17,0
-0.4076767861843109,-0.8907379508018494,0.3429954648017883,0.4388603568077087,0.6445065140724182,67.75830841064453,24.17,0
-0.4351544976234436,-0.941077470779419,0.376852422952652,0.4535989463329315,0.6445074081420898,67.77682495117188,24.17,0
-0.4192014634609222,-0.9789802432060242,0.398579865694046,0.1155474707484245,0.6445080041885376,67.78871154785156,24.17,0
-0.4089637398719787,-1.0256952047348022,0.4181210696697235,-0.0189952496439218,0.6431315541267395,67.79634094238281,24.15,0
-0.4023937582969665,-1.083662986755371,0.4586503505706787,0.252920538187027,0.642248272895813,67.80123138427734,24.15,0
-0.3981775045394897,-1.098472237586975,0.4678663909435272,0.7677651643753052,0.641681432723999,67.80437469482422,24.15,0
-0.3954717516899109,-1.0687916278839111,0.4457918405532837,1.2772915363311768,0.6413176655769348,67.80638885498047,24.15,0
-0.3601487278938293,-1.0049620866775513,0.4148323535919189,1.3284178972244265,0.6410841941833496,67.80767822265625,24.15,0
-0.3374804258346557,-0.9639999866485596,0.3781710267066955,0.6769559383392334,0.6409343481063843,67.80850982666016,24.15,0
-0.3285309970378876,-0.9768972396850586,0.3434483408927917,-0.1853542327880859,0.6408382058143616,67.80904388427734,24.15,0
-0.30599445104599,-1.0131628513336182,0.3155675530433655,-0.6563360095024109,0.640776515007019,67.80938720703125,24.15,0
-0.2803362309932709,-1.0252405405044556,0.3032730221748352,-0.8152819871902466,0.6407369375228882,67.80960845947266,24.15,0
-0.2470769435167312,-1.016197919845581,0.2841875553131103,-1.0104312896728516,0.6407115459442139,67.80974578857422,24.15,0
-0.214537501335144,-1.004797101020813,0.271939605474472,-1.214483618736267,0.6406952142715454,67.8098373413086,24.15,0
-0.1880577951669693,-0.980687379837036,0.252884030342102,-1.2558681964874268,0.6406847238540649,67.80989837646484,24.15,0
-0.1822601854801178,-0.9540196061134338,0.2238619327545166,-1.153453707695007,0.6406780481338501,67.8099365234375,24.15,0
-0.1897351592779159,-0.936905801296234,0.1996394395828247,-0.9945830702781676,0.6406737565994263,67.8099594116211,24.15,0
-0.2169232666492462,-0.9427164793014526,0.1896926164627075,-0.8639684319496155,0.6406709551811218,67.80997467041016,24.15,0
-0.2231754809617996,-0.9464454054832458,0.1833093166351318,-0.8912073373794556,0.6406691670417786,67.80998229980469,24.15,0
-0.2215900123119354,-0.9488384127616882,0.1848106533288955,-1.0412429571151731,0.6420448422431946,67.80998992919922,24.15,0
-0.2149747759103775,-0.9335808157920836,0.1857741326093673,-0.9512332677841188,0.6429276466369629,67.80998992919922,24.15,0
-0.2051317244768142,-0.9181915521621704,0.1863924413919448,-0.3095103800296783,0.643494188785553,67.80998992919922,24.15,0
-0.193217247724533,-0.8859245181083679,0.1979847848415374,0.6432793140411377,0.6438577771186829,67.80998992919922,24.15,0
-0.1911689937114715,-0.8484240770339966,0.2110218554735183,1.3693673610687256,0.6440910696983337,67.80998992919922,24.15,0
-0.2010501027107238,-0.8187606930732727,0.2193882912397384,1.6741129159927368,0.6442407965660095,67.80998992919922,24.15,0
-0.2241845428943634,-0.8221155405044556,0.2359529435634613,1.798029541969299,0.6443368792533875,67.80998992919922,24.15,0
-0.2446286678314209,-0.8186706900596619,0.2577787339687347,1.8918824195861816,0.64439857006073,67.80998992919922,24.15,0
-0.2689440846443176,-0.7940688729286194,0.3053719103336334,1.7694004774093628,0.6439791917800903,67.96404266357422,24.15,0
-0.2845483124256134,-0.7782808542251587,0.3639033436775207,1.311045527458191,0.6437100768089294,68.06290435791016,24.15,0
-0.2665733397006988,-0.7961378693580627,0.4126609861850738,0.748206615447998,0.6435373425483704,68.12635040283203,24.15,0
-0.2158536165952682,-0.8747708201408386,0.4159619808197021,0.3655135333538055,0.6434265375137329,68.16706848144531,24.15,0
-0.1721090674400329,-0.9868084192276,0.4180803596973419,0.1772443354129791,0.6433554291725159,68.19319915771484,24.15,0
-0.1552318930625915,-1.097892165184021,0.4362331330776214,0.0671717301011085,0.6433097720146179,68.20996856689453,24.15,0
-0.1555966436862945,-1.1467881202697754,0.4478825330734253,-0.0966134890913963,0.6432804465293884,68.2207260131836,24.15,0
-0.2062106877565384,-1.1277867555618286,0.4329673647880554,-0.4811623096466064,0.6432616710662842,68.22763061523438,24.15,0
-0.2610829472541809,-1.059615135192871,0.3730157017707824,-1.064705729484558,0.6432496309280396,68.23206329345703,24.13,0
-0.3018946051597595,-0.9990731477737428,0.3121510744094848,-1.5000940561294556,0.6432418823242188,68.23490905761719,24.13,0
-0.3448784947395324,-0.9490252137184144,0.2562983334064483,-1.4893126487731934,0.6432369351387024,68.23673248291016,24.13,0
-0.3668653070926666,-0.9113095998764038,0.2316508144140243,-1.0811452865600586,0.6432337164878845,68.23789978027344,24.13,0
-0.3697796165943146,-0.870312511920929,0.249420091509819,-0.5433486700057983,0.6432316899299622,68.23865509033203,24.13,0
-0.3660520911216736,-0.838405191898346,0.2664211690425873,-0.1659785509109497,0.6432303786277771,68.2391357421875,24.13,0
-0.3692577481269836,-0.8403199911117554,0.2885270416736603,-0.0384465456008911,0.6432295441627502,68.23944091796875,24.13,0
-0.354521632194519,-0.8695377111434937,0.3307021856307983,0.1042999476194381,0.6432290077209473,68.23963928222656,24.13,0
-0.3394670784473419,-0.8938857316970825,0.3633655309677124,0.5434162616729736,0.6427696943283081,68.2397689819336,24.13,0
-0.3130125999450683,-0.8927175402641296,0.4011203050613403,1.1368999481201172,0.6424749493598938,68.23985290527344,24.13,0
-0.2792423069477081,-0.8919678926467896,0.4253491461277008,1.467607498168945,0.6422858238220215,68.23990631103516,24.13,0
-0.2295816093683242,-0.9082801342010498,0.4297022819519043,1.3538222312927246,0.642164409160614,68.23993682861328,24.13,0
-0.2089077830314636,-0.9075528383255004,0.421300321817398,0.9512044191360474,0.6420865058898926,68.23995971679688,24.13,0
-0.2012382894754409,-0.9126838445663452,0.4103106558322906,0.4205517470836639,0.642036497592926,68.23997497558594,24.13,0
-0.1963164359331131,-0.9271721839904784,0.3864648044109344,-0.1098671033978462,0.6420044302940369,68.23998260498047,24.13,0
-0.1931578814983368,-0.9308722019195556,0.3711619079113006,-0.3893555998802185,0.6419838666915894,68.239990234375,24.13,0
-0.1743375808000564,-0.9388444423675536,0.3557436168193817,-0.3036046624183655,0.6419706344604492,68.239990234375,24.13,0
-0.1454664766788482,-0.932765007019043,0.3234579265117645,-0.087358720600605,0.6419621706008911,68.239990234375,24.13,0
-0.1381342113018036,-0.923265814781189,0.2915433049201965,0.0155897177755832,0.6419567465782166,68.239990234375,24.13,0
-0.1222332343459129,-0.9227675199508668,0.2654645442962646,0.0135871591046452,0.6419532299041748,68.239990234375,24.13,0
-0.1120288968086242,-0.916849970817566,0.2487287074327469,-0.0915926545858383,0.6419509649276733,68.239990234375,24.13,0
-0.099882572889328,-0.918650209903717,0.2547819316387176,-0.3382197618484497,0.6419495344161987,68.239990234375,24.13,0
-0.0920877605676651,-0.9086099863052368,0.264264315366745,-0.5502294898033142,0.6419486403465271,68.239990234375,24.13,0
-0.0982810482382774,-0.9021667242050172,0.2703495621681213,-0.5322343707084656,0.6419480443000793,68.239990234375,24.13,0
-0.1134510859847068,-0.9148251414299012,0.285450279712677,-0.3881308734416961,0.6433247923851013,68.37255096435547,24.13,0
-0.134381890296936,-0.934144139289856,0.2951410412788391,-0.2849058210849762,0.6442083120346069,68.4576187133789,24.13,0
-0.1590096354484558,-0.9633352756500244,0.3069577813148498,-0.2652353942394256,0.6447753310203552,68.51220703125,24.13,0
-0.1524232029914856,-0.9428840279579164,0.3201388716697693,-0.3815847635269165,0.645139217376709,68.5472412109375,24.13,0
-0.1481964141130447,-0.9185640811920166,0.3285977244377136,-0.6568753123283386,0.645372748374939,68.5697250366211,24.13,0
-0.1510816663503646,-0.8917613625526428,0.35081946849823,-0.8872795701026917,0.6455225944519043,68.58415222167969,24.13,0
-0.1529332548379898,-0.8745609521865845,0.3650800883769989,-0.7879420518875122,0.645618736743927,68.59341430664062,24.13,0
-0.1821103692054748,-0.8691204786300659,0.363036185503006,-0.3408573567867279,0.6456804275512695,68.59935760498047,24.13,0
-0.1840412467718124,-0.8992157578468323,0.3897134065628052,0.1144368946552276,0.645260751247406,68.6031723022461,24.15,0
-0.2244647890329361,-0.9017358422279358,0.4124310910701751,0.2668980956077575,0.6449914574623108,68.60562133789062,24.15,0
-0.2839929461479187,-0.8809619545936584,0.3990211188793182,0.2250184714794159,0.6448186039924622,68.60719299316406,24.15,0
-0.3109991252422333,-0.8620327115058899,0.3736220598220825,0.3701061606407165,0.6447076797485352,68.60820007324219,24.15,0
-0.2667546272277832,-0.8610805869102478,0.3797135055065155,0.8572983741760254,0.6446365118026733,68.60884857177734,24.15,0
-0.2607521414756775,-0.8716651201248169,0.3836226165294647,1.4887995719909668,0.6445908546447754,68.60926055908203,24.15,0
-0.2457045614719391,-0.867262065410614,0.3917290568351745,1.93705153465271,0.6445615291595459,68.60952758789062,24.15,0
-0.1912656873464584,-0.9036208987236024,0.3969312906265259,1.9488556385040283,0.6445426940917969,68.60969543457031,24.15,0
-0.2067099213600158,-0.8317916989326477,0.4058675765991211,1.4333747625350952,0.6445306539535522,68.60980224609375,24.15,0
-0.1942300498485565,-0.8472713828086853,0.4004068076610565,0.5795127749443054,0.6445229053497314,68.60987091064453,24.15,0
-0.1918189525604248,-0.8739987015724182,0.3857068419456482,-0.2335573732852935,0.6445179581642151,68.60991668701172,24.15,0
-0.19586943089962,-0.8799551725387573,0.3762732744216919,-0.744591236114502,0.6445147395133972,68.60994720458984,24.15,0
-0.2152621150016784,-0.8893755078315735,0.370219349861145,-0.9579009413719176,0.6445127129554749,68.60997009277344,24.15,0
-0.2724894285202026,-0.8842253684997559,0.3831275999546051,-0.958652913570404,0.6445114016532898,68.60997772216797,24.15,0
-0.2700302004814148,-0.8865180611610413,0.4082047045230865,-0.7011900544166565,0.6445105671882629,68.6099853515625,24.15,0
-0.2460609078407287,-0.8655983209609985,0.4634821712970733,-0.2027857005596161,0.64451003074646,68.60999298095703,24.15,0
-0.2194832414388656,-0.8521732091903687,0.4653694033622741,0.2030433416366577,0.6412964463233948,68.60999298095703,24.15,0
