acc_x,acc_y,acc_z,bvp,eda,hr,temp,label
0.0,0.0,0.0,0.0,0.0,0.0,35.93,2
-0.0390624962747097,-0.1614583283662796,0.0338541641831398,0.3899999558925628,0.1529614925384521,30.65499687194824,35.93,2
-0.0872713401913642,-0.3780487775802612,0.0792682915925979,2.0614633560180664,0.358153760433197,71.77755737304688,35.93,2
-0.1142545714974403,-0.5614618062973022,0.1187707632780075,4.217010021209717,0.53663569688797,107.54710388183594,35.93,2
-0.1606312990188598,-0.6899333000183105,0.1529281437397003,5.943337917327881,0.6668478846549988,133.64291381835938,35.93,2
-0.2084994465112686,-0.7824036478996277,0.1760541349649429,6.809980392456055,0.7550070285797119,151.31088256835938,35.93,2
-0.1954832375049591,-0.8430774807929993,0.1745688766241073,7.151168346405029,0.812852144241333,162.9036102294922,35.93,2
-0.2149499356746673,-0.8823729753494263,0.1680276244878769,8.14699649810791,0.8503155708312988,170.41165161132812,35.93,2
-0.2274898439645767,-0.913276195526123,0.1638139337301254,10.670357704162598,0.8753654360771179,175.2481231689453,35.93,2
-0.2355497628450393,-0.9331389665603638,0.1555109769105911,14.401185035705566,0.8914660215377808,178.3567352294922,35.93,2
-0.2463219612836837,-0.9402974843978882,0.1557756811380386,16.796951293945312,0.9018051028251648,180.3529357910156,35.93,2
-0.2588340044021606,-0.9504898190498352,0.150348350405693,14.906622886657717,0.9084419012069702,181.6343231201172,35.93,2
-0.2668643891811371,-0.9570314288139344,0.1524625718593597,9.258331298828123,0.9127014875411988,182.45672607421875,35.93,2
-0.2720180451869964,-0.9556319713592528,0.1538194268941879,2.04015588760376,0.9154351353645324,182.98452758789065,35.93,2
-0.2697277069091797,-0.9547338485717772,0.1546901911497116,-4.809738636016846,0.9171894788742064,183.3232421875,35.93,2
-0.2738556563854217,-0.95975524187088,0.1496512442827224,-9.63554859161377,0.918315291404724,183.5406188964844,35.93,2
-0.2877002656459808,-0.957379937171936,0.1464175283908844,-11.675626754760742,0.9213327765464784,183.6801147460937,35.93,2
-0.2965849637985229,-0.9558555483818054,0.1443423181772232,-11.494482040405272,0.923269271850586,183.76963806152344,35.93,2
-0.2966888844966888,-0.9548773169517516,0.1486083418130874,-9.905795097351074,0.924511969089508,183.8270874023437,35.93,2
-0.2911577820777893,-0.9542495608329772,0.1513460278511047,-7.564297199249268,0.9253094792366028,183.86395263671875,35.93,2
-0.2932060062885284,-0.9538466930389404,0.1531029194593429,-5.22333574295044,0.9258212447166444,183.8876190185547,35.93,2
-0.2945204377174377,-0.9535881280899048,0.154230386018753,-3.7819454669952393,0.9261496663093568,183.90280151367188,35.93,2
-0.2897661924362182,-0.95342218875885,0.1549539268016815,-3.351339340209961,0.9263604283332824,183.9125366210937,35.93,2
-0.2811174392700195,-0.9533157348632812,0.1610160320997238,-3.153817892074585,0.9264957308769226,183.91879272460932,35.93,2
-0.2755671441555023,-0.9532474279403688,0.1649063378572464,-2.7153759002685547,0.9224510788917542,183.9228057861328,35.93,2
-0.2720052897930145,-0.953203558921814,0.1618051379919052,-2.2154719829559326,0.9198554754257202,183.9253845214844,35.93,2
-0.269719511270523,-0.95317542552948,0.1654127389192581,-1.998557090759277,0.9181897640228271,183.92703247070312,35.93,2
-0.2682526111602783,-0.953157365322113,0.1621301174163818,-2.285680055618286,0.9171208143234252,183.9281005859375,35.93,2
-0.2673112452030182,-0.9531457424163818,0.1600235253572464,-2.992995262145996,0.9164348244667052,183.92877197265625,35.93,2
-0.2723049223423004,-0.9531382918357848,0.1586716324090957,-3.4469094276428223,0.9159945845603944,183.92921447753903,35.93,2
-0.2755095660686493,-0.9531335234642028,0.1578040570020675,-2.82464861869812,0.9157120585441588,183.9294891357422,35.93,2
-0.2775661051273346,-0.9531304836273192,0.1572473049163818,-1.05319082736969,0.9155307412147522,183.9296722412109,35.93,2
-0.2788859009742737,-0.9531285166740416,0.1568900197744369,1.2766263484954834,0.9149554967880248,184.1411590576172,35.93,2
-0.2797328531742096,-0.9587250351905824,0.156660720705986,3.5491878986358643,0.914586305618286,184.27688598632807,35.93,2
-0.2802763879299164,-0.9567188024520874,0.1565135717391967,5.347931861877441,0.914349377155304,184.36398315429688,35.93,2
-0.2806251943111419,-0.9554312825202942,0.1564191430807113,6.222821235656738,0.914197325706482,184.4198760986328,35.93,2
-0.2808490395545959,-0.9546050429344176,0.156358540058136,5.684423923492432,0.9140997529029846,184.45574951171875,35.93,2
-0.2809926867485046,-0.9540748000144958,0.15631964802742,3.941707372665405,0.9140371680259703,184.4787750244141,35.93,2
-0.2810848653316498,-0.9481367468833924,0.1562947034835815,1.8632018566131592,0.9139969944953918,184.49354553222656,35.93,2
-0.2811440229415893,-0.949923813343048,0.1562786847352981,0.0134457647800445,0.913971185684204,184.5030212402344,35.93,2
-0.2867797613143921,-0.9510706663131714,0.1562684029340744,-1.865058422088623,0.9139546155929564,184.5091094970703,35.93,2
-0.2903964519500732,-0.951806664466858,0.1562618166208267,-4.489274024963379,0.9139440059661864,184.5130157470703,35.93,2
-0.2927174270153045,-0.9466812014579772,0.1562575846910476,-8.061362266540527,0.913937211036682,184.51551818847656,35.93,2
-0.2942069172859192,-0.948989748954773,0.1618526428937912,-11.661362648010254,0.9139328598976136,184.51712036132807,35.93,2
-0.2951627671718597,-0.9504712224006652,0.1598454564809799,-12.155269622802734,0.9139300584793092,184.5181579589844,35.93,2
-0.2957761883735657,-0.9514219760894777,0.1641551256179809,-6.020012378692627,0.9139282703399658,184.5188140869141,35.93,2
-0.2961698472499847,-0.9520320892333984,0.1669208258390426,4.537842273712158,0.9139270782470704,184.5192413330078,35.93,2
-0.2908247113227844,-0.9580214023590088,0.1630979180335998,12.513428688049316,0.9139263033866882,184.5195159912109,35.93,2
-0.2873944938182831,-0.9674627780914308,0.1606446057558059,14.113611221313477,0.9120897650718688,184.51968383789065,35.93,2
-0.2795954048633575,-0.962326169013977,0.1590702086687088,11.633174896240234,0.9109112024307252,184.51980590820312,35.93,2
-0.2801881730556488,-0.9590297937393188,0.1580598503351211,7.863167762756348,0.9101548790931702,184.51988220214844,35.93,2
-0.2861663401126861,-0.940121054649353,0.1518136858940124,3.455465078353882,0.9096694588661194,184.5199279785156,35.93,2
-0.3011983335018158,-0.9279865026474,0.153403028845787,-0.637794017791748,0.9093579649925232,184.5199584960937,35.93,2
-0.3108450174331665,-0.9257969856262208,0.1544229835271835,-3.253864526748657,0.9091580510139464,184.5199737548828,35.93,2
-0.3226334750652313,-0.935587465763092,0.1662730723619461,-5.222896575927734,0.90902978181839,184.51998901367188,35.93,2
-0.3301986157894134,-0.941870391368866,0.1738777756690979,-7.507542133331299,0.9089474678039552,184.51998901367188,35.93,2
-0.340651273727417,-0.9459024667739868,0.1731602698564529,-8.715750694274902,0.9098125100135804,184.51998901367188,35.93,2
-0.3473591804504394,-0.9540877938270568,0.1726998090744018,-7.248416900634766,0.9103676080703736,184.51998901367188,35.93,2
-0.3516639471054077,-0.9593406319618224,0.1724043190479278,-4.440244674682617,0.910723865032196,184.51998901367188,35.93,2
-0.3544265031814575,-0.9627116322517396,0.1722146868705749,-3.042952537536621,0.9109525084495544,184.51998901367188,35.93,2
-0.3561993539333343,-0.9592771530151368,0.1720929890871048,-3.733331680297852,0.9110991954803468,184.51998901367188,35.93,2
-0.3629348278045654,-0.94027978181839,0.166417121887207,-5.261898040771484,0.9111933708190918,184.51998901367188,35.93,2
-0.3616594970226288,-0.933686137199402,0.1683724522590637,-6.622596740722656,0.911253809928894,184.51998901367188,35.93,2
-0.3552432954311371,-0.9294546842575072,0.1752250343561172,-7.370424747467041,0.911292552947998,184.51998901367188,35.93,2
-0.3455279469490051,-0.9379347562789916,0.1796226352453231,-7.026345252990723,0.9108585119247437,184.7134552001953,35.93,2
-0.3336954414844513,-0.9433767795562744,0.182444766163826,-5.548050880432129,0.9105799794197084,184.8376007080078,35.93,2
-0.3261020183563232,-0.946869134902954,0.184255838394165,-3.492350816726685,0.9104012250900269,184.9172821044922,35.93,2
-0.3156312108039856,-0.9491103291511536,0.1798203140497207,-1.5139268636703491,0.9102864861488342,184.96841430664065,35.93,2
-0.3089116513729095,-0.9505485892295836,0.1769738495349884,0.0673958882689476,0.9102128744125366,185.001220703125,35.93,2
-0.2934038937091827,-0.9570693969726562,0.1807449162006378,1.1610143184661863,0.9101656675338744,185.02227783203125,35.93,2
-0.2834518849849701,-0.961254060268402,0.183164969086647,1.8341751098632808,0.9101353287696838,185.03579711914065,35.93,2
-0.2770652770996094,-0.969537317752838,0.1847180277109146,2.212432384490967,0.9101158976554872,185.04446411132807,35.93,2
-0.2729667127132416,-1.0028419494628906,0.1969102323055267,2.279629945755005,0.9087262749671936,185.050033569336,35.93,2
-0.2591409385204315,-1.046605944633484,0.1991367191076278,1.8892618417739868,0.9078344702720642,185.05360412597656,35.93,2
-0.2390727996826172,-1.091484546661377,0.1837722212076187,1.1192724704742432,0.9072621464729308,185.055892944336,35.93,2
-0.2261942327022552,-1.1314805746078491,0.1627166271209716,0.4854172468185425,0.906894862651825,185.057357788086,35.93,2
-0.2011361867189407,-1.1347566843032837,0.1436065882444381,0.7593348026275635,0.9066591858863832,185.0583038330078,35.93,2
-0.145870953798294,-1.030501365661621,0.0921584442257881,2.368149757385254,0.9065079092979432,185.0589141845703,35.93,2
-0.1048071309924125,-0.9412052035331726,0.0535442121326923,4.654495716094971,0.9064108729362488,185.05929565429688,35.93,2
-0.0616614110767841,-0.9118888974189758,0.0343615934252738,6.13248872756958,0.9063485860824584,185.05953979492188,35.93,2
-0.067559614777565,-0.9378575682640076,0.0388446152210235,5.744678974151611,0.9067675471305848,185.0597076416016,35.93,2
-0.0825402960181236,-0.9545227885246276,0.047319334000349,3.643613338470459,0.9070364236831664,185.059814453125,35.93,2
-0.0921540334820747,-0.9260331392288208,0.0527579225599765,0.8120840191841125,0.9072089791297911,185.05987548828125,35.93,2
-0.0983235761523246,-0.9021523594856262,0.0562480948865413,-1.6749701499938965,0.907319724559784,185.05992126464844,35.93,2
-0.1134783774614334,-0.8812292814254761,0.0696834325790405,-3.1778712272644043,0.9073907732963562,185.05995178222656,35.93,2
-0.128801628947258,-0.8622042536735535,0.1006965562701225,-3.776923894882202,0.9074363708496094,185.0599670410156,35.93,2
-0.1442329883575439,-0.8499950766563416,0.1261967718601226,-3.992980480194092,0.907465636730194,185.0599822998047,35.93,2
-0.17092926800251,-0.8533555269241333,0.1481591165065765,-4.257023334503174,0.9074844121932985,185.0599822998047,35.93,2
-0.199256956577301,-0.8499142527580261,0.1622532904148101,-4.759650230407715,0.9070374965667723,185.0599822998047,35.93,2
-0.2286315858364105,-0.8533036112785339,0.182493656873703,-5.540777206420898,0.906750738620758,185.0599822998047,35.93,2
-0.2474825233221054,-0.8666743040084839,0.2010805457830429,-6.60810661315918,0.9065666794776917,185.0599822998047,35.93,2
-0.2707755267620086,-0.9088414907455444,0.2298018634319305,-7.812530517578125,0.9064485430717468,185.0599822998047,35.93,2
-0.3025169670581817,-0.969488561153412,0.2594290971755981,-8.803997039794922,0.9063727855682372,185.0599822998047,35.93,2
-0.3172890245914459,-1.019603967666626,0.2784421443939209,-9.347116470336914,0.9063241481781006,185.0599822998047,35.93,2
-0.3267688751220703,-1.0965473651885986,0.2794480919837951,-9.85329246520996,0.9062929153442384,185.0599822998047,35.93,2
-0.3496458232402801,-1.157120704650879,0.2856914103031158,-11.113179206848145,0.9062728881835938,185.0599822998047,35.93,2
-0.4035113453865051,-1.1791998147964478,0.2896980047225952,-12.964232444763184,0.9058011174201964,185.24627685546875,35.93,2
-0.4380791485309601,-1.1150001287460327,0.2698781192302704,-13.67206573486328,0.9054983258247375,185.36582946777344,35.93,2
-0.4378716647624969,-1.084995985031128,0.245963305234909,-11.59343147277832,0.9053040146827698,185.44256591796875,35.93,2
-0.4041518568992615,-1.1105232238769531,0.2306161522865295,-7.128313064575195,0.9051793217658995,185.49180603027344,35.93,2
-0.3713168799877167,-1.171687364578247,0.2207672446966171,-2.3390138149261475,0.9050993323326112,185.52340698242188,35.93,2
-0.327854186296463,-1.2053412199020386,0.2144467830657959,0.9028639197349548,0.9050479531288148,185.543685913086,35.93,2
-0.2663756906986236,-1.16536283493042,0.1991951167583465,1.937202215194702,0.905014991760254,185.55670166015625,35.93,2
-0.2157267779111862,-1.094924807548523,0.1670163869857788,1.2790106534957886,0.9049938321113586,185.56504821777344,35.93,2
-0.1832232177257537,-0.9993417859077454,0.1295726001262664,0.1186105385422706,0.9036031365394592,185.5704040527344,35.93,2
-0.1735598593950271,-0.9268065094947816,0.0943477824330329,-0.6081544756889343,0.9027106761932372,185.57383728027344,35.93,2
-0.1785540133714676,-0.8802575469017029,0.060546975582838,-0.8524307608604431,0.9021379351615906,185.5760498046875,35.93,2
-0.2097478508949279,-0.8615806698799133,0.0276600141078233,-0.9769501090049744,0.9017704129219056,185.5774688720703,35.93,2
-0.2353640347719192,-0.8495949506759644,0.0009572823182679,-1.1177631616592407,0.9015345573425292,185.578369140625,35.93,2
-0.2294119298458099,-0.8475009799003601,-0.0161789953708648,-1.37292742729187,0.9013831615447998,185.57894897460932,35.93,2
-0.2032011151313781,-0.8685482740402222,-0.0271760709583759,-1.9486733675003047,0.901286005973816,185.579330444336,35.93,2
-0.1471960991621017,-0.8932507634162903,-0.0230378117412328,-2.7122373580932617,0.9012236595153807,185.5795745849609,35.93,2
0.0007001866470091,-0.92589670419693,-0.0091865668073296,-3.144927501678467,0.9011836647987366,185.5797271728516,35.93,2
0.0956115052103996,-1.019618034362793,0.0053001386113464,-2.8959643840789795,0.9011579751968384,185.579818725586,35.93,2
0.016575763002038,-1.197316288948059,-0.013391999527812,-2.2417988777160645,0.9011415243148804,185.5798797607422,35.93,2
-0.1461003124713897,-1.204995036125183,0.0026013350579887,-1.933052897453308,0.9011309742927552,185.57992553710932,35.93,2
-0.2448986768722534,-1.142749547958374,0.0632449015974998,-2.4621803760528564,0.9011241793632508,185.5799560546875,35.93,2
-0.2075418382883072,-1.1139994859695437,0.1469446420669555,-3.45019006729126,0.901119828224182,185.57997131347656,35.93,2
-0.1331884115934372,-1.1067450046539309,0.1782672256231308,-3.8549530506134033,0.9011170268058776,185.5799865722656,35.93,2
-0.0798748806118965,-1.1188827753067017,0.159183844923973,-2.803483963012696,0.9011152386665344,185.5799865722656,35.93,2
-0.0904435217380523,-1.0594987869262695,0.1973171979188919,-0.2836851477622986,0.9006547927856445,185.5799865722656,35.93,2
-0.1196169629693031,-0.9989984631538392,0.2441800832748413,2.648181915283203,0.9003592729568481,185.5799865722656,35.93,2
-0.1271432489156723,-0.9321839809417723,0.2742539942264557,4.518937587738037,0.9001696705818176,185.5799865722656,35.93,2
-0.1487665176391601,-0.8837085366249084,0.2879559099674225,4.633960723876953,0.9000479578971863,185.5799865722656,35.93,2
-0.2242185920476913,-0.8525997400283813,0.2911512553691864,3.6688289642333984,0.8999698758125305,185.5799865722656,35.93,2
-0.3062260448932647,-0.8326359391212463,0.2932018339633941,2.999306917190552,0.8999197483062744,185.5799865722656,35.93,2
-0.3700492680072784,-0.8254221081733704,0.288919985294342,3.6229233741760254,0.8998875617980957,185.5799865722656,35.93,2
-0.4054095447063446,-0.8543792963027954,0.2973676919937134,5.549301624298096,0.8998669385910034,185.5799865722656,35.93,2
-0.4225039780139923,-0.8953534364700317,0.308386743068695,7.939129829406738,0.8998537063598633,185.751953125,35.93,2
-0.4278764128684997,-0.955234944820404,0.3378492295742035,9.931353569030762,0.8998451828956604,185.86231994628903,35.93,2
-0.4257263541221618,-1.021652340888977,0.3623543083667755,11.410472869873049,0.8998397588729858,185.93313598632807,35.93,2
-0.4075532555580139,-1.0754706859588623,0.366884708404541,12.871994018554688,0.8998362421989441,185.9785919189453,35.93,2
-0.3958908021450043,-1.1379971504211426,0.3641943037509918,14.759296417236328,0.8998339772224426,186.0077514648437,35.93,2
-0.3940042853355407,-1.1725252866744995,0.3624677658081054,17.134796142578125,0.899832546710968,186.02647399902344,35.93,2
-0.4207825064659118,-1.1666945219039917,0.3557619750499725,19.85225296020508,0.8998316526412964,186.0384826660156,35.93,2
-0.4099783599376678,-1.1293660402297974,0.3010786175727844,22.48822021484375,0.8998310565948486,186.0461883544922,35.93,2
-0.3918493092060089,-1.1389974355697632,0.2491926699876785,24.0974349975586,0.9002899527549744,186.05113220214844,35.93,2
-0.385812908411026,-1.1955583095550537,0.2158952504396438,23.775922775268555,0.9005844593048096,186.05430603027344,35.93,2
-0.376341313123703,-1.2486491203308103,0.1945268958806991,21.649333953857425,0.9007734656333924,186.0563507080078,35.93,2
-0.3534696698188782,-1.2603286504745483,0.1752161383628845,18.937562942504883,0.9008947610855104,186.0576629638672,35.93,2
-0.3052053153514862,-1.1894550323486328,0.1460302770137787,16.702909469604492,0.9009726047515868,186.0585021972656,35.93,2
-0.2574387192726135,-1.110385775566101,0.1217027008533477,14.591730117797852,0.9010225534439088,186.0590362548828,35.93,2
-0.2099915444850921,-1.0148614645004272,0.0892973393201828,11.23781967163086,0.901054620742798,186.05938720703125,35.93,2
-0.179542675614357,-0.9367661476135254,0.0685014426708221,6.036701202392578,0.9010751843452454,186.05960083007807,35.93,2
-0.1711978912353515,-0.8642579913139343,0.0495580583810806,-0.1492249071598053,0.9006291031837463,186.0597381591797,35.93,2
-0.182636022567749,-0.8177264332771301,0.0318035073578357,-6.067917346954346,0.9003428220748901,186.0598297119141,35.93,2
-0.1955741345882415,-0.7934629321098328,0.0204096604138612,-10.983957290649414,0.9001591205596924,186.0598907470703,35.93,2
-0.1982792913913726,-0.7890875339508057,0.0186955202370882,-14.557950019836426,0.9000412225723267,186.0599365234375,35.93,2
-0.1608308851718902,-0.8366596698760986,0.0119977090507745,-16.693899154663086,0.8999655246734619,186.05995178222656,35.93,2
-0.1144075542688369,-0.8671886920928955,0.0076994388364255,-17.609642028808594,0.89991694688797,186.0599670410156,35.93,2
-0.0398335382342338,-0.9091715812683104,0.0049410564824938,-17.73874282836914,0.8998857736587524,186.0599822998047,35.93,2
-0.0199650973081588,-0.9920915365219116,0.0087686600163578,-17.38810157775879,0.8998658061027527,186.0599822998047,35.93,2
-0.0743879675865173,-1.1180758476257324,0.0336160920560359,-15.744379997253418,0.8984758257865906,186.0599822998047,35.93,2
-0.1596934050321579,-1.19332754611969,0.060757290571928,-10.426268577575684,0.8975838422775269,186.0599822998047,35.93,2
-0.276013046503067,-1.1632509231567385,0.1397504657506942,0.3738595247268677,0.897011399269104,186.0599822998047,35.93,2
-0.31707364320755,-1.205525040626526,0.1736504137516021,14.967889785766602,0.8966440558433533,186.0599822998047,35.93,2
-0.2986417710781097,-1.238251805305481,0.1674165874719619,28.510780334472656,0.8964083194732666,186.0599822998047,35.93,2
-0.2140422016382217,-1.2144718170166016,0.1522205173969268,36.259613037109375,0.8962570428848267,186.0599822998047,35.93,2
-0.1429577320814132,-1.1544289588928225,0.1816529780626297,36.875953674316406,0.8961599469184875,186.0599822998047,35.93,2
-0.080546498298645,-1.0319303274154663,0.2397254556417465,33.60651016235352,0.8960976600646973,186.0599822998047,35.93,2
-0.0908745303750038,-0.942122220993042,0.2769930362701416,31.24684333801269,0.8955987095832825,186.24270629882807,35.93,2
-0.1198935583233833,-0.8844885230064392,0.2953114509582519,31.101089477539062,0.8952785134315491,186.35997009277344,35.93,2
-0.1777007281780243,-0.8586980700492859,0.284676045179367,30.30178451538086,0.8950730562210083,186.43521118164065,35.93,2
-0.2483846843242645,-0.8421472907066345,0.2722530961036682,26.00205421447754,0.8949412107467651,186.48350524902344,35.93,2
-0.3441255390644073,-0.837123692035675,0.2698785364627838,18.012174606323242,0.8948565721511841,186.51449584960932,35.93,2
-0.4111642837524414,-0.8506931662559509,0.273952454328537,7.7974724769592285,0.8948022723197937,186.5343780517578,35.93,2
-0.459783673286438,-0.88739013671875,0.2877624034881592,-2.730811595916748,0.8947674036026001,186.54714965820312,35.93,2
-0.4909847974777221,-0.966917872428894,0.3358092606067657,-11.794437408447266,0.8947450518608093,186.5553436279297,35.93,2
-0.4942145645618438,-1.040345311164856,0.3722407221794128,-18.68930625915528,0.8947306871414185,186.5605926513672,35.93,2
-0.4291139543056488,-1.087466835975647,0.3732292652130127,-24.002513885498047,0.894721508026123,186.56396484375,35.93,2
-0.3817383348941803,-1.140097737312317,0.3738636374473572,-28.236217498779297,0.8947156071662903,186.56613159179688,35.93,2
-0.3793242871761322,-1.196264386177063,0.3742707371711731,-30.87076568603516,0.8947117924690247,186.5675201416016,35.93,2
-0.4337528347969055,-1.2155156135559082,0.3521409034729004,-31.23591423034668,0.8947093486785889,186.5684051513672,35.93,2
-0.4574863910675049,-1.2166743278503418,0.3099503815174103,-29.496246337890625,0.8947077989578247,186.5689849853516,35.93,2
-0.4335328042507171,-1.2286134958267212,0.2660816013813019,-26.27327346801757,0.8947067856788635,186.56935119628903,35.93,2
-0.4069651961326599,-1.2530686855316162,0.2323313802480697,-21.847620010375977,0.894706130027771,186.569580078125,35.93,2
-0.3787201046943664,-1.2687625885009766,0.2050746530294418,-16.259654998779297,0.8928696513175964,186.5697326660156,35.93,2
-0.3382029235363006,-1.2172585725784302,0.1819850802421569,-9.99027156829834,0.8916910886764526,186.56982421875,35.93,2
-0.2954080104827881,-1.156217336654663,0.1559719741344452,-4.329704761505127,0.8909347653388977,186.56988525390625,35.93,2
-0.2455535978078842,-1.0778602361679075,0.1280827075242996,-0.8582947254180908,0.8904494047164917,186.56993103027344,35.93,2
-0.2023643553256988,-1.0051840543746948,0.1101849824190139,-0.3537625074386596,0.8901379108428955,186.5699615478516,35.93,2
-0.1802457571029663,-0.9473490715026855,0.0875037014484405,-2.244014501571656,0.8899380564689636,186.56997680664065,35.93,2
-0.1828446388244629,-0.8934406042098999,0.0673503875732421,-5.212531089782715,0.889809787273407,186.5699920654297,35.93,2
-0.1957080066204071,-0.8588452339172363,0.0656126961112022,-8.310551643371582,0.8897274732589722,186.5699920654297,35.93,2
-0.1815718710422516,-0.8366439342498779,0.1092797443270683,-11.312552452087402,0.8896746635437012,186.5699920654297,35.95,2
-0.1445112526416778,-0.850385308265686,0.0869227722287178,-14.080968856811523,0.889640748500824,186.5699920654297,35.95,2
-0.131923422217369,-0.8703992366790771,0.0445864833891391,-16.097612380981445,0.889618992805481,186.5699920654297,35.95,2
-0.1294430494308471,-0.8776452541351318,0.0286130383610725,-16.947538375854492,0.8896050453186035,186.5699920654297,35.95,2
-0.1222535222768783,-0.8878931403160095,0.0407532975077629,-16.994993209838867,0.8895961046218872,186.5699920654297,35.95,2
-0.1288352459669113,-0.9616429209709167,0.0597397685050964,-16.771085739135742,0.889590322971344,186.5699920654297,35.95,2
-0.2338189482688903,-1.0537534952163696,0.0775219649076461,-15.373492240905762,0.8895866274833679,186.5699920654297,35.95,2
-0.3459736406803131,-1.0736802816390991,0.1281179785728454,-10.302896499633787,0.8895842432975769,186.5699920654297,35.95,2
-0.4235458374023437,-0.9969037771224976,0.1997720003128051,0.0052110035903751,0.8895827531814575,186.7240447998047,35.95,2
-0.4453383386135101,-0.986817479133606,0.2289621084928512,13.84999942779541,0.8895817995071411,186.82290649414065,35.95,2
-0.364161342382431,-1.0699090957641602,0.2197057753801345,27.069704055786133,0.8895811438560486,186.8863525390625,35.95,2
-0.2057089209556579,-1.0952435731887815,0.2473522275686264,36.0155029296875,0.8895807266235352,186.92706298828125,35.95,2
-0.0872299522161483,-1.0835129022598269,0.2762896716594696,39.89345932006836,0.889580488204956,186.95318603515625,35.95,2
-0.0615769363939762,-1.0312026739120483,0.3060556054115295,40.68038558959961,0.8895803093910217,186.969955444336,35.95,2
-0.0842987298965454,-0.9808396697044371,0.3083643615245819,40.54769134521485,0.8895801901817322,186.980712890625,35.95,2
-0.1772491037845611,-0.9597151279449464,0.2930526733398437,39.523902893066406,0.8895801305770874,186.9876251220703,35.95,2
-0.3096703886985779,-0.9517564177513124,0.2776287198066711,36.47731399536133,0.8891208171844482,186.9920654296875,35.95,2
-0.4058462977409363,-0.9466489553451538,0.2621327340602875,31.552234649658203,0.8888260126113892,186.99490356445312,35.95,2
-0.4619686603546142,-0.926577925682068,0.2521883249282837,25.894546508789062,0.8886368274688721,186.99673461914065,35.95,2
-0.4867892265319824,-0.9136975407600404,0.251404345035553,19.634157180786133,0.8885154128074646,186.99790954589844,35.95,2
-0.5027176141738892,-0.9390182495117188,0.2676945626735687,12.19524097442627,0.8884375095367432,186.9986572265625,35.95,2
-0.5241351127624512,-0.9664632081985474,0.2949419915676117,4.053751468658447,0.8883875012397766,186.9991455078125,35.95,2
-0.5378796458244324,-0.9896735548973083,0.323623389005661,-4.151690483093262,0.8883554339408875,186.9994506835937,35.95,2
-0.4963200986385345,-0.9821775555610656,0.3420294523239136,-13.46936321258545,0.8883348703384399,186.9996490478516,35.95,2
-0.4584540426731109,-0.9941603541374208,0.3426458537578583,-24.49675941467285,0.8869445323944092,186.9997711181641,35.95,2
-0.478935956954956,-1.0466324090957642,0.3318458795547485,-34.253273010253906,0.8860523104667664,186.99984741210932,35.95,2
-0.5480578541755676,-1.0747082233428955,0.3137195110321045,-38.6801643371582,0.8854796886444092,186.9999084472656,35.95,2
-0.5812207460403442,-1.070334553718567,0.2852937281131744,-37.42620468139648,0.8851122260093689,186.9999389648437,35.95,2
-0.5689161419868469,-1.123505473136902,0.2502583861351013,-33.2789421081543,0.8848764300346375,186.9999542236328,35.95,2
-0.5498241782188416,-1.208007574081421,0.2277747243642807,-28.177734375,0.8847250938415527,186.99996948242188,35.95,2
-0.5039854049682617,-1.346202731132507,0.2189437747001648,-22.503746032714844,0.8846279978752136,186.9999847412109,35.95,2
-0.407395452260971,-1.3677151203155518,0.207678809762001,-16.97090721130371,0.8845656514167786,186.9999847412109,35.95,2
-0.3342140316963196,-1.336738348007202,0.200449600815773,-12.821959495544434,0.8859027624130249,186.9999847412109,35.93,2
-0.2648592889308929,-1.2608815431594849,0.190212532877922,-10.58573055267334,0.8867608904838562,186.9999847412109,35.93,2
-0.2203514128923416,-1.1954076290130615,0.1780451983213424,-9.813424110412598,0.887311577796936,186.9999847412109,35.93,2
-0.2085821479558944,-1.136596918106079,0.1478458046913147,-9.873101234436035,0.8876649737358093,186.9999847412109,35.93,2
-0.2234204113483429,-1.0820622444152832,0.1172700226306915,-10.524019241333008,0.8878917694091797,186.9999847412109,35.93,2
-0.2385405302047729,-1.047065019607544,0.0920504704117775,-11.600934028625488,0.8880373239517212,186.9999847412109,35.93,2
-0.2482437491416931,-1.002214789390564,0.0814637914299964,-12.614468574523926,0.8881307244300842,186.9999847412109,35.93,2
-0.2376773953437805,-0.951041340827942,0.0802676454186439,-13.042777061462402,0.8881906270980835,186.9999847412109,35.93,2
-0.2085054218769073,-0.8902122974395752,0.0739022493362426,-12.826827049255373,0.8882290720939636,187.12538146972656,35.93,2
-0.1729912012815475,-0.8119913339614868,0.0810128524899482,-12.286994934082031,0.8882537484169006,187.2058563232422,35.93,2
-0.1390046626329422,-0.7505980730056763,0.091173805296421,-11.754267692565918,0.8882696032524109,187.2574920654297,35.93,2
-0.1339873820543289,-0.6776127219200134,0.1088900715112686,-11.057719230651855,0.8882797956466675,187.29063415527344,35.93,2
-0.1363653540611267,-0.6195793747901917,0.1258571296930313,-8.575811386108398,0.888286292552948,187.31190490722656,35.93,2
-0.1490869522094726,-0.6327168941497803,0.1311478316783905,-1.6271153688430786,0.8882904648780823,187.3255615234375,35.93,2
-0.202033132314682,-0.7307121753692627,0.1457386463880539,10.545443534851074,0.8882931470870972,187.33432006835932,35.93,2
-0.2639998197555542,-0.8271865844726562,0.1718955188989639,24.465381622314453,0.8882948756217957,187.3399353027344,35.93,2
-0.3653419911861419,-0.945076048374176,0.222268134355545,34.6057243347168,0.8860009908676147,187.34353637695312,35.93,2
-0.4695619940757751,-1.0823062658309937,0.2937788069248199,37.9533805847168,0.8845289349555969,187.34585571289065,35.93,2
-0.5812265872955322,-1.3159148693084717,0.3396702408790588,35.9136848449707,0.8835842609405518,187.3473358154297,35.93,2
-0.6584842801094055,-1.398658037185669,0.3523274064064026,32.096920013427734,0.8829780220985413,187.34829711914065,35.93,2
-0.629694938659668,-1.339802384376526,0.4220255613327026,29.092241287231445,0.8825889825820923,187.34890747070312,35.93,2
-0.4376886188983917,-1.19007670879364,0.4611560404300689,27.2607421875,0.8823392987251282,187.34930419921875,35.93,2
-0.2472967207431793,-1.05480694770813,0.503061056137085,25.6089096069336,0.8821790814399719,187.3495483398437,35.93,2
-0.1922874450683593,-0.951205313205719,0.4683777689933777,22.983272552490234,0.8820762634277344,187.34971618652344,35.93,2
-0.285734474658966,-0.8959153294563293,0.3957400619983673,18.890798568725582,0.8829281330108643,187.34982299804688,35.93,2
-0.4072789251804352,-0.8548356294631958,0.332332044839859,13.803255081176758,0.8834747672080994,187.34988403320312,35.93,2
-0.5692457556724548,-0.8172774910926819,0.280444860458374,8.438973426818848,0.8838256001472473,187.3499298095703,35.93,2
-0.6843823194503784,-0.8043703436851501,0.2583422064781189,2.6821422576904297,0.884050726890564,187.34996032714844,35.93,2
-0.6910970211029053,-0.8128806352615356,0.2721468806266784,-4.193587779998779,0.8841952085494995,187.3499755859375,35.93,2
-0.566657304763794,-0.8407331705093384,0.3089947998523712,-12.399983406066896,0.88428795337677,187.34999084472656,35.93,2
-0.4532124400138855,-0.8642050623893738,0.3326416611671448,-21.102066040039062,0.8843474388122559,187.34999084472656,35.93,2
-0.3692145049571991,-0.907256841659546,0.3310235440731048,-28.46710205078125,0.8843856453895569,187.34999084472656,35.93,2
-0.3209072351455688,-0.9460805654525756,0.3131918013095855,-32.21909713745117,0.8830329775810242,187.34999084472656,35.95,2
-0.2787108719348907,-0.9933865070343018,0.2737595438957214,-31.21988296508789,0.8821648955345154,187.34999084472656,35.95,2
-0.2516316473484039,-1.0685268640518188,0.2204653173685073,-26.627063751220703,0.8816078305244446,187.34999084472656,35.95,2
-0.234253779053688,-1.1223454475402832,0.1862641423940658,-20.74910926818848,0.8812503218650818,187.34999084472656,35.95,2
-0.2510905265808105,-1.1288942098617554,0.1419247090816497,-14.945655822753906,0.8810209035873413,187.34999084472656,35.95,2
-0.2618953883647918,-1.0995101928710938,0.0910791084170341,-9.41929817199707,0.8808736801147461,187.34999084472656,35.95,2
-0.1848627030849456,-1.1534242630004885,0.0304604545235633,-4.52933406829834,0.8807792067527771,187.34999084472656,35.95,2
-0.1074386909604072,-1.2104142904281616,-0.0420277491211891,-1.050891995429993,0.8807185888290405,187.34999084472656,35.95,2
-0.0689479708671569,-1.2301939725875854,-0.1053398326039314,0.6869767904281616,0.879761815071106,187.54345703125,35.95,2
-0.0946268066763877,-1.1589207649230957,-0.1515676528215408,0.9782484769821168,0.8791478276252747,187.6676025390625,35.95,2
-0.1167037785053253,-1.090790629386902,-0.1756362318992614,0.1584661304950714,0.8787537813186646,187.74728393554688,35.95,2
-0.1308715045452118,-1.0190798044204712,-0.2022776156663894,-1.3205881118774414,0.8785009384155273,187.7984161376953,35.95,2
-0.1679524183273315,-0.9506688117980956,-0.2137767523527145,-2.7175817489624023,0.8783386945724487,187.8312225341797,35.95,2
-0.2029443532228469,-0.9011687636375428,-0.2099606841802597,-3.513779878616333,0.8782345652580261,187.852279663086,35.95,2
-0.2309979498386383,-0.8973913788795471,-0.2019139677286148,-3.852770328521729,0.8781677484512329,187.8657989501953,35.95,2
-0.23780557513237,-0.9005650281906128,-0.1799567341804504,-4.238696098327637,0.8781248331069946,187.8744659423828,35.95,2
-0.2309787720441818,-0.8914061784744263,-0.1378769725561142,-5.052407741546631,0.877638041973114,187.88003540039065,35.95,2
-0.2377932667732238,-0.9079196453094482,-0.0828837305307388,-6.352020263671875,0.8773256540298462,187.88360595703125,35.95,2
-0.2589597404003143,-0.9297125935554504,-0.0363966822624206,-7.845230579376221,0.8771251440048218,187.88589477539065,35.95,2
-0.3173253536224365,-0.966089129447937,0.0382182225584983,-8.835729598999023,0.8769964575767517,187.88735961914065,35.95,2
-0.3547810614109039,-0.9950312972068788,0.1140906438231468,-8.020432472229004,0.8769139051437378,187.8883056640625,35.95,2
-0.3508290946483612,-0.9744202494621276,0.1795745193958282,-3.68536114692688,0.8768609166145325,187.888916015625,35.95,2
-0.3091085255146026,-0.9443999528884888,0.232793852686882,5.16910457611084,0.8768269419670105,187.8892974853516,35.95,2
-0.2823346853256225,-0.9251346588134766,0.2725447416305542,17.676197052001953,0.8768051266670227,187.88954162597656,35.95,2
-0.293141633272171,-0.8959779739379883,0.3204456567764282,31.23044204711914,0.8777093291282654,187.88970947265625,35.95,2
-0.3000769019126892,-0.866071343421936,0.3567834794521332,42.3720932006836,0.8782895803451538,187.8898162841797,35.95,2
-0.2765386998653412,-0.7797057032585144,0.357711911201477,47.55175018310547,0.8786619901657104,187.889877319336,35.95,2
-0.2446399182081222,-0.6906945705413818,0.3191232979297638,44.90718078613281,0.878900945186615,187.88992309570312,35.95,2
-0.2129735648632049,-0.6391701102256775,0.2775660157203674,36.360164642333984,0.8790543079376221,187.88995361328125,35.95,2
-0.2318363338708877,-0.6117024421691895,0.2564947307109833,26.36113739013672,0.8791527152061462,187.8899688720703,35.95,2
-0.3167124390602112,-0.627661943435669,0.2989501357078552,17.998998641967773,0.8792158961296082,187.88998413085932,35.95,2
-0.4159632325172424,-0.6938815712928772,0.3709777593612671,11.697607040405272,0.8792564272880554,187.88998413085932,35.95,2
-0.4852544665336609,-0.730779767036438,0.3668209910392761,6.847656726837158,0.8806595802307129,187.88998413085932,35.95,2
-0.5017327070236206,-0.7544589042663574,0.3305667638778686,2.646134853363037,0.8815600275993347,187.88998413085932,35.95,2
-0.4899164140224457,-0.7752525806427002,0.2681164741516113,-1.7984570264816284,0.8821378946304321,187.88998413085932,35.95,2
-0.5159200429916382,-0.7941945195198059,0.2224416881799698,-6.922092914581299,0.8825087547302246,187.88998413085932,35.95,2
-0.6165742874145508,-0.8679258823394775,0.2323146611452102,-13.0833740234375,0.882746696472168,187.88998413085932,35.95,2
-0.7147549986839294,-0.9432312846183776,0.2330527901649475,-21.0999698638916,0.8828994035720825,187.88998413085932,35.95,2
-0.8337395191192627,-1.04753577709198,0.2167331576347351,-30.661874771118164,0.8829973936080933,187.88998413085932,35.95,2
-0.9884657859802246,-1.215232253074646,0.24544458091259,-39.05517959594727,0.8830602765083313,187.88998413085932,35.95,2
-0.9534136056900024,-1.3340457677841189,0.2862610220909118,-43.26285171508789,0.8821824193000793,187.983139038086,35.95,2
-0.8357569575309753,-1.3935000896453855,0.3124546706676483,-42.645626068115234,0.8816190958023071,188.0429229736328,35.95,2
-0.8722071647644043,-1.263721227645874,0.3628508746623993,-38.79592514038086,0.8812575936317444,188.081283569336,35.95,2
-1.0635319948196411,-1.0796767473220823,0.4623655676841736,-33.960906982421875,0.8810256123542786,188.1058959960937,35.95,2
-1.180715560913086,-0.7992321252822876,0.4982394874095917,-29.894359588623047,0.8808767199516296,188.12168884277344,35.95,2
-1.149559497833252,-0.5968677997589111,0.5100657343864441,-26.865522384643555,0.8807811737060547,188.1318359375,35.95,2
-0.9896209836006165,-0.4781975746154785,0.5400462746620178,-23.55324363708496,0.8807198405265808,188.13833618164065,35.95,2
-0.7022550702095032,-0.3964440822601318,0.5145038366317749,-18.744264602661133,0.880680501461029,188.1425170898437,35.95,2
-0.5010468363761902,-0.3439793884754181,0.4645255208015442,-12.892391204833984,0.8815734386444092,188.14520263671875,35.95,2
-0.4670851528644562,-0.3327016532421112,0.4268545508384704,-7.528419017791748,0.8821464776992798,188.1469116210937,35.95,2
-0.4620838165283203,-0.3142687082290649,0.3858861625194549,-3.7744460105896,0.882514238357544,188.14801025390625,35.95,2
-0.430885374546051,-0.2744506299495697,0.3036172688007355,-1.6734639406204224,0.8827502131462097,188.1487274169922,35.95,2
-0.4668417572975158,-0.2153110355138778,0.2004418671131134,-0.3753305375576019,0.882901668548584,188.1491851806641,35.95,2
-0.5067098140716553,-0.1269786804914474,0.1342298239469528,1.3569631576538086,0.8829988837242126,188.14947509765625,35.95,2
-0.6050658822059631,-0.036705408245325,0.0917387455701828,4.396075248718262,0.8830612301826477,188.149658203125,35.95,2
-0.7241629362106323,0.0212267749011516,0.0476770959794521,8.703737258911133,0.8831012845039368,188.1497802734375,35.95,2
-0.8957546949386597,0.1143820658326149,0.0417919643223285,13.682178497314451,0.8835859298706055,188.1498565673828,35.95,2
-1.1010346412658691,0.1909570842981338,0.0771996453404426,18.8116455078125,0.8838969469070435,188.14990234375,35.95,2
-1.383911371231079,0.2512940764427185,0.1503022313117981,23.83740997314453,0.8840965032577515,188.14993286132807,35.95,2
-1.4926743507385254,0.2788193225860595,0.2587907910346985,28.69631004333496,0.8842245936393738,188.1499481201172,35.95,2
-1.2601922750473022,0.2517012655735016,0.289228081703186,33.337066650390625,0.884306788444519,188.14996337890625,35.95,2
-1.1109986305236816,0.2007118016481399,0.2751743197441101,37.45091247558594,0.8843595385551453,188.1499786376953,35.95,2
-1.0544391870498655,0.1176097318530082,0.2549598813056946,40.61041641235352,0.8843933939933777,188.1499786376953,35.95,2
-1.018142580986023,0.0418885052204132,0.2251940965652465,42.584266662597656,0.8844150900840759,188.1499786376953,35.95,2
-0.983653962612152,-0.0290961116552352,0.166907712817192,42.86934280395508,0.8835111856460571,188.1499786376953,35.97,2
-0.950325608253479,-0.0690521821379661,0.1406984031200409,40.07158660888672,0.882931113243103,188.1499786376953,35.97,2
-0.9681218266487122,-0.0946936830878257,0.1574654281139373,32.91303253173828,0.8825588226318359,188.1499786376953,35.97,2
-1.0523134469985962,-0.1055511534214019,0.229801058769226,22.239452362060547,0.8823199272155762,188.1499786376953,35.97,2
-1.1007450819015503,-0.1181166246533393,0.2706241309642792,11.087090492248535,0.8821666240692139,188.1499786376953,35.97,2
-1.120630145072937,-0.1373759657144546,0.2744309306144714,2.0098865032196045,0.8820682764053345,188.1499786376953,35.97,2
-1.1781734228134155,-0.1721266061067581,0.2208961695432663,-4.972512245178223,0.8820051550865173,188.1499786376953,35.97,2
-1.1815147399902344,-0.1888297945261001,0.1921384185552597,-11.55638599395752,0.8819646239280701,188.1499786376953,35.97,2
-1.026921272277832,-0.2667222321033478,0.2912366092205047,-18.91987419128418,0.884692907333374,188.2216339111328,35.97,2
-1.006080985069275,-0.1991558521986007,0.1197255998849868,-26.14597511291504,0.8864437341690063,188.2676239013672,35.97,2
-0.9479246735572816,-0.0326445922255516,0.0488441251218318,-30.4285945892334,0.8875673413276672,188.2971343994141,35.97,2
-0.9162010550498962,-0.0657316148281097,0.0929208621382713,-29.279090881347656,0.8882883787155151,188.31607055664065,35.97,2
-0.8902449011802673,-0.014193894341588,0.177184522151947,-22.841527938842773,0.8887510895729065,188.32823181152344,35.97,2
-0.923967719078064,-0.0426954701542854,0.2424556314945221,-13.787812232971191,0.8890480399131775,188.3360290527344,35.97,2
-0.9120224118232728,-0.0441928170621395,0.2955384254455566,-4.957547187805176,0.8892385959625244,188.34103393554688,35.97,2
-0.8875632882118225,-0.0395559556782245,0.3240061402320862,3.410470962524414,0.8893609046936035,188.34425354003903,35.97,2
-0.9110512733459472,-0.0701669305562973,0.3310795128345489,14.527033805847168,0.8940297365188599,188.3463134765625,35.97,2
-0.970906674861908,-0.0562246441841125,0.3132277131080627,31.968074798583984,0.8970259428024292,188.3476409912109,35.97,2
-1.009318470954895,-0.0640706121921539,0.318564772605896,53.53586959838867,0.8989487290382385,188.34849548339844,35.97,2
-0.9947845339775084,-0.063507929444313,0.3387831151485443,69.30784606933594,0.9001826643943787,188.3490295410156,35.97,2
-1.007848620414734,-0.0239624101668596,0.3013781309127807,69.47699737548828,0.9009745121002196,188.3493804931641,35.97,2
-0.97145015001297,-0.0265732444822788,0.3221559524536133,53.86878967285156,0.9014827013015748,188.349609375,35.97,2
-0.9368961453437804,-0.0674331486225128,0.3522832691669464,30.926408767700195,0.9018087983131408,188.3497467041016,35.97,2
-0.9651013612747192,-0.0376769378781318,0.3660194873809814,9.245946884155272,0.9020180702209472,188.349838256836,35.97,2
-0.97760409116745,-0.040972214192152,0.3692368268966675,-6.910017013549805,0.9117923974990844,188.3498992919922,35.97,2
-0.9408453702926636,0.0184885878115892,0.3936926126480102,-16.754928588867188,0.9180650115013124,188.34994506835932,35.97,2
-0.8668758273124695,0.0510493330657482,0.4541691243648529,-21.90848922729492,0.9220904111862184,188.34996032714844,35.97,2
-0.8138086199760437,0.08314049243927,0.4593928456306457,-24.39175605773925,0.9246736764907836,188.3499755859375,35.97,2
-0.796546459197998,0.0981369763612747,0.4739406704902649,-24.183338165283203,0.9263314604759216,188.34999084472656,35.97,2
-0.779870867729187,0.1133586317300796,0.4720810651779175,-19.782739639282227,0.9273953437805176,188.34999084472656,35.97,2
-0.5900406241416931,0.1119314655661583,0.5548542737960815,-11.459434509277344,0.9280780553817748,188.34999084472656,35.97,2
-1.095169186592102,0.4916642606258392,0.0202070698142051,-3.1050705909729004,0.9285162091255188,188.34999084472656,35.97,2
-0.9659119248390198,0.3435106873512268,-0.093389980494976,-0.6241116523742676,0.94624125957489,188.34999084472656,35.97,2
-1.0732864141464231,0.2372387051582336,-0.037541214376688,-7.257568836212158,0.9576162099838256,188.34999084472656,35.97,2
-1.186975359916687,0.1970283389091491,-0.0352873392403125,-18.944801330566406,0.9649159908294678,188.34999084472656,35.97,2
-1.0752078294754028,0.232799157500267,0.1005056574940681,-28.46198463439941,0.9696005582809448,188.34999084472656,35.97,2
-0.9866885542869568,0.2053748369216919,0.2380297482013702,-33.44105529785156,0.9726068377494812,188.34999084472656,35.97,2
-0.9690663814544678,0.1597866266965866,0.326284795999527,-37.54989242553711,0.974536120891571,188.34999084472656,35.97,2
-0.8961819410324097,0.0913463085889816,0.3549329340457916,-42.18578338623047,0.9757742285728456,188.34999084472656,35.97,2
-0.9781577587127686,0.0362297035753726,0.3005465865135193,-42.67810821533203,0.9765687584877014,188.34999084472656,35.97,2
-1.0587539672851562,-0.0439231544733047,0.2936334311962127,-35.45631408691406,1.010129690170288,188.4180603027344,35.97,2
-0.9705316424369812,-0.0897628739476203,0.3843591511249542,-24.02921867370605,1.0316672325134275,188.4617462158203,35.97,2
-0.9419044852256776,-0.1079846173524856,0.4313861429691314,-16.24456214904785,1.045488715171814,188.48977661132807,35.97,2
-0.9403265714645386,-0.1252760589122772,0.4447720348834991,-13.978739738464355,1.0543586015701294,188.5077667236328,35.97,2
-0.9673027992248536,-0.10838383436203,0.43097123503685,-13.6603422164917,1.0600507259368896,188.51931762695312,35.97,2
-0.8334746956825256,-0.0415656343102455,0.3829302489757538,-11.908340454101562,1.0637036561965942,188.52671813964844,35.97,2
-0.8595470190048218,-0.105043277144432,0.4304691553115845,-8.73835563659668,1.0660479068756104,188.531478881836,35.97,2
-0.9322564601898192,-0.0953996032476425,0.4553790986537933,-6.872422695159912,1.0675523281097412,188.53453063964844,35.97,2
-0.9789171814918518,-0.0444286502897739,0.4545715451240539,-12.134358406066896,1.0937654972076416,188.53648376464844,35.97,2
-1.0144591331481934,-0.050902847200632,0.4428577721118927,-26.520421981811523,1.1105875968933103,188.5377349853516,35.97,2
-0.9756923913955688,-0.0606553889811039,0.4353405237197876,-31.840394973754883,1.1213830709457395,188.53854370117188,35.97,2
-0.9564118981361388,-0.0669140070676803,0.4417119324207306,-21.526018142700195,1.128311038017273,188.5390625,35.97,2
-0.9496365785598756,-0.070930428802967,0.4402029812335968,-14.527091979980469,1.1327569484710691,188.53939819335932,35.97,2
-0.97887521982193,-0.1070945858955383,0.5232012271881104,-15.380786895751951,1.1356101036071775,188.53961181640625,35.97,2
-0.9640522599220276,-0.1079115644097328,0.4924980998039245,-13.055413246154783,1.1374411582946775,188.5397491455078,35.97,2
-0.954539716243744,-0.1140336245298385,0.461599051952362,-5.2398762702941895,1.1386162042617798,188.5398406982422,35.97,2
