acc_x,acc_y,acc_z,bvp,eda,hr,temp,label
0.0,0.0,0.0,0.0,0.0,0.0,28.69,2
-0.0130208320915699,-0.0911458283662796,0.1406249850988388,7.903332710266113,1.182104468345642,13.111665725708008,28.69,2
-0.0472561009228229,-0.2259908616542816,0.3292682766914367,18.16195106506348,2.7678544521331787,30.70048713684082,28.69,2
-0.0620847195386886,-0.338299423456192,0.5033222436904907,26.37714195251465,4.147183895111084,45.999732971191406,28.69,2
-0.0675648003816604,-0.4148963689804077,0.6249657869338989,35.018314361572266,5.153479099273682,57.16135787963867,28.69,2
-0.0602956004440784,-0.472245454788208,0.6963441967964172,50.83984375,5.834783554077148,64.71824645996094,28.69,2
-0.0610790364444255,-0.4987685680389404,0.74317866563797,78.44712829589844,6.281816959381104,69.6766586303711,28.69,2
-0.0671657621860504,-0.5215256214141846,0.7623524069786072,117.86949157714844,6.571338653564453,72.88797760009766,28.69,2
-0.0710866600275039,-0.5305948853492737,0.7635232210159302,167.5247344970703,6.693202972412109,74.95661926269531,28.69,2
-0.073606789112091,-0.5308294296264648,0.7642757892608643,227.2254943847656,6.771530151367188,76.28622436523438,28.69,2
-0.080821581184864,-0.5421730279922485,0.7703555226325989,298.0741271972656,6.821828365325928,77.14002990722656,28.69,2
-0.1022445783019065,-0.555051863193512,0.7686609625816345,377.8060607910156,6.85411548614502,77.68810272216797,28.69,2
-0.1047990024089813,-0.5633176565170288,0.767573356628418,453.2858276367188,6.874837398529053,78.03986358642578,28.69,2
-0.1232314109802246,-0.5798177719116211,0.7724730372428894,502.9983215332031,6.888136386871338,78.26560974121094,28.69,2
-0.1742446571588516,-0.6519818902015686,0.7364332675933838,514.5454711914062,6.896670818328857,78.41048431396484,28.69,2
-0.1230158805847168,-0.6143266558647156,0.7636846899986267,495.4699401855469,6.9021477699279785,78.50345611572266,28.69,2
-0.1181289404630661,-0.6069549322128296,0.7755753397941589,461.7579650878906,6.8675618171691895,78.56311798095703,28.69,2
-0.1429816335439682,-0.5966264009475708,0.7664127945899963,422.7587890625,6.845366477966309,78.60140991210938,28.69,2
-0.1533329039812088,-0.5899981260299683,0.7493372559547424,381.3159790039063,6.831122398376465,78.62598419189453,28.69,2
-0.1431824266910553,-0.5745489597320557,0.7495746612548828,339.2830505371094,6.821981430053711,78.64175415039062,28.69,2
-0.1422662138938903,-0.5702323317527771,0.7553248405456543,297.634521484375,6.816115379333496,78.65187072753906,28.69,2
-0.1528737843036651,-0.567462146282196,0.7590149641036987,256.3329772949219,6.812350749969482,78.65836334228516,28.69,2
-0.1484855711460113,-0.5768799781799316,0.7669808268547058,216.5330810546875,6.809935092926025,78.66252899169922,28.69,2
-0.1456694602966308,-0.5773259997367859,0.7776906490325928,180.5736694335937,6.808384895324707,78.66520690917969,28.69,2
-0.1494600176811218,-0.5776122212409973,0.7845636010169983,149.26780700683594,6.619180679321289,78.66692352294922,28.71,2
-0.1462948024272918,-0.5777959227561951,0.7889742255210876,121.06655883789062,6.49776029586792,78.66802215576172,28.71,2
-0.1442635506391525,-0.5779138207435608,0.7918047308921814,94.38835144042967,6.419839859008789,78.66873168945312,28.71,2
-0.1485577821731567,-0.5779894590377808,0.7936211824417114,69.73365783691406,6.369834899902344,78.66918182373047,28.71,2
-0.1457158029079437,-0.5780380368232727,0.7947868704795837,48.72770690917969,6.33774471282959,78.66947174072266,28.71,2
-0.1438919901847839,-0.5780692100524902,0.7955349683761597,31.77936172485352,6.317151069641113,78.66966247558594,28.71,2
-0.1483193337917328,-0.5836869478225708,0.7904172539710999,17.93293571472168,6.303935050964356,78.66978454589844,28.71,2
-0.1399650126695633,-0.5816943645477295,0.7871330380439758,6.825899600982666,6.295454025268555,78.66986083984375,28.71,2
-0.1346036791801452,-0.5804156064987183,0.7682320475578308,-0.2446354478597641,6.112560272216797,78.54451751708984,28.71,2
-0.1143697649240493,-0.5851927399635315,0.7337114214897156,-1.0490542650222778,5.995189666748047,78.46408081054688,28.71,2
-0.0845914781093597,-0.5938562154769897,0.6947647333145142,5.778996467590332,5.919867992401123,78.41246032714844,28.71,2
-0.099068135023117,-0.5658292770385742,0.6193910241127014,18.909496307373047,5.871531009674072,78.37933349609375,28.71,2
-0.1363472938537597,-0.5478432178497314,0.5542271733283997,34.50821304321289,5.840510845184326,78.35807800292969,28.71,2
-0.1994553357362747,-0.5586919188499451,0.4788221418857574,49.20099639892578,5.820603847503662,78.34443664550781,28.71,2
-0.2287588864564895,-0.5824472904205322,0.424833744764328,61.91519927978516,5.807828903198242,78.33568572998047,28.71,2
-0.2307709008455276,-0.5976921319961548,0.3733937740325928,72.41386413574219,5.799630641937256,78.33006286621094,28.71,2
-0.2096710056066513,-0.6018776297569275,0.2900026142597198,80.20458221435547,5.763765335083008,78.32645416259766,28.71,2
-0.2017280757427215,-0.6045635938644409,0.2252914011478424,85.42633819580078,5.740748882293701,78.32414245605469,28.71,2
-0.2805973887443542,-0.6622650623321533,0.2005567997694015,88.91349792480469,5.725978374481201,78.3226547241211,28.71,2
-0.3815911412239074,-0.7608700394630432,0.2014768719673156,93.01429748535156,5.716499328613281,78.32170104980469,28.71,2
-0.4296097755432129,-0.8297468423843384,0.2188606560230255,103.16935729980467,5.710416316986084,78.32109069824219,28.71,2
-0.3876543045043945,-0.9019368886947632,0.2468098849058151,123.65475463867188,5.706512451171875,78.3207015991211,28.71,2
-0.332740843296051,-0.9818509221076964,0.2535505294799804,150.1354522705078,5.704007625579834,78.32044982910156,28.71,2
-0.2639138996601105,-1.0779173374176023,0.218691885471344,170.08486938476562,5.702399730682373,78.3202896118164,28.71,2
-0.2477335929870605,-1.1731538772583008,0.1795282810926437,170.0258026123047,5.684842109680176,78.32018280029297,28.71,2
-0.2429477721452713,-1.2510645389556885,0.1599931120872497,141.32728576660156,5.673574924468994,78.32011413574219,28.71,2
-0.2734631597995758,-1.289867639541626,0.1306632459163665,83.92823028564453,5.666344165802002,78.32007598876953,28.71,2
-0.2930461764335632,-1.2979758977890017,0.10064547508955,7.240251541137695,5.661704063415527,78.3200454711914,28.71,2
-0.3056134283542633,-1.263994812965393,0.0701862499117851,-76.12637329101562,5.658726215362549,78.32003021240234,28.71,2
-0.3080805838108063,-1.2365899085998535,0.0562370456755161,-159.0607147216797,5.656815052032471,78.32002258300781,28.71,2
-0.3152616620063782,-1.202209711074829,0.0528830215334892,-240.546142578125,5.655588626861572,78.32001495361328,28.71,2
-0.3142722845077514,-1.1633532047271729,0.0619261525571346,-316.04315185546875,5.654801845550537,78.32000732421875,28.71,2
-0.3080395758152008,-1.138417363166809,0.0621317364275455,-371.2208557128906,5.644197940826416,78.32000732421875,28.71,2
-0.2872464656829834,-1.1168171167373655,0.0510681197047233,-391.7558898925781,5.637392997741699,78.32000732421875,28.71,2
-0.2683048546314239,-1.0917598009109497,0.0383703522384166,-377.8713073730469,5.633026123046875,78.32000732421875,28.71,2
-0.2505514621734619,-1.086875081062317,0.0302216578274965,-343.0410461425781,5.630223274230957,78.32000732421875,28.71,2
-0.2335605770349502,-1.0949358940124512,0.0026011979207396,-301.50787353515625,5.628424644470215,78.32000732421875,28.71,2
-0.2226568013429641,-1.0945110321044922,-0.0207217987626791,-262.2113647460937,5.627270698547363,78.32000732421875,28.71,2
-0.23245270550251,-1.0774450302124023,-0.0524824783205986,-229.2404327392578,5.626530170440674,78.32000732421875,28.71,2
-0.2611302435398102,-1.077688694000244,-0.0840601995587349,-201.7798309326172,5.626054763793945,78.32000732421875,28.71,2
-0.2739360630512237,-1.0778449773788452,-0.1155205145478248,-176.0534210205078,5.648242950439453,78.20536041259766,28.71,2
-0.2821541130542755,-1.077945351600647,-0.1413077116012573,-149.9459686279297,5.662481784820557,78.13179016113281,28.71,2
-0.281830221414566,-1.0612163543701172,-0.1522586792707443,-124.76190948486328,5.671619415283203,78.0845718383789,28.71,2
-0.276024580001831,-1.0280896425247192,-0.1480908244848251,-102.55284118652344,5.677483558654785,78.05427551269531,28.71,2
-0.3002877235412597,-0.9732441306114196,-0.1342205852270126,-83.58924865722656,5.681246757507324,78.03482818603516,28.71,2
-0.3158584237098694,-0.9268518686294556,-0.1309172362089157,-66.65826416015625,5.683661937713623,78.02235412597656,28.71,2
-0.3202530145645141,-0.8914822340011597,-0.1343951225280761,-50.69851303100586,5.685211658477783,78.01434326171875,28.71,2
-0.3230732083320617,-0.8743817806243896,-0.1422248035669326,-35.56266403198242,5.686206340789795,78.00920104980469,28.71,2
-0.3136875033378601,-0.874603271484375,-0.1472494304180145,-21.851192474365234,5.694189071655273,78.00590515136719,28.71,2
-0.2964687347412109,-0.8747454285621643,-0.1448761820793151,-10.415184020996094,5.699312210083008,78.00379180908203,28.71,2
-0.2742231786251068,-0.8804343938827515,-0.1433531641960144,-1.6324337720870972,5.702600002288818,78.00243377685547,28.71,2
-0.2487517148256302,-0.900878608226776,-0.1367779970169067,5.22548770904541,5.704709529876709,78.0015640258789,28.71,2
-0.2268078178167343,-0.9307917952537536,-0.1325584352016449,11.901443481445312,5.706063747406006,78.00100708007812,28.71,2
-0.2183232754468917,-0.9611839056015016,-0.1242527961730957,19.693029403686523,5.706932544708252,78.00064849853516,28.71,2
-0.1848895102739334,-1.0254700183868408,-0.1357160359621048,27.455385208129883,5.707489967346191,78.00041961669922,28.71,2
-0.17462919652462,-1.0667251348495483,-0.1374747157096862,32.55862808227539,5.707848072052002,78.0002670288086,28.71,2
-0.1960335820913314,-1.020429253578186,-0.088223360478878,35.52549362182617,5.703028202056885,78.00016784667969,28.71,2
-0.2153674662113189,-0.9571325778961182,-0.0454211272299289,41.431190490722656,5.699935436248779,78.00010681152344,28.71,2
-0.2221770584583282,-0.9053168892860411,-0.0179531183093786,54.55373764038086,5.69795036315918,78.00006866455078,28.71,2
-0.2153515070676803,-0.89445561170578,-0.0115212779492139,73.39674377441406,5.696676731109619,78.00004577636719,28.71,2
-0.2053734958171844,-0.9154743552207948,-0.0073936930857598,91.18181610107422,5.695859432220459,78.00003051757812,28.71,2
-0.1877746284008026,-0.9289630055427552,0.0288418009877204,99.37809753417967,5.695334911346436,78.0000228881836,28.71,2
-0.176480695605278,-0.93202143907547,0.0576934292912483,93.22391510009766,5.694998264312744,78.00001525878906,28.71,2
-0.1804284453392028,-0.9115930795669556,0.0650131925940513,75.86851501464844,5.694782257080078,78.00000762939453,28.71,2
-0.1885596513748169,-0.8984833359718323,0.0697105973958969,54.50973129272461,5.699234008789063,78.00000762939453,28.69,2
-0.1937777996063232,-0.9012657999992372,0.0727251172065734,33.59475326538086,5.702090740203857,78.00000762939453,28.69,2
-0.1971265077590942,-0.9142469763755798,0.0690618902444839,15.561946868896484,5.703924179077148,78.00000762939453,28.69,2
-0.1936777383089065,-0.9281753301620485,0.0611132681369781,4.000277996063232,5.705100536346436,78.00000762939453,28.69,2
-0.2026600688695907,-0.9483093023300172,0.0504145249724388,0.911998450756073,5.705855369567871,78.00000762939453,28.69,2
-0.2364132851362228,-0.94443678855896,0.0491464622318744,4.913019180297852,5.7063398361206055,78.00000762939453,28.69,2
-0.2580741643905639,-0.9307560920715332,0.0483326949179172,15.0792875289917,5.706650733947754,78.00000762939453,28.69,2
-0.2887681722640991,-0.9331721663475036,0.0478104650974273,32.37263488769531,5.706850528717041,78.00000762939453,28.69,2
-0.3196613788604736,-0.9571137428283693,0.0474753268063068,56.690216064453125,5.68815803527832,77.86744689941406,28.69,2
-0.3059002161026001,-0.9892714023590088,0.0304669328033924,86.0672607421875,5.676162242889404,77.78237915039062,28.69,2
-0.2802757620811462,-1.127461552619934,0.0027586019132286,117.8385238647461,5.668463706970215,77.72779083251953,28.69,2
-0.2918203473091125,-1.2273396253585815,0.0073680863715708,148.49514770507812,5.663523674011231,77.69275665283203,28.69,2
-0.3328156471252441,-1.1738823652267456,0.0215217359364032,175.09034729003906,5.660353183746338,77.67027282714844,28.69,2
-0.347928524017334,-1.1227831840515137,0.0026158625259995,197.2377014160156,5.658318519592285,77.65584564208984,28.69,2
-0.3408337533473968,-1.106784105300903,-0.0375057123601436,213.7004547119141,5.657012939453125,77.6465835571289,28.69,2
-0.3250851929187774,-1.118907809257507,-0.0576556548476219,218.3253936767578,5.656175136566162,77.64064025878906,28.69,2
-0.2981853485107422,-1.0931015014648438,-0.0705867260694503,204.53054809570312,5.636816501617432,77.63682556152344,28.69,2
-0.2753248214721679,-1.0317583084106443,-0.0732873678207397,172.5737762451172,5.624392986297607,77.6343765258789,28.69,2
-0.2550564706325531,-0.9811962246894836,-0.0750204846262931,128.67153930664062,5.616420269012451,77.63280487060547,28.69,2
-0.2364516258239746,-0.9711394906044006,-0.0761326998472213,79.0379867553711,5.611303806304932,77.63179779052734,28.69,2
-0.2413054406642913,-0.9590879082679749,-0.0824442282319068,27.21316719055176,5.608020305633545,77.63114929199219,28.69,2
-0.2388225644826889,-0.9401583075523376,-0.0864946097135543,-25.22612762451172,5.605913162231445,77.6307373046875,28.69,2
-0.2260336428880691,-0.9056193232536316,-0.0890939086675643,-77.19635772705078,5.604560852050781,77.6304702758789,28.69,2
-0.2178264409303665,-0.8834541440010071,-0.0907619893550872,-126.84857177734376,5.603693008422852,77.63030242919922,28.69,2
-0.2069617658853531,-0.8468387126922607,-0.0918324664235115,-172.58424377441406,5.611857891082764,77.63019561767578,28.69,2
-0.2055872082710266,-0.8233410716056824,-0.0869216620922088,-215.18312072753903,5.617097854614258,77.630126953125,28.69,2
-0.2047051042318344,-0.825054943561554,-0.089367963373661,-256.81512451171875,5.620460510253906,77.63008117675781,28.69,2
-0.2041390240192413,-0.8653392195701599,-0.096535637974739,-297.9985656738281,5.622618675231934,77.63005065917969,28.69,2
-0.2093735188245773,-0.885593593120575,-0.1011354401707649,-337.6725158691406,5.624003410339356,77.6300277709961,28.69,2
-0.1959393918514251,-0.9433738589286804,-0.1096851006150245,-375.8045349121094,5.624892234802246,77.63002014160156,28.69,2
-0.1817203611135482,-1.008442759513855,-0.1151717826724052,-415.1360168457031,5.625462532043457,77.63001251220703,28.69,2
-0.1781931817531585,-1.0166136026382446,-0.1018994897603988,-462.359375,5.625828266143799,77.6300048828125,28.69,2
-0.1983207464218139,-1.0106616020202637,-0.0765887722373008,-521.5150756835938,5.630653381347656,77.6300048828125,28.71,2
-0.2168352305889129,-1.0180375576019287,-0.043552491813898,-578.669677734375,5.633749961853027,77.6300048828125,28.71,2
-0.2343145310878753,-1.0339665412902832,-0.0167539343237876,-603.3572998046875,5.635737419128418,77.6300048828125,28.71,2
-0.2287384271621704,-1.0050044059753418,0.0004438381583895,-576.14501953125,5.637012481689453,77.6300048828125,28.71,2
-0.2083666771650314,-0.9528315663337708,0.0170781537890434,-505.4876708984375,5.63783073425293,77.6300048828125,28.71,2
-0.1784999370574951,-0.913752257823944,0.0221553239971399,-412.8466796875,5.6383562088012695,77.6300048828125,28.71,2
-0.1649309545755386,-0.894271194934845,0.0198157858103513,-314.8894958496094,5.638693332672119,77.6300048828125,28.71,2
-0.1730164885520935,-0.9041604399681092,0.0239121802151203,-219.919174194336,5.638909816741943,77.6300048828125,28.71,2
-0.194998636841774,-0.9105068445205688,0.0321387834846973,-125.08511352539062,5.680821895599365,77.48670196533203,28.71,2
-0.2091055214405059,-0.9145795702934264,0.0318203717470169,-21.550426483154297,5.707718372344971,77.39473724365234,28.71,2
-0.2405495941638946,-0.9227910041809082,0.0316160321235656,82.0828857421875,5.724978923797607,77.33572387695312,28.71,2
-0.2775219082832336,-0.9280605912208556,0.0370826721191406,156.2375946044922,5.736055850982666,77.2978515625,28.71,2
-0.306846410036087,-0.9594312310218812,0.0293952990323305,189.62448120117188,5.743164539337158,77.27354431152344,28.71,2
-0.2976762950420379,-0.9963563680648804,0.0188642106950283,213.88766479492188,5.747726440429688,77.25794219970703,28.71,2
-0.2694003582000732,-1.020052790641785,0.0065081901848316,266.8927001953125,5.7506537437438965,77.24793243408203,28.71,2
-0.2400589287281036,-1.1528130769729614,-0.0238122884184122,345.418212890625,5.752532482147217,77.24150848388672,28.71,2
-0.254815936088562,-1.2604020833969116,-0.0264769047498703,409.3857421875,5.759706020355225,77.23738861083984,28.71,2
-0.3090683221817016,-1.2566754817962646,-0.0281869024038314,423.0225524902344,5.764309406280518,77.2347412109375,28.71,2
-0.315895527601242,-1.2318928241729736,-0.0796642526984214,389.7036743164063,5.767263889312744,77.23304748535156,28.71,2
-0.2978857457637787,-1.2215865850448608,-0.1238949969410896,351.5765991210937,5.76915979385376,77.2319564819336,28.71,2
-0.2751325368881225,-1.1925815343856812,-0.1354864239692688,346.51922607421875,5.770376682281494,77.23125457763672,28.71,2
-0.243737518787384,-1.140381097793579,-0.1317295879125595,366.8040466308594,5.771157264709473,77.23080444335938,28.71,2
-0.2291877716779709,-1.0453063249588013,-0.1125253364443779,373.8208618164063,5.771658420562744,77.23051452636719,28.71,2
-0.2254483550786972,-0.978695034980774,-0.1002011522650718,349.1437683105469,5.771979808807373,77.23033142089844,28.71,2
-0.2286463975906372,-0.9359477162361144,-0.1034877523779869,312.2275695800781,5.792384624481201,77.23021697998047,28.71,2
-0.2195031642913818,-0.9085149765014648,-0.1167924553155899,287.5624084472656,5.805479049682617,77.23014068603516,28.71,2
-0.208037793636322,-0.8797146677970886,-0.1253306418657302,274.6463623046875,5.813882350921631,77.23009490966797,28.71,2
-0.1838866472244262,-0.8500367403030396,-0.1252121925354004,257.4011535644531,5.81927490234375,77.23006439208984,28.71,2
-0.1683878302574157,-0.8253933787345886,-0.1251361668109893,225.7451019287109,5.822735786437988,77.23004150390625,28.71,2
-0.1752349138259887,-0.7983831167221069,-0.1138918325304985,177.78334045410156,5.824956893920898,77.23002624511719,28.71,2
-0.1964222937822342,-0.8146361708641052,-0.1122736409306526,116.43053436279295,5.826382160186768,77.23001861572266,28.71,2
-0.2156169116497039,-0.8362619876861572,-0.1112351790070533,52.34523010253906,5.827296733856201,77.23001098632812,28.71,2
-0.2223371416330337,-0.8389446139335632,-0.0993732064962387,-3.974732637405396,5.858639240264893,77.23001098632812,28.69,2
-0.2098564654588699,-0.9246327877044678,-0.1029564216732978,-56.05293655395508,5.878753185272217,77.23001098632812,28.69,2
-0.2242381870746612,-0.9908180832862854,-0.099658153951168,-114.83478546142578,5.891661167144775,77.23001098632812,28.69,2
-0.2390653192996978,-1.010900855064392,-0.0695526376366615,-180.69155883789065,5.89994478225708,77.23001098632812,28.69,2
-0.2429827451705932,-1.01819109916687,-0.0334393307566642,-243.3287506103516,5.9052605628967285,77.23001098632812,28.69,2
-0.2287034094333648,-1.0396628379821775,-0.0046661142259836,-298.2823181152344,5.908671855926514,77.23001098632812,28.69,2
-0.2195397466421127,-1.0254533290863037,0.0137988794595003,-355.8463134765625,5.910861015319824,77.23001098632812,28.69,2
-0.2080612629652023,-0.9827478528022766,0.0312464255839586,-429.935302734375,5.912266254425049,77.23001098632812,28.69,2
-0.189499482512474,-0.9385486245155334,0.0424432568252086,-514.66845703125,5.916381359100342,77.16910552978516,28.69,2
-0.1775875985622406,-0.9157818555831908,0.0384331867098808,-577.7438354492188,5.919022083282471,77.13002014160156,28.69,2
-0.1755410134792328,-0.9067692160606384,0.0358597561717033,-588.8771362304688,5.920716762542725,77.10493469238281,28.69,2
-0.1854231804609298,-0.917778730392456,0.0398060493171215,-549.4340209960938,5.921804428100586,77.08883666992188,28.69,2
-0.1973627656698227,-0.919246256351471,0.04233855381608,-481.7577209472656,5.922502517700195,77.07850646972656,28.69,2
-0.2162204533815384,-0.9145902395248412,0.0383659973740577,-400.2047729492188,5.922950267791748,77.0718765258789,28.69,2
-0.233920007944107,-0.9172000885009766,0.0302188638597726,-307.2782287597656,5.9232378005981445,77.06761932373047,28.69,2
-0.2620718777179718,-0.9356682300567628,0.0249905008822679,-206.4042816162109,5.923422336578369,77.06488800048828,28.69,2
-0.2857359051704407,-0.9923022389411926,0.0160374641418457,-103.0203628540039,5.920786380767822,77.0631332397461,28.69,2
-0.2953243553638458,-1.0454399585723877,0.0102919209748506,1.2792941331863403,5.919095039367676,77.06201171875,28.69,2
-0.2734887897968292,-1.062747359275818,-0.0101885600015521,107.96147918701172,5.9180097579956055,77.06128692626953,28.69,2
-0.2482804358005523,-1.1186364889144895,-0.0401250794529914,219.42202758789065,5.917313098907471,77.06082153320312,28.69,2
-0.2656898200511932,-1.1936873197555542,-0.0257499665021896,338.73541259765625,5.916865825653076,77.0605239868164,28.69,2
-0.3272421061992645,-1.1858729124069214,-0.0221226215362548,459.6776428222656,5.916578769683838,77.06033325195312,28.69,2
-0.3611450493335724,-1.1864558458328247,-0.0533814467489719,557.0958862304688,5.916394710540772,77.06021118164062,28.69,2
-0.3213264942169189,-1.186829924583435,-0.0902348831295967,603.39501953125,5.916276454925537,77.06013488769531,28.69,2
-0.2845776975154876,-1.1814721822738647,-0.1082875207066536,595.2392578125,5.904724597930908,77.06008911132812,28.69,2
-0.2386033236980438,-1.133251667022705,-0.1030793413519859,550.9804077148438,5.897311210632324,77.06005859375,28.69,2
-0.2090996205806732,-1.0463287830352783,-0.082943707704544,487.769287109375,5.892553806304932,77.0600357055664,28.69,2
-0.1957636177539825,-0.9793511629104614,-0.0644240453839302,414.298095703125,5.889500617980957,77.06002044677734,28.69,2
-0.1872053444385528,-0.9475643634796144,-0.0749302878975868,338.3266906738281,5.8875412940979,77.06001281738281,28.69,2
-0.1817131340503692,-0.9327631592750548,-0.0928681418299675,267.572021484375,5.886283874511719,77.06000518798828,28.69,2
-0.1613952219486236,-0.9176668524742126,-0.1155751720070838,203.50051879882807,5.885477066040039,77.06000518798828,28.69,2
-0.1483563631772995,-0.8911855816841125,-0.124549463391304,141.02737426757812,5.884959220886231,77.06000518798828,28.69,2
-0.1455865502357483,-0.8518003225326538,-0.1247108727693557,76.71391296386719,5.885544776916504,77.06000518798828,28.69,2
-0.1606023609638214,-0.7985362410545349,-0.1080211326479911,13.025065422058104,5.885920524597168,77.06000518798828,28.69,2
-0.1814341992139816,-0.7811477780342102,-0.0973106175661087,-48.20655059814453,5.886161804199219,77.06000518798828,28.69,2
-0.205998420715332,-0.8091732859611511,-0.1072305515408515,-110.27590942382812,5.886316776275635,77.06000518798828,28.69,2
-0.216164544224739,-0.8271584510803223,-0.1079988181591034,-174.8855438232422,5.886415958404541,77.06000518798828,28.69,2
-0.205895259976387,-0.8834824562072754,-0.114089623093605,-237.3851776123047,5.88647985458374,77.06000518798828,28.69,2
-0.210500568151474,-0.9644101858139038,-0.1124005764722824,-293.2715148925781,5.886520862579346,77.06000518798828,28.69,2
-0.2246515452861786,-0.9827582836151124,-0.0889255404472351,-344.3155212402344,5.886547088623047,77.06000518798828,28.69,2
-0.2449283748865127,-0.9889352321624756,-0.0402739681303501,-396.16058349609375,5.886105060577393,77.04925537109375,28.69,2
-0.2243542224168777,-1.0376814603805542,-0.0146499667316675,-455.4089965820313,5.885821342468262,77.0423583984375,28.69,2
-0.1943575888872146,-1.0857572555541992,-0.0094015058130025,-524.7608642578125,5.885639190673828,77.03793334960938,28.69,2
-0.1751074790954589,-1.083022952079773,-0.0004355708661023,-591.5039672851562,5.885522365570068,77.03508758544922,28.69,2
-0.1627538651227951,-1.0308881998062134,0.0277093462646007,-629.0873413085938,5.885447502136231,77.03326416015625,28.69,2
-0.1716193556785583,-0.9526489973068236,0.0513689070940017,-621.496826171875,5.885399341583252,77.03209686279297,28.69,2
-0.1829064935445785,-0.9136351346969604,0.0497589297592639,-578.0090942382812,5.885368347167969,77.03134155273438,28.69,2
-0.1957477033138275,-0.9053915739059448,0.0375301912426948,-518.5565795898438,5.885348320007324,77.0308609008789,28.69,2
-0.2095862179994583,-0.9168946743011476,0.0240847170352935,-455.8340759277344,5.950979232788086,77.03055572509766,28.69,2
-0.2184669822454452,-0.9130811095237732,0.0154561847448349,-393.1590576171875,5.993097305297852,77.03035736083984,28.69,2
-0.229763925075531,-0.8994382619857788,0.0211144387722015,-328.1965637207031,6.0201263427734375,77.03022766113281,28.69,2
-0.2650025188922882,-0.896280825138092,0.0303433537483215,-258.2551574707031,6.037471771240234,77.03014373779297,28.69,2
-0.2876166105270386,-0.9166457056999208,0.0306681673973798,-186.1288909912109,6.048603057861328,77.03009033203125,28.69,2
-0.2909334897994995,-0.9800946712493896,0.0196810644119977,-116.72046661376952,6.055746555328369,77.03005981445312,28.69,2
-0.2818665206432342,-1.0208125114440918,0.0070323990657925,-48.59404373168945,6.060330867767334,77.03003692626953,28.69,2
-0.2424612194299698,-1.1085184812545776,-0.0346714332699775,23.32761001586914,6.063272953033447,77.03002166748047,28.69,2
-0.2731509208679199,-1.2039874792099,-0.0222501307725906,97.28716278076172,5.993549823760986,77.03001403808594,28.69,2
-0.3264324367046356,-1.1924829483032229,0.002514470135793,165.45384216308594,5.948805809020996,77.0300064086914,28.69,2
-0.3438321352005005,-1.179502248764038,-0.0375707782804966,226.76107788085932,5.92009162902832,77.0300064086914,28.69,2
-0.3214116096496582,-1.1823674440383911,-0.0800885111093521,292.60125732421875,5.9016642570495605,77.0300064086914,28.69,2
-0.2734367549419403,-1.184206247329712,-0.1017761677503585,374.0291748046875,5.889838695526123,77.0300064086914,28.69,2
-0.2370514869689941,-1.162995219230652,-0.1100962832570076,459.8787231445313,5.88224983215332,77.0300064086914,28.69,2
-0.208103746175766,-1.076612114906311,-0.0986423268914222,513.7145385742188,5.877379894256592,77.0300064086914,28.69,2
-0.2007222920656204,-0.987589716911316,-0.0800962895154953,507.6010437011719,5.8742547035217285,77.0300064086914,28.69,2
-0.2015830874443054,-0.9304602742195128,-0.0737922862172126,460.8946228027344,5.883265972137451,77.0300064086914,28.67,2
-0.2021354883909225,-0.910591185092926,-0.0865400657057762,427.2597351074219,5.889049053192139,77.0300064086914,28.67,2
-0.1856966614723205,-0.8978403806686401,-0.1059164032340049,435.7182922363281,5.892760276794434,77.0300064086914,28.67,2
-0.1695493906736374,-0.872864305973053,-0.1127532497048378,463.4265441894531,5.8951416015625,77.0300064086914,28.67,2
-0.1591870039701461,-0.8344449996948242,-0.1171407401561737,472.4272155761719,5.896669864654541,77.0300064086914,28.67,2
-0.1581348031759262,-0.8041919469833374,-0.1143586039543151,449.0125122070313,5.897650718688965,77.0300064086914,28.67,2
-0.1742528825998306,-0.7903750538825989,-0.1069754138588905,399.8264465332031,5.898280143737793,77.0300064086914,28.67,2
-0.1901943087577819,-0.8430836796760559,-0.1134328618645668,335.86083984375,5.898684024810791,77.0300064086914,28.67,2
-0.1948268264532089,-0.8713112473487854,-0.111979104578495,271.2989501953125,5.916845798492432,76.99776458740234,28.67,2
-0.1810063868761062,-0.9230127334594728,-0.1166439354419708,216.9659881591797,5.928501129150391,76.9770736694336,28.67,2
-0.1721372306346893,-1.00097393989563,-0.1308331042528152,168.08676147460938,5.935980796813965,76.96379089355469,28.67,2
-0.2168254852294922,-1.023016095161438,-0.0895589292049408,112.38603973388672,5.9407806396484375,76.95526885986328,28.67,2
-0.2622971534729004,-0.9867815375328064,-0.0350826680660247,48.69284439086914,5.94386100769043,76.94979858398438,28.67,2
-0.2746849358081817,-0.9747238159179688,-0.0001229393237736,-15.078018188476562,5.94583797454834,76.9462890625,28.67,2
-0.2322547286748886,-1.0453547239303589,-0.005676669999957,-79.79795837402344,5.94710636138916,76.94403839111328,28.67,2
-0.1826343685388565,-1.1186704635620115,-0.0204362832009792,-160.89028930664062,5.947920322418213,76.94258880615234,28.67,2
-0.1395953297615051,-1.1041446924209597,-0.0075170556083321,-273.0570373535156,5.951656341552734,76.94166564941406,28.67,2
-0.134366437792778,-1.0108562707901,0.0175670832395553,-407.3760070800781,5.954054355621338,76.94107055664062,28.67,2
-0.1310108453035354,-0.934195876121521,0.0336646400392055,-528.2571411132812,5.955593109130859,76.94068908691406,28.67,2
-0.1400529593229293,-0.9017929434776306,0.0327995754778385,-602.6109619140625,5.956580638885498,76.94044494628906,28.67,2
-0.157051220536232,-0.8921941518783569,0.0266466531902551,-627.1118774414062,5.95721435546875,76.9402847290039,28.67,2
-0.1847530454397201,-0.8804364204406738,0.0059047401882708,-617.8753051757812,5.957621097564697,76.940185546875,28.67,2
-0.202530488371849,-0.8560976982116699,-0.007406226824969,-585.7412719726562,5.957881927490234,76.94011688232422,28.67,2
-0.2139390259981155,-0.8404784798622131,-0.0159484390169382,-534.4025268554688,5.958049297332764,76.94007873535156,28.67,2
-0.2324559241533279,-0.8472483158111572,-0.0102347899228334,-469.67523193359375,6.005897521972656,76.94004821777344,28.67,2
-0.2443389892578125,-0.8795816898345947,-0.0065680989064276,-397.2945861816406,6.036603927612305,76.94003295898438,28.67,2
-0.2295737713575363,-0.9507113099098206,-0.0322039015591144,-318.3222351074219,6.056309700012207,76.94002532958984,28.67,2
-0.1921094208955764,-1.1810847520828247,-0.0934376791119575,-232.7193756103516,6.068955421447754,76.94001770019531,28.67,2
-0.2072513848543167,-1.2729474306106567,-0.1159406676888465,-143.66751098632812,6.077070713043213,76.94001007080078,28.67,2
-0.2449574917554855,-1.1359775066375732,-0.1023929193615913,-55.61227798461914,6.082278728485107,76.94001007080078,28.67,2
-0.2635573446750641,-1.0200892686843872,-0.0992965251207351,30.10165786743164,6.085620880126953,76.94001007080078,28.67,2
-0.2531025409698486,-1.0576742887496948,-0.1085049882531166,115.19081115722656,6.087765693664551,76.94001007080078,28.67,2
-0.2519910335540771,-1.1321742534637451,-0.1144144535064697,200.58837890625,6.024875640869141,76.94001007080078,28.69,2
-0.240082174539566,-1.124006271362305,-0.1238045766949653,287.1511535644531,5.984516143798828,76.94001007080078,28.69,2
-0.1988531202077865,-1.0571889877319336,-0.1354283988475799,378.5279235839844,5.958615779876709,76.94001007080078,28.69,2
-0.1723946779966354,-1.0087116956710815,-0.131692349910736,471.3818664550781,5.941994667053223,76.94001007080078,28.69,2
-0.1722085028886795,-0.9776017665863036,-0.1180992126464843,547.2744750976562,5.931327819824219,76.94001007080078,28.69,2
-0.1888823509216308,-0.9464417099952698,-0.1149736940860748,589.421875,5.924482822418213,76.94001007080078,28.69,2
-0.1883871108293533,-0.926444947719574,-0.1241634711623191,599.122802734375,5.920089721679688,76.94001007080078,28.69,2
-0.1880692988634109,-0.9248077273368835,-0.1300609409809112,584.0821533203125,5.917270660400391,76.94001007080078,28.69,2
-0.2046586722135543,-0.9237570762634276,-0.1338455975055694,546.2493896484375,5.993958473205566,76.92926025390625,28.69,2
-0.2488914132118225,-0.9454739093780518,-0.1474699229001999,490.2217102050781,6.043172359466553,76.92236328125,28.69,2
-0.2548863589763641,-0.9426171779632568,-0.1562132239341735,426.6805419921875,6.0747551918029785,76.91793823242188,28.69,2
-0.2475380152463913,-0.9351861476898192,-0.1562263965606689,362.4805908203125,6.095023155212402,76.91509246826172,28.69,2
-0.2652133703231811,-0.9360151290893556,-0.1562348455190658,298.4382629394531,6.108029842376709,76.91326904296875,28.69,2
-0.2989474833011627,-0.9533404111862184,-0.1562402695417404,234.2606201171875,6.116376876831055,76.91210174560547,28.69,2
-0.3429872095584869,-0.9084810614585876,-0.1338526606559753,169.1435089111328,6.121733665466309,76.91134643554688,28.69,2
-0.3600538074970245,-0.8349106907844543,-0.1082900315523147,101.43157196044922,6.125171184539795,76.9108657836914,28.69,2
-0.3710061609745025,-0.7765018939971924,-0.0918854027986526,30.4100284576416,6.119573593139648,76.91056060791016,28.69,2
-0.3892303109169006,-0.755811870098114,-0.0757600888609886,-43.6633186340332,6.115981101989746,76.91036224365234,28.69,2
-0.4009255170822143,-0.7761208415031433,-0.0430206879973411,-123.85450744628906,6.113675594329834,76.91023254394531,28.69,2
-0.3916375041007995,-0.8059472441673279,-0.0052171037532389,-220.9872589111328,6.11219596862793,76.91014862060547,28.69,2
-0.3520903587341308,-0.8418814539909363,0.0190430618822574,-342.8065795898437,6.111246585845947,76.91009521484375,28.69,2
-0.3267112672328949,-0.8705397248268127,0.034611839801073,-471.1392517089844,6.110637187957764,76.91006469726562,28.69,2
-0.3216199874877929,-0.905724287033081,0.0669940859079361,-565.3863525390625,6.110246181488037,76.91004180908203,28.69,2
-0.3183526694774627,-0.945097029209137,0.0989706888794899,-600.8049926757812,6.109995365142822,76.91002655029297,28.69,2
-0.2043004184961319,-1.0767219066619873,0.1978602856397628,-588.2713623046875,6.112129211425781,76.91001892089844,28.69,2
-0.1870859861373901,-1.1891800165176392,0.2109419554471969,-548.4863891601562,6.113498687744141,76.9100112915039,28.69,2
-0.1928320825099945,-1.1773825883865356,0.1913481503725052,-487.1325073242188,6.114377498626709,76.9100112915039,28.69,2
-0.2133129239082336,-1.0970406532287598,0.1339917778968811,-404.1340942382813,6.114941596984863,76.9100112915039,28.69,2
-0.2096630185842514,-1.0398839712142944,0.0859882086515426,-308.1195983886719,6.11530351638794,76.9100112915039,28.69,2
-0.2073207199573516,-1.0311930179595947,0.0327911861240863,-209.8890991210937,6.115535736083984,76.9100112915039,28.69,2
-0.1946220248937606,-1.031213402748108,-0.0013476005988195,-110.54818725585938,6.115684986114502,76.9100112915039,28.69,2
-0.1920704990625381,-1.0144331455230713,-0.0288536846637725,-3.419074058532715,6.115780830383301,76.9100112915039,28.69,2
-0.2240197360515594,-0.9756757020950316,-0.0409077331423759,117.07694244384766,5.999244213104248,76.9100112915039,28.67,2
-0.255718469619751,-0.9396078586578368,-0.0542411021888256,247.05746459960932,5.924458026885986,76.9100112915039,28.67,2
-0.2928542196750641,-0.905266046524048,-0.0739932358264923,363.34521484375,5.876464366912842,76.9100112915039,28.67,2
-0.3278813362121582,-0.8888252377510071,-0.0698756948113441,431.7490539550781,5.845664978027344,76.9100112915039,28.67,2
-0.3503597378730774,-0.8838722705841064,-0.0728310719132423,446.7281494140625,5.825899600982666,76.9100112915039,28.67,2
-0.3535895347595215,-0.88629150390625,-0.0635321140289306,445.5859680175781,5.813215255737305,76.9100112915039,28.67,2
-0.3444666862487793,-0.8822462558746338,-0.0519668012857437,457.9365539550781,5.805075168609619,76.9100112915039,28.67,2
-0.3274165987968445,-0.8460635542869568,-0.0277515277266502,467.8185424804688,5.799851417541504,76.9100112915039,28.67,2
-0.3164748549461365,-0.7836591601371765,0.0101795392110943,448.8385925292969,5.783186912536621,76.86343383789062,28.67,2
-0.3262463808059692,-0.7212205529212952,0.0457170605659484,401.7962951660156,5.772492408752441,76.83354187011719,28.67,2
-0.3325171768665313,-0.6139777302742004,0.0909140929579734,338.4827575683594,5.765629291534424,76.81436157226562,28.67,2
-0.3253458738327026,-0.5339599251747131,0.1199189499020576,262.9467468261719,5.76122522354126,76.80204772949219,28.67,2
-0.3263415098190307,-0.5050001740455627,0.1273370534181594,181.5016326904297,5.75839900970459,76.79415130615234,28.67,2
-0.3269804716110229,-0.5367954969406128,0.1544886529445648,104.26788330078124,5.756585121154785,76.78907775878906,28.67,2
-0.321792721748352,-0.5739932060241699,0.1663152128458023,31.38114356994629,5.755421161651611,76.78582763671875,28.67,2
-0.2848768830299377,-0.6874289512634277,0.1459159553050995,-46.13545989990234,5.754673957824707,76.78373718261719,28.67,2
-0.2443931102752685,-0.8273987770080566,0.1160315573215484,-132.78167724609375,5.780819416046143,76.78239440917969,28.67,2
-0.2072173953056335,-0.9899944067001344,0.0912556946277618,-225.30825805664065,5.797597885131836,76.78153991699219,28.67,2
-0.1497735232114792,-1.1783055067062378,0.0417693294584751,-319.5843505859375,5.808365345001221,76.78099060058594,28.67,2
-0.1185071244835853,-1.3271416425704956,-0.0067814937792718,-411.9845886230469,5.815275192260742,76.78063201904297,28.67,2
-0.1152354702353477,-1.4282538890838623,-0.0155475214123725,-492.3759460449219,5.819709777832031,76.78040313720703,28.67,2
-0.0907448157668113,-1.5099352598190308,-0.0435641519725322,-543.744384765625,5.822555541992188,76.78025817871094,28.67,2
-0.041441474109888,-1.685504674911499,-0.1511080116033554,-556.4215698242188,5.8243818283081055,76.78016662597656,28.67,2
-0.0825724974274635,-1.501492977142334,-0.0689835548400878,-539.2067260742188,5.825553894042969,76.78010559082031,28.67,2
-0.2377168387174606,-1.2042760848999023,0.1572502106428146,-509.7268981933594,5.783614635467529,76.78006744384766,28.67,2
-0.5276038646697998,-0.8400083780288696,0.5095516443252563,-477.0477600097656,5.75670051574707,76.78004455566406,28.67,2
-0.5792900919914246,-0.6678178310394287,0.6572695970535278,-439.24163818359375,5.739428520202637,76.780029296875,28.67,2
-0.5005038380622864,-0.5797069668769836,0.6065243482589722,-393.1512145996094,5.728343963623047,76.78002166748047,28.67,2
-0.5115188956260681,-0.534358024597168,0.6075456142425537,-340.3471984863281,5.721230983734131,76.78001403808594,28.67,2
-0.5017943978309631,-0.5388423204421997,0.5298321843147278,-285.53839111328125,5.716666221618652,76.7800064086914,28.67,2
-0.5739226341247559,-0.5361223220825195,0.3344180285930633,-231.8612365722656,5.713736534118652,76.7800064086914,28.67,2
-0.6873836517333984,-0.539974570274353,0.2034146934747696,-178.6738739013672,5.711856365203857,76.7800064086914,28.67,2
-0.8329674601554871,-0.604022204875946,0.1137465238571167,-123.74085235595705,5.908499240875244,76.7800064086914,28.69,2
-0.9096014499664308,-0.6395265460014343,0.0562026500701904,-66.69161224365234,6.034693241119385,76.7800064086914,28.69,2
-0.9307918548583984,-0.6343222856521606,0.0360676273703575,-9.115463256835938,6.115677356719971,76.7800064086914,28.69,2
-0.8996084332466125,-0.6645691394805908,0.0231461264193058,50.33933639526367,6.167648315429688,76.7800064086914,28.69,2
-0.8628033995628357,-0.7063709497451782,0.0148538518697023,120.17113494873048,6.201000213623047,76.7800064086914,28.69,2
-0.8055974245071411,-0.7947724461555481,0.0095323473215103,205.2640686035156,6.222403526306152,76.7800064086914,28.69,2
-0.7352992296218872,-0.8571012020111084,-0.0050782370381057,286.6873779296875,6.236138820648193,76.7800064086914,28.69,2
-0.6845881342887878,-0.8915024399757385,-0.0200522430241107,325.4302978515625,6.244953632354736,76.7800064086914,28.69,2
-0.6184580326080322,-0.8967858552932739,-0.03525947406888,294.86724853515625,6.0830583572387695,76.72268676757812,28.69,2
-0.54803067445755,-0.8777853846549988,-0.0618119239807128,203.11846923828125,5.97916316986084,76.68589782714844,28.69,2
-0.5084322094917297,-0.8432008624076843,-0.1068406254053115,86.70321655273438,5.912489414215088,76.66229248046875,28.69,2
-0.6061712503433228,-0.8601909279823303,-0.0517708398401737,-11.621724128723145,5.869701862335205,76.64714050292969,28.69,2
-0.6968833804130554,-0.8487030863761902,-0.078005738556385,-66.4990005493164,5.842243194580078,76.63742065429688,28.69,2
-0.6095551252365112,-1.1044262647628784,0.1906447112560272,-80.79383850097656,5.824621677398682,76.63117980957031,28.69,2
-0.9061726331710817,-1.0222325325012207,0.3742446303367615,-73.54849243164062,5.813313484191895,76.6271743774414,28.69,2
-0.7942448854446411,-0.8463343381881714,0.2961463928222656,-61.01359939575195,5.806056499481201,76.62460327148438,28.69,2
-0.7783938050270081,-0.7670396566390991,0.1340719610452652,-49.80601501464844,5.913406848907471,76.62295532226562,28.69,2
-0.8577858805656433,-0.7497395277023315,-0.0091224927455186,-36.26172256469727,5.982297897338867,76.62189483642578,28.69,2
-0.7855841517448425,-0.7386372685432434,-0.1178097799420356,-14.249760627746582,6.026508331298828,76.6212158203125,28.69,2
-0.7224559187889099,-0.725914716720581,-0.1987545788288116,17.38429832458496,6.054880142211914,76.62078094482422,28.69,2
-0.6763460636138916,-0.7289456725120544,-0.2171136438846588,55.870365142822266,6.073087215423584,76.62049865722656,28.69,2
-0.6131687760353088,-0.7532818913459778,-0.1729176789522171,103.93765258789062,6.084771633148193,76.62032318115234,28.69,2
-0.5726252198219299,-0.7744972109794617,-0.1221641600131988,170.5457305908203,6.0922698974609375,76.62020874023438,28.69,2
-0.57459557056427,-0.782514214515686,-0.0895934775471687,263.67633056640625,6.097082138061523,76.62013244628906,28.69,2
-0.60944664478302,-0.776463508605957,-0.0854848101735115,383.4861450195313,5.96750545501709,76.62008666992188,28.69,2
-0.6542031764984131,-0.7669827342033386,-0.0996414273977279,510.5865783691406,5.884350776672363,76.62005615234375,28.69,2
-0.6717298030853271,-0.755300760269165,-0.1143241003155708,615.5106811523438,5.830986976623535,76.62003326416016,28.69,2
-0.6717818379402161,-0.7478039264678955,-0.1181488186120987,678.1840209960938,5.796741008758545,76.62002563476562,28.69,2
-0.6662174463272095,-0.7429929375648499,-0.1206033080816268,702.923828125,5.774764060974121,76.6200180053711,28.69,2
-0.6682443022727966,-0.7399054765701294,-0.1221784576773643,704.291015625,5.760660648345947,76.62001037597656,28.69,2
-0.6751428246498108,-0.7379241585731506,-0.1287870705127716,693.772216796875,5.751609802246094,76.62001037597656,28.69,2
-0.6739721298217773,-0.7422504425048828,-0.1330281049013137,674.160400390625,5.7458014488220215,76.62001037597656,28.69,2
-0.6676230430603027,-0.7450267672538757,-0.1357497572898864,631.37353515625,5.714530944824219,76.62001037597656,28.69,2
-0.6635485887527466,-0.7468084692955017,-0.1374963521957397,549.17724609375,5.69446325302124,76.62001037597656,28.69,2
-0.660933792591095,-0.747951865196228,-0.1386172175407409,397.11224365234375,5.681585311889648,76.62001037597656,28.69,2
-0.664853572845459,-0.7486855983734131,-0.1337387412786483,177.35984802246094,5.673320770263672,76.62001037597656,28.69,2
-0.6673690676689148,-0.7435587048530579,-0.136205792427063,-50.69610595703125,5.668017387390137,76.62001037597656,28.69,2
-0.6689833402633667,-0.7402685880661011,-0.1377890110015869,-245.8583068847656,5.664613723754883,76.62001037597656,28.69,2
-0.6756170988082886,-0.7381571531295776,-0.1388050317764282,-397.80670166015625,5.662429332733154,76.62001037597656,28.69,2
-0.6854720115661621,-0.7368021607398987,-0.145054817199707,-497.740234375,5.661027431488037,76.62001037597656,28.69,2
-0.6806007623672485,-0.7359325885772705,-0.1490655690431594,-543.8515014648438,5.717967987060547,76.57701873779297,28.69,2
-0.6998658180236816,-0.7465701103210449,-0.1516394466161728,-551.213134765625,5.754508972167969,76.54942321777344,28.69,2
-0.7290223240852356,-0.7477989196777344,-0.1364978849887848,-534.7930908203125,5.777958869934082,76.5317153930664,28.69,2
-0.7309399843215942,-0.7317941784858704,-0.0931942611932754,-501.2519226074219,5.793007850646973,76.52035522460938,28.69,2
-0.7489639520645142,-0.7271209955215454,-0.071002259850502,-448.0428161621094,5.8026652336120605,76.5130615234375,28.69,2
-0.8556928634643555,-0.7297198176383972,-0.1239340081810951,-378.3786315917969,5.808863162994385,76.50838470458984,28.69,2
-0.8794031143188477,-0.7033987045288086,-0.2026847451925277,-300.85577392578125,5.812840461730957,76.50537872314453,28.69,2
-0.8330434560775757,-0.6809095740318298,-0.2364291101694107,-221.6178741455078,5.815392971038818,76.50344848632812,28.69,2
-0.7473147511482239,-0.672075092792511,-0.2021065652370453,-141.8131866455078,5.8854289054870605,76.50221252441406,28.69,2
-0.6083323955535889,-0.6831989288330078,-0.1520914584398269,-60.989139556884766,5.930373668670654,76.50141906738281,28.69,2
-0.4911526441574096,-0.7351197600364685,-0.1032013148069381,18.593883514404297,5.959216594696045,76.50090789794922,28.69,2
-0.4047578871250152,-0.7628418207168579,-0.0158486943691968,92.32547760009766,5.977726459503174,76.50057983398438,28.69,2
-0.3157280683517456,-0.7918277978897095,0.0234158672392368,154.5385284423828,5.989604949951172,76.50037384033203,28.69,2
-0.398538202047348,-0.8160271048545837,-0.0409507863223552,206.91989135742188,5.997228145599365,76.50023651123047,28.69,2
-0.4852676391601562,-0.8315567970275879,-0.0878553763031959,257.5345764160156,6.002120018005371,76.50015258789062,28.69,2
-0.5801100134849548,-0.8303273320198059,-0.0955649465322494,310.8452453613281,6.0052595138549805,76.5000991821289,28.69,2
-0.6073877215385437,-0.8183428049087524,-0.0949147269129753,358.8212280273437,6.199614524841309,76.50006103515625,28.69,2
-0.6025019288063049,-0.8218473792076111,-0.0944974571466445,383.1858825683594,6.3243408203125,76.50003814697266,28.69,2
-0.5881709456443787,-0.857683002948761,-0.0998274460434913,368.5847778320313,6.404382705688477,76.5000228881836,28.69,2
-0.5733763575553894,-0.88068026304245,-0.1088457033038139,316.2380676269531,6.455749034881592,76.50001525878906,28.69,2
-0.5358932018280029,-0.889840841293335,-0.1426219791173935,242.48426818847656,6.488712787628174,76.50000762939453,28.69,2
-0.5286319851875305,-0.9293062090873718,-0.1866887360811233,161.74581909179688,6.509867191314697,76.50000762939453,28.69,2
-0.5015810132026672,-0.9938172101974488,-0.2149682492017746,76.17033386230469,6.52344274520874,76.50000762939453,28.69,2
-0.4898190498352051,-0.9960322380065918,-0.2499097436666488,-17.86882209777832,6.5321550369262695,76.50000762939453,28.69,2
-0.4990642368793487,-1.0758225917816162,-0.311517596244812,-115.11466979980467,6.672094345092773,76.50000762939453,28.67,2
-0.3146729469299316,-1.1662118434906006,-0.3566517531871795,-194.8181304931641,6.761899471282959,76.50000762939453,28.67,2
-0.2355256378650665,-1.2690006494522097,-0.3576273918151855,-236.69552612304688,6.819530963897705,76.50000762939453,28.67,2
-0.1287557035684585,-1.2789868116378784,-0.324666827917099,-244.54296875,6.856515884399414,76.50000762939453,28.67,2
-0.0322480350732803,-1.2686020135879517,-0.2699280083179474,-243.55311584472656,6.880250453948975,76.50000762939453,28.67,2
0.0296850372105836,-1.233948826789856,-0.2180064469575882,-254.0346221923828,6.895482063293457,76.50000762939453,28.67,2
0.0190501473844051,-1.2117104530334473,-0.2014795094728469,-274.2530212402344,6.905256748199463,76.50000762939453,28.67,2
-0.0213613603264093,-1.1638524532318115,-0.2132645696401596,-285.7806701660156,6.911529541015625,76.50000762939453,28.67,2
-0.0640884637832641,-1.1219444274902344,-0.237620860338211,-272.47833251953125,6.809316158294678,76.4498519897461,28.67,2
-0.0915082544088363,-1.050268054008484,-0.2588491141796112,-235.0016021728516,6.74372148513794,76.41766357421875,28.67,2
-0.1091047003865242,-0.9930747151374816,-0.2668744027614593,-186.25650024414065,6.701626300811768,76.39700317382812,28.67,2
-0.1092015355825424,-0.9283824563026428,-0.2384379208087921,-138.02554321289062,6.674612045288086,76.38374328613281,28.67,2
-0.0868725851178169,-0.8644756078720093,-0.186602383852005,-97.64076232910156,6.657276153564453,76.37523651123047,28.67,2
-0.0725431442260742,-0.8234638571739197,-0.1477395445108413,-72.68426513671875,6.646150588989258,76.36978149414062,28.67,2
-0.0857384353876113,-0.7915471196174622,-0.1004085093736648,-73.72526550292969,6.639010906219482,76.36627960205078,28.67,2
-0.1109997332096099,-0.7766625285148621,-0.0532408542931079,-111.69509887695312,6.634429454803467,76.36402893066406,28.67,2
-0.1440043002367019,-0.7615126967430115,-0.0285691432654857,-182.64260864257807,6.69254207611084,76.36258697509766,28.67,2
-0.1931736171245575,-0.757388174533844,0.0208503901958465,-254.55471801757807,6.729835510253906,76.36166381835938,28.67,2
-0.2191298753023147,-0.7379480004310608,0.0581627748906612,-287.9927978515625,6.753768444061279,76.36106872558594,28.67,2
-0.2469826489686966,-0.7030813097953796,0.0877054929733276,-273.0990295410156,6.769127368927002,76.36068725585938,28.67,2
-0.2368680834770202,-0.6974992156028748,0.123457632958889,-228.241943359375,6.7789835929870605,76.36044311523438,28.67,2
-0.2975504398345947,-0.7275035381317139,0.2303679138422012,-169.73062133789062,6.785308837890625,76.36028289794922,28.67,2
-0.2917106747627258,-0.7187697291374207,0.2653901278972626,-103.31302642822266,6.789368152618408,76.36018371582031,28.67,2
-0.3103541433811188,-0.6851760149002075,0.3102564811706543,-35.91294860839844,6.791973114013672,76.36011505126953,28.67,2
-0.372698426246643,-0.6916064023971558,0.3390491008758545,25.6045150756836,6.788595676422119,76.36007690429688,28.67,2
-0.395914077758789,-0.7237219214439392,0.3631243407726288,84.2245864868164,6.786427974700928,76.36004638671875,28.67,2
-0.3548347949981689,-0.7947117686271667,0.389769971370697,148.43702697753906,6.785037040710449,76.36003112792969,28.67,2
-0.3956457674503326,-0.7898889780044556,0.4124673902988434,225.9148712158203,6.784144401550293,76.36002349853516,28.67,2
-0.3770537078380584,-0.797989547252655,0.4214355051517486,316.48779296875,6.783571243286133,76.36001586914062,28.67,2
-0.3707201778888702,-0.7975902557373047,0.4383862912654876,403.05078125,6.783203601837158,76.3600082397461,28.67,2
-0.3666556775569916,-0.7917362451553345,0.44366654753685,455.3310241699219,6.782967567443848,76.3600082397461,28.67,2
-0.313667356967926,-0.7431972622871399,0.4694462120532989,455.1622619628906,6.782816410064697,76.3600082397461,28.67,2
-0.2740647196769714,-0.7008522152900696,0.508381187915802,411.8087158203125,6.6463823318481445,76.3600082397461,28.71,2
-0.2710411250591278,-0.7016664743423462,0.6005407571792603,346.4164123535156,6.558826446533203,76.3600082397461,28.71,2
-0.2299163341522216,-0.702189028263092,0.6596834063529968,277.0841064453125,6.502638339996338,76.3600082397461,28.71,2
