acc_x,acc_y,acc_z,bvp,eda,hr,temp,label
0.0,0.0,0.0,0.0,0.0,0.0,24.87,2
-0.0416666641831398,-0.0963541641831398,0.1276041567325592,5.4683332443237305,0.2514269649982452,14.88166618347168,24.87,2
-0.0891768336296081,-0.208841472864151,0.3071646392345428,12.202926635742188,0.5887070894241333,34.844879150390625,24.87,2
-0.1155523285269737,-0.3166528344154358,0.4683347046375274,18.025779724121094,0.8820827603340149,52.20943832397461,24.87,2
-0.1561474800109863,-0.4059834480285644,0.5645641684532166,21.25576400756836,1.096116065979004,64.87782287597656,24.87,2
-0.211080715060234,-0.4664640426635742,0.6132464408874512,21.32400703430176,1.241025686264038,73.45484924316406,24.87,2
-0.2249125093221664,-0.5283603072166443,0.6396359205245972,19.83346939086914,1.3361072540283203,79.08261108398438,24.87,2
-0.2450293451547622,-0.5796061754226685,0.6511477828025818,18.62530899047852,1.3976869583129885,82.7274398803711,24.87,2
-0.2635782361030578,-0.5790762305259705,0.6473830342292786,17.675315856933594,1.401139497756958,85.07533264160156,24.87,2
-0.2587164640426636,-0.5731409788131714,0.644963264465332,16.047832489013672,1.4033585786819458,86.58442687988281,24.87,2
-0.2332085072994232,-0.5749261379241943,0.6490058898925781,13.85657787322998,1.4047834873199463,87.55349731445312,24.87,2
-0.2280291318893432,-0.6264472603797913,0.6516008973121643,11.94130802154541,1.4056981801986694,88.17555236816406,24.87,2
-0.196717157959938,-0.7210872173309326,0.625278651714325,10.407556533813477,1.406285285949707,88.57479858398438,24.87,2
-0.243794247508049,-0.725847601890564,0.5859950184822083,8.832123756408691,1.4066619873046875,88.83102416992188,24.87,2
-0.2907993793487549,-0.7400980591773987,0.5495890974998474,7.194136619567871,1.4069037437438965,88.99545288085938,24.87,2
-0.2929760217666626,-0.7436454892158508,0.5374212265014648,5.7309675216674805,1.4070589542388916,89.1009750366211,24.87,2
-0.2719817757606506,-0.7403242588043213,0.5128192901611328,4.394321441650391,1.427815318107605,89.16869354248047,24.87,2
-0.2473133206367492,-0.7325951457023621,0.4802378118038177,3.0493078231811523,1.4411355257034302,89.21215057373047,24.87,2
-0.2090914249420166,-0.7332327961921692,0.4481333494186401,1.9819483757019043,1.449683666229248,89.24004364013672,24.87,2
-0.1733672618865966,-0.7336419820785522,0.4219327867031097,1.7053921222686768,1.455169439315796,89.25794219970703,24.87,2
-0.167234867811203,-0.7451001405715942,0.3939232230186462,2.230098962783813,1.4586899280548096,89.26942443847656,24.87,2
-0.2136794328689575,-0.8028333187103271,0.3647527396678924,2.939413547515869,1.4609490633010864,89.27679443359375,24.87,2
-0.2490826547145843,-0.8454809188842773,0.3460327982902527,3.2871334552764893,1.462398886680603,89.28152465820312,24.87,2
-0.232617974281311,-0.8560563325881958,0.3284216523170471,3.202178478240967,1.4633293151855469,89.28456115722656,24.87,2
-0.2052585631608963,-0.8684408068656921,0.3507064580917358,2.8825488090515137,1.5171760320663452,89.28650665283203,24.87,2
-0.1821030974388122,-0.8763884902000427,0.3762031197547912,2.6416032314300537,1.5517317056655884,89.28775787353516,24.87,2
-0.1840365827083587,-0.909477710723877,0.3701743185520172,2.784331798553467,1.5739076137542725,89.28855895996094,24.87,2
-0.1964729279279709,-0.9419080018997192,0.3607076108455658,3.302253484725952,1.5881388187408447,89.28907775878906,24.87,2
-0.2044538557529449,-0.9571221470832824,0.3322413265705108,3.806589365005493,1.5972715616226196,89.2894058227539,24.87,2
-0.2207711040973663,-0.9668856859207152,0.3083755373954773,4.087252140045166,1.6031324863433838,89.28961944580078,24.87,2
-0.2368403524160385,-0.9675536155700684,0.2986575961112976,4.568301677703857,1.6068936586380005,89.28975677490234,24.87,2
-0.2415549010038375,-0.9679822325706482,0.3036167323589325,5.958949565887451,1.6093074083328247,89.28984069824219,24.87,2
-0.2389826476573944,-0.9794528484344482,0.3067992329597473,8.664170265197754,1.6269227266311646,88.55905151367188,24.87,2
-0.2485274672508239,-0.9812162518501282,0.2920482456684112,12.675161361694336,1.6382272243499756,88.09007263183594,24.87,2
-0.2658483386039734,-0.9823479056358336,0.3049730062484741,17.799978256225586,1.645481824874878,87.78910827636719,24.87,2
-0.276963859796524,-0.9830741286277772,0.3076696097850799,24.05158042907715,1.650137424468994,87.5959701538086,24.87,2
-0.2896949648857116,-1.0115290880203247,0.2926068007946014,31.764299392700195,1.6531251668930054,87.4720230102539,24.87,2
-0.2978650331497192,-1.040985345840454,0.2773425877094269,41.32107162475586,1.65504252910614,87.3924789428711,24.87,2
-0.2975103557109833,-1.099073052406311,0.2619491219520569,52.92106628417969,1.6562728881835938,87.34143829345703,24.87,2
-0.297282725572586,-1.136350393295288,0.2184838354587555,66.45565032958984,1.657062530517578,87.30867767333984,24.87,2
-0.3027344346046448,-1.1602729558944702,0.1793947666883468,81.16009521484375,1.6740949153900146,87.28765869140625,24.87,2
-0.3118307888507843,-1.142038345336914,0.1487118750810623,95.44378662109376,1.685025334358215,87.274169921875,24.87,2
-0.3232660889625549,-1.1079453229904177,0.1346191465854644,107.3974838256836,1.6920398473739624,87.26551055908203,24.87,2
-0.3250068426132202,-1.0300886631011963,0.1255752444267273,115.5845718383789,1.696541428565979,87.25995635986328,24.87,2
-0.3317217230796814,-0.9801247715950012,0.0973802879452705,119.9106903076172,1.699430227279663,87.25638580322266,24.87,2
-0.3136398494243622,-0.9480608105659484,0.0848841592669487,122.68694305419922,1.7012841701507568,87.25409698486328,24.87,2
-0.2684493064880371,-0.9330817461013794,0.0656693130731582,128.3520965576172,1.7024738788604736,87.25263214111328,24.87,2
-0.2506441473960876,-0.9402623772621156,0.0365450121462345,139.18505859375,1.7032374143600464,87.2516860961914,24.87,2
-0.2392178326845169,-0.9840549230575562,0.0122569380328059,149.5762939453125,1.7138266563415527,87.25108337402344,24.87,2
-0.2206895351409912,-1.0233540534973145,0.0078657977283,147.06982421875,1.720622181892395,87.25069427490234,24.87,2
-0.1976035833358764,-1.0261828899383545,-0.0005499582039192,120.80602264404295,1.7249832153320312,87.25044250488281,24.87,2
-0.1995816677808761,-0.9944115877151488,-0.0227440297603607,68.96399688720703,1.727781891822815,87.25028228759766,24.87,2
-0.2232421934604644,-0.9684247970581056,-0.036986906081438,2.01138973236084,1.729577898979187,87.25018310546875,24.87,2
-0.2608172595500946,-0.9405524134635924,-0.0405293889343738,-59.8422737121582,1.730730414390564,87.25011444091797,24.87,2
-0.2513441145420074,-0.9058722257614136,-0.0204116553068161,-98.9631805419922,1.7314701080322266,87.25007629394531,24.87,2
-0.2228737026453018,-0.866823136806488,0.0092920726165175,-112.78361511230467,1.7319447994232178,87.25004577636719,24.87,2
-0.1766141653060913,-0.8193725943565369,0.0563430897891521,-111.23106384277344,1.7350037097930908,87.25003051757812,24.91,2
-0.1469274461269378,-0.7945193648338318,0.0921354964375495,-106.17925262451172,1.7369667291641235,87.2500228881836,24.91,2
-0.1390717774629593,-0.8289499282836914,0.1039094552397728,-105.87858581542967,1.7382265329360962,87.25001525878906,24.91,2
-0.1508237868547439,-0.8958277106285095,0.1002697572112083,-111.66495513916016,1.73903489112854,87.25000762939453,24.91,2
-0.1639633178710937,-0.9667348861694336,0.0979340076446533,-117.38097381591795,1.739553689956665,87.25000762939453,24.91,2
-0.2059821635484695,-1.0794123411178589,0.0908372774720192,-117.0116195678711,1.7398866415023804,87.25000762939453,24.91,2
-0.2609363198280334,-1.1741132736206057,0.0694896876811981,-110.90633392333984,1.7401002645492554,87.25000762939453,24.91,2
-0.2570182979106903,-1.2013002634048462,0.0949744507670402,-102.1267547607422,1.7402373552322388,87.25000762939453,24.91,2
-0.260101705789566,-1.1235851049423218,0.1169268786907196,-92.03938293457033,1.741702437400818,86.84159088134766,24.91,2
-0.2284938246011734,-1.0401253700256348,0.1254169046878814,-81.37069702148438,1.7426426410675049,86.5794906616211,24.91,2
-0.1858185976743698,-0.9417835474014282,0.1028764471411705,-71.1851806640625,1.743246078491211,86.41129302978516,24.91,2
-0.1584320962429046,-0.8954667448997498,0.0772157311439514,-62.02626037597656,1.743633270263672,86.30335235595703,24.91,2
-0.1464547961950302,-0.9217210412025452,0.0495526120066642,-53.78409194946289,1.7438818216323853,86.23408508300781,24.91,2
-0.1611595451831817,-0.9497650861740112,0.0038111393805593,-46.2735481262207,1.7440413236618042,86.18962860107422,24.91,2
-0.18738953769207,-0.9509688019752502,-0.025543101131916,-39.48687744140625,1.7441436052322388,86.16110229492188,24.91,2
-0.2434068620204925,-0.906959056854248,-0.02758764103055,-33.440608978271484,1.7442092895507812,86.14279174804688,24.91,2
-0.290551096200943,-0.8507272601127625,-0.0177041608840227,-27.88023376464844,1.7525142431259155,86.13104248046875,24.91,2
-0.320805549621582,-0.8034453988075256,-0.0001659632252994,-22.58510398864746,1.7578439712524414,86.12350463867188,24.91,2
-0.3234277963638305,-0.767504870891571,0.0222845915704965,-17.87935447692871,1.7612642049789429,86.11866760253906,24.91,2
-0.3139150440692901,-0.7500380873680115,0.0478876158595085,-14.203863143920898,1.7634592056274414,86.11556243896484,24.91,2
-0.3022125363349914,-0.7556222081184387,0.0811114832758903,-11.42240047454834,1.7648677825927734,86.11357116699219,24.91,2
-0.3003003299236297,-0.775999128818512,0.1192259714007377,-9.071371078491213,1.765771746635437,86.11228942871094,24.91,2
-0.299073189496994,-0.8338580131530762,0.1604789793491363,-7.010898590087891,1.7663518190383911,86.1114730834961,24.91,2
-0.3094812333583832,-0.9269663095474244,0.1813550144433975,-5.384087562561035,1.7667241096496582,86.11094665527344,24.91,2
-0.316160500049591,-1.031499981880188,0.1891542822122573,-4.164547443389893,1.7710944414138794,86.11061096191406,24.91,2
-0.2924579977989197,-1.1153770685195925,0.1829638481140136,-3.0272417068481445,1.7738990783691406,86.11038970947266,24.91,2
-0.2660515606403351,-1.2083889245986938,0.1733934134244918,-1.7241723537445068,1.7756989002227783,86.1102523803711,24.91,2
-0.2826920747756958,-1.2848719358444214,0.1672516614198684,-0.3648814260959625,1.7768539190292358,86.11016082763672,24.91,2
-0.326957643032074,-1.233194351196289,0.1409191340208053,0.7832915782928467,1.7775951623916626,86.11009979248047,24.91,2
-0.3553647398948669,-1.1440529823303225,0.1128248870372772,1.502210021018982,1.7780709266662598,86.11006164550781,24.91,2
-0.3568014502525329,-1.0252716541290283,0.0891978442668914,1.7092076539993286,1.778376221656799,86.11003875732422,24.91,2
-0.3521256744861603,-0.9546423554420472,0.0684375911951065,1.6091793775558472,1.7785720825195312,86.11002349853516,24.91,2
-0.3267339169979095,-0.9373054504394532,0.0383215323090553,1.5879778861999512,1.7809927463531494,86.11001586914062,24.89,2
-0.2768523097038269,-1.00454843044281,0.0133970044553279,1.7821614742279053,1.7825462818145752,86.1100082397461,24.89,2
-0.2336456179618835,-1.0700922012329102,0.0029996519442647,2.103818893432617,1.7835432291030884,86.1100082397461,24.89,2
-0.2003202736377716,-1.0729700326919556,-0.0092705450952053,2.5502727031707764,1.7841830253601074,86.1100082397461,24.89,2
-0.1845317631959915,-1.0468279123306274,-0.0227426253259181,3.0875613689422607,1.7845935821533203,86.1100082397461,24.89,2
-0.2079862505197525,-0.9964647889137268,-0.0425837785005569,3.5470046997070312,1.7848570346832275,86.1100082397461,24.89,2
-0.223037987947464,-0.9417535662651062,-0.0385233648121356,3.802440643310547,1.7850260734558103,86.1100082397461,24.89,2
-0.2215017825365066,-0.901045262813568,-0.0247220788151025,3.712001800537109,1.7851345539093018,86.1100082397461,24.89,2
-0.20932038128376,-0.863725483417511,-0.0158652067184448,2.9876043796539307,1.7874995470046997,85.78398895263672,24.89,2
-0.1959052830934524,-0.8285802602767944,-0.0045836018398404,1.5984232425689695,1.7890173196792605,85.57476806640625,24.89,2
-0.1816984713077545,-0.8172215819358826,0.0082540567964315,0.0513154491782188,1.78999125957489,85.44050598144531,24.89,2
-0.1669835895299911,-0.8435189127922058,0.0164925269782543,-1.0884149074554443,1.7906162738800049,85.35433959960938,24.89,2
-0.157540425658226,-0.8771883249282837,0.021779503673315,-1.683690309524536,1.7910174131393433,85.29904174804688,24.89,2
-0.1458825767040252,-0.9211865067481996,0.0251723807305097,-1.8471667766571045,1.791274905204773,85.26355743408203,24.89,2
-0.1439990103244781,-0.9774109125137328,0.0273497346788644,-1.6869659423828125,1.7914401292800903,85.24078369140625,24.89,2
-0.1483880132436752,-1.091861367225647,0.034344807267189,-1.3799513578414917,1.791546106338501,85.2261734008789,24.89,2
-0.1624001711606979,-1.159711241722107,0.0500293932855129,-1.111275553703308,1.7925323247909546,85.216796875,24.89,2
-0.1769901514053344,-1.1640690565109253,0.088083729147911,-0.867203414440155,1.7931652069091797,85.21077728271484,24.89,2
-0.1695598363876342,-1.066105604171753,0.1516892313957214,-0.7105720043182373,1.7935713529586792,85.20691680908203,24.89,2
-0.1647914797067642,-0.9584561586380004,0.1701164841651916,-0.975477695465088,1.7938320636749268,85.20443725585938,24.89,2
-0.172926977276802,-0.9005684852600098,0.1427576094865799,-1.754516839981079,1.7939993143081665,85.20284271240234,24.89,2
-0.18374565243721,-0.9026039242744446,0.1140047162771225,-2.4586660861968994,1.7941067218780518,85.20182037353516,24.89,2
-0.1906884461641311,-0.9207034707069396,0.0955527648329734,-2.430483341217041,1.794175624847412,85.20116424560547,24.89,2
-0.2063394784927368,-0.949112057685852,0.0893091335892677,-1.7173776626586914,1.7942198514938354,85.20074462890625,24.89,2
-0.2275789678096771,-0.9505497217178344,0.090900108218193,-0.9480633735656738,1.7974613904953003,85.20047760009766,24.89,2
-0.2580025792121887,-0.9122878909111024,0.0975188761949539,-0.6943942904472351,1.7995415925979614,85.20030212402344,24.89,2
-0.2943200170993805,-0.876538097858429,0.0905708745121955,-1.0224169492721558,1.8008766174316406,85.2001953125,24.89,2
-0.3232242166996002,-0.8479982018470764,0.0805142745375633,-1.458625316619873,1.801733374595642,85.20012664794922,24.89,2
-0.3305777311325073,-0.8296829462051392,0.0852560698986053,-1.4949434995651243,1.8022831678390503,85.20008087158203,24.89,2
-0.3241012394428253,-0.8179292678833008,0.0882990881800651,-1.10625422000885,1.8026360273361208,85.2000503540039,24.89,2
-0.3199450075626373,-0.8327775001525879,0.1070452407002449,-0.6239484548568726,1.802862405776977,85.20002746582031,24.89,2
-0.3228755593299866,-0.8758928775787354,0.1190754398703575,-0.2177028506994247,1.80300772190094,85.20001983642578,24.89,2
-0.3303539752960205,-0.925952970981598,0.1323935091495514,0.2221309840679168,1.8044780492782595,85.20001220703125,24.89,2
-0.3407509624958038,-0.986067533493042,0.157733604311943,0.7909970283508301,1.805421710014344,85.20000457763672,24.89,2
-0.3474231660366058,-1.0358411073684692,0.1795931905508041,1.4032602310180664,1.8060272932052608,85.20000457763672,24.89,2
-0.3237161338329315,-1.1125651597976685,0.1712303161621093,1.9358960390090945,1.8064159154891968,85.20000457763672,24.89,2
-0.3029045462608337,-1.228975534439087,0.1490701884031295,2.327867031097412,1.806665301322937,85.20000457763672,24.89,2
-0.3007444143295288,-1.2980831861495972,0.1292513161897659,2.4504387378692627,1.8068252801895144,85.20000457763672,24.89,2
-0.3329448103904724,-1.196890354156494,0.0661527290940284,2.14934515953064,1.806928038597107,85.20000457763672,24.89,2
-0.3871958255767822,-1.0759729146957395,0.0312574654817581,1.504716157913208,1.8069939613342283,85.20000457763672,24.89,2
-0.4052176773548126,-0.9983750581741332,0.0200592428445816,0.7005296349525452,1.8079544305801392,84.93130493164062,24.89,2
-0.3720008730888366,-0.959772765636444,-0.0151160042732954,-0.2454600781202316,1.8085708618164065,84.75887298583984,24.89,2
-0.3226953744888305,-0.9741844534873962,-0.0432872287929058,-1.2000516653060913,1.808966398239136,84.6482162475586,24.89,2
-0.2854561507701874,-1.050606369972229,-0.0613658986985683,-1.7481672763824463,1.8092201948165887,84.57720184326172,24.89,2
-0.2727537155151367,-1.1276384592056274,-0.0673699751496315,-1.6341813802719116,1.8093831539154053,84.53163146972656,24.89,2
-0.2534064650535583,-1.1714754104614258,-0.0656252726912498,-1.1060447692871094,1.8094877004623413,84.50238800048828,24.89,2
-0.2241971939802169,-1.1380319595336914,-0.0757011696696281,-0.6668049693107605,1.8095548152923584,84.4836196899414,24.89,2
-0.2054523676633834,-1.0885809659957886,-0.0877650752663612,-0.657201886177063,1.8095978498458865,84.47157287597656,24.89,2
-0.2046185731887817,-1.0064661502838137,-0.0787136703729629,-1.0272096395492554,1.8192651271820068,84.4638442993164,24.89,2
-0.2040834873914718,-0.9369763135910034,-0.0673072263598442,-1.511857032775879,1.8254690170288088,84.4588851928711,24.89,2
-0.192544549703598,-0.8699906468391418,-0.0264005810022354,-1.9625962972640991,1.829450249671936,84.45570373535156,24.89,2
-0.1739439815282821,-0.8158075213432312,0.0054487246088683,-2.305593490600586,1.832005262374878,84.45365905761719,24.89,2
-0.1396161019802093,-0.7586448192596436,0.0370833240449428,-2.4361448287963867,1.83364486694336,84.45234680175781,24.89,2
-0.111988678574562,-0.7275588512420654,0.0685801357030868,-2.430360794067383,1.834697127342224,84.45150756835938,24.89,2
-0.0998567566275596,-0.7244030237197876,0.0943907499313354,-2.4266490936279297,1.83537232875824,84.45096588134766,24.89,2
-0.0976689681410789,-0.7671599984169006,0.0941611975431442,-2.194982051849365,1.8358056545257568,84.45062255859375,24.89,2
-0.1018627434968948,-0.8337833881378174,0.0828183367848396,-1.3763699531555176,1.848478078842163,84.45040130615234,24.89,2
-0.121347390115261,-1.027678370475769,0.0587458163499832,-0.1667598783969879,1.8566105365753167,84.45025634765625,24.89,2
-0.1730359345674514,-1.1745001077651978,0.0712863281369209,0.7957921624183655,1.861829400062561,84.45016479492188,24.89,2
-0.2229999899864196,-1.2407329082489014,0.1017252057790756,1.0803231000900269,1.8651785850524905,84.45010375976562,24.89,2
-0.2550640404224396,-1.1880751848220823,0.1156613528728485,0.6467157006263733,1.8673279285430908,84.45006561279297,24.89,2
-0.270043134689331,-1.0871092081069946,0.0854203477501869,-0.2119258046150207,1.868707299232483,84.45004272460938,24.89,2
-0.2628625333309173,-1.0279128551483154,0.0548178628087043,-0.8560994863510132,1.8695924282073968,84.45002746582031,24.89,2
-0.2470588833093643,-1.0179128646850586,0.0519722737371921,-0.6962809562683105,1.870160460472107,84.45001983642578,24.89,2
-0.2369170188903808,-1.028288722038269,0.044548362493515,0.1622048318386078,1.8939363956451416,84.45001220703125,24.87,2
-0.2527996301651001,-1.0181540250778198,0.0173930265009403,1.035563349723816,1.9091944694519043,84.45000457763672,24.87,2
-0.2741877436637878,-0.9892591238021852,-0.0056314785033464,1.4527316093444824,1.918986201286316,84.45000457763672,24.87,2
-0.30470672249794,-0.9371293783187866,-0.0148095078766345,1.4266749620437622,1.9252699613571167,84.45000457763672,24.87,2
-0.3298898339271545,-0.8756866455078125,-0.0318949855864048,1.152007818222046,1.929302453994751,84.45000457763672,24.87,2
-0.3516486585140228,-0.8306584358215332,-0.0484572388231754,0.8861778974533081,1.9318903684616089,84.45000457763672,24.87,2
-0.3712100088596344,-0.8017619252204895,-0.0478903912007808,0.8338085412979126,1.9335510730743408,84.45000457763672,24.87,2
-0.3725678026676178,-0.8056089282035828,-0.0139399720355868,0.9506691098213196,1.9346168041229248,84.45000457763672,24.87,2
-0.4070258140563965,-0.8304688334465027,0.0414340980350971,1.0435763597488403,1.9367495775222776,84.2278823852539,24.87,2
-0.4347367584705353,-0.8744113445281982,0.1161544099450111,1.038712501525879,1.9381182193756104,84.08534240722656,24.87,2
-0.4413244724273681,-0.9250022172927856,0.1697033792734146,0.8707926869392395,1.9389965534210205,83.99386596679688,24.87,2
-0.4175632297992706,-1.0022506713867188,0.2152635753154754,0.4656776785850525,1.9395602941513064,83.9351577758789,24.87,2
-0.3799235224723816,-1.0406287908554075,0.2500992715358734,-0.0343344062566757,1.9399219751358032,83.8974838256836,24.87,2
-0.3669640719890594,-1.0708553791046145,0.2668570280075073,-0.2154929339885711,1.9401540756225584,83.87330627441406,24.87,2
-0.3922340869903564,-1.1630241870880127,0.2552200853824615,0.1984711289405822,1.940303087234497,83.85779571533203,24.87,2
-0.4308420419692993,-1.2501616477966309,0.2253610789775848,0.965690016746521,1.9403986930847168,83.84783935546875,24.87,2
-0.4444228410720825,-1.2333104610443115,0.1558193117380142,1.4078909158706665,1.9542315006256104,83.84144592285156,24.87,2
-0.4139538109302521,-1.1497251987457275,0.0888003185391426,1.079049587249756,1.9631085395812988,83.83734893798828,24.87,2
-0.3832049965858459,-1.0848894119262695,0.0401936136186122,0.2697280645370483,1.968805313110352,83.834716796875,24.87,2
-0.3354833126068115,-1.076868176460266,0.0034028487280011,-0.3714555501937866,1.972461223602295,83.8330307006836,24.87,2
-0.276869386434555,-1.122100591659546,-0.0202073454856872,-0.5464802980422974,1.974807381629944,83.83194732666016,24.87,2
-0.2000699341297149,-1.173519253730774,-0.052152331918478,-0.3686124682426452,1.9763129949569704,83.83125305175781,24.87,2
-0.1563822329044342,-1.1897234916687012,-0.0894461050629615,-0.0753383636474609,1.9772791862487795,83.83080291748047,24.87,2
-0.1395415365695953,-1.1721335649490356,-0.1189768835902214,0.0985377728939056,1.9778993129730225,83.83051300048828,24.87,2
-0.1567230224609375,-1.0992698669433594,-0.1323302537202835,0.0202449616044759,1.985641837120056,83.83032989501953,24.87,2
-0.1789446622133255,-1.0245212316513062,-0.1464974582195282,-0.2915268838405609,1.9906105995178225,83.83021545410156,24.87,2
-0.2044007778167724,-0.926171898841858,-0.1499913781881332,-0.8677745461463928,1.9937992095947263,83.83013916015625,24.87,2
-0.2207370400428772,-0.8350681066513062,-0.1354402601718902,-1.7677984237670898,1.9958455562591555,83.83009338378906,24.87,2
-0.2200251668691635,-0.7822006940841675,-0.1037110835313797,-2.7502129077911377,1.997158765792847,83.83006286621094,24.87,2
-0.1971772313117981,-0.7370778918266296,-0.0553602539002895,-3.405747890472412,1.9980014562606807,83.83003997802734,24.87,2
-0.1713191866874694,-0.7025229334831238,-0.0187336988747119,-3.661633968353272,1.998542308807373,83.83002471923828,24.87,2
-0.1491272151470184,-0.6971408724784851,0.0103688864037394,-3.714787244796753,1.998889327049256,83.83001708984375,24.87,2
-0.1516790091991424,-0.738469123840332,0.0402408018708229,-3.551856279373169,2.012424230575561,83.83000946044922,24.87,2
-0.1589143723249435,-0.7873823642730713,0.0594108775258064,-2.845423936843872,2.0211100578308105,83.83000946044922,24.87,2
-0.1691553890705108,-0.8803475499153137,0.0717131271958351,-1.29939067363739,2.026684284210205,83.83000946044922,24.87,2
-0.1757274866104126,-0.9791916608810424,0.0852057784795761,0.9000925421714783,2.030261278152466,83.83000946044922,24.87,2
-0.168749526143074,-1.16017746925354,0.1106579080224037,2.9457101821899414,2.0325570106506348,83.83000946044922,24.87,2
-0.1306848227977752,-1.3155081272125244,0.1213938444852829,3.907377243041992,2.034030199050904,83.83000946044922,24.87,2
-0.1398437470197677,-1.325626015663147,0.1226857751607894,3.510650873184204,2.034975528717041,83.83000946044922,24.87,2
-0.2296880185604095,-1.2313591241836548,0.1682970523834228,2.3389155864715576,2.0355823040008545,83.83000946044922,24.87,2
-0.3209315538406372,-1.1260818243026731,0.1751766502857208,1.2466185092926023,2.048365831375122,83.66879272460938,24.87,2
-0.3626930713653564,-1.0193365812301636,0.1516027152538299,0.7104436159133911,2.056569576263428,83.5653305053711,24.87,2
-0.3671021163463592,-0.9620291590690612,0.1364743113517761,0.6171377301216125,2.0618343353271484,83.49893188476562,24.87,2
-0.3195516169071197,-0.9532414078712464,0.1211680024862289,0.4784427285194397,2.0652129650115967,83.4563217163086,24.87,2
-0.2778409123420715,-0.9643952250480652,0.0889541953802108,-0.1192894950509071,2.0673811435699463,83.4289779663086,24.87,2
-0.2622689306735992,-0.9547598361968994,0.0570856817066669,-1.061761498451233,2.068772554397583,83.41143035888672,24.87,2
-0.2914601266384125,-0.914989709854126,0.0310365315526723,-1.770480394363403,2.0696654319763184,83.4001693725586,24.87,2
-0.326986700296402,-0.8726742267608643,0.0199174601584672,-1.6592484712600708,2.0702385902404785,83.3929443359375,24.87,2
-0.332992285490036,-0.8399208188056946,0.0295752026140689,-0.6098231077194214,2.077951431274414,83.3883056640625,24.87,2
-0.3144552111625671,-0.818901538848877,0.0413707606494426,0.9019603729248048,2.0829010009765625,83.38533020019531,24.87,2
-0.3081569671630859,-0.8110103607177734,0.0545382462441921,2.1838202476501465,2.0860774517059326,83.3834228515625,24.87,2
-0.34329953789711,-0.8115440607070923,0.0853794738650322,2.913296937942505,2.088115692138672,83.38219451904297,24.87,2
-0.3770475685596466,-0.8286798596382141,0.1275627017021179,3.195139169692993,2.089423894882202,83.38140869140625,24.87,2
-0.3875095546245575,-0.8508721590042114,0.1602312475442886,3.2470366954803467,2.0902633666992188,83.38090515136719,24.87,2
-0.3774301409721374,-0.915493905544281,0.1811960339546203,3.3018369674682617,2.0908021926879883,83.38057708740234,24.87,2
-0.3541684150695801,-0.9849532842636108,0.1890522539615631,3.559124231338501,2.091147899627685,83.38037109375,24.87,2
-0.3224470615386963,-1.0855060815811155,0.1773006021976471,3.960686445236206,2.096418857574463,83.38023376464844,24.87,2
-0.2964923679828644,-1.1892194747924805,0.1641612946987152,4.135986804962158,2.099801540374756,83.3801498413086,24.87,2
-0.3022272288799286,-1.2613744735717771,0.1333381384611129,3.64661169052124,2.101972341537476,83.38009643554688,24.87,2
-0.3227008581161499,-1.1845284700393677,0.0855687409639358,2.347350597381592,2.103365421295166,83.38005828857422,24.87,2
-0.341437429189682,-1.0904308557510376,0.0437175445258617,0.5319340229034424,2.104259490966797,83.38003540039062,24.87,2
-0.3534614741802215,-0.9908600449562072,0.0168598536401987,-1.2492990493774414,2.1048331260681152,83.38002014160156,24.87,2
-0.3387867212295532,-0.9605478644371032,-0.0003758645616471,-2.481956243515014,2.105201244354248,83.38001251220703,24.87,2
-0.2733915746212005,-0.991475224494934,-0.0282300785183906,-2.9398250579833984,2.1054375171661377,83.3800048828125,24.87,2
-0.2202291637659073,-1.0673003196716309,-0.0628986358642578,-2.818080186843872,2.1175246238708496,83.3800048828125,24.89,2
-0.1861125975847244,-1.132753849029541,-0.0963424667716026,-2.5608224868774414,2.12528133392334,83.3800048828125,24.89,2
-0.1866096407175064,-1.1243782043457031,-0.1401958912611007,-2.438720226287842,2.1302592754364014,83.3800048828125,24.89,2
-0.1925264000892639,-1.085416555404663,-0.1571429520845413,-2.3854401111602783,2.133453607559204,83.3800048828125,24.89,2
-0.2187145203351974,-1.0100332498550415,-0.1512252688407898,-2.383491277694702,2.1355037689208984,83.3800048828125,24.89,2
-0.2411183267831802,-0.9336677193641664,-0.1362320929765701,-2.719002485275269,2.136819362640381,83.3800048828125,24.89,2
-0.2387024760246276,-0.8790628910064697,-0.1154147908091545,-3.5218567848205566,2.1376636028289795,83.3800048828125,24.89,2
-0.2091632485389709,-0.8384228944778442,-0.0684687942266464,-4.363096714019775,2.1382052898406982,83.3800048828125,24.89,2
-0.17901112139225,-0.8123425245285034,-0.0159504581242799,-4.670088768005371,2.1445205211639404,83.2689437866211,24.89,2
-0.1540634483098983,-0.7788122892379761,0.0289483349770307,-4.3117995262146,2.148573398590088,83.19766998291016,24.89,2
-0.1492490172386169,-0.7684900760650635,0.0633595660328865,-3.5731441974639893,2.151174306869507,83.15193176269531,24.89,2
-0.1517571657896042,-0.7674636244773865,0.0854427143931388,-2.934319257736206,2.1528432369232178,83.1225814819336,24.89,2
-0.158964529633522,-0.8227826952934265,0.0940166339278221,-2.681991577148437,2.153914451599121,83.10374450683594,24.89,2
-0.1635898053646087,-0.9030654430389404,0.0939211100339889,-2.104483366012573,2.154601812362671,83.0916519165039,24.89,2
-0.1777535825967788,-1.0385528802871704,0.0882620364427566,-0.0536438673734664,2.155042886734009,83.08389282226562,24.89,2
-0.198038637638092,-1.1926742792129517,0.0902281403541565,3.0716676712036133,2.1553258895874023,83.07891845703125,24.89,2
-0.2222519665956497,-1.2915804386138916,0.0970876440405845,5.320927619934082,2.168820142745972,83.07572174072266,24.89,2
-0.2713773250579834,-1.2990750074386597,0.1182830035686492,5.643026828765869,2.177479982376098,83.07366943359375,24.89,2
-0.2861098349094391,-1.214320182800293,0.1262871921062469,4.710472583770752,2.183037281036377,83.07235717773438,24.89,2
-0.2619776725769043,-1.0591695308685305,0.1034349501132965,3.35608983039856,2.186603546142578,83.0715103149414,24.89,2
-0.2352954894304275,-0.9875916242599488,0.0887696966528892,1.978199005126953,2.188892364501953,83.07096862792969,24.89,2
-0.212574616074562,-0.9584503769874572,0.0793583765625953,1.1333563327789309,2.1903610229492188,83.07062530517578,24.89,2
-0.1867981255054474,-0.9677380919456482,0.0677209645509719,1.071250081062317,2.1913034915924072,83.07040405273438,24.89,2
-0.1758540272712707,-0.968100607395172,0.0490571931004524,1.0922976732254028,2.191908359527588,83.07025909423828,24.89,2
-0.2024173885583877,-0.9291488528251648,0.0314820818603038,0.478854089975357,2.2101993560791016,83.0701675415039,24.89,2
-0.2586486339569092,-0.8817607164382935,0.0313989371061325,-0.3662232160568237,2.221937656402588,83.07010650634766,24.89,2
-0.3059301674365997,-0.8345564603805542,0.0313455797731876,-0.5216270089149475,2.2294704914093018,83.070068359375,24.89,2
-0.330674946308136,-0.7930679321289062,0.0425068847835063,0.1488975435495376,2.234304666519165,83.0700454711914,24.89,2
-0.3353591859340668,-0.7664429545402527,0.0552673451602458,1.0091105699539185,2.2374069690704346,83.07003021240234,24.89,2
-0.321571946144104,-0.7717477083206177,0.0746518224477768,1.6292147636413574,2.2393977642059326,83.07002258300781,24.89,2
-0.3127240836620331,-0.8143364191055298,0.098287209868431,2.0343270301818848,2.240675449371338,83.07001495361328,24.89,2
-0.301448255777359,-0.8472651839256287,0.1190528199076652,2.254896640777588,2.241495370864868,83.07000732421875,24.89,2
-0.2886143028736114,-0.8627991676330566,0.1211834400892257,2.1850733757019043,2.246611833572388,83.07000732421875,24.89,2
-0.2859759926795959,-0.8783657550811768,0.1281485259532928,1.98263156414032,2.2498953342437744,83.07000732421875,24.89,2
-0.2786850929260254,-0.9107465744018556,0.1382160931825637,1.988853931427002,2.252002477645874,83.07000732421875,24.89,2
-0.2516151070594787,-0.9595156311988832,0.1334813237190246,2.222131967544556,2.253354787826538,83.07000732421875,24.89,2
-0.2174498289823532,-1.0076061487197876,0.1192472800612449,2.3145151138305664,2.254222631454468,83.07000732421875,24.89,2
-0.1899267584085464,-1.06645667552948,0.0933193638920784,1.868658185005188,2.25477933883667,83.07000732421875,24.89,2
-0.1834595799446106,-1.137810230255127,0.0710825473070144,0.7943662405014038,2.255136728286743,83.07000732421875,24.89,2
-0.2128959596157074,-1.217187523841858,0.0624100118875503,-0.5972372889518738,2.255366086959839,83.07000732421875,24.89,2
-0.2261887639760971,-1.2009539604187012,0.0344533771276474,-1.8342156410217283,2.260103702545166,83.01985168457031,24.89,2
-0.240317091345787,-1.1345584392547607,0.0109146451577544,-2.5313076972961426,2.263144016265869,82.98766326904297,24.89,2
-0.2325905114412307,-1.0359718799591064,0.0070043909363448,-2.4233620166778564,2.265094995498657,82.96700286865234,24.89,2
-0.2332298159599304,-0.9950957894325256,-0.0011027596192434,-1.637573480606079,2.266347169876098,82.95374298095703,24.89,2
-0.2112489938735962,-1.0248416662216189,-0.0175010114908218,-0.9255102276802064,2.267150640487671,82.94523620605469,24.89,2
-0.169154092669487,-1.0887130498886108,-0.0392200127243995,-0.9307013154029846,2.267666339874268,82.93978118896484,24.89,2
-0.1365422308444976,-1.135299801826477,-0.0643535703420639,-1.414097785949707,2.2679972648620605,82.936279296875,24.89,2
-0.1044182702898979,-1.1428053379058838,-0.0972761586308479,-1.7995479106903076,2.26820969581604,82.93402862548828,24.89,2
-0.0894007310271263,-1.1420241594314575,-0.1184039860963821,-2.0039167404174805,2.2711002826690674,82.93258666992188,24.89,2
-0.0909588858485221,-1.1079362630844116,-0.1375603824853897,-2.281954526901245,2.272955179214477,82.9316635131836,24.89,2
-0.1031543686985969,-1.018887281417847,-0.1330605298280716,-2.70041561126709,2.274145603179932,82.93106842041016,24.89,2
-0.1109807342290878,-0.9393497109413148,-0.1189772337675094,-3.101515054702759,2.274909496307373,82.9306869506836,24.89,2
-0.1048076897859573,-0.8491226434707642,-0.0875482857227325,-3.2765183448791504,2.275399684906006,82.9304428100586,24.89,2
-0.1064439639449119,-0.7856223583221436,-0.0561834499239921,-3.044898271560669,2.27571439743042,82.93028259277344,24.89,2
-0.1578740030527115,-0.7728604078292847,-0.0472508519887924,-2.337376117706299,2.275916337966919,82.93018341064453,24.89,2
-0.2356610298156738,-0.7982571125030518,-0.0695073008537292,-1.163231372833252,2.276045799255371,82.93011474609375,24.89,2
-0.3191669285297394,-0.8257508277893066,-0.1005835309624672,0.4285899400711059,2.277506113052368,82.9300765991211,24.89,2
-0.4287339448928833,-0.8489924669265747,-0.131722018122673,2.1881399154663086,2.2784433364868164,82.93004608154297,24.89,2
-0.5158410668373108,-0.880700945854187,-0.1405093520879745,3.482116222381592,2.2790446281433105,82.9300308227539,24.89,2
-0.5605458617210388,-0.8954518437385559,-0.1461485624313354,3.674817085266113,2.279430627822876,82.93002319335938,24.89,2
-0.5668437480926514,-0.8937225937843323,-0.1665607988834381,2.7344565391540527,2.2796783447265625,82.93001556396484,24.89,2
-0.5652875900268555,-0.8982106447219849,-0.1852579712867736,1.2245956659317017,2.2798373699188232,82.93000793457031,24.89,2
-0.5474956035614014,-0.917884111404419,-0.2084522992372512,-0.1133515089750289,2.2799394130706787,82.93000793457031,24.89,2
-0.5304799675941467,-0.952900528907776,-0.2233370840549469,-0.6996932029724121,2.2800047397613525,82.93000793457031,24.89,2
-0.508364737033844,-1.0201542377471924,-0.2160959541797638,-0.4167796373367309,2.288768768310547,82.93000793457031,24.87,2
-0.49417245388031,-1.0745093822479248,-0.1778623610734939,0.2591734528541565,2.2943930625915527,82.93000793457031,24.87,2
-0.4850646555423736,-1.1317824125289917,-0.1365329176187515,0.6607180237770081,2.298002481460572,82.93000793457031,24.87,2
-0.4792197942733764,-1.129352569580078,-0.0876189693808555,0.5959744453430176,2.300318717956543,82.93000793457031,24.87,2
-0.4586755931377411,-1.0718154907226562,-0.0338377095758914,0.3502188920974731,2.301805257797241,82.93000793457031,24.87,2
-0.4119048416614532,-0.9789137840270996,0.0286648739129304,0.1781768500804901,2.3027591705322266,82.93000793457031,24.87,2
-0.3762923181056976,-0.9416858553886414,0.0911665335297584,0.0964307710528373,2.30337142944336,82.93000793457031,24.87,2
-0.3366449177265167,-0.9289907217025756,0.1368742734193802,0.1944390088319778,2.3037643432617188,82.93000793457031,24.87,2
-0.2776148617267608,-0.9320392608642578,0.160609096288681,0.5475236773490906,2.293917179107666,82.93358612060547,24.87,2
-0.2397327572107315,-0.9172022938728333,0.1814385205507278,0.8636775016784668,2.287597894668579,82.93588256835938,24.87,2
-0.2266177535057068,-0.9076807498931884,0.2115989625453949,0.7656304836273193,2.283542394638061,82.9373550415039,24.87,2
-0.2014079689979553,-0.90716814994812,0.2309542000293731,0.4125208854675293,2.280939817428589,82.93830108642578,24.87,2
-0.1740342378616333,-0.901241421699524,0.2321797311305999,0.2324889600276947,2.2792696952819824,82.93891143798828,24.87,2
-0.1452718079090118,-0.8918402194976807,0.238563984632492,0.2029366642236709,2.278198003768921,82.93930053710938,24.87,2
-0.1268137246370315,-0.8914048671722412,0.2538565695285797,0.0406686849892139,2.277510166168213,82.9395523071289,24.87,2
-0.109370619058609,-0.8799299001693726,0.2412793785333633,-0.1781079769134521,2.277068853378296,82.93971252441406,24.87,2
-0.1093721911311149,-0.8501748442649841,0.2220125049352646,-0.0999691486358642,2.2726540565490723,82.9398193359375,24.87,2
-0.1093731969594955,-0.8366775512695312,0.2152459174394607,0.4374061226844787,2.2698209285736084,82.93988800048828,24.87,2
-0.1149716153740882,-0.8168202042579651,0.199707955121994,1.2193368673324585,2.26800274848938,82.93992614746094,24.87,2
-0.1241621375083923,-0.7984791398048401,0.1841388195753097,1.7605433464050293,2.266835927963257,82.93995666503906,24.87,2
-0.1412556320428848,-0.7811111211776733,0.1685496717691421,1.6421236991882324,2.266087293624878,82.93997192382812,24.87,2
-0.1522252559661865,-0.7867586612701416,0.1585454493761062,0.9463432431221008,2.265606641769409,82.93997955322266,24.87,2
-0.1592649221420288,-0.7903829216957092,0.1465275436639785,0.1021654456853866,2.265298366546631,82.93998718261719,24.87,2
-0.1637825816869735,-0.8095020651817322,0.1332173645496368,-0.5864648818969727,2.265100479125977,82.93999481201172,24.87,2
-0.1666817516088485,-0.832967221736908,0.1246756538748741,-1.0068926811218262,2.261760234832764,82.93999481201172,24.87,2
-0.1797378212213516,-0.8648191094398499,0.1191940754652023,-1.1262309551239014,2.259616613388061,82.93999481201172,24.87,2
-0.1937142312526703,-0.9244442582130432,0.1044807657599449,-1.0738426446914673,2.258240938186645,82.93999481201172,24.87,2
-0.2026834785938263,-0.968306005001068,0.0894408375024795,-1.0832136869430542,2.2573580741882324,82.93999481201172,24.87,2
-0.2140372097492218,-0.9964539408683776,0.0741913020610809,-1.2970168590545654,2.256791591644287,82.93999481201172,24.87,2
-0.2213233709335327,-1.0033221244812012,0.0588072575628757,-1.7638204097747805,2.256428003311157,82.93999481201172,24.87,2
-0.2427925318479538,-1.0077297687530518,0.0545324347913265,-2.468219041824341,2.256194829940796,82.93999481201172,24.87,2
-0.2565702199935913,-0.9993627667427064,0.0573868751525878,-3.135216236114502,2.25604510307312,82.93999481201172,24.87,2
-0.2710097134113312,-0.9827977418899536,0.0648164674639701,-3.1763384342193604,2.260539293289185,82.93999481201172,24.89,2
-0.2802761495113373,-0.9553739428520204,0.069584347307682,-2.2569282054901123,2.263423442840576,82.93999481201172,24.89,2
-0.2918205857276916,-0.9433726668357848,0.0726440995931625,-0.7712597846984863,2.2652742862701416,82.93999481201172,24.89,2
-0.2992291450500488,-0.9412687420845032,0.0858032256364822,0.4938407242298126,2.2664620876312256,82.93999481201172,24.89,2
-0.3151790797710418,-0.9287230372428894,0.1166390925645828,1.022686004638672,2.2672243118286133,82.93999481201172,24.89,2
-0.347805917263031,-0.9262696504592896,0.1532211005687713,0.7601956725120544,2.2677135467529297,82.93999481201172,24.89,2
-0.4415150284767151,-1.008661866188049,0.2494683861732483,0.007784700486809,2.2680275440216064,82.93999481201172,24.89,2
-0.5184454321861267,-1.095123052597046,0.3056365847587585,-0.679276168346405,2.268229007720948,82.93999481201172,24.89,2
-0.55661940574646,-1.145011067390442,0.3192909955978393,-0.90165513753891,2.2775394916534424,82.89700317382812,24.89,2
-0.5307372808456421,-1.059473156929016,0.3168580830097198,-0.6789425015449524,2.2835142612457275,82.86941528320312,24.89,2
-0.4357587993144989,-0.9318087100982666,0.2537212371826172,-0.1992562115192413,2.287348747253418,82.85171508789062,24.89,2
-0.386002629995346,-0.8722721338272095,0.1740192323923111,0.3736894130706787,2.289809465408325,82.8403549194336,24.89,2
-0.3764630854129791,-0.9124338626861572,0.1732510477304458,0.8524327874183655,2.291388511657715,82.83306121826172,24.89,2
-0.2975700795650482,-1.0165761709213257,0.1671602874994278,1.0772634744644165,2.2924017906188965,82.82838439941406,24.89,2
-0.1853655725717544,-1.1561797857284546,0.079284980893135,1.0460007190704346,2.293052196502685,82.82537841796875,24.89,2
-0.1189569532871246,-1.1841938495635986,-0.0162927508354187,0.9220433235168456,2.2934694290161133,82.82344818115234,24.89,2
-0.0147642064839601,-1.2749426364898682,-0.2959422469139099,0.9177287220954896,2.31026291847229,82.82221221923828,24.89,2
0.1528606414794922,-1.249213457107544,-0.6769250631332397,1.1334969997406006,2.321039915084839,82.82141876220703,24.89,2
-0.6184179782867432,-0.8240643739700317,-0.2664783000946045,1.4260153770446775,2.327955961227417,82.82090759277344,24.89,2
-0.738329291343689,-0.7135636210441589,0.3775714635848999,1.577911138534546,2.332394361495972,82.8205795288086,24.89,2
-0.4178394973278045,-0.5754773020744324,0.5445834398269653,1.542833685874939,2.335242748260498,82.82037353515625,24.89,2
-0.3185253143310547,-0.6491969227790833,0.920455276966095,1.3698548078536987,2.3370707035064697,82.82023620605469,24.89,2
-0.5514732003211975,-0.7580814361572266,1.1560704708099363,1.072553038597107,2.3382437229156494,82.82015228271484,24.89,2
-0.6449880003929138,-0.6264373660087585,1.0945593118667605,0.7420414090156555,2.338996410369873,82.82009887695312,24.89,2
-0.9457047581672668,-0.6371179819107056,1.032693862915039,0.576511561870575,2.36151385307312,82.82006072998047,24.89,2
-1.0211341381072998,-0.610385537147522,0.9426121711730956,0.5670136213302612,2.3759641647338867,82.82003784179688,24.89,2
-1.0191603899002075,-0.5428501963615417,0.8344230055809021,0.4426933526992798,2.385237693786621,82.82002258300781,24.89,2
-0.9619160890579224,-0.4883143603801727,0.7761889696121216,0.090636022388935,2.391188859939575,82.82001495361328,24.89,2
-0.785235583782196,-0.4421208500862121,0.7444154620170593,-0.2212759107351303,2.395007848739624,82.82000732421875,24.89,2
-0.6102766990661621,-0.412476509809494,0.7128295302391052,-0.1993233561515808,2.397458791732788,82.82000732421875,24.89,2
-0.5091937184333801,-0.4158435761928558,0.6757661700248718,0.0798751264810562,2.399031639099121,82.82000732421875,24.89,2
-0.4611178040504455,-0.4124065935611725,0.6016010642051697,0.1802319884300232,2.400041103363037,82.82000732421875,24.89,2
-0.4526565372943878,-0.4102009534835815,0.5540061593055725,-0.1387003511190414,2.4121649265289307,82.82000732421875,24.87,2
-0.4752154648303985,-0.3360144197940826,0.5570491552352905,-0.5117537975311279,2.419945240020752,82.82000732421875,24.87,2
-0.4952902495861053,-0.321992427110672,0.5645997524261475,-0.5397861003875732,2.424938201904297,82.82000732421875,24.87,2
-0.5081731081008911,-0.3073961436748504,0.5582497119903564,-0.5076195597648621,2.4281423091888428,82.82000732421875,24.87,2
-0.4828539192676544,-0.3260179758071899,0.5541746616363525,-0.8273215889930725,2.4301986694335938,82.82000732421875,24.87,2
-0.455409973859787,-0.3491639196872711,0.5571572780609131,-1.0611485242843628,2.431518316268921,82.82000732421875,24.87,2
-0.4545913636684418,-0.3976043164730072,0.5590713620185852,-0.598584771156311,2.4323651790618896,82.82000732421875,24.87,2
-0.4708593487739563,-0.4398861229419708,0.5826907753944397,-0.0688705965876579,2.432908535003662,82.82000732421875,24.87,2
-0.4868969917297363,-0.4670201539993286,0.6034461259841919,-0.7750425934791565,2.446187973022461,82.7841796875,24.87,2
-0.5195801258087158,-0.4956287443637848,0.6167657375335693,-2.4857072830200195,2.454709768295288,82.76118469238281,24.87,2
-0.5405542850494385,-0.497194766998291,0.6253135204315186,-3.271829128265381,2.46017861366272,82.74642944335938,24.87,2
-0.5148298740386963,-0.5037975311279297,0.6307989954948425,-2.4292685985565186,2.4636881351470947,82.7369613647461,24.87,2
-0.4759303033351898,-0.513632595539093,0.6175259351730347,-2.1178464889526367,2.465940475463867,82.73088836669922,24.87,2
-0.4509668052196502,-0.5199441909790039,0.6090080142021179,-4.235919952392578,2.467385768890381,82.72698974609375,24.87,2
-0.4125555753707886,-0.5295923352241516,0.5867484211921692,-6.770262718200684,2.468313455581665,82.7244873046875,24.87,2
-0.3991010189056396,-0.5413817763328552,0.5724634528160095,-6.390415668487549,2.4689087867736816,82.7228775024414,24.87,2
-0.396064430475235,-0.5601431131362915,0.5632961988449097,-4.487918853759766,2.4803078174591064,82.72184753417969,24.87,2
-0.3997134864330292,-0.5609874725341797,0.551815390586853,-6.165309906005859,2.48762321472168,82.72118377685547,24.87,2
-0.4076530039310455,-0.5783226490020752,0.5500454306602478,-11.816712379455566,2.492317676544189,82.72075653076172,24.87,2
-0.4295414686203003,-0.6118384599685669,0.5433118343353271,-15.375388145446776,2.495330333709717,82.72048950195312,24.87,2
-0.4379904568195343,-0.6501403450965881,0.5277950167655945,-13.696812629699709,2.497263669967652,82.7203140258789,24.87,2
-0.4378147423267364,-0.7195024490356445,0.5122394561767578,-11.727538108825684,2.498504400253296,82.72019958496094,24.87,2
-0.4432997703552246,-0.8031994700431824,0.4854634702205658,-15.877042770385742,2.499300718307495,82.72013092041016,24.87,2
-0.4412219524383545,-0.8793025016784668,0.4570846557617187,-26.60791778564453,2.4998116493225098,82.72008514404297,24.87,2
-0.4566818475723266,-0.9785210490226746,0.4220794439315796,-34.28253936767578,2.521714925765991,82.72005462646484,24.87,2
-0.4610053598880768,-1.047791600227356,0.3940173387527466,-21.355697631835938,2.535771131515503,82.72003173828125,24.87,2
-0.4861710369586944,-1.1146365404129028,0.3760086894035339,16.24905776977539,2.5447916984558105,82.72002410888672,24.87,2
-0.5079187154769897,-1.1519359350204468,0.3812451064586639,52.90630722045898,2.5505805015563965,82.72001647949219,24.87,2
-0.5106795430183411,-1.17027485370636,0.3902032971382141,60.882442474365234,2.554295539855957,82.72000885009766,24.87,2
-0.4900601804256439,-1.1708481311798096,0.3959521353244781,45.01792526245117,2.5566794872283936,82.72000885009766,24.87,2
-0.4712300896644592,-1.1712160110473633,0.4052391946315765,27.46763038635254,2.5582094192504883,82.72000885009766,24.87,2
-0.4367549419403076,-1.1658543348312378,0.4056013226509094,15.954081535339355,2.5591912269592285,82.72000885009766,24.87,2
-0.4258263111114502,-1.1400223970413208,0.394638180732727,8.088865280151367,2.603889942169189,82.72000885009766,24.85,2
-0.4188129603862762,-1.117847204208374,0.3820048868656158,5.602964401245117,2.632575035095215,82.72000885009766,24.85,2
-0.3975188732147217,-1.0756275653839111,0.3571042418479919,7.708456516265869,2.6509833335876465,82.72000885009766,24.85,2
-0.3782557547092438,-1.0373378992080688,0.3411244451999664,7.379412651062012,2.66279673576355,82.72000885009766,24.85,2
-0.3546982705593109,-1.001570224761963,0.3308695256710052,2.2422096729278564,2.6703779697418213,82.72000885009766,24.85,2
-0.3451781868934631,-0.9786165952682496,0.3186907172203064,-2.136489152908325,2.675243139266968,82.72000885009766,24.85,2
-0.3334709703922272,-0.963886260986328,0.3052772879600525,-2.223728895187378,2.6783652305603027,82.72000885009766,24.85,2
-0.3147624135017395,-0.9488354325294496,0.2910715639591217,-1.50946044921875,2.6803689002990723,82.72000885009766,24.85,2
-0.2915607988834381,-0.9391766786575316,0.276357352733612,-3.562469482421875,2.7500524520874023,82.68775939941406,24.85,2
-0.2766713201999664,-0.9273804426193236,0.2557190954685211,-6.262846946716309,2.794771432876587,82.66706848144531,24.85,2
-0.2727138996124267,-0.8974192142486572,0.2368768602609634,-5.975221157073975,2.823469400405884,82.6537857055664,24.85,2
-0.2701742351055145,-0.883789598941803,0.2247850000858307,-3.530034065246582,2.841886281967163,82.645263671875,24.85,2
-0.257348895072937,-0.8638473153114319,0.2226229161024093,-2.5018227100372314,2.8537051677703857,82.6397933959961,24.85,2
-0.2547160983085632,-0.8398540019989014,0.2268331944942474,-3.719245433807373,2.8612897396087646,82.63628387451172,24.85,2
-0.2530265152454376,-0.8188586831092834,0.2463284283876419,-4.765627861022949,2.866157054901123,82.634033203125,24.85,2
-0.2463444620370865,-0.7997873425483704,0.2532415688037872,-4.086504936218262,2.8692805767059326,82.63258361816406,24.85,2
-0.2420563101768493,-0.7763528823852539,0.2688735723495483,-2.704882860183716,2.942896604537964,82.63166046142578,24.85,2
-0.2337066531181335,-0.7613139748573303,0.2956986129283905,-2.0045313835144043,2.99013900756836,82.63106536865234,24.85,2
-0.2227505445480346,-0.746065080165863,0.3129133880138397,-1.9205087423324585,3.020456552505493,82.63068389892578,24.85,2
-0.2381106466054916,-0.7306814789772034,0.3295586109161377,-1.7841886281967163,3.039912700653076,82.63043975830078,24.85,2
-0.2311745434999466,-0.7208091616630554,0.3402405679225921,-1.5820637941360474,3.052398443222046,82.63027954101562,24.85,2
-0.2211255878210067,-0.7144736647605896,0.3582911789417267,-1.6386456489562988,3.060410976409912,82.63018035888672,24.85,2
-0.2034811973571777,-0.7104079127311707,0.3922661244869232,-1.8110944032669067,3.0655529499053955,82.63011169433594,24.85,2
-0.192158043384552,-0.7133965492248535,0.4084714949131012,-1.688894748687744,3.06885290145874,82.63007354736328,24.85,2
-0.1960870325565338,-0.7153144478797913,0.4244689643383026,-1.2987899780273438,3.1734426021575928,82.63004302978516,24.85,2
-0.1986084431409835,-0.7389363646507263,0.4403329789638519,-0.9660439491271972,3.240562438964844,82.6300277709961,24.85,2
-0.1722376644611358,-0.7261066436767578,0.4617091417312622,-0.7740021347999573,3.2836360931396484,82.63002014160156,24.85,2
-0.2112921625375747,-0.7178732752799988,0.4418404996395111,-0.614935040473938,3.3112781047821045,82.63001251220703,24.85,2
-0.1747795641422271,-0.6790029406547546,0.4570788145065307,-0.5021072030067444,3.329017162322998,82.6300048828125,24.85,2
-0.2017278522253036,-0.7884047627449036,0.4724556505680084,-0.5515083074569702,3.3404011726379395,82.6300048828125,24.85,2
-0.1910328418016433,-0.8082326054573059,0.4935191571712494,-0.7515921592712402,3.347706794738769,82.6300048828125,24.85,2
-0.2121582776308059,-0.8545436263084412,0.5014387369155884,-0.9480633735656738,3.3523950576782227,82.6300048828125,24.85,2
-0.3264752924442291,-0.8114923238754272,0.4897277355194092,-0.9738352298736572,3.4017672538757324,82.6300048828125,24.89,2
-0.3382618725299835,-0.8174511194229126,0.4878100752830505,-0.7109332084655762,3.4334514141082764,82.6300048828125,24.89,2
-0.3122391700744629,-0.8268728852272034,0.4697861075401306,-0.194707989692688,3.453784465789795,82.6300048828125,24.89,2
-0.2955392897129059,-0.8161259293556213,0.463817149400711,0.3407824337482452,3.4668331146240234,82.6300048828125,24.89,2
-0.2624311745166778,-0.8036313652992249,0.454388827085495,0.6486036777496338,3.4752068519592285,82.6300048828125,24.89,2
-0.2355865091085434,-0.8403952717781067,0.4539360404014587,0.7028425335884094,3.4805808067321777,82.6300048828125,24.89,2
-0.1847725063562393,-0.8527926802635193,0.4760365784168243,0.6086772084236145,3.484029531478882,82.6300048828125,24.89,2
-0.2249340713024139,-0.8439552783966064,0.4510350227355957,0.3906140029430389,3.4862425327301025,82.6300048828125,24.89,2
-0.2451096773147583,-0.9222505688667296,0.4125993549823761,0.0393016412854194,3.489251136779785,82.6013412475586,24.89,2
-0.2244705706834793,-0.9165182709693908,0.4215202033519745,-0.2470542043447494,3.4911818504333496,82.58294677734375,24.89,2
-0.1776389330625534,-0.7896885275840759,0.4832228422164917,-0.2337792515754699,3.4924209117889404,82.5711441040039,24.89,2
-0.1251939982175827,-0.6803076267242432,0.5396133661270142,-0.0855397060513496,3.493216037750244,82.56356811523438,24.89,2
-0.147515594959259,-0.7052754759788513,0.5925948619842529,-0.1838671863079071,3.493726253509521,82.55870819091797,24.89,2
-0.1674380898475647,-0.7212983965873718,0.6098020076751709,-0.5729824900627136,3.494053602218628,82.55558776855469,24.89,2
