acc_x,acc_y,acc_z,bvp,eda,hr,temp,label
0.0,0.0,0.0,0.0,0.0,0.0,29.51,0
-0.0677083283662796,-0.1458333283662796,0.0416666641831398,-7.683332443237305,0.0427109971642494,12.249999046325684,29.51,0
-0.1627286672592163,-0.3414634168148041,0.0975609794259071,-24.64390182495117,0.1000062450766563,28.68292617797852,29.51,0
-0.2354132086038589,-0.5116279125213623,0.1461794078350067,-44.67827224731445,0.1498432457447052,42.97674560546875,29.51,0
-0.2724259197711944,-0.6411103010177612,0.1869873702526092,-61.2008056640625,0.1862020194530487,53.40485763549805,29.51,0
-0.3084645271301269,-0.7452445030212402,0.2146160900592804,-71.97969818115234,0.2108184546232223,60.46512985229492,29.51,0
-0.3543233275413513,-0.7913591861724854,0.232744500041008,-69.89362335205078,0.226970374584198,65.0976791381836,29.51,0
-0.3617064952850342,-0.8547013998031616,0.2110093832015991,-43.25079345703125,0.2374311834573745,68.09795379638672,29.51,0
-0.394413411617279,-0.9010948538780212,0.1970082372426986,4.701554298400879,0.2565471827983856,70.03064727783203,29.49,0
-0.4042462408542633,-0.8861567378044128,0.1936037391424179,53.93027877807617,0.2688338458538055,71.27287292480469,29.49,0
-0.4105604290962219,-0.8877571821212769,0.1914175301790237,94.12100219726562,0.2767237722873688,72.07057189941406,29.49,0
-0.397821843624115,-0.8831872344017029,0.1956114172935485,133.75808715820312,0.2817884087562561,72.58262634277344,29.49,0
-0.3952436149120331,-0.8858517408370972,0.2094982266426086,177.65794372558594,0.285038948059082,72.91127014160156,29.49,0
-0.3767959475517273,-0.9267455339431764,0.2352034300565719,215.85906982421875,0.2871250510215759,73.12218475341797,29.49,0
-0.4377276599407196,-0.8858164548873901,0.1845270097255706,238.7519073486328,0.288463830947876,73.25753784179688,29.49,0
-0.4544393718242645,-0.904332399368286,0.1799943447113037,246.13131713867188,0.2893230020999908,73.34439849853516,29.49,0
-0.4483707249164581,-0.8938238620758057,0.1826833039522171,239.61056518554688,0.2687583267688751,73.400146484375,29.49,0
-0.438878446817398,-0.8926778435707092,0.1900066882371902,220.03517150878903,0.2555610835552215,73.43592071533203,29.49,0
-0.4383846223354339,-0.8919423818588257,0.1891086548566818,193.63331604003903,0.2470918446779251,73.45887756347656,29.49,0
-0.4324699342250824,-0.8914704322814941,0.1885323375463485,170.0874481201172,0.2416567802429199,73.4736099243164,29.49,0
-0.4286742210388183,-0.8911675214767456,0.1881624907255172,152.2005615234375,0.238168865442276,73.48306274414062,29.49,0
-0.4318361282348633,-0.8965709209442139,0.1823273748159408,133.9471435546875,0.2359305173158645,73.48912811279297,29.49,0
-0.4338652491569519,-0.9000385403633118,0.1785827279090881,110.45721435546876,0.2344940751791,73.49302673339844,29.49,0
-0.429569661617279,-0.8910682797431946,0.1761796325445175,84.62067413330078,0.2335722595453262,73.49552154541016,29.49,0
-0.4268129765987396,-0.8909094929695129,0.1802352368831634,61.76718521118164,0.2325217574834823,73.49712371826172,29.49,0
-0.425043910741806,-0.8964053392410278,0.182837888598442,42.85935974121094,0.2318475991487503,73.49815368652344,29.49,0
-0.4239086210727691,-0.8999322652816772,0.178910344839096,26.207778930664062,0.2314149588346481,73.49881744384766,29.49,0
-0.4231800734996795,-0.907793402671814,0.1763898730278015,12.107556343078612,0.2311373203992843,73.4992446899414,29.49,0
-0.4283103048801422,-0.901642680168152,0.1747723817825317,1.7547882795333862,0.2309591472148895,73.49951171875,29.49,0
-0.4204070270061493,-0.8920977115631104,0.1737343668937683,-6.135758399963379,0.2308448106050491,73.49968719482422,29.49,0
-0.4153351783752441,-0.8859723210334778,0.1730682402849197,-13.513801574707031,0.2307714372873306,73.49980163574219,29.49,0
-0.4176781177520752,-0.8876391649246216,0.1726407557725906,-19.44160270690918,0.230724349617958,73.49987030029297,29.49,0
-0.4191816747188568,-0.8831110596656799,0.1723664253950119,-22.393070220947266,0.2316119819879531,73.79727172851562,29.49,0
-0.4369398951530456,-0.8969985246658325,0.1777881383895874,-24.763635635375977,0.2321816235780716,73.98812866210938,29.49,0
-0.4707272052764892,-0.9059107303619384,0.1924630403518676,-30.691495895385746,0.232547178864479,74.11061096191406,29.49,0
-0.5036054849624634,-0.9004344940185547,0.1962827742099762,-40.13462829589844,0.2327817678451538,74.189208984375,29.49,0
-0.5303026437759399,-0.8745290637016296,0.2099296003580093,-48.82071685791016,0.2329323142766952,74.2396469116211,29.49,0
-0.5418375730514526,-0.8411111235618591,0.2298828959465026,-53.4849739074707,0.2330289334058761,74.27201843261719,29.49,0
-0.5604355931282043,-0.7916765809059143,0.2202966809272766,-54.31793212890625,0.2330909371376037,74.29279327392578,29.49,0
-0.594761848449707,-0.7935389280319214,0.2085470259189605,-53.949668884277344,0.2331307232379913,74.30612182617188,29.49,0
-0.6335837841033936,-0.8115274310112,0.2066045403480529,-56.29995727539063,0.2331562638282776,74.3146743774414,29.57,0
-0.6752907633781433,-0.8062781095504761,0.2053579688072204,-65.292236328125,0.2331726402044296,74.3201675415039,29.57,0
-0.7076537013053894,-0.8029093742370605,0.1933624446392059,-84.6588363647461,0.2331831604242324,74.32369232177734,29.57,0
-0.7004334926605225,-0.7951497435569763,0.1968599557876587,-117.3144302368164,0.2331899106502533,74.3259506225586,29.57,0
-0.6734088659286499,-0.7845723032951355,0.204702228307724,-158.46946716308594,0.2331942468881607,74.32740020751953,29.57,0
-0.6504682302474976,-0.7721865177154541,0.2097349464893341,-191.88075256347656,0.2331970185041427,74.32833099365234,29.57,0
-0.6245507001876831,-0.7586402297019958,0.2073668837547302,-202.76077270507807,0.233198806643486,74.32892608642578,29.57,0
-0.6079183220863342,-0.7555447816848755,0.2058472037315368,-191.45388793945312,0.2331999540328979,74.32931518554688,29.57,0
-0.5860490798950195,-0.753558337688446,0.2048719525337219,-167.83615112304688,0.2336599677801132,74.32955932617188,29.57,0
-0.5552213191986084,-0.7578812837600708,0.2042460888624191,-139.2342529296875,0.2339551895856857,74.32971954345703,29.57,0
-0.5298401117324829,-0.7662532925605774,0.2038444429636001,-106.9752197265625,0.2341446429491043,74.32981872558594,29.57,0
-0.5023563504219055,-0.7940170764923096,0.209184467792511,-70.00833129882812,0.2342662215232849,74.32988739013672,29.57,0
-0.4735232889652252,-0.8230298161506653,0.2126113921403885,-34.86027908325195,0.2343442440032959,74.32992553710938,29.57,0
-0.4270310401916504,-0.9088218212127686,0.1868217289447784,-19.440773010253903,0.2343943119049072,74.3299560546875,29.57,0
-0.402792751789093,-1.0478447675704956,0.1534780710935592,-34.00724792480469,0.2344264388084411,74.32997131347656,29.57,0
-0.3984335660934448,-1.12026846408844,0.1320800334215164,-64.38489532470703,0.2344470620155334,74.3299789428711,29.57,0
-0.4180271923542022,-1.0883768796920776,0.1071524620056152,-88.36848449707031,0.2349192202091217,74.32998657226562,29.57,0
-0.4306012392044067,-1.0623129606246948,0.0799598321318626,-98.55429077148438,0.2352222204208374,74.32999420166016,29.57,0
-0.410681664943695,-1.0455867052078247,0.0681069418787956,-98.79278564453124,0.2354166805744171,74.32999420166016,29.57,0
-0.3699095547199249,-1.0068638324737549,0.077293761074543,-92.74081420898438,0.2355414628982544,74.32999420166016,29.57,0
-0.3381465971469879,-0.9596226215362548,0.094384878873825,-84.78003692626953,0.2356215417385101,74.32999420166016,29.57,0
-0.3457518219947815,-0.8733282089233398,0.0829618796706199,-80.26597595214844,0.2356729358434677,74.32999420166016,29.57,0
-0.3506324291229248,-0.7843627333641052,0.0756312534213066,-78.4940414428711,0.2357059121131897,74.32999420166016,29.57,0
-0.3593623042106628,-0.7272698283195496,0.0709268823266029,-72.94676971435547,0.2357270717620849,74.32999420166016,29.57,0
-0.3537690639495849,-0.713021993637085,0.073505662381649,-61.20782852172852,0.2352817356586456,75.10741424560547,29.57,0
-0.3613752126693725,-0.7150741219520569,0.0807583481073379,-48.68392181396485,0.2349959462881088,75.60631561279297,29.57,0
-0.3662563860416412,-0.7611732482910156,0.1078038066625595,-40.41751480102539,0.2348125427961349,75.92648315429688,29.57,0
-0.3861821889877319,-0.7963547706604004,0.1195622459053993,-34.75435256958008,0.2346948385238647,76.13195037841797,29.57,0
-0.4325560629367828,-0.8189322352409363,0.149499237537384,-28.09636688232422,0.2346193045377731,76.26380920410156,29.57,0
-0.4735116958618164,-0.8670077919960022,0.1743088513612747,-21.46273803710937,0.2345708310604095,76.34842681884766,29.57,0
-0.5165879726409912,-0.9426421523094176,0.1958280056715011,-18.301925659179688,0.2345397174358368,76.4027328491211,29.57,0
-0.5386340618133545,-1.069548726081848,0.2096377611160278,-17.939395904541016,0.234519749879837,76.43757629394531,29.57,0
-0.5471842288970947,-1.1845767498016355,0.2185000628232956,-15.790066719055176,0.2358840852975845,76.4599380493164,29.61,0
-0.6030511856079102,-1.2136129140853882,0.2297851592302322,-10.326615333557127,0.2367596328258514,76.47428894042969,29.61,0
-0.6500989198684692,-1.1426821947097778,0.2090384066104889,-4.638697624206543,0.2373215109109878,76.4834976196289,29.61,0
-0.6467047929763794,-1.0971629619598389,0.2013221085071563,-1.0171802043914795,0.2376820892095565,76.48941040039062,29.61,0
-0.6053422689437866,-1.107135772705078,0.2075657844543457,0.357518583536148,0.2379134893417358,76.49320220947266,29.61,0
-0.5732004046440125,-1.1191335916519165,0.1891815215349197,-0.347359836101532,0.2380619943141937,76.49563598632812,29.61,0
-0.4574114084243774,-1.1212352514266968,0.1997746527194976,-0.6205814480781555,0.2381572872400283,76.49720001220703,29.61,0
-0.394300252199173,-1.049812912940979,0.1841816157102584,2.725752592086792,0.2382184416055679,76.49819946289062,29.61,0
-0.3482013642787933,-1.0039781332015991,0.1517838090658188,7.613907814025879,0.2382576912641525,76.49884796142578,29.61,0
-0.3298133015632629,-0.9353796243667604,0.1030038893222808,9.858782768249512,0.2382828742265701,76.49925994873047,29.61,0
-0.3124151229858398,-0.8857592940330505,0.0716997385025024,10.636637687683104,0.2382990419864654,76.49952697753906,29.61,0
-0.3012499809265136,-0.8371224999427795,0.0292194411158561,13.005925178527832,0.2383094131946563,76.49969482421875,29.61,0
-0.2884870767593384,-0.8003124594688416,0.0019580321386456,15.583256721496582,0.23831607401371,76.49980163574219,29.61,0
-0.274698793888092,-0.7990809679031372,-0.0099389962852001,15.918851852416992,0.2383203506469726,76.49987030029297,29.61,0
-0.2546547055244446,-0.8318772912025452,-0.0175738241523504,15.113183975219728,0.2383230924606323,76.49991607666016,29.61,0
-0.2417915761470794,-0.8585218787193298,-0.0224734172224998,15.262511253356934,0.2383248507976532,76.49994659423828,29.61,0
-0.2447323054075241,-0.9371963739395142,-0.0312154684215784,16.486852645874023,0.2369488328695297,76.49996948242188,29.61,0
-0.2522172629833221,-1.0492606163024902,-0.048021163791418,18.74500274658203,0.2360657900571823,76.4999771118164,29.61,0
-0.2682162225246429,-1.0987858772277832,-0.0364149920642375,22.999311447143555,0.2354990988969802,76.49998474121094,29.61,0
-0.3064723312854767,-1.035406231880188,-0.0009779467945918,28.04024124145508,0.2351354360580444,76.49999237060547,29.61,0
-0.3366206586360931,-0.983537256717682,0.0329590551555156,29.71321678161621,0.2349020540714264,76.49999237060547,29.61,0
-0.361565887928009,-1.0398151874542236,0.0715311914682388,26.56298065185547,0.234752282500267,76.49999237060547,29.61,0
-0.3719765245914459,-1.0479421615600586,0.1074801161885261,22.137432098388672,0.2346561700105667,76.49999237060547,29.61,0
-0.3562663793563843,-1.0027776956558228,0.1417456120252609,18.86387825012207,0.2345944941043853,76.49999237060547,29.61,0
-0.3461845219135284,-0.9066203832626344,0.1805285662412643,14.90732479095459,0.2354727685451507,75.17444610595703,29.61,0
-0.3677034378051758,-0.8505099415779114,0.1998194605112075,9.591740608215332,0.2360363900661468,74.32378387451172,29.61,0
-0.4150996804237366,-0.808903694152832,0.1954059153795242,5.496232986450195,0.2363980859518051,73.77787780761719,29.61,0
-0.4511136412620544,-0.8045943379402161,0.209366887807846,2.5777835845947266,0.2366302013397216,73.42754364013672,29.61,0
-0.4686275422573089,-0.8186221718788147,0.2351195514202118,-3.300428867340088,0.2367791682481765,73.20272064208984,29.61,0
-0.4910625219345093,-0.8388199806213379,0.2572439014911651,-13.431798934936523,0.2368747591972351,73.05844116210938,29.61,0
-0.5222533345222473,-0.8573794960975647,0.2714420557022095,-23.53043556213379,0.2369361072778701,72.96585083007812,29.61,0
-0.5702586770057678,-0.9252676963806152,0.2693580389022827,-28.846820831298828,0.2369754761457443,72.90643310546875,29.61,0
-0.5954679250717163,-1.0360077619552612,0.2568250894546509,-27.69078826904297,0.2374600321054458,72.86830139160156,29.57,0
-0.5948524475097656,-1.1126720905303955,0.2431844025850296,-20.862117767333984,0.237770989537239,72.84383392333984,29.57,0
-0.6168485879898071,-1.1898597478866575,0.240028366446495,-11.184822082519531,0.237970545887947,72.82813262939453,29.57,0
-0.6421599984169006,-1.2170032262802124,0.2380030006170272,-2.022448778152466,0.238098606467247,72.81805419921875,29.57,0
-0.6584033966064453,-1.2288246154785156,0.2087143659591674,5.688131332397461,0.238180786371231,72.81158447265625,29.57,0
-0.6128497123718262,-1.24760639667511,0.1899186074733734,13.566884994506836,0.2382335215806961,72.80743408203125,29.57,0
-0.5556271076202393,-1.2484638690948486,0.1834543496370315,23.398588180541992,0.2382673621177673,72.80477142333984,29.57,0
-0.4909160733222961,-1.2042319774627686,0.1513170897960662,34.84900665283203,0.2382890880107879,72.80306243896484,29.57,0
-0.4381927251815796,-1.1366621255874634,0.1194976940751075,43.73773193359375,0.2369258850812912,72.80196380615234,29.57,0
-0.3819667994976043,-1.042919635772705,0.0934800654649734,45.75911712646485,0.2360510677099228,72.80126190185547,29.57,0
-0.3402864634990692,-0.9659678339958192,0.0599901266396045,42.882625579833984,0.2354896515607834,72.80081176757812,29.57,0
-0.307940661907196,-0.9109868407249452,0.0273026619106531,39.60004425048828,0.2351293712854385,72.80052185058594,29.57,0
-0.275987446308136,-0.853312075138092,-0.0048698200844228,34.88177490234375,0.2348981648683548,72.80033874511719,29.57,0
-0.2442861497402191,-0.799506425857544,-0.0311140436679124,25.48046112060547,0.2347497940063476,72.80021667480469,29.57,0
-0.2239420861005783,-0.7705748081207275,-0.0479560755193233,13.335365295410156,0.2346545755863189,72.80014038085938,29.57,0
-0.2220819890499115,-0.7855948209762573,-0.0587643198668956,2.9332258701324463,0.234593465924263,72.80009460449219,29.57,0
-0.2264860570430755,-0.8008315563201904,-0.0712982043623924,-4.534017086029053,0.235931396484375,72.80006408691406,29.57,0
-0.2293123304843902,-0.8889784812927246,-0.0737439543008804,-11.25348949432373,0.2367900013923645,72.80004119873047,29.57,0
-0.2367238402366638,-1.0015238523483276,-0.0809112712740898,-19.89699363708496,0.2373410016298294,72.8000259399414,29.57,0
-0.2526756823062897,-1.0625534057617188,-0.0631197467446327,-30.695953369140625,0.2376946061849594,72.80001831054688,29.57,0
-0.2909015119075775,-1.056936502456665,-0.0125177511945366,-40.929237365722656,0.2379215210676193,72.80001068115234,29.57,0
-0.3210304379463196,-1.0701252222061155,0.0479445718228817,-48.38126754760742,0.2380671501159668,72.80001068115234,29.57,0
-0.3515609800815582,-1.1345666646957395,0.1147346794605255,-54.5750846862793,0.2381605952978134,72.80001068115234,29.57,0
-0.3599581718444824,-1.153530478477478,0.1687922775745391,-62.537330627441406,0.2382205724716186,72.80001068115234,29.57,0
-0.337358146905899,-1.0537447929382324,0.220276653766632,-69.8395767211914,0.2364226281642913,71.32040405273438,29.57,0
-0.3340502977371216,-0.939328134059906,0.2533163726329803,-67.45731353759766,0.2352688163518905,70.3708724975586,29.57,0
-0.3487208485603332,-0.8826954364776611,0.2689215838909149,-50.165184020996094,0.234528362751007,69.76152038574219,29.57,0
-0.3973199725151062,-0.8463518619537354,0.2565450072288513,-23.99977684020996,0.2340531796216964,69.37047576904297,29.57,0
-0.4397036433219909,-0.8286263942718506,0.2542002201080322,1.404186129570007,0.2337482422590255,69.11952209472656,29.57,0
-0.4725008308887481,-0.8340445160865784,0.2582932412624359,21.93442726135254,0.2335525453090667,68.9584732055664,29.57,0
-0.510341465473175,-0.8487171530723572,0.2665176689624786,36.768287658691406,0.233426958322525,68.8551254272461,29.57,0
-0.5514187812805176,-0.8637309670448303,0.2717956304550171,44.55741882324219,0.2333463579416275,68.78880310058594,29.57,0
-0.6057686805725098,-0.9349414706230164,0.2695849537849426,45.55788040161133,0.2351310700178146,68.7462387084961,29.51,0
-0.6350495219230652,-1.0142269134521484,0.2569707334041595,43.523738861083984,0.2362763881683349,68.71892547607422,29.51,0
-0.6482425332069397,-1.171465516090393,0.2432778626680374,42.9312744140625,0.2370113879442215,68.7013931274414,29.51,0
-0.6567090153694153,-1.2219921350479126,0.2344905734062194,44.324440002441406,0.2374830693006515,68.69014739990234,29.51,0
-0.6677401065826416,-1.2264283895492554,0.2232536226511001,44.1186408996582,0.2377857714891433,68.68292999267578,29.51,0
-0.6692214608192444,-1.2516664266586304,0.1936512887477874,40.50430679321289,0.2379800230264663,68.67829895019531,29.51,0
-0.6477810144424438,-1.284656047821045,0.1802520006895065,36.45445251464844,0.2381046861410141,68.67532348632812,29.51,0
-0.5724462270736694,-1.2554469108581543,0.1548597812652588,34.5218505859375,0.2381846904754638,68.67341613769531,29.51,0
-0.4737207591533661,-1.1807245016098022,0.1441622823476791,33.79392623901367,0.2377767413854599,68.67219543457031,29.51,0
-0.3879733383655548,-1.104783058166504,0.1316994726657867,33.86775207519531,0.2375149428844452,68.6714096069336,29.51,0
-0.3217500150203705,-1.0336570739746094,0.090114913880825,35.69208908081055,0.2373469471931457,68.67090606689453,29.51,0
-0.2848494946956634,-0.976816952228546,0.0522327907383441,37.99493789672852,0.2372391372919082,68.67057800292969,29.51,0
-0.2611688375473022,-0.9235469102859496,0.0223244503140449,38.10064697265625,0.2371699512004852,68.67037200927734,29.51,0
-0.2403741925954818,-0.8725679516792297,-0.019260099157691,34.63248062133789,0.2371255457401275,68.67023468017578,29.51,0
-0.2214316129684448,-0.8174614906311035,-0.0515444427728652,27.49151992797852,0.2370970547199249,68.67015075683594,29.51,0
-0.2148731350898742,-0.782097339630127,-0.0666649043560028,18.910707473754883,0.23707877099514,68.67009735107422,29.51,0
-0.2218598276376724,-0.7817937731742859,-0.0707705691456794,13.4828519821167,0.236149176955223,68.67005920410156,29.51,0
-0.220745712518692,-0.7871967554092407,-0.073405347764492,12.324658393859863,0.2355526089668274,68.67003631591797,29.51,0
-0.2368240505456924,-0.9026195406913756,-0.0639006495475769,9.306461334228516,0.235169768333435,68.6700210571289,29.51,0
-0.2415444403886795,-1.0102778673171997,-0.0410077571868896,-2.9625918865203857,0.2349240928888321,68.67001342773438,29.51,0
-0.2501714825630188,-1.0457801818847656,-0.0095230946317315,-24.86194610595703,0.23476642370224,68.67000579833984,29.51,0
-0.2613056004047394,-1.062965750694275,0.0330730453133583,-49.48429107666016,0.2346652448177337,68.67000579833984,29.51,0
-0.2964397072792053,-1.1075811386108398,0.0995932221412658,-69.36962890625,0.2346003204584121,68.67000579833984,29.51,0
-0.3525733947753906,-1.1586037874221802,0.153477594256401,-82.39242553710938,0.2345586419105529,68.67000579833984,29.51,0
-0.388596773147583,-1.1465649604797363,0.193655252456665,-90.7783660888672,0.2349908202886581,69.04259490966797,29.51,0
-0.3781278431415558,-1.0268837213516235,0.2250367403030395,-94.3615264892578,0.2352681756019592,69.28170013427734,29.51,0
-0.349018394947052,-0.9388836026191713,0.2451755702495575,-86.93071746826172,0.2354461699724197,69.43514251708984,29.51,0
-0.3695220649242401,-0.8992034792900085,0.2525017261505127,-62.99527359008789,0.2355603873729705,69.53361511230469,29.51,0
-0.4330601096153259,-0.8849346041679382,0.2516054511070251,-27.253610610961918,0.2356336861848831,69.59680938720703,29.51,0
-0.4850307106971741,-0.8813754320144653,0.245432510972023,8.021721839904785,0.2356807291507721,69.63735961914062,29.51,0
-0.5239802002906799,-0.8790913820266724,0.2582643926143646,34.188236236572266,0.2357109189033508,69.66338348388672,29.51,0
-0.5545735359191895,-0.877625584602356,0.2720969319343567,49.52945709228516,0.2357302904129028,69.68008422851562,29.51,0
-0.5965976715087891,-0.9102715849876404,0.2753760814666748,54.7637939453125,0.2371198683977127,69.69080352783203,29.49,0
-0.6067730188369751,-0.9927974343299866,0.2662849128246307,52.60930633544922,0.2380116134881973,69.69767761230469,29.49,0
-0.590911865234375,-1.0625511407852173,0.2548529505729675,49.08788299560547,0.238583892583847,69.70209503173828,29.49,0
-0.5919286608695984,-1.1353038549423218,0.2531143426895141,48.737548828125,0.2389511466026306,69.70492553710938,29.49,0
-0.5981789231300354,-1.1540035009384155,0.240803062915802,49.834693908691406,0.2391868233680725,69.70674133300781,29.49,0
-0.641374409198761,-1.205188274383545,0.2049135118722915,48.1886100769043,0.23933807015419,69.7079086303711,29.49,0
-0.6243125796318054,-1.294013500213623,0.1706861108541488,43.80403518676758,0.2394351363182068,69.70865631103516,29.49,0
-0.5685811042785645,-1.323027491569519,0.1431231647729873,40.37764739990234,0.239497423171997,69.70913696289062,29.49,0
-0.4656425714492798,-1.2576804161071775,0.1198370829224586,39.8697624206543,0.2377013266086578,69.70944213867188,29.49,0
-0.388386994600296,-1.1709622144699097,0.0992956385016441,40.81922912597656,0.2365486919879913,69.70964050292969,29.49,0
-0.3388088047504425,-1.076127052307129,0.0693200007081031,41.14910125732422,0.2358089983463287,69.70977020263672,29.49,0
-0.3069923818111419,-1.0152673721313477,0.0220944918692111,40.80191421508789,0.2353343069553375,69.70985412597656,29.49,0
-0.28097665309906,-0.959417760372162,-0.0138098979368805,41.54640579223633,0.2350296825170517,69.70990753173828,29.49,0
-0.2586834728717804,-0.8955878019332886,-0.0424490459263324,43.63275146484375,0.2348341941833496,69.7099380493164,29.49,0
-0.2331814616918563,-0.8322343230247498,-0.0608280003070831,43.95419692993164,0.2347087413072586,69.7099609375,29.49,0
-0.2168157398700714,-0.7635888457298279,-0.0558292306959629,39.99394607543945,0.2346282303333282,69.70997619628906,29.49,0
-0.2175087034702301,-0.7587205171585083,-0.0470235347747802,33.37193298339844,0.2354944199323654,69.7099838256836,29.49,0
-0.2067578583955764,-0.7499985694885254,-0.046970322728157,26.868865966796875,0.2360502928495407,69.70999145507812,29.49,0
-0.222249686717987,-0.8003790378570557,-0.0245450753718614,20.11253547668457,0.2364070117473602,69.70999145507812,29.49,0
-0.2489847689867019,-0.8886880874633789,-0.0101538430899381,8.493334770202637,0.2366359382867813,69.70999145507812,29.49,0
-0.266141802072525,-0.9845441579818726,0.0046793976798653,-14.51516056060791,0.2367828488349914,69.70999145507812,29.49,0
-0.2939455211162567,-1.0292657613754272,0.036589615046978,-49.769439697265625,0.2368771284818649,69.70999145507812,29.49,0
-0.3117883503437042,-1.035574436187744,0.073861077427864,-86.91736602783203,0.2369376271963119,69.70999145507812,29.49,0
-0.3568255007266998,-1.0732096433639526,0.1201708540320396,-112.2220458984375,0.2369764596223831,69.70999145507812,29.49,0
-0.4137166142463684,-1.1141550540924072,0.1498897969722747,-120.61170196533205,0.2351652979850769,69.95002746582031,29.49,0
-0.4502260684967041,-1.0900514125823977,0.1745594888925552,-115.7925262451172,0.2340030074119568,70.10406494140625,29.49,0
-0.4568624198436737,-1.0074098110198977,0.2071844041347503,-102.03094482421876,0.2332571148872375,70.20291900634766,29.49,0
-0.4611212313175201,-0.9655707478523254,0.2393167316913604,-80.1016616821289,0.2327784448862075,70.266357421875,29.49,0
-0.508636474609375,-0.9443186521530152,0.2711329758167267,-50.0181770324707,0.2324712574481964,70.30706787109375,29.49,0
-0.5391290187835693,-0.925082504749298,0.285953015089035,-14.827188491821287,0.232274129986763,70.33319854736328,29.49,0
-0.5530996322631836,-0.9071400761604308,0.2898659110069275,19.539451599121094,0.2321476191282272,70.34996795654297,29.49,0
-0.5508695840835571,-0.9012234210968018,0.2979747354984283,47.36909484863281,0.2320664376020431,70.36072540283203,29.49,0
-0.5438407063484192,-0.8918286561965942,0.297580748796463,64.84163665771484,0.2329325526952743,70.36763000488281,29.45,0
-0.5281344652175903,-0.8857996463775635,0.3029256761074066,70.92784881591797,0.2334883660078048,70.37206268310547,29.45,0
-0.5180550813674927,-0.8931261301040649,0.3007579743862152,68.82923126220703,0.233845055103302,70.37490844726562,29.45,0
-0.5171844959259033,-0.9314144849777222,0.2881713211536407,63.849727630615234,0.2340739667415619,70.3767318725586,29.45,0
-0.511027991771698,-0.9671813249588012,0.2633005976676941,58.65867233276367,0.2342208623886108,70.37789916992188,29.45,0
-0.5014793276786804,-1.001330018043518,0.2417422384023666,53.07033157348633,0.2343151271343231,70.37865447998047,29.45,0
-0.4953515827655792,-1.0344401597976685,0.2111140042543411,47.24494552612305,0.2343756258487701,70.37913513183594,29.45,0
-0.5138102173805237,-1.0836771726608276,0.1802630126476287,41.97678756713867,0.2344144582748413,70.37944030761719,29.45,0
-0.5592425465583801,-1.1656546592712402,0.1548668444156646,37.30625915527344,0.2358165085315704,70.379638671875,29.45,0
-0.5492140054702759,-1.123100996017456,0.0937868505716323,33.77159881591797,0.2367162704467773,70.37976837158203,29.45,0
-0.5035938620567322,-1.078999161720276,0.0489914529025554,33.706539154052734,0.2372936755418777,70.37985229492188,29.45,0
-0.4295352697372436,-1.0730881690979004,-0.0301356259733438,38.71622085571289,0.2376642227172851,70.3799057006836,29.45,0
-0.4043998122215271,-1.0972837209701538,-0.1200992465019226,46.20515823364258,0.2379020303487777,70.37993621826172,29.45,0
-0.3882693350315094,-1.0960177183151243,-0.2562015652656555,49.83245849609375,0.2380546331405639,70.37995910644531,29.45,0
-0.3219399750232696,-1.011238694190979,-0.3939241766929626,44.82313537597656,0.2381525635719299,70.37997436523438,29.45,0
-0.2625802755355835,-0.9680279493331908,-0.4823065996170044,33.544063568115234,0.2382154166698455,70.3799819946289,29.45,0
-0.2132911086082458,-0.917906641960144,-0.494243174791336,23.51497840881348,0.2368786036968231,70.37998962402344,29.45,0
-0.2152467966079712,-0.8409594893455505,-0.4739145040512085,18.06051445007324,0.2360207140445709,70.37998962402344,29.45,0
-0.2388929426670074,-0.7859814763069153,-0.4272820949554443,12.181323051452637,0.235470175743103,70.37998962402344,29.45,0
-0.2764587700366974,-0.7227108478546143,-0.3973560929298401,-1.7052136659622192,0.2351168692111969,70.37998962402344,29.45,0
-0.362141877412796,-0.7156940698623657,-0.3501624464988708,-26.94617462158203,0.2348901331424713,70.37998962402344,29.45,0
-0.4339216947555542,-0.7223866581916809,-0.2974851727485657,-59.25521087646485,0.2347446382045745,70.37998962402344,29.45,0
-0.474388062953949,-0.709888219833374,-0.2636799216270447,-88.16114807128906,0.2346512675285339,70.37998962402344,29.45,0
-0.5283459424972534,-0.7410519123077393,-0.2363878935575485,-104.65491485595705,0.2345913499593734,70.37998962402344,29.45,0
-0.5405818819999695,-0.7666487097740173,-0.2132756561040878,-107.04631805419922,0.2354707419872284,70.4444808959961,29.45,0
-0.5372386574745178,-0.7550864219665527,-0.1984435617923736,-98.61783599853516,0.2360350936651229,70.4858627319336,29.45,0
-0.4791154265403747,-0.7084819674491882,-0.2057185024023056,-84.10559844970703,0.2363972663879394,70.51242065429688,29.45,0
-0.4306197464466095,-0.689769446849823,-0.2103871405124664,-68.0357437133789,0.2366296797990799,70.52946472167969,29.45,0
-0.4162913262844085,-0.6833586096763611,-0.1630032211542129,-50.905391693115234,0.2367788255214691,70.5404052734375,29.45,0
-0.4182917177677154,-0.6624512076377869,-0.1661816090345382,-29.114234924316406,0.2368745505809784,70.54742431640625,29.45,0
-0.430770993232727,-0.705011785030365,-0.1682213097810745,-2.0678553581237797,0.2369359731674194,70.55192565917969,29.45,0
-0.4947572350502014,-0.8050957918167114,-0.1415414065122604,24.958328247070312,0.2369753867387771,70.55481719970703,29.45,0
-0.5414177179336548,-0.8749216794967651,-0.1300175487995147,46.25017547607422,0.2356235384941101,70.55667114257812,29.45,0
-0.576959490776062,-1.0204918384552002,-0.1114266514778137,59.3695068359375,0.2347560077905655,70.557861328125,29.45,0
-0.6389525532722473,-1.0803238153457642,-0.0603116638958454,64.0736083984375,0.2341992706060409,70.55862426757812,29.45,0
-0.6731383800506592,-1.0907316207885742,-0.02750900760293,61.38538360595703,0.233841985464096,70.55911254882812,29.45,0
-0.6558924317359924,-1.181377410888672,0.0719106942415237,54.375938415527344,0.2336127012968063,70.55943298339844,29.45,0
-0.7399871349334717,-1.099604249000549,0.1525058597326278,47.02594757080078,0.2334655672311782,70.55963897705078,29.45,0
-0.9283008575439452,-1.0023447275161743,0.2658027112483978,42.29840087890625,0.2333711385726928,70.55976867675781,29.45,0
-0.9315965175628662,-0.8223759531974792,0.0362302847206592,42.65364837646485,0.2333105355501175,70.55985260009766,29.45,0
-0.9505047798156738,-0.6788934469223022,-0.0831072032451629,49.9428825378418,0.2314355820417404,70.55990600585938,29.45,0
-0.9626390337944032,-0.5980101823806763,-0.1037133857607841,62.889278411865234,0.2302323430776596,70.5599365234375,29.45,0
-0.9480350017547609,-0.5293106436729431,-0.1113394796848297,76.02326202392578,0.2294601798057556,70.5599594116211,29.45,0
-0.9610540866851808,-0.4628321528434753,-0.1106356903910636,85.71295928955078,0.2289646416902542,70.55997467041016,29.45,0
-0.9973978400230408,-0.4145722985267639,-0.1157818138599395,93.10991668701172,0.2286466360092163,70.55998229980469,29.45,0
-1.0319167375564575,-0.3780041337013244,-0.1022909730672836,99.61590576171876,0.2284425646066665,70.55998992919922,29.45,0
-1.0372756719589231,-0.3041568100452423,-0.0600466839969158,103.17845153808594,0.2283115983009338,70.55998992919922,29.45,0
-1.0183236598968506,-0.2511680722236633,-0.0273389555513858,102.04691314697266,0.2282275557518005,70.55998992919922,29.45,0
-1.045345664024353,-0.2787384688854217,0.0104443030431866,98.41886901855467,0.2332232594490051,70.55998992919922,29.45,0
-1.0291001796722412,-0.2628449201583862,0.0682780742645263,92.53668212890624,0.236429214477539,70.55998992919922,29.45,0
-1.0298703908920288,-0.2078631669282913,0.099794678390026,79.11754608154297,0.2384866178035736,70.55998992919922,29.45,0
-0.979984700679779,-0.1501879394054412,0.1871935129165649,52.48197555541992,0.2398069351911544,70.55998992919922,29.45,0
-0.953568696975708,-0.1299686133861541,0.2656721472740173,15.61298370361328,0.240654245018959,70.55998992919922,29.45,0
-0.953409731388092,-0.1281885653734207,0.3160352408885956,-26.40453147888184,0.2411979883909225,70.55998992919922,29.45,0
-0.936514377593994,-0.1158506870269775,0.3595509231090545,-73.24867248535156,0.24154694378376,70.55998992919922,29.45,0
-0.8808897137641907,-0.1415195912122726,0.4434545040130615,-116.33678436279295,0.2417708784341812,70.55998992919922,29.45,0
-0.850790798664093,-0.1635901927947998,0.4917012155056,-148.82473754882812,0.1785660535097122,70.53849792480469,29.45,0
-0.8482683897018433,-0.1553627401590347,0.5058698654174805,-168.68484497070312,0.1380048245191574,70.52470397949219,29.45,0
-0.7738785743713379,-0.105300635099411,0.4981691539287567,-170.15196228027344,0.1119749695062637,70.51585388183594,29.45,0
-0.6813572645187378,-0.0395870134234428,0.470836192369461,-144.5537567138672,0.0952705070376396,70.51017761230469,29.45,0
-0.6163846254348755,0.0081819826737046,0.4476976990699768,-96.76801300048828,0.0845505446195602,70.50653076171875,29.45,0
-0.65865558385849,0.0332395993173122,0.4272509813308716,-48.89118194580078,0.0776710882782936,70.50418853759766,29.45,0
-0.7641514539718628,0.0549179092049598,0.4085316658020019,-15.22171115875244,0.0732562467455864,70.502685546875,29.45,0
-0.9494059085845948,0.018449829891324,0.4916808605194092,8.033400535583496,0.0704230591654777,70.50172424316406,29.45,0
-0.9843249320983888,-0.0553332529962062,0.4946612417697906,17.991743087768555,0.0846712961792945,70.50110626220703,29.47,0
-0.9507562518119812,-0.0858896672725677,0.4685850143432617,-0.4269026815891266,0.0938149988651275,70.5007095336914,29.47,0
-0.9404093027114868,-0.1110967919230461,0.4238619208335876,-40.42030334472656,0.0996828973293304,70.50045776367188,29.47,0
-0.9169759154319764,-0.1328710466623306,0.367172360420227,-66.94558715820312,0.1034485772252082,70.50029754638672,29.47,0
-0.9467199444770812,-0.1356489658355713,0.3251944780349731,-55.995235443115234,0.1058651730418205,70.50019073486328,29.47,0
-0.9770034551620485,-0.1710183173418045,0.3150488138198852,-20.60109519958496,0.1074160039424896,70.5001220703125,29.47,0
-0.940459966659546,-0.1937163323163986,0.3421245515346527,10.589200973510742,0.1084112375974655,70.50007629394531,29.47,0
-0.9282039999961852,-0.2194781601428985,0.3874890804290771,32.98058319091797,0.1090499237179756,70.50004577636719,29.47,0
-0.9259365797042848,-0.2192172855138778,0.3886125385761261,48.3997802734375,0.1094597950577735,70.50003051757812,29.47,0
-0.918883740901947,-0.2022565603256225,0.3725402057170868,52.94614791870117,0.1097228303551673,70.5000228881836,29.47,0
-0.942346453666687,-0.1913721412420272,0.3398348093032837,50.24626541137695,0.1098916307091713,70.50001525878906,29.47,0
-0.9741967916488647,-0.1955826878547668,0.3020530343055725,54.08454132080078,0.1099999547004699,70.50000762939453,29.47,0
-0.972245454788208,-0.2150781005620956,0.300197958946228,65.76927185058594,0.1100694686174392,70.50000762939453,29.47,0
-0.9486020803451538,-0.2443824559450149,0.3325941264629364,65.87342834472656,0.1101140826940536,70.50000762939453,29.47,0
-0.944624662399292,-0.2575905323028564,0.3645796775817871,34.4315185546875,0.1101427152752876,70.50000762939453,29.47,0
-0.9308766722679138,-0.2436756193637848,0.3515195250511169,-23.169677734375,0.1101610884070396,70.50000762939453,29.47,0
-0.933249533176422,-0.2347458302974701,0.3431382477283478,-83.6651611328125,0.1078778803348541,70.50000762939453,29.47,0
-0.929174542427063,-0.2290152013301849,0.3657485246658325,-125.6654281616211,0.106412649154663,70.50000762939453,29.47,0
-0.9153638482093812,-0.2309353947639465,0.3802584707736969,-132.79638671875,0.1054723486304283,70.50000762939453,29.47,0
-0.91209876537323,-0.2209721058607101,0.3615812659263611,-97.46990203857422,0.1048689186573028,70.50000762939453,29.47,0
-0.9211989641189576,-0.2257737964391708,0.3551930785179138,-32.575164794921875,0.1044816747307777,70.50000762939453,29.47,0
-0.92144113779068,-0.2288552373647689,0.3566912710666656,28.212247848510746,0.1042331606149673,70.50000762939453,29.47,0
-0.927194356918335,-0.2308327406644821,0.3464571833610534,59.637794494628906,0.1040736809372901,70.50000762939453,29.47,0
-0.9364842176437378,-0.2321017831563949,0.3286939859390259,67.33753967285156,0.1039713323116302,70.50000762939453,29.47,0
-0.9424458742141724,-0.2329161763191223,0.328490138053894,67.57845306396484,0.113545648753643,70.4176025390625,29.47,0
-0.9406740069389344,-0.2334388047456741,0.3283593356609344,62.68520736694336,0.1196898892521858,70.3647232055664,29.47,0
-0.9395368695259094,-0.2337742000818252,0.3282753825187683,49.80756378173828,0.1236329078674316,70.3307876586914,29.47,0
-0.9332093596458436,-0.2339894473552703,0.3282214999198913,32.60132598876953,0.1261633187532425,70.30900573730469,29.47,0
-0.934746503829956,-0.2285297960042953,0.3281869292259216,11.83624267578125,0.1277871876955032,70.29502868652344,29.47,0
-0.9413307309150696,-0.2306238859891891,0.322566956281662,-14.63047981262207,0.1288292855024337,70.28606414794922,29.47,0
-0.9399583339691162,-0.2319677472114563,0.3245581686496734,-40.70071029663086,0.1294980496168136,70.28031158447266,29.47,0
-0.9446753859519958,-0.2328301668167114,0.3202382326126098,-56.266746520996094,0.1299272179603576,70.27661895751953,29.47,0
-0.9477025270462036,-0.2389813959598541,0.3174659609794616,-58.50343704223633,0.1742711961269378,70.27424621582031,29.49,0
-0.9496451616287231,-0.2373311221599578,0.3156868815422058,-50.613372802734375,0.2027285993099212,70.27272033691406,29.49,0
-0.956489622592926,-0.2362720668315887,0.3033496141433716,-37.11301803588867,0.2209909260272979,70.27174377441406,29.49,0
-0.9552842378616332,-0.2355924248695373,0.3010300397872925,-23.92447662353516,0.2327106297016143,70.2711181640625,29.49,0
-0.9489129185676576,-0.2351562678813934,0.2995414733886719,-12.458630561828612,0.2402316629886627,70.27071380615234,29.49,0
-0.950421929359436,-0.2404741495847702,0.2985861897468567,7.381181716918945,0.2450582385063171,70.27045440673828,29.49,0
-0.9513903260231018,-0.2438868582248687,0.2979731559753418,45.28082656860352,0.2481556534767151,70.27029418945312,29.49,0
-0.9464139938354492,-0.2404791563749313,0.2975797355175018,88.44698333740234,0.2501434087753296,70.27018737792969,29.49,0
-0.9432204961776732,-0.2382922917604446,0.2973272502422333,109.03712463378906,0.2064322531223297,70.2701187133789,29.49,0
-0.9411711096763612,-0.2368888854980468,0.2971652150154114,98.90304565429688,0.1783809512853622,70.27007293701172,29.49,0
-0.9454537034034728,-0.2359882742166519,0.2914634644985199,75.31427764892578,0.1603792458772659,70.2700424194336,29.49,0
-0.9482020139694214,-0.2410080879926681,0.2878044247627258,50.21321868896485,0.148826777935028,70.27002716064453,29.49,0
-0.9499657154083252,-0.2386317402124405,0.2910540401935577,19.083065032958984,0.141413077712059,70.27001953125,29.49,0
-0.9510975480079652,-0.2371067255735397,0.2875416576862335,-15.428985595703123,0.1366553902626037,70.27001190185547,29.49,0
-0.951823890209198,-0.2417258322238922,0.2852876186370849,-38.60861206054688,0.1336021721363067,70.27000427246094,29.49,0
-0.9522899985313416,-0.2390923351049423,0.2838411033153534,-49.04515075683594,0.1316428035497665,70.27000427246094,29.49,0
-0.9525891542434692,-0.2374023199081421,0.2829128205776214,-56.11889266967773,0.1758310794830322,70.27000427246094,29.49,0
-0.9527811408042908,-0.236317753791809,0.2823171019554138,-60.36105728149414,0.2041885703802108,70.27000427246094,29.49,0
-0.9529043436050416,-0.2356217503547668,0.2819347977638244,-57.25100326538086,0.2223867774009704,70.27000427246094,29.49,0
-0.9529833793640136,-0.2351750880479812,0.2816894650459289,-51.02412796020508,0.2340653389692306,70.27000427246094,29.49,0
-0.9530341029167176,-0.2348884493112564,0.2815320193767547,-49.47855758666992,0.2415599673986435,70.27000427246094,29.49,0
-0.9530666470527648,-0.2347045093774795,0.2814309895038605,-51.63936614990234,0.2463695853948593,70.27000427246094,29.49,0
-0.953087568283081,-0.2401842325925827,0.275768369436264,-50.70812225341797,0.2494561225175857,70.27000427246094,29.49,0
-0.9586987495422364,-0.2381030321121215,0.2777321934700012,-45.926055908203125,0.2514368891716003,70.27000427246094,29.49,0
-0.956701934337616,-0.236767441034317,0.2789924740791321,-44.16842269897461,0.2375594675540924,70.20193481445312,29.49,0
-0.9554204940795898,-0.2359103262424469,0.2742034792900085,-51.57059097290039,0.2286537289619445,70.15824890136719,29.49,0
-0.9545981287956238,-0.2409580647945404,0.2711301743984222,-64.87964630126953,0.2229385375976562,70.13021850585938,29.49,0
-0.9540703892707824,-0.2441974133253097,0.2747556865215301,-71.94461059570312,0.2192708551883697,70.11222839355469,29.49,0
-0.9537317156791688,-0.2462762296199798,0.2714845538139343,-62.65692138671875,0.2169171571731567,70.1006851196289,29.49,0
-0.9535143375396729,-0.2420125305652618,0.2693853378295898,-40.92253875732422,0.2154066860675811,70.09327697753906,29.49,0
-0.9533748626708984,-0.2392763346433639,0.2736359536647796,-20.074621200561523,0.2144373506307602,70.0885238647461,29.49,0
-0.9532853364944458,-0.2375203967094421,0.276363730430603,-7.902956485748291,0.2138152867555618,70.0854721069336,29.49,0
-0.9532278776168824,-0.236393541097641,0.2781142592430115,-3.5598156452178955,0.2281057238578796,70.08351135253906,29.49,0
-0.9531910419464112,-0.2356703877449035,0.2792376577854156,-5.204283714294434,0.2372765094041824,70.0822525024414,29.49,0
-0.958765149116516,-0.2408040761947631,0.2743608057498932,-10.393900871276855,0.2431617826223373,70.0814437866211,29.49,0
-0.9567445516586304,-0.2385008037090301,0.2768289148807525,-14.297511100769045,0.2469386160373687,70.08092498779297,29.49,0
-0.955447793006897,-0.2370226979255676,0.2728150188922882,-14.520522117614746,0.249362364411354,70.08059692382812,29.49,0
-0.9546156525611876,-0.2360741347074508,0.2758369147777557,-11.625614166259766,0.2509177923202514,70.08038330078125,29.49,0
-0.9540815949440002,-0.235465407371521,0.2777761816978454,-4.282905578613281,0.2519159615039825,70.08024597167969,29.49,0
-0.9537388682365416,-0.235074758529663,0.2790206968784332,11.825395584106444,0.2525565326213836,70.08016204833984,29.49,0
-0.9535189270973206,-0.2348240613937378,0.2798193693161011,36.53607177734375,0.2538854777812958,70.0801010131836,29.49,0
-0.9533777832984924,-0.234663188457489,0.2803319096565246,60.845252990722656,0.2547383308410644,70.08006286621094,29.49,0
-0.9532872438430786,-0.2345599383115768,0.2806608080863952,73.92335510253906,0.2552856206893921,70.08003997802734,29.49,0
-0.9588268995285034,-0.234493687748909,0.2752741277217865,72.44255065917969,0.2556368410587311,70.08002471923828,29.49,0
-0.9567841291427612,-0.2344511598348617,0.2774150371551513,61.145774841308594,0.2558622360229492,70.08001708984375,29.49,0
-0.955473244190216,-0.2344238758087158,0.2787889540195465,46.562625885009766,0.2560068964958191,70.08000946044922,29.49,0
-0.9546319842338562,-0.234406366944313,0.2796706557273865,32.87982940673828,0.2560997307300567,70.08000946044922,29.49,0
-0.9540920853614808,-0.2343951314687729,0.2802364826202392,22.579986572265625,0.2561593055725097,70.08000946044922,29.49,0
-0.9537456035614014,-0.234387919306755,0.2805995941162109,17.797252655029297,0.2566568255424499,70.08000946044922,29.49,0
-0.9535232782363892,-0.2343832850456237,0.2808326184749603,18.873008728027344,0.2569760978221893,70.08000946044922,29.49,0
-0.9533805847167968,-0.2343803197145462,0.2809821367263794,23.71557235717773,0.2571809887886047,70.08000946044922,29.49,0
-0.953289031982422,-0.2343784123659134,0.2810781002044678,29.327472686767575,0.2573124766349792,70.08000946044922,29.49,0
-0.9532302618026732,-0.2343771904706955,0.2811396718025207,33.3372802734375,0.2573968470096588,70.08000946044922,29.49,0
-0.9531925320625304,-0.2343764007091522,0.275581419467926,34.4273567199707,0.2574509978294372,70.08000946044922,29.49,0
-0.9531683325767516,-0.2343758940696716,0.2776122391223907,32.59760665893555,0.2574857473373413,70.08000946044922,29.49,0
-0.95315283536911,-0.2343755811452865,0.2733177244663238,29.037384033203125,0.2575080394744873,70.08000946044922,29.49,0
-0.9531428813934326,-0.2343753725290298,0.2761595249176025,25.09390640258789,0.259817361831665,70.18748474121094,29.49,0
-0.9531365036964417,-0.2343752384185791,0.2779832184314728,21.58516502380371,0.2612993419170379,70.25645446777344,29.49,0
-0.953132390975952,-0.2343751490116119,0.2791535556316376,18.6885929107666,0.2622503936290741,70.30071258544922,29.49,0
-0.953129768371582,-0.2343750894069671,0.2799046337604522,16.27444076538086,0.2628607153892517,70.32911682128906,29.49,0
-0.9531280398368835,-0.2343750596046447,0.2803866267204284,14.553214073181152,0.2632524073123932,70.34734344482422,29.49,0
-0.9531269669532776,-0.2343750447034835,0.2806959450244903,14.401594161987305,0.263503760099411,70.35903930664062,29.49,0
-0.9531262516975404,-0.2343750298023224,0.2808944284915924,16.364274978637695,0.2636650800704956,70.36654663085938,29.49,0
-0.953125774860382,-0.2343750149011612,0.2810218036174774,19.239551544189453,0.263768583536148,70.37136840820312,29.49,0
-0.9531254768371582,-0.2343750149011612,0.2811035513877868,20.719316482543945,0.2597035765647888,70.37445831298828,29.49,0
-0.953125298023224,-0.2343750149011612,0.2811560034751892,19.544477462768555,0.2570948898792267,70.3764419555664,29.49,0
-0.9531251788139344,-0.2343750149011612,0.2811896800994873,15.981793403625488,0.2554208040237427,70.37771606445312,29.49,0
-0.9531251192092896,-0.2343750149011612,0.2812112867832184,10.385168075561523,0.2543464601039886,70.37853240966797,29.49,0
-0.9531250596046448,-0.2343750149011612,0.2812251448631286,3.1465139389038086,0.2536570131778717,70.37905883789062,29.49,0
-0.9531250596046448,-0.2343750149011612,0.2812340557575226,-4.314742565155029,0.253214567899704,70.37939453125,29.49,0
-0.9531250596046448,-0.2343750149011612,0.281239777803421,-10.21712875366211,0.252930611371994,70.37960815429688,29.49,0
-0.9531250596046448,-0.2343750149011612,0.2812434434890747,-13.56070041656494,0.2527483999729156,70.37974548339844,29.49,0
-0.9531250596046448,-0.2343750149011612,0.2812457978725433,-13.915124893188477,0.2540085911750793,70.37983703613281,29.49,0
-0.9531250596046448,-0.2343750149011612,0.2812473177909851,-11.595362663269045,0.2548173367977142,70.37989807128906,29.49,0
-0.9531250596046448,-0.2343750149011612,0.2812482714653015,-8.498096466064453,0.2553363442420959,70.37993621826172,29.49,0
-0.9531250596046448,-0.2343750149011612,0.2812488973140716,-7.055000305175781,0.2556693851947784,70.37995910644531,29.49,0
-0.9531250596046448,-0.2343750149011612,0.2812492847442627,-7.887948989868164,0.255883127450943,70.37997436523438,29.49,0
-0.9531250596046448,-0.2343750149011612,0.2812495529651642,-9.576077461242676,0.2560203075408935,70.3799819946289,29.49,0
-0.9531250596046448,-0.2343750149011612,0.2812497019767761,-10.892288208007812,0.2561083137989044,70.37998962402344,29.49,0
-0.9531250596046448,-0.2343750149011612,0.2812498211860657,-12.102378845214844,0.2561648190021515,70.37998962402344,29.49,0
-0.9531250596046448,-0.2343750149011612,0.2812498807907104,-13.620538711547852,0.2557421326637268,70.37998962402344,29.49,0
-0.9531250596046448,-0.2343750149011612,0.2812499105930328,-14.62346649169922,0.255470871925354,70.37998962402344,29.49,0
-0.9531250596046448,-0.2343750149011612,0.2812499403953552,-14.09916877746582,0.2552967965602875,70.37998962402344,29.49,0
-0.9531250596046448,-0.2343750149011612,0.2812499701976776,-12.200701713562012,0.2551850974559784,70.37998962402344,29.49,0
-0.9587228298187256,-0.2343750149011612,0.2756521999835968,-9.789377212524414,0.255113422870636,70.37998962402344,29.49,0
-0.9567173719406128,-0.2343750149011612,0.2720598876476288,-7.898000717163086,0.2550674080848694,70.37998962402344,29.49,0
-0.9554303884506226,-0.2343750149011612,0.2697545289993286,-7.630023956298828,0.2550378739833832,70.37998962402344,29.49,0
-0.9602022171020508,-0.2343750149011612,0.2682750821113586,-9.027219772338867,0.2550189197063446,70.37998962402344,29.49,0
-0.963264524936676,-0.2343750149011612,0.261727899312973,-10.375264167785645,0.2563838958740234,70.88513946533203,29.49,0
-0.9596319794654846,-0.2343750149011612,0.2631240785121918,-10.02586841583252,0.2572598755359649,71.20931243896484,29.49,0
-0.9573007822036744,-0.2343750149011612,0.2640200555324554,-8.304129600524902,0.257822036743164,71.41735076904297,29.49,0
-0.9614025354385376,-0.2343750149011612,0.2645950317382812,-6.611674308776856,0.2581827938556671,71.55085754394531,29.49,0
-0.9584370255470276,-0.2343750149011612,0.2649640142917633,-5.536301612854004,0.2584142982959747,71.63653564453125,29.49,0
-0.9565339684486388,-0.2343750149011612,0.2652008235454559,-4.556000709533691,0.2585628628730774,71.69151306152344,29.49,0
-0.9553126692771912,-0.2343750149011612,0.2709505558013916,-3.0240912437438965,0.2586582005023956,71.72679901123047,29.49,0
-0.9545289278030396,-0.2343750149011612,0.2690426409244537,-1.0450438261032104,0.2587193846702575,71.74944305419922,29.49,0
-0.9540259838104248,-0.2343750149011612,0.2678182423114776,0.5366790294647217,0.2573815286159515,71.76396942138672,29.47,0
-0.953703224658966,-0.2343750149011612,0.2670325040817261,1.1110808849334717,0.2565229535102844,71.7732925415039,29.47,0
-0.9534960985183716,-0.2343750149011612,0.2665282487869262,1.1321890354156494,0.2559719681739807,71.77928161621094,29.47,0
-0.9533631205558776,-0.2343750149011612,0.2662046551704407,1.2818729877471924,0.2556183934211731,71.78311920166016,29.47,0
-0.953277826309204,-0.2343750149011612,0.2659969925880432,1.1414815187454224,0.2553914785385132,71.78558349609375,29.47,0
-0.9532230496406556,-0.2343750149011612,0.2714614868164062,-0.1380288153886795,0.2552458643913269,71.78716278076172,29.47,0
-0.9531879425048828,-0.2343750149011612,0.2693705260753631,-2.2237939834594727,0.2551524043083191,71.78817749023438,29.47,0
-0.9531654119491576,-0.2343750149011612,0.2680286765098572,-3.737864255905152,0.255092442035675,71.78883361816406,29.47,0
-0.9531509280204772,-0.2343750149011612,0.2671675384044647,-3.4806840419769287,0.2550539374351501,71.78925323486328,29.47,0
-0.9531416296958924,-0.2343750149011612,0.2666149139404297,-1.262824535369873,0.2550292313098907,71.78952026367188,29.47,0
-0.9531356692314148,-0.2343750149011612,0.2662602663040161,1.7332205772399902,0.2550133764743805,71.7896957397461,29.47,0
-0.9531318545341492,-0.2343750149011612,0.2660326659679413,3.68098783493042,0.2550032138824463,71.78980255126953,29.47,0
-0.9531294107437134,-0.2343750149011612,0.2658866047859192,3.985152959823608,0.2549966871738434,71.78987121582031,29.47,0
-0.95872563123703,-0.2343750149011612,0.2657928764820099,3.5748932361602783,0.2549925148487091,71.7899169921875,29.47,0
-0.956719160079956,-0.2343750149011612,0.2657327353954315,2.7885560989379883,0.2549898326396942,71.78994750976562,29.47,0
-0.9554315209388732,-0.2343750149011612,0.2656941413879394,0.7040144801139832,0.2549881041049957,71.78997039794922,29.47,0
-0.954605221748352,-0.2343750149011612,0.2656693756580353,-2.7653567790985107,0.2563641369342804,71.78997802734375,29.47,0
-0.9540749192237854,-0.2343750149011612,0.2656534910202026,-6.002086162567139,0.2572471797466278,71.78998565673828,29.47,0
-0.953734576702118,-0.2343750149011612,0.2712410688400268,-7.588419914245605,0.2578138709068298,71.78999328613281,29.47,0
-0.9535161852836608,-0.2343750149011612,0.2692290842533111,-7.653472423553467,0.2581775486469269,71.78999328613281,29.47,0
-0.9589738249778748,-0.2343750149011612,0.2679378986358642,-7.229484558105469,0.2584109306335449,71.78999328613281,29.47,0
-0.956878423690796,-0.2343750149011612,0.2671092748641968,-7.387302398681641,0.2585607171058655,71.78999328613281,29.47,0
-0.9555337429046632,-0.239972785115242,0.2665775120258331,-8.566936492919922,0.2586568295955658,71.78999328613281,29.47,0
-0.954670786857605,-0.2379673421382904,0.266236275434494,-10.018977165222168,0.2587185204029083,71.78999328613281,29.47,0
-0.9541170001029968,-0.2366803586483001,0.27161505818367,-10.502991676330566,0.2573809623718261,72.15184020996094,29.47,0
-0.953761637210846,-0.2358544468879699,0.2750668525695801,-9.563284873962402,0.2565225958824157,72.38404846191406,29.47,0
-0.9535335302352904,-0.235324427485466,0.2716842293739319,-7.090130805969238,0.2559717297554016,72.53306579589844,29.47,0
-0.9533872008323668,-0.2349842935800552,0.2695134580135345,-2.393327474594116,0.2556182146072387,72.62870025634766,29.47,0
-0.9588910341262816,-0.2347660064697265,0.2681203782558441,4.808841228485107,0.2553913593292236,72.69007110595703,29.47,0
-0.956825315952301,-0.2346259206533432,0.2672263979911804,13.246221542358398,0.2552457749843597,72.72945404052734,29.47,0
-0.9554996490478516,-0.2345360219478607,0.2666526734828949,20.989521026611328,0.2551523447036743,72.75473022460938,29.47,0
-0.9546489119529724,-0.2344783395528793,0.2718822658061981,26.610754013061523,0.2550923824310303,72.77095031738281,29.47,0
-0.9541029334068298,-0.2344413101673126,0.2752383351325989,29.240095138549805,0.2559721171855926,72.78135681152344,29.45,0
-0.9593503475189208,-0.2344175577163696,0.2717942893505096,28.90329933166504,0.2565366923809051,72.78804016113281,29.45,0
-0.9571200609207152,-0.2344023138284683,0.2695840895175934,26.62360000610352,0.2568989992141723,72.79232788085938,29.45,0
-0.955688774585724,-0.2343925237655639,0.2681657075881958,22.849857330322266,0.2571315169334411,72.79507446289062,29.45,0
-0.9547702670097352,-0.2343862503767013,0.2672554850578308,16.90283203125,0.2572807371616363,72.79683685302734,29.45,0
-0.9541808366775512,-0.234382227063179,0.266671359539032,9.124046325683594,0.257376492023468,72.7979736328125,29.45,0
-0.9594003558158876,-0.2343796342611313,0.2662965059280395,1.864298701286316,0.2574379444122314,72.79869842529297,29.45,0
-0.9571521878242492,-0.2343779802322387,0.2716537117958069,-2.952223062515259,0.2574773728847503,72.79916381835938,29.45,0
-0.9557093977928162,-0.2343769073486328,0.2750916481018066,-5.613280296325684,0.2584205269813537,72.7994613647461,29.45,0
-0.9547834992408752,-0.2343762218952179,0.2717001438140869,-7.242177009582519,0.2590257823467254,72.79965209960938,29.45,0
-0.9541893005371094,-0.2343757897615432,0.2695236802101135,-8.402151107788086,0.2594141960144043,72.79977416992188,29.45,0
-0.959405779838562,-0.2343755066394806,0.2681269347667694,-9.565717697143556,0.259663462638855,72.79985809326172,29.45,0
-0.962753415107727,-0.2343753278255462,0.2672306001186371,-11.419443130493164,0.2598234415054321,72.79991149902344,29.45,0
-0.9649017453193665,-0.2343752086162567,0.2666553854942322,-13.888036727905272,0.2599261105060577,72.79994201660156,29.45,0
-0.9606826305389404,-0.2343751341104507,0.2662862539291382,-15.733766555786133,0.2599919736385345,72.79996490478516,29.45,0
-0.9579750299453736,-0.2343750894069671,0.2660493552684784,-15.961702346801758,0.2600342631340027,72.79998016357422,29.45,0
-0.956237494945526,-0.2343750596046447,0.2658973336219787,-15.126352310180664,0.2591435313224792,72.79998779296875,29.45,0
-0.9607201814651488,-0.2343750447034835,0.2657997608184814,-14.464882850646973,0.2585719227790832,72.79999542236328,29.45,0
-0.9579991698265076,-0.2343750298023224,0.2657371461391449,-14.13711929321289,0.2582050859928131,72.79999542236328,29.45,0
-0.956252932548523,-0.2343750149011612,0.2656969726085663,-13.253254890441896,0.2579696774482727,72.79999542236328,29.45,0
-0.9607300758361816,-0.2343750149011612,0.2656711935997009,-11.274507522583008,0.2578186094760895,72.79999542236328,29.45,0
-0.9580054879188538,-0.2343750149011612,0.2656546533107757,-8.72568130493164,0.2577216625213623,72.79999542236328,29.45,0
-0.9618548154830932,-0.2343750149011612,0.2656440436840057,-6.853541374206543,0.2576594352722168,72.79999542236328,29.45,0
-0.9587273001670836,-0.2343750149011612,0.2656372189521789,-6.766290664672852,0.2576195001602173,72.79999542236328,29.45,0
-0.956720232963562,-0.2343750149011612,0.2656328380107879,-8.118250846862793,0.2580528259277344,73.11885070800781,29.45,0
-0.9610300064086914,-0.2343750149011612,0.2656300365924835,-8.788819313049316,0.2583308815956116,73.32347106933594,29.45,0
-0.9637957811355592,-0.2343750149011612,0.2656282186508178,-7.0839362144470215,0.2585093379020691,73.45478057861328,29.45,0
-0.9599729180336,-0.2343750149011612,0.2656270563602447,-3.725652933120728,0.258623868227005,73.53904724121094,29.45,0
-0.9575195908546448,-0.2343750149011612,0.265626311302185,-0.4025801420211792,0.258697360754013,73.59312438964844,29.45,0
-0.9559451937675476,-0.2343750149011612,0.2656258344650268,2.113312244415283,0.2587445080280304,73.6278305053711,29.45,0
-0.95493483543396,-0.2343750149011612,0.265625536441803,3.061508178710937,0.2587747871875763,73.65010070800781,29.45,0
-0.9542864561080932,-0.2343750149011612,0.2656253576278686,1.4308960437774658,0.258794218301773,73.66439819335938,29.45,0
-0.9538703560829164,-0.2343750149011612,0.2656252384185791,-1.8833075761795044,0.2588066756725311,73.67356872558594,29.43,0
-0.9536033272743224,-0.2343750149011612,0.2656251490116119,-4.142727851867676,0.258814662694931,73.67945861816406,29.43,0
-0.959029734134674,-0.2343750149011612,0.2656250894069671,-3.804988384246826,0.2588197886943817,73.68323516845703,29.43,0
-0.9625120759010316,-0.2343750149011612,0.2656250596046448,-1.5820043087005615,0.2588230967521667,73.68566131591797,29.43,0
-0.9647468328475952,-0.2343750149011612,0.2656250298023224,0.9265167713165284,0.2588252127170563,73.68721771240234,29.43,0
-0.9605832099914552,-0.2343750149011612,0.2656250298023224,2.0777714252471924,0.2588265538215637,73.68821716308594,29.43,0
-0.957911252975464,-0.2343750149011612,0.2656250298023224,0.8963198661804199,0.2588274180889129,73.68885803222656,29.43,0
-0.9561965465545654,-0.2343750149011612,0.2656250298023224,-1.9325964450836184,0.2588279843330383,73.68927001953125,29.43,0
-0.9550961256027222,-0.2343750149011612,0.2656250298023224,-4.353487491607666,0.2579101324081421,73.68952941894531,29.43,0
-0.9599876999855042,-0.2343750149011612,0.2656250298023224,-4.470462799072266,0.2573211193084717,73.689697265625,29.43,0
-0.957529067993164,-0.2343750149011612,0.2656250298023224,-2.01623272895813,0.2569431066513061,73.68980407714844,29.43,0
-0.9559512734413148,-0.2343750149011612,0.2656250298023224,1.3894468545913696,0.2567005157470703,73.68987274169922,29.43,0
-0.9549387693405152,-0.2343750149011612,0.2656250298023224,3.739814519882202,0.2565448582172394,73.6899185180664,29.43,0
-0.9598867297172546,-0.2343750149011612,0.2656250298023224,4.3668317794799805,0.2564449608325958,73.68994903564453,29.43,0
-0.9574642777442932,-0.2343750149011612,0.2656250298023224,3.834163188934326,0.2563808560371399,73.68997192382812,29.43,0
-0.9615074992179872,-0.2343750149011612,0.2656250298023224,2.886871814727783,0.2563396990299225,73.68997955322266,29.43,0
-0.9641022086143494,-0.2343750149011612,0.2656250298023224,2.3398585319519043,0.2576904296875,73.68998718261719,29.43,0
-0.960169553756714,-0.2343750149011612,0.2656250298023224,3.353778123855591,0.2585572600364685,73.68999481201172,29.43,0
-0.9576457738876344,-0.2343750149011612,0.2656250298023224,6.591073036193848,0.2591135501861572,73.68999481201172,29.43,0
-0.9560261964797974,-0.2343750149011612,0.2656250298023224,11.043829917907717,0.259470522403717,73.68999481201172,29.43,0
-0.954986810684204,-0.2343750149011612,0.2656250298023224,14.313349723815918,0.2596996128559112,73.68999481201172,29.43,0
-0.9543197751045228,-0.2343750149011612,0.2656250298023224,14.5521821975708,0.2598466277122497,73.68999481201172,29.43,0
-0.9538917541503906,-0.2343750149011612,0.2656250298023224,11.907459259033203,0.2599409818649292,73.68999481201172,29.43,0
-0.9592148065567015,-0.2287772297859192,0.2656250298023224,8.049935340881348,0.260001540184021,73.68999481201172,29.43,0
-0.957033097743988,-0.2307826727628708,0.2656250298023224,4.865048885345459,0.2591225504875183,74.1808090209961,29.43,0
-0.955632984638214,-0.232069656252861,0.2656250298023224,3.362140893936157,0.258558452129364,74.49578857421875,29.43,0
-0.95473450422287,-0.2328955680131912,0.2656250298023224,2.9744558334350586,0.2581964433193207,74.69792175292969,29.43,0
-0.9597556591033936,-0.2334255874156952,0.2656250298023224,2.173945188522339,0.2579641342163086,74.82763671875,29.43,0
-0.9573801755905152,-0.2337657213211059,0.2656250298023224,0.2773492336273193,0.2578150629997253,74.91088104248047,29.43,0
-0.9558557271957396,-0.2339839935302734,0.2656250298023224,-1.8354207277297971,0.2577193975448608,74.96430206298828,29.43,0
-0.9548774361610411,-0.2341240793466568,0.2656250298023224,-2.9046688079833984,0.2576580047607422,74.99858856201172,29.43,0
-0.954249620437622,-0.2342139780521392,0.2656250298023224,-2.3190362453460693,0.2576186060905456,75.02059173583984,29.43,0
-0.9538466930389404,-0.2342716604471206,0.2656250298023224,-0.3131391704082489,0.2580522298812866,75.03470611572266,29.43,0
-0.9535881280899048,-0.2343086898326873,0.2656250298023224,1.91276490688324,0.2583305239677429,75.04376983642578,29.43,0
-0.95342218875885,-0.2343324422836303,0.2656250298023224,3.097606658935547,0.25850909948349,75.0495834350586,29.43,0
-0.9533157348632812,-0.2343476861715316,0.2656250298023224,3.4710519313812256,0.258623719215393,75.05331420898438,29.43,0
-0.9532474279403688,-0.234357476234436,0.2656250298023224,4.197937965393066,0.2586972713470459,75.05570983886719,29.43,0
-0.953203558921814,-0.2343637496232986,0.2656250298023224,5.273449420928955,0.2587444484233856,75.05724334716797,29.43,0
-0.9587731957435608,-0.2343677729368209,0.2656250298023224,5.487168312072754,0.2587747275829315,75.0582275390625,29.43,0
-0.956749677658081,-0.2343703657388687,0.2656250298023224,4.431323051452637,0.2587941586971283,75.0588607788086,29.43,0
-0.9554511308670044,-0.2343720197677612,0.2656250298023224,3.2020256519317627,0.2597248554229736,75.05926513671875,29.43,0
-0.9546177983283995,-0.2343730926513672,0.2656250298023224,2.875285625457764,0.2603221237659454,75.05952453613281,29.43,0
-0.95408296585083,-0.2343737781047821,0.2656250298023224,3.070433616638184,0.2607054114341736,75.0596923828125,29.43,0
-0.9537397623062134,-0.2343742102384567,0.2656250298023224,2.69052529335022,0.2609513998031616,75.05979919433594,29.43,0
-0.9535195231437684,-0.2343744933605194,0.2656250298023224,1.5439128875732422,0.2611092329025268,75.05986785888672,29.43,0
-0.953378200531006,-0.2343746721744537,0.2656250298023224,0.2921921610832214,0.2612105309963226,75.0599136352539,29.43,0
-0.9532874822616576,-0.2343747913837433,0.2656250298023224,-0.6185674071311951,0.2612755298614502,75.05994415283203,29.43,0
-0.9532292485237122,-0.2343748658895492,0.2656250298023224,-1.0669026374816897,0.2613172531127929,75.05996704101562,29.43,0
-0.9587896466255188,-0.2343749105930328,0.2656250298023224,-1.0536819696426392,0.2599668800830841,75.05997467041016,29.43,0
-0.9623579978942872,-0.2343749403953552,0.2656250298023224,-1.0666931867599487,0.2591002881526947,75.05998229980469,29.43,0
-0.959050178527832,-0.2343749552965164,0.2656250298023224,-1.8882876634597776,0.2585441768169403,75.05998992919922,29.43,0
-0.9569274187088012,-0.2343749701976776,0.2656250298023224,-3.7410926818847656,0.2581872940063476,75.05998992919922,29.43,0
-0.9611629247665404,-0.2343749850988388,0.2656250298023224,-5.986976146697998,0.2579582631587982,75.05998992919922,29.43,0
-0.958283305168152,-0.2343749850988388,0.2656250298023224,-7.474828243255615,0.2578112781047821,75.05998992919922,29.43,0
-0.9564353227615356,-0.2343749850988388,0.2656250298023224,-7.222318172454834,0.257716953754425,75.05998992919922,29.43,0
-0.9552493691444396,-0.2343749850988388,0.2656250298023224,-5.369296073913574,0.2576564252376556,75.05998992919922,29.43,0
-0.9600860476493835,-0.2343749850988388,0.2656250298023224,-3.2056725025177,0.2589947283267975,75.43616485595703,29.43,0
-0.9575921893119812,-0.2343749850988388,0.2656250298023224,-1.9282433986663816,0.2598535716533661,75.67757415771484,29.43,0
-0.955991804599762,-0.2343749850988388,0.2656250298023224,-1.8500560522079468,0.2604047358036041,75.8324966430664,29.43,0
-0.960562527179718,-0.2343749850988388,0.2656250298023224,-2.845992088317871,0.2607584297657013,75.93191528320312,29.43,0
-0.957897961139679,-0.2343749850988388,0.2656250298023224,-4.477499961853027,0.260985404253006,75.99571228027344,29.43,0
-0.9561880230903624,-0.2343749850988388,0.2656250298023224,-5.735879421234131,0.261131078004837,76.03665924072266,29.43,0
-0.9550907015800476,-0.2343749850988388,0.2656250298023224,-5.6083831787109375,0.2612245678901672,76.06293487548828,29.43,0
-0.9543864727020264,-0.2343749850988388,0.2656250298023224,-3.975307941436768,0.2612845599651336,76.07979583740234,29.43,0
-0.9539345502853394,-0.2343749850988388,0.2656250298023224,-1.5300897359848022,0.2608637511730194,76.09061431884766,29.43,0
-0.9536445140838624,-0.2343749850988388,0.2656250298023224,0.8523551821708679,0.2605937123298645,76.0975570678711,29.43,0
-0.9534583687782288,-0.2343749850988388,0.2656250298023224,2.3167848587036133,0.26042041182518,76.10201263427734,29.43,0
-0.9533389210700988,-0.2343749850988388,0.2656250298023224,2.35017991065979,0.2603091895580292,76.10487365722656,29.43,0
-0.9532622694969176,-0.2343749850988388,0.2656250298023224,1.3362464904785156,0.2602378129959106,76.1067123413086,29.43,0
-0.9588108658790588,-0.2343749850988388,0.2656250298023224,0.3165571689605713,0.2601920068264007,76.1078872680664,29.43,0
-0.95677387714386,-0.2343749850988388,0.2656250298023224,-0.0189715214073658,0.2601626217365265,76.108642578125,29.43,0
-0.955466628074646,-0.2343749850988388,0.2656250298023224,0.080972135066986,0.2601437568664551,76.109130859375,29.43,0
-0.9546276926994324,-0.2343749850988388,0.2656250298023224,-0.2346428036689758,0.2592138051986694,76.10944366455078,29.43,0
-0.954089343547821,-0.2343749850988388,0.2656250298023224,-1.6373491287231443,0.2586170136928558,76.1096420288086,29.43,0
-0.9537438750267028,-0.2343749850988388,0.2656250298023224,-3.8881564140319824,0.2582340240478515,76.10977172851562,29.43,0
-0.9591199159622192,-0.2343749850988388,0.2656250298023224,-5.590540409088135,0.2579882442951202,76.10985565185547,29.43,0
-0.9569721817970276,-0.2343749850988388,0.2656250298023224,-5.063708305358887,0.2578305304050445,76.10990905761719,29.43,0
-0.9555938839912416,-0.2343749850988388,0.2656250298023224,-2.2751357555389404,0.2577293217182159,76.10993957519531,29.43,0
-0.9547094106674194,-0.2343749850988388,0.2656250298023224,0.6035125851631165,0.2576643526554107,76.1099624633789,29.43,0
-0.9541417956352234,-0.2343749850988388,0.2656250298023224,1.5516366958618164,0.2576226592063904,76.10997772216797,29.43,0
-0.9537774920463562,-0.2343749850988388,0.2656250298023224,0.727057933807373,0.2585137784481048,76.1099853515625,29.43,0
-0.9535437226295472,-0.2343749850988388,0.2656250298023224,-0.6583448648452759,0.2590856254100799,76.10999298095703,29.43,0
-0.9589914679527284,-0.2343749850988388,0.2656250298023224,-1.9809082746505735,0.259452611207962,76.10999298095703,29.43,0
-0.962487518787384,-0.2343749850988388,0.2656250298023224,-2.980121374130249,0.2596881091594696,76.10999298095703,29.43,0
-0.9591333270072936,-0.2343749850988388,0.2656250298023224,-3.352665662765503,0.2598392367362976,76.10999298095703,29.43,0
-0.95698082447052,-0.2343749850988388,0.2656250298023224,-2.986287832260132,0.2599362432956695,76.10999298095703,29.43,0
-0.9555994272232056,-0.2343749850988388,0.2656250298023224,-2.170790433883667,0.2599985003471374,76.10999298095703,29.43,0
-0.9547129273414612,-0.2343749850988388,0.2656250298023224,-1.7441807985305786,0.2600384354591369,76.10999298095703,29.43,0
-0.9541440606117249,-0.228777214884758,0.2656250298023224,-2.6275792121887207,0.2600640654563904,76.59722900390625,29.43,0
-0.9593767523765564,-0.2307826578617096,0.2656250298023224,-4.573785305023193,0.2600805163383484,76.90990447998047,29.43,0
-0.9627348184585572,-0.2320696413516998,0.2656250298023224,-6.266987323760986,0.2600910663604736,77.11056518554688,29.43,0
-0.9592920541763306,-0.23289555311203,0.2656250298023224,-6.941590785980225,0.2600978314876556,77.23933410644531,29.43,0
-0.962680459022522,-0.233425572514534,0.2656250298023224,-6.568432807922363,0.2601021826267242,77.32197570800781,29.43,0
-0.964854896068573,-0.2337657064199447,0.2656250298023224,-4.842192649841309,0.2601049840450287,77.37500762939453,29.43,0
-0.9606525897979736,-0.2339839935302734,0.2656250298023224,-2.0147547721862797,0.2601067721843719,77.40904235839844,29.43,0
-0.9579557776451112,-0.2341240793466568,0.2656250298023224,0.046929731965065,0.260107934474945,77.43087768554688,29.43,0
-0.9562250971794128,-0.2342139780521392,0.2656250298023224,-0.1167688071727752,0.2591908276081085,77.44489288330078,29.41,0
-0.9607122540473938,-0.2342716604471206,0.2656250298023224,-1.2536028623580933,0.2586022615432739,77.45388793945312,29.41,0
-0.9579940438270568,-0.2343086898326873,0.2656250298023224,-0.9370454549789428,0.2582245767116546,77.45966339111328,29.41,0
-0.9562496542930604,-0.2343324422836303,0.2656250298023224,1.4801346063613892,0.2579821944236755,77.46336364746094,29.41,0
-0.9551302194595336,-0.2343476861715316,0.2656250298023224,4.733065128326416,0.2578266561031341,77.46574401855469,29.41,0
-0.9600096344947816,-0.234357476234436,0.2656250298023224,7.393820762634277,0.2577268183231354,77.46726989746094,29.41,0
-0.957543134689331,-0.2343637496232986,0.2656250298023224,8.463642120361328,0.2576627433300018,77.46824645996094,29.41,0
-0.9559603333473206,-0.2343677729368209,0.2656250298023224,7.262174606323242,0.2576216459274292,77.4688720703125,29.41,0
-0.9549445509910583,-0.2343703657388687,0.2656250298023224,4.115893840789795,0.2589724063873291,77.46927642822266,29.41,0
-0.9598904848098756,-0.2343720197677612,0.2656250298023224,0.7139182090759277,0.2598392367362976,77.46953582763672,29.41,0
-0.9630644917488098,-0.2343730926513672,0.2656250298023224,-0.985626459121704,0.2603955268859863,77.4697036743164,29.41,0
-0.9651013612747192,-0.2343737781047821,0.2656250298023224,-0.1166274175047874,0.2607525289058685,77.46981048583984,29.41,0
-0.9664084911346436,-0.2343742102384567,0.2656250298023224,2.5977566242218018,0.2609816193580627,77.46987915039062,29.41,0
-0.9616495966911316,-0.2343744933605194,0.2656250298023224,5.274744510650635,0.2611286342144012,77.46992492675781,29.41,0
-0.95859557390213,-0.2343746721744537,0.2712228000164032,6.1042022705078125,0.2612229883670807,77.46995544433594,29.41,0
-0.9566357135772704,-0.2343747913837433,0.2692173421382904,4.680414199829102,0.2612835466861725,77.469970703125,29.41,0
-0.955377995967865,-0.2343748658895492,0.2679303586483001,2.0828986167907715,0.2604041993618011,77.46997833251953,29.41,0
-0.9545708298683168,-0.2343749105930328,0.2671044468879699,-0.2503964900970459,0.2598398625850677,77.46998596191406,29.41,0
-0.9596506357192992,-0.2343749403953552,0.2665744125843048,-1.360852837562561,0.2594777047634125,77.4699935913086,29.41,0
-0.9573127627372742,-0.2343749552965164,0.266234278678894,-0.919890522956848,0.2592453062534332,77.4699935913086,29.41,0
-0.9558124542236328,-0.2343749701976776,0.2716137766838074,0.6922292113304138,0.2590961754322052,77.4699935913086,29.41,0
-0.954849660396576,-0.2343749850988388,0.2750660181045532,2.300006866455078,0.2590004503726959,77.4699935913086,29.41,0
-0.9542317986488342,-0.2343749850988388,0.2772814631462097,2.708418130874634,0.2589390277862549,77.4699935913086,29.41,0
-0.9538353085517884,-0.2343749850988388,0.2787032127380371,2.19667649269104,0.2588995993137359,77.4699935913086,29.41,0
-0.959178626537323,-0.2343749850988388,0.2740178406238556,2.513133764266968,0.2597925066947937,77.85691833496094,29.41,0
-0.9570098519325256,-0.2343749850988388,0.2710110545158386,4.812024593353272,0.2603655457496643,78.105224609375,29.41,0
-0.9556180834770204,-0.2343749850988388,0.2746792435646057,8.211163520812988,0.2607332766056061,78.26457214355469,29.41,0
-0.954724907875061,-0.2343749850988388,0.2714354991912842,10.847521781921388,0.2609692811965942,78.36682891845703,29.41,0
-0.9541517496109008,-0.2343749850988388,0.2749516069889068,11.711810111999512,0.2611207365989685,78.43244934082031,29.41,0
-0.953783929347992,-0.2343749850988388,0.271610289812088,10.876421928405762,0.2612179219722748,78.47456359863281,29.41,0
-0.9535478353500366,-0.2343749850988388,0.2694660127162933,8.68516731262207,0.2612802982330322,78.5015869140625,29.41,0
-0.9589941501617432,-0.2343749850988388,0.2680899500846863,5.584388256072998,0.2613203227519989,78.51893615722656,29.41,0
-0.9568914771080016,-0.2343749850988388,0.2672068774700165,2.562704801559448,0.2613460123538971,78.53006744384766,29.43,0
-0.9555420875549316,-0.2343749850988388,0.266640156507492,0.8635948896408081,0.2613624930381775,78.5372085571289,29.43,0
-0.9546761512756348,-0.2343749850988388,0.266276478767395,0.916045606136322,0.2613730728626251,78.54179382324219,29.43,0
-0.9541204571723938,-0.2343749850988388,0.2660430669784546,1.7235418558120728,0.2613798379898071,78.54473114013672,29.43,0
-0.9537638425827026,-0.2343749850988388,0.2714910805225372,1.6900297403335571,0.2613841891288757,78.54662322998047,29.43,0
-0.9535349607467652,-0.2343749850988388,0.2693895101547241,0.1710069924592971,0.2613869905471802,78.54783630371094,29.43,0
-0.9533880949020386,-0.2343749850988388,0.2736386060714721,-2.0039772987365723,0.2613887786865234,78.54861450195312,29.43,0
-0.9532938599586488,-0.2343749850988388,0.2763654589653015,-3.636206865310669,0.2613899409770965,78.54911041259766,29.43,0
-0.9532333612442015,-0.2343749850988388,0.2725176215171814,-4.296759605407715,0.2604724764823913,78.54943084716797,29.43,0
-0.9531945586204528,-0.2343749850988388,0.2700482904911041,-4.287172794342041,0.2598837018013,78.54963684082031,29.43,0
-0.9531696438789368,-0.2343749850988388,0.2684636116027832,-3.922762870788574,0.2595058381557464,78.54976654052734,29.43,0
-0.953153669834137,-0.2343749850988388,0.2674466669559479,-3.3736391067504883,0.2592633664608001,78.54985046386719,29.43,0
-0.9531434178352356,-0.2343749850988388,0.2723918259143829,-2.985417127609253,0.2591077387332916,78.5499038696289,29.43,0
-0.9531368017196656,-0.2343749850988388,0.2699675559997558,-3.0479629039764404,0.2590078711509704,78.54994201660156,29.43,0
-0.9531325697898864,-0.2343749850988388,0.2684118151664734,-3.1991608142852783,0.2589437961578369,78.54996490478516,29.43,0
-0.9531298875808716,-0.2343749850988388,0.2674134075641632,-2.730144023895264,0.2589026689529419,78.54998016357422,29.43,0
-0.9531281590461732,-0.2343749850988388,0.2667726874351501,-1.6660674810409546,0.2602534294128418,78.54998779296875,29.43,0
-0.9531270265579224,-0.2343749850988388,0.2663615345954895,-0.8363187909126282,0.2611202597618103,78.54999542236328,29.43,0
-0.9531263113021852,-0.2343749850988388,0.2660976648330688,-0.8949587941169739,0.261676549911499,78.54999542236328,29.43,0
-0.9531258344650269,-0.2343749850988388,0.2659283280372619,-1.9500420093536377,0.2620335221290588,78.54999542236328,29.43,0
-0.953125536441803,-0.2343749850988388,0.2658196687698364,-3.9347739219665527,0.262262612581253,78.54999542236328,29.43,0
-0.9531253576278688,-0.2343749850988388,0.2657499313354492,-6.48385763168335,0.2624096274375915,78.54999542236328,29.43,0
-0.95872300863266,-0.2343749850988388,0.2657051682472229,-8.685759544372559,0.262503981590271,78.54999542236328,29.43,0
-0.9623152613639832,-0.2343749850988388,0.2656764388084411,-9.579339981079102,0.2625645399093628,78.54999542236328,29.43,0
-0.9590227603912354,-0.2343749850988388,0.2656580209732055,-8.852313995361328,0.2626034021377563,78.91542053222656,29.43,0
-0.9625076055526732,-0.2343749850988388,0.2656461894512176,-7.110352993011475,0.2626283466815948,79.1499252319336,29.43,0
-0.9591462016105652,-0.2343749850988388,0.2712363600730896,-5.662866115570068,0.262644350528717,79.30042266845703,29.43,0
-0.956989049911499,-0.2343749850988388,0.2692260444164276,-5.51495361328125,0.2626546025276184,79.39700317382812,29.43,0
-0.9612025022506714,-0.2343749850988388,0.2679359316825866,-6.204616069793701,0.2626611888408661,79.45897674560547,29.43,0
-0.9583086967468262,-0.2343749850988388,0.2671080231666565,-6.263865947723389,0.2626654207706451,79.49874877929688,29.43,0
-0.9564515948295592,-0.2343749850988388,0.2665767073631286,-5.073065757751465,0.2626681327819824,79.52427673339844,29.43,0
-0.9608575701713562,-0.2343749850988388,0.266235738992691,-3.423982620239258,0.2626698613166809,79.54065704345703,29.43,0
-0.9580873250961304,-0.2343749850988388,0.2660169303417206,-2.1471588611602783,0.2622120678424835,79.5511703491211,29.41,0
-0.9563095569610596,-0.2343749850988388,0.2658765316009521,-1.2453676462173462,0.2619182765483856,79.55791473388672,29.41,0
-0.9551686644554138,-0.2343749850988388,0.2713841795921325,-0.5806681513786316,0.261729747056961,79.56224060058594,29.41,0
-0.9544364809989928,-0.2343749850988388,0.2749186754226684,-0.3368136286735534,0.261608749628067,79.56501770019531,29.41,0
-0.9539666175842284,-0.2343749850988388,0.2715891599655151,-0.3809460699558258,0.2615310847759247,79.56680297851562,29.41,0
-0.9592628479003906,-0.2343749850988388,0.2694524526596069,-0.004436676390469,0.2614812552928924,79.56794738769531,29.41,0
-0.9570639133453368,-0.2343749850988388,0.2680812478065491,1.2008981704711914,0.2614492774009704,79.56867980957031,29.41,0
-0.9612505435943604,-0.2343749850988388,0.2672012746334076,2.6909279823303223,0.2614287436008453,79.56915283203125,29.41,0
-0.963937282562256,-0.2343749850988388,0.2666365504264831,3.4966750144958496,0.2604973614215851,79.5694580078125,29.41,0
-0.9600636959075928,-0.2343749850988388,0.2662741541862488,3.232755661010742,0.2598996460437774,79.56964874267578,29.41,0
-0.9575778841972352,-0.2343749850988388,0.2660415768623352,2.3934457302093506,0.2595160901546478,79.56977081298828,29.41,0
-0.9559826254844666,-0.2343749850988388,0.2658923268318176,1.6004620790481567,0.2592699229717254,79.56985473632812,29.41,0
-0.9549588561058044,-0.2343749850988388,0.2657965421676636,0.8873639702796936,0.2591119706630707,79.56990814208984,29.41,0
-0.9543018341064452,-0.2343749850988388,0.2657350897789001,0.2470272928476333,0.2590105831623077,79.56993865966797,29.41,0
-0.9594780206680298,-0.2343749850988388,0.2656956613063812,0.473794549703598,0.2589455246925354,79.56996154785156,29.41,0
-0.9572020173072816,-0.2343749850988388,0.2656703591346741,2.303131341934204,0.2589037716388702,79.56997680664062,29.41,0
-0.9557414054870604,-0.2343749850988388,0.2656541168689728,4.763238906860352,0.2588769793510437,79.56998443603516,29.41,0
-0.9548040628433228,-0.2343749850988388,0.2656436860561371,5.747286796569824,0.258859783411026,79.56999206542969,29.41,0
-0.9542025327682496,-0.2343749850988388,0.271234780550003,4.505105018615723,0.2588487565517425,79.56999206542969,29.41,0
-0.9538164734840392,-0.2343749850988388,0.2748228013515472,2.360895872116089,0.2588416635990143,79.56999206542969,29.41,0
-0.9535687565803528,-0.2343749850988388,0.2715276181697845,0.7412506937980652,0.2588371336460113,79.56999206542969,29.41,0
-0.9534097909927368,-0.2343749850988388,0.2694129645824432,-0.1297632902860641,0.2588342130184173,79.56999206542969,29.41,0
-0.9533077478408812,-0.2343749850988388,0.2680558860301971,-0.5310965776443481,0.2588323354721069,79.56999206542969,29.41,0
-0.953242301940918,-0.2343749850988388,0.2671850025653839,-0.634598433971405,0.2588311433792114,79.56999206542969,29.41,0
-0.9532002806663512,-0.2343749850988388,0.2666261196136474,-0.8837313055992126,0.2588303685188293,79.85301971435547,29.41,0
-0.9531733393669128,-0.2343749850988388,0.2662674486637115,-1.7995338439941406,0.2588298916816711,80.03465270996094,29.41,0
-0.9531559944152832,-0.2343749850988388,0.2660372853279114,-3.2255659103393555,0.2588295638561249,80.15121459960938,29.41,0
-0.953144907951355,-0.2343749850988388,0.2658895850181579,-4.369996070861816,0.2588293552398681,80.22601318359375,29.41,0
-0.953137755393982,-0.2343749850988388,0.2657947838306427,-4.4452314376831055,0.2588292360305786,80.27401733398438,29.41,0
-0.9531331658363342,-0.2343749850988388,0.2657339572906494,-3.2575247287750244,0.2588291466236114,80.30482482910156,29.41,0
-0.958728015422821,-0.2343749850988388,0.2656949162483215,-1.3954720497131348,0.2588290870189667,80.32459259033203,29.41,0
-0.9567207098007202,-0.2343749850988388,0.2656698822975158,0.164908766746521,0.2588290572166443,80.3372802734375,29.41,0
-0.9554325342178344,-0.2343749850988388,0.2656537890434265,0.7936834692955017,0.2606651186943054,80.34542083740234,29.41,0
-0.9546058177947998,-0.2343749850988388,0.2656434774398803,0.4627668857574463,0.2618433833122253,80.35064697265625,29.41,0
-0.954075276851654,-0.2343749850988388,0.2656368613243103,-0.5950841903686523,0.2625995278358459,80.35399627685547,29.41,0
-0.953734815120697,-0.2343749850988388,0.2656325995922088,-1.9940497875213623,0.2630847692489624,80.35614776611328,29.41,0
-0.9535163640975952,-0.2343749850988388,0.2656298875808716,-2.8739125728607178,0.2633961737155914,80.35752868652344,29.41,0
-0.9533761739730836,-0.2343749850988388,0.2656281292438507,-2.1524131298065186,0.2635960280895233,80.35841369628906,29.41,0
-0.9532861709594728,-0.2343749850988388,0.2656269967556,0.2380292415618896,0.2637242674827575,80.3589859008789,29.41,0
-0.9532284140586852,-0.2343749850988388,0.2656262814998626,2.7859466075897217,0.2638065814971924,80.3593521118164,29.41,0
-0.953191339969635,-0.2343749850988388,0.2656258344650268,3.919492483139038,0.2620233297348022,80.35958099365234,29.41,0
-0.9531675577163696,-0.2343749850988388,0.2712233066558838,3.973412990570069,0.2608789503574371,80.35973358154297,29.41,0
-0.9531522989273072,-0.2343749850988388,0.2692176699638366,4.77468729019165,0.2601445317268371,80.35983276367188,29.41,0
-0.953142523765564,-0.2343749850988388,0.2679305672645569,7.19841194152832,0.2596732378005981,80.35989379882812,29.41,0
-0.9531362652778624,-0.2343749850988388,0.2671045660972595,10.14027500152588,0.2593707740306854,80.35993194580078,29.41,0
-0.9587299823760986,-0.2343749850988388,0.266574501991272,12.056854248046877,0.2591766715049743,80.35995483398438,29.41,0
-0.9567219614982604,-0.2343749850988388,0.2662343382835388,12.455647468566896,0.2590521275997162,80.35997009277344,29.41,0
-0.9554333090782166,-0.2343749850988388,0.2716138064861297,11.608136177062988,0.2589721977710724,80.35997772216797,29.41,0
-0.9546063542366028,-0.2343749850988388,0.2694682776927948,9.749446868896484,0.2602980434894562,80.3599853515625,29.41,0
-0.9540756344795228,-0.2343749850988388,0.2680913805961609,6.948071002960205,0.2611488997936249,80.35999298095703,29.41,0
-0.953735053539276,-0.2343749850988388,0.2672077715396881,3.3984293937683105,0.2616949081420898,80.35999298095703,29.41,0
-0.9535164833068848,-0.2343749850988388,0.2666407227516174,-0.0653585419058799,0.2620453238487243,80.35999298095703,29.41,0
-0.9533762335777284,-0.2343749850988388,0.2662768363952636,-2.098341703414917,0.2622701823711395,80.35999298095703,29.41,0
-0.9532862305641174,-0.2343749850988388,0.2660433053970337,-2.038032054901123,0.2624144852161407,80.35999298095703,29.41,0
-0.95322847366333,-0.2343749850988388,0.2658934295177459,-0.7955834269523621,0.2625071108341217,80.35999298095703,29.41,0
-0.9531913995742798,-0.2343749850988388,0.2657972574234009,-0.0340770967304706,0.2625665366649627,80.35999298095703,29.41,0
-0.9531676173210144,-0.2343749850988388,0.2657355368137359,-0.5735853910446167,0.2630636096000671,80.60360717773438,29.41,0
-0.953152358531952,-0.2343749850988388,0.2656959295272827,-1.9515924453735352,0.263382613658905,80.75994873046875,29.41,0
-0.9531425833702089,-0.2343749850988388,0.265670508146286,-3.1547672748565674,0.2635873258113861,80.86028289794922,29.41,0
-0.9531362652778624,-0.2343749850988388,0.2656542062759399,-3.368013858795166,0.263718694448471,80.92466735839844,29.41,0
-0.9531322121620178,-0.2343749850988388,0.2656437456607818,-2.372769355773926,0.2638030052185058,80.96598815917969,29.41,0
-0.9531296491622924,-0.2343749850988388,0.2656370401382446,-0.6557234525680542,0.2638570964336395,80.99250030517578,29.41,0
-0.9531279802322388,-0.2343749850988388,0.2656327188014984,0.8474262356758118,0.2638918161392212,81.009521484375,29.41,0
-0.9531269073486328,-0.2343749850988388,0.2656299471855163,1.2997528314590454,0.2639141082763672,81.02043914794922,29.41,0
-0.9531262516975404,-0.2343749850988388,0.2656281888484955,0.483014166355133,0.2625512480735779,81.02745056152344,29.41,0
-0.9587236046791076,-0.2343749850988388,0.2656270563602447,-0.9546785354614258,0.2616766393184662,81.03194427490234,29.41,0
-0.956717848777771,-0.2343749850988388,0.265626311302185,-2.092261552810669,0.2611153721809387,81.03482818603516,29.41,0
-0.9554306864738464,-0.2343749850988388,0.2656258344650268,-2.782888412475586,0.260755181312561,81.03668212890625,29.41,0
-0.96020245552063,-0.2343749850988388,0.265625536441803,-3.5986807346343994,0.260524034500122,81.03787231445312,29.41,0
-0.9576668739318848,-0.2343749850988388,0.2656253576278686,-4.817229270935059,0.2603757083415985,81.03863525390625,29.41,0
-0.9560397267341614,-0.2343749850988388,0.2656252384185791,-6.172435760498047,0.2602805197238922,81.03912353515625,29.41,0
-0.960593283176422,-0.2343749850988388,0.2656251490116119,-7.257083415985107,0.2602194249629974,81.03943634033203,29.41,0
-0.9579176902770996,-0.2343749850988388,0.2656250894069671,-7.698784828186035,0.2610984444618225,81.03964233398438,29.41,0
-0.9562006592750548,-0.2343749850988388,0.2656250596046448,-7.297971725463867,0.2616625428199768,81.0397720336914,29.41,0
-0.9550988078117372,-0.2343749850988388,0.2656250298023224,-6.120030879974365,0.2620245516300201,81.03985595703125,29.41,0
-0.9543916583061218,-0.2343749850988388,0.2656250298023224,-4.23558521270752,0.2622568607330322,81.03990936279297,29.41,0
-0.9539378881454468,-0.2343749850988388,0.2656250298023224,-1.840423822402954,0.2624059319496155,81.0399398803711,29.41,0
-0.9536466598510742,-0.2343749850988388,0.2656250298023224,0.4848197102546692,0.26250159740448,81.03996276855469,29.41,0
-0.9590575695037842,-0.2343749850988388,0.2656250298023224,2.3281195163726807,0.2625629901885986,81.03997802734375,29.41,0
-0.9569321870803832,-0.2343749850988388,0.2656250298023224,3.8406403064727774,0.2626023888587951,81.03998565673828,29.41,0
-0.9611660242080688,-0.2343749850988388,0.2656250298023224,4.940261363983154,0.2626276910305023,81.03999328613281,29.41,0
-0.9582852721214294,-0.2343749850988388,0.2656250298023224,5.173035144805908,0.2626439332962036,81.03999328613281,29.41,0
-0.9620343446731568,-0.2343749850988388,0.2656250298023224,5.071635723114014,0.2626543343067169,81.03999328613281,29.41,0
-0.9644402861595154,-0.2343749850988388,0.2656250298023224,6.067005634307861,0.2626610100269317,81.03999328613281,29.41,0
-0.9603865146636964,-0.2343749850988388,0.2656250298023224,8.260614395141602,0.2626653015613556,81.03999328613281,29.41,0
-0.9577850103378296,-0.2343749850988388,0.2656250298023224,9.847475051879885,0.2626680433750152,81.03999328613281,29.41,0
-0.9561155438423156,-0.2343749850988388,0.2656250298023224,9.228593826293944,0.2626698017120361,81.03999328613281,29.41,0
-0.955044150352478,-0.2343749850988388,0.2656250298023224,6.671138763427734,0.2626709342002868,81.03999328613281,29.41,0
-0.954356610774994,-0.2343749850988388,0.2656250298023224,3.768844366073608,0.2617534697055816,81.280029296875,29.41,0
-0.9539153575897216,-0.2343749850988388,0.2656250298023224,1.9636403322219849,0.2611646950244903,81.43406677246094,29.41,0
-0.9536322355270386,-0.2343749850988388,0.2656250298023224,1.4177846908569336,0.2607868313789367,81.53292083740234,29.41,0
-0.9534505009651184,-0.2343749850988388,0.2656250298023224,1.0925639867782593,0.2605443596839905,81.59635925292969,29.41,0
-0.9589316844940186,-0.2343749850988388,0.2656250298023224,-0.0117878327146172,0.2603887319564819,81.63706970214844,29.41,0
-0.9568514227867126,-0.2343749850988388,0.2656250298023224,-1.8024351596832275,0.2602888643741607,81.66320037841797,29.41,0
-0.9555163979530334,-0.2343749850988388,0.2656250298023224,-3.209514856338501,0.2602247893810272,81.67996978759766,29.41,0
-0.9602574110031128,-0.2343749850988388,0.2656250298023224,-3.1702802181243896,0.2601836621761322,81.69072723388672,29.41,0
-0.9577021598815918,-0.2343749850988388,0.2656250298023224,-1.5938466787338257,0.2615344226360321,81.6976318359375,29.39,0
-0.956062376499176,-0.2343749850988388,0.2656250298023224,0.6860495805740356,0.2624012529850006,81.70206451416016,29.39,0
-0.9606078267097472,-0.2343749850988388,0.2656250298023224,2.708037614822388,0.2629575431346893,81.70491027832031,29.39,0
-0.9579270482063292,-0.2343749850988388,0.2712228000164032,3.783513307571411,0.2633145451545715,81.70673370361328,29.39,0
-0.961804449558258,-0.2343749850988388,0.2692173421382904,3.5959606170654297,0.2635436356067657,81.70790100097656,29.39,0
-0.9642927646636964,-0.2343749850988388,0.2679303586483001,2.458148717880249,0.2636906504631042,81.70865631103516,29.39,0
-0.9602918028831482,-0.2343749850988388,0.2671044468879699,1.1081809997558594,0.2637850046157837,81.70913696289062,29.39,0
-0.9577242136001588,-0.2343749850988388,0.2665744125843048,0.1881107240915298,0.2638455629348755,81.70944213867188,29.39,0
-0.9560765027999878,-0.2343749850988388,0.266234278678894,0.2532739341259002,0.2625072598457336,81.70964050292969,29.39,0
-0.9550191164016724,-0.2343749850988388,0.2660160064697265,1.713791847229004,0.261648416519165,81.70977020263672,29.39,0
-0.9599382877349854,-0.2343749850988388,0.2658759355545044,4.102011203765869,0.261097252368927,81.70985412597656,29.39,0
-0.9630951285362244,-0.2343749850988388,0.2657860219478607,5.914073944091797,0.2607435584068298,81.70990753173828,29.39,0
-0.9595232605934144,-0.2343749850988388,0.2657283246517181,5.815885066986084,0.2605165839195251,81.7099380493164,29.39,0
-0.9572310447692872,-0.2343749850988388,0.2656913101673126,3.868438243865967,0.2603709101676941,81.7099609375,29.39,0
-0.9557600021362304,-0.2343749850988388,0.2656675577163696,1.4973326921463013,0.2602774202823639,81.70997619628906,29.39,0
-0.9548159837722778,-0.2343749850988388,0.2656522989273071,0.1584049463272094,0.2602174282073974,81.7099838256836,29.39,0
-0.9542101621627808,-0.2343749850988388,0.2656425237655639,0.1374809294939041,0.2615560889244079,81.70999145507812,29.39,0
-0.9538214206695556,-0.2343749850988388,0.2656362354755401,0.7295083403587341,0.2624151706695556,81.70999145507812,29.39,0
-0.953571915626526,-0.2343749850988388,0.2656322121620178,1.252740502357483,0.2629664838314056,81.70999145507812,29.39,0
-0.95900958776474,-0.2343749850988388,0.2656296193599701,1.3986443281173706,0.2633202672004699,81.70999145507812,29.39,0
-0.9624991416931152,-0.2343749850988388,0.2656279504299164,0.9083171486854552,0.2635473012924194,81.70999145507812,29.39,0
-0.9591407775878906,-0.228777214884758,0.2656269073486328,-0.3342336416244507,0.2636930048465729,81.70999145507812,29.39,0
-0.956985592842102,-0.2307826578617096,0.2656262218952179,-1.812320590019226,0.2637865245342254,81.70999145507812,29.39,0
-0.9612002968788148,-0.2320696413516998,0.2656257748603821,-2.6748898029327397,0.2638465166091919,81.70999145507812,29.39,0
-0.9583072662353516,-0.23289555311203,0.2656255066394806,-2.4474356174468994,0.2638850212097168,81.92852783203125,29.39,0
-0.9620484709739684,-0.233425572514534,0.2656253278255462,-1.2625218629837036,0.2639097273349762,82.06877899169922,29.39,0
-0.9644493460655212,-0.2337657064199447,0.2656252086162567,0.1427513360977172,0.2639255821704864,82.15878295898438,29.39,0
-0.9603922963142396,-0.2339839935302734,0.2656251192092895,0.7113952040672302,0.263935774564743,82.21653747558594,29.39,0
-0.9577887058258056,-0.2341240793466568,0.2656250894069671,0.0230408068746328,0.2639423012733459,82.25360107421875,29.39,0
-0.9617156982421876,-0.2342139780521392,0.2656250596046448,-1.1817939281463623,0.2639465034008026,82.27738952636719,29.39,0
-0.964235782623291,-0.2342716604471206,0.2656250298023224,-1.9119967222213743,0.2639491856098175,82.29265594482422,29.39,0
-0.9602552652359008,-0.2343086898326873,0.2656250298023224,-1.8109692335128784,0.263950914144516,82.30245208740234,29.39,0
-0.9632985591888428,-0.2343324422836303,0.2656250298023224,-0.9687166810035706,0.2625748813152313,82.3087387084961,29.43,0
-0.9596537947654724,-0.2343476861715316,0.2656250298023224,0.4387757778167724,0.2616918087005615,82.31277465820312,29.43,0
-0.9573147892951964,-0.234357476234436,0.2712228000164032,1.9618091583251955,0.2611251175403595,82.31536102294922,29.43,0
-0.955813765525818,-0.2287659794092178,0.2692173421382904,2.7529101371765137,0.2607614398002624,82.31702423095703,29.43,0
-0.9548504948616028,-0.2307754606008529,0.2679303586483001,2.243141889572144,0.2605280578136444,82.3180923461914,29.43,0
-0.9542323350906372,-0.2320650219917297,0.2727022171020508,0.9128807187080384,0.2603782713413238,82.31877899169922,29.43,0
-0.9538356065750122,-0.2328925877809524,0.2701667547225952,-0.2381580621004104,0.2602821588516235,82.3192138671875,29.43,0
-0.9591788053512572,-0.2278258949518203,0.2685396373271942,-0.7797868251800537,0.260220468044281,82.31949615478516,29.43,0
-0.962607741355896,-0.2301721572875976,0.2674954533576965,-0.9661571383476256,0.261099100112915,82.3196792602539,29.43,0
-0.964808225631714,-0.2316778600215912,0.2668253481388092,-1.0642634630203247,0.2616629600524902,82.31979370117188,29.43,0
-0.9606226086616516,-0.2326441258192062,0.2663953006267547,-1.0340754985809326,0.2620248198509216,82.31986999511719,29.43,0
-0.9579365253448486,-0.233264222741127,0.2661193311214447,-0.917972981929779,0.2622570395469665,82.31991577148438,29.43,0
-0.9618105292320251,-0.2336621731519699,0.265942245721817,-1.1479840278625488,0.262406051158905,82.3199462890625,29.43,0
-0.9642966389656068,-0.23391754925251,0.2658285796642303,-1.8831342458724976,0.2625016868114471,82.3199691772461,29.43,0
-0.9602943062782288,-0.23408143222332,0.2657556533813476,-2.455223560333252,0.2625630497932434,82.31997680664062,29.43,0
-0.9633235931396484,-0.2341866046190261,0.2657088339328766,-2.191824197769165,0.2626024484634399,82.31998443603516,29.43,0
-0.9596698880195618,-0.2342540919780731,0.2656787931919098,-1.2346229553222656,0.2630866467952728,82.31999206542969,29.43,0
-0.9573251605033876,-0.2342974096536636,0.2656595110893249,-0.2943319678306579,0.2633973956108093,82.31999206542969,29.43,0
-0.9614182114601136,-0.2343252003192901,0.265647143125534,-0.174555018544197,0.2635968029499054,82.31999206542969,29.43,0
-0.9584470987319946,-0.2343430370092392,0.2656392157077789,-1.2011222839355469,0.2637247741222381,82.31999206542969,29.43,0
-0.9565404057502748,-0.234354481101036,0.2656341195106506,-2.70181941986084,0.2638069093227386,82.31999206542969,29.43,0
-0.9553167819976808,-0.2343618273735046,0.265630841255188,-3.5824811458587646,0.2638595998287201,82.31999206542969,29.43,0
-0.9545315504074096,-0.2343665510416031,0.2656287550926208,-3.445454359054565,0.2638934254646301,82.31999206542969,29.43,0
-0.9540276527404784,-0.2343695759773254,0.2656274139881134,-2.601594924926758,0.2639151215553283,82.31999206542969,29.43,0
-0.953704297542572,-0.2343715131282806,0.2656265497207641,-1.397278070449829,0.2625519037246704,82.53495025634766,29.43,0
-0.953496754169464,-0.2343727648258209,0.2656259834766388,0.0383595637977123,0.2616770565509796,82.67289733886719,29.43,0
-0.953363597393036,-0.2343735694885254,0.2656256258487701,1.4576472043991089,0.2611156404018402,82.76142120361328,29.43,0
-0.9588758945465088,-0.2343740761280059,0.265625387430191,2.246656894683838,0.2607553601264953,82.81822967529297,29.43,0
-0.9624133706092834,-0.2343744039535522,0.2656252384185791,1.9684137105941768,0.2605241537094116,82.85469055175781,29.43,0
-0.9590857625007628,-0.2343746125698089,0.2656251490116119,0.9909389019012452,0.2603757679462433,82.87808990478516,29.43,0
-0.9625480771064758,-0.2343747466802597,0.2656250894069671,0.1558624505996704,0.2602805495262146,82.89310455322266,29.43,0
-0.9591721892356871,-0.2343748360872268,0.2712228298187256,0.0247894693166017,0.2602194547653198,82.90274047851562,29.43,0
-0.957005739212036,-0.2287771254777908,0.2692173719406128,0.5640425086021423,0.2610984444618225,82.90892028808594,29.41,0
-0.95561546087265,-0.230782613158226,0.2679303884506225,1.2110403776168823,0.2616625428199768,82.91288757324219,29.41,0
-0.960321009159088,-0.2320696115493774,0.2671044766902923,1.4005441665649414,0.2620245516300201,82.91543579101562,29.41,0
-0.9577429890632628,-0.2328955382108688,0.2665744423866272,1.153151512145996,0.2622568607330322,82.91706848144531,29.41,0
-0.9560885429382324,-0.233425572514534,0.2662343084812164,0.7758520245552063,0.2624059319496155,82.91812133789062,29.41,0
-0.960624635219574,-0.2337657064199447,0.2660160064697265,0.1897956430912017,0.26250159740448,82.91879272460938,29.41,0
-0.9579378366470336,-0.2339839935302734,0.2658759355545044,-1.2001705169677734,0.2625629901885986,82.91922760009766,29.41,0
-0.9562135934829712,-0.2341240793466568,0.2657860219478607,-4.07691764831543,0.2626023888587951,82.91950225830078,29.41,0
-0.9551070928573608,-0.2342139780521392,0.2657283246517181,-8.23739242553711,0.2630866169929504,82.919677734375,29.41,0
-0.9543970227241516,-0.2342716604471206,0.2656913101673126,-12.0179443359375,0.2633973658084869,82.91979217529297,29.41,0
-0.953941285610199,-0.2343086898326873,0.2656675577163696,-13.89236831665039,0.2635968029499054,82.91986846923828,29.41,0
-0.9592466354370116,-0.2343324422836303,0.2656522989273071,-14.138717651367188,0.2637247741222381,82.91991424560547,29.41,0
-0.957053542137146,-0.2343476861715316,0.2656425237655639,-13.533721923828123,0.2638069093227386,82.9199447631836,29.41,0
-0.9612438678741456,-0.234357476234436,0.2656362354755401,-11.561971664428713,0.2638595998287201,82.91996765136719,29.41,0
-0.9583352208137512,-0.2343637496232986,0.2656322121620178,-7.577441215515137,0.2638934254646301,82.91997528076172,29.41,0
-0.9564686417579652,-0.2343677729368209,0.2712273895740509,-2.405118942260742,0.2639151215553283,82.91998291015625,29.41,0
-0.955270767211914,-0.2343703657388687,0.2692202925682068,2.494096040725708,0.2625519037246704,82.91999053955078,29.41,0
-0.9600998163223268,-0.2343720197677612,0.267932265996933,6.297323703765869,0.2616770565509796,82.91999053955078,29.41,0
-0.957601010799408,-0.2343730926513672,0.2671056687831878,8.680695533752441,0.2611156404018402,82.91999053955078,29.41,0
-0.9615952372550964,-0.2343737781047821,0.2665752172470093,9.382631301879885,0.2607553601264953,82.91999053955078,29.41,0
-0.9585607051849364,-0.2343742102384567,0.2662347853183746,8.521870613098145,0.2605241537094116,82.91999053955078,29.41,0
-0.956613302230835,-0.2343744933605194,0.2660163342952728,6.833807468414307,0.2603757679462433,82.91999053955078,29.41,0
-0.9553635716438292,-0.2343746721744537,0.2658761441707611,5.102059364318848,0.2602805495262146,82.91999053955078,29.41,0
-0.9545615911483764,-0.2343747913837433,0.2657861709594726,3.589474678039551,0.2602194547653198,82.91999053955078,29.41,0
-0.954046905040741,-0.2343748658895492,0.2657284438610077,2.2569446563720703,0.261557400226593,83.0561294555664,29.41,0
-0.9593144059181212,-0.2343749105930328,0.2656913697719574,1.1546059846878052,0.2624160051345825,83.14350128173828,29.41,0
-0.9570969939231871,-0.2343749403953552,0.265667587518692,0.3540414869785309,0.2629670202732086,83.19956970214844,29.41,0
-0.9556739926338196,-0.2343749552965164,0.2656523287296295,-0.2886874377727508,0.2633206248283386,83.23554992675781,29.41,0
-0.9547607898712158,-0.2343749701976776,0.2656425237655639,-1.152558445930481,0.2635475397109985,83.2586441040039,29.41,0
-0.9541747570037842,-0.2343749850988388,0.2656362354755401,-2.570341825485229,0.2636931538581848,83.2734603881836,29.41,0
-0.9537986516952516,-0.2343749850988388,0.2656322121620178,-4.357924461364746,0.2637866139411926,83.28296661376953,29.41,0
-0.953557312488556,-0.2343749850988388,0.2656296193599701,-5.720046520233154,0.2638465762138366,83.28907012939453,29.41,0
-0.9534024596214294,-0.2343749850988388,0.2656279504299164,-5.80601167678833,0.2625079154968261,83.29298400878906,29.41,0
-0.953303039073944,-0.2343749850988388,0.2656269073486328,-4.206029415130615,0.2616488337516784,83.29550170898438,29.41,0
-0.9588370323181152,-0.2343749850988388,0.2656262218952179,-1.352139234542847,0.2610975205898285,83.29711151123047,29.41,0
-0.9623884558677672,-0.2343749850988388,0.2656257748603821,1.2316641807556152,0.2607437372207641,83.29814910888672,29.41,0
-0.9646674990653992,-0.2343749850988388,0.2656255066394806,1.897426962852478,0.2605167031288147,83.29881286621094,29.41,0
-0.9661300778388976,-0.2343749850988388,0.2656253278255462,0.3685889840126037,0.2603709995746612,83.29924011230469,29.41,0
-0.961470901966095,-0.2343749850988388,0.2656252086162567,-2.213942527770996,0.2602774798870086,83.29951477050781,29.41,0
-0.9584808945655824,-0.2343749850988388,0.2656251192092895,-4.351327896118164,0.2602174878120422,83.29969024658203,29.41,0
-0.9565621018409728,-0.2343749850988388,0.2656250894069671,-4.884655952453613,0.2610971927642822,83.2998046875,29.41,0
-0.955330729484558,-0.2343749850988388,0.2656250596046448,-3.5287742614746094,0.2616617381572723,83.29987335205078,29.41,0
-0.9601382613182068,-0.2343749850988388,0.2656250298023224,-0.9354286193847656,0.2620240151882171,83.29991912841797,29.41,0
-0.9632234573364258,-0.2343749850988388,0.2656250298023224,1.925411581993103,0.2622565031051636,83.2999496459961,29.41,0
-0.959605634212494,-0.2343749850988388,0.2656250298023224,4.1303391456604,0.2624057233333587,83.29997253417969,29.41,0
-0.9572839140892028,-0.2343749850988388,0.2656250298023224,5.104678153991699,0.2625014781951904,83.29998016357422,29.41,0
-0.9557939767837524,-0.2343749850988388,0.2656250298023224,5.264218330383301,0.2625629305839538,83.29998779296875,29.41,0
-0.9548377990722656,-0.2343749850988388,0.2656250298023224,5.495574474334717,0.2626023590564728,83.29999542236328,29.41,0
-0.954224169254303,-0.2343749850988388,0.2656250298023224,5.8948259353637695,0.2626276612281799,83.29999542236328,29.41,0
-0.953830361366272,-0.2343749850988388,0.2656250298023224,6.100886344909668,0.2626439034938812,83.29999542236328,29.41,0
-0.9535776376724244,-0.2343749850988388,0.2656250298023224,6.165055274963379,0.2626543343067169,83.29999542236328,29.41,0
-0.9534154534339904,-0.2343749850988388,0.2656250298023224,6.045019149780273,0.2626610100269317,83.29999542236328,29.41,0
-0.9589091539382936,-0.2343749850988388,0.2656250298023224,5.269384860992432,0.2626653015613556,83.29999542236328,29.41,0
-0.9568369388580322,-0.2343749850988388,0.2656250298023224,3.729097604751587,0.2626680433750152,83.29999542236328,29.41,0
-0.9555070996284484,-0.2343749850988388,0.2656250298023224,2.0456104278564453,0.2626698017120361,83.29999542236328,29.41,0
-0.9602514505386353,-0.2343749850988388,0.2656250298023224,0.9150890707969666,0.2626709342002868,83.29999542236328,29.41,0
-0.9576983451843262,-0.2343749850988388,0.2656250298023224,0.519182562828064,0.2626716792583465,83.47554016113281,29.41,0
-0.9560599327087402,-0.2343749850988388,0.2656250298023224,0.7021867632865906,0.2626721560955047,83.58819580078125,29.41,0
-0.9606062173843384,-0.2343749850988388,0.2656250298023224,1.1456427574157717,0.2626724541187286,83.66049194335938,29.41,0
-0.9579260349273682,-0.2343749850988388,0.2656250298023224,1.2152726650238037,0.2626726329326629,83.7068862915039,29.41,0
-0.9562060236930848,-0.2343749850988388,0.2656250298023224,0.3069920837879181,0.2626727521419525,83.73666381835938,29.41,0
-0.9551022052764891,-0.2343749850988388,0.2656250298023224,-1.3649932146072388,0.2626728415489197,83.75577545166016,29.41,0
-0.9543938636779784,-0.2343749850988388,0.2656250298023224,-2.796234607696533,0.2626729011535644,83.76803588867188,29.41,0
-0.9539392590522766,-0.2343749850988388,0.2656250298023224,-3.1809191703796387,0.2626729309558868,83.7759017944336,29.41,0
-0.9592453241348268,-0.2343749850988388,0.2656250298023224,-2.507065534591675,0.2631318867206573,83.78095245361328,29.43,0
-0.9626504182815552,-0.2343749850988388,0.2656250298023224,-1.268545627593994,0.2634264230728149,83.78419494628906,29.43,0
-0.9648356437683104,-0.2343749850988388,0.2656250298023224,0.2857712209224701,0.2636154294013977,83.7862777709961,29.43,0
-0.9662379622459412,-0.2343749850988388,0.2656250298023224,2.135895013809204,0.2637367248535156,83.78761291503906,29.43,0
-0.9671379327774048,-0.2343749850988388,0.2656250298023224,3.602638959884644,0.2638145685195923,83.78846740722656,29.43,0
-0.9621176719665528,-0.2343749850988388,0.2656250298023224,3.386739015579224,0.263864517211914,83.78901672363281,29.43,0
-0.958895981311798,-0.2343749850988388,0.2656250298023224,1.1774581670761108,0.2638965845108032,83.78936767578125,29.43,0
-0.956828474998474,-0.2343749850988388,0.2656250298023224,-1.5658842325210571,0.2639171481132507,83.78959655761719,29.43,0
-0.9610994458198548,-0.2343749850988388,0.2656250298023224,-3.007554292678833,0.2639303505420685,83.78974151611328,29.43,0
-0.9582425355911256,-0.2343749850988388,0.2656250298023224,-2.728989601135254,0.2639388144016266,83.78983306884766,29.43,0
-0.96200692653656,-0.2343749850988388,0.2656250298023224,-1.840872883796692,0.2639442682266235,83.7898941040039,29.43,0
-0.9644227027893066,-0.2343749850988388,0.2656250298023224,-1.7223352193832395,0.2639477550983429,83.78993225097656,29.43,0
-0.9659729599952698,-0.2343749850988388,0.2656250298023224,-3.10437273979187,0.263949990272522,83.78995513916016,29.43,0
-0.9669678807258606,-0.2343749850988388,0.2656250298023224,-5.907962799072266,0.2639514207839966,83.78997039794922,29.43,0
-0.9676063656806946,-0.2343749850988388,0.2656250298023224,-9.111515045166016,0.2639523446559906,83.78997802734375,29.43,0
-0.9624183177947998,-0.2343749850988388,0.2656250298023224,-10.923755645751951,0.2639529407024383,83.78998565673828,29.43,0
-0.9646866917610168,-0.2343749850988388,0.2656250298023224,-10.019600868225098,0.2630354762077331,83.78999328613281,29.43,0
-0.9605446457862854,-0.2343749850988388,0.2656250298023224,-6.709444046020508,0.2624467015266418,83.78999328613281,29.43,0
-0.9634842872619628,-0.2343749850988388,0.2656250298023224,-2.657750129699707,0.2620688378810882,83.78999328613281,29.43,0
-0.965370774269104,-0.2343749850988388,0.2656250298023224,0.4152937531471252,0.2618263661861419,83.78999328613281,29.43,0
-0.9609836339950562,-0.2343749850988388,0.2656250298023224,1.692376732826233,0.2616707384586334,83.78999328613281,29.43,0
-0.9637659788131714,-0.2343749850988388,0.2656250298023224,1.5338919162750244,0.2615708708763122,83.78999328613281,29.43,0
-0.9655515551567078,-0.2343749850988388,0.2656250298023224,1.1849877834320068,0.2615067958831787,83.78999328613281,29.43,0
-0.9610996246337892,-0.2343749850988388,0.2656250298023224,1.8853857517242432,0.2614656686782837,83.78999328613281,29.43,0
-0.958242654800415,-0.2343749850988388,0.2656250298023224,3.8395426273345943,0.2623571455478668,83.95121002197266,29.43,0
-0.9620069861412048,-0.2343749850988388,0.2656250298023224,6.157633304595947,0.262929230928421,84.05467224121094,29.43,0
-0.9588249325752258,-0.2343749850988388,0.2656250298023224,7.835126399993896,0.263296365737915,84.12106323242188,29.43,0
-0.9623806476593018,-0.2343749850988388,0.2656250298023224,8.345598220825195,0.2635319828987121,84.1636734008789,29.43,0
-0.964662492275238,-0.2343749850988388,0.2656250298023224,7.616329669952393,0.2636831700801849,84.1910171508789,29.43,0
-0.960529088973999,-0.2343749850988388,0.2656250298023224,6.138041019439697,0.2637802064418793,84.20856475830078,29.43,0
-0.9634742736816406,-0.2343749850988388,0.2656250298023224,4.881258964538574,0.2638424634933471,84.2198257446289,29.43,0
-0.9597665667533876,-0.2343749850988388,0.2656250298023224,4.436568737030029,0.263882428407669,84.22705078125,29.43,0
-0.957387149333954,-0.2343749850988388,0.2656250298023224,4.358981132507324,0.2625309228897095,84.231689453125,29.41,0
-0.9614579677581788,-0.2343749850988388,0.2656250298023224,3.8219597339630127,0.2616636157035827,84.23466491699219,29.41,0
-0.9640703797340392,-0.2343749850988388,0.2656250298023224,2.6605031490325928,0.2611070275306701,84.236572265625,29.41,0
-0.960149109363556,-0.2343749850988388,0.2656250298023224,1.3956736326217651,0.2607498168945312,84.23780059814453,29.41,0
-0.9632304310798644,-0.2343749850988388,0.2656250298023224,0.4335107207298279,0.2605206072330475,84.23858642578125,29.41,0
-0.9652078747749328,-0.2343749850988388,0.2656250298023224,-0.3523311018943786,0.2603735029697418,84.23908996582031,29.41,0
-0.96087908744812,-0.2343749850988388,0.2656250298023224,-1.2148966789245603,0.2602790892124176,84.23941802978516,29.41,0
-0.9581011533737184,-0.2343749850988388,0.2656250298023224,-2.015639305114746,0.2602185010910034,84.2396240234375,29.41,0
-0.961916208267212,-0.2343749850988388,0.2656250298023224,-2.2178256511688232,0.2606389224529266,84.23976135253906,29.41,0
-0.9587666988372804,-0.2343749850988388,0.2656250298023224,-1.4483507871627808,0.2609087228775024,84.2398452758789,29.41,0
-0.9567455053329468,-0.2343749850988388,0.2656250298023224,-0.1090583205223083,0.2610818743705749,84.23989868164062,29.41,0
-0.9554484486579896,-0.2343749850988388,0.2656250298023224,0.8364042639732361,0.2611929774284363,84.23993682861328,29.41,0
-0.960213840007782,-0.2343749850988388,0.2656250298023224,0.7911189794540405,0.2612642645835876,84.23995971679688,29.41,0
-0.957674205303192,-0.2343749850988388,0.2656250298023224,0.0312120504677295,0.2613100111484527,84.23997497558594,29.41,0
-0.9560444355010986,-0.2343749850988388,0.2656250298023224,-0.728728175163269,0.261339396238327,84.23998260498047,29.41,0
-0.9549985527992249,-0.2343749850988388,0.2656250298023224,-1.0910239219665527,0.261358231306076,84.239990234375,29.41,0
-0.9543273448944092,-0.2343749850988388,0.2656250298023224,-1.2052994966506958,0.2613703310489654,84.239990234375,29.41,0
-0.9538965821266174,-0.2343749850988388,0.2656250298023224,-1.3646167516708374,0.2613780796527862,84.239990234375,29.41,0
-0.95921790599823,-0.2343749850988388,0.2656250298023224,-1.5564218759536743,0.261383056640625,84.239990234375,29.41,0
-0.9626328349113464,-0.2343749850988388,0.2656250298023224,-1.6401029825210571,0.2613862454891205,84.239990234375,29.41,0
-0.964824378490448,-0.2343749850988388,0.2656250298023224,-1.743960738182068,0.2613883018493652,84.239990234375,29.41,0
-0.9662307500839232,-0.2343749850988388,0.2656250298023224,-2.140207529067993,0.2613896131515503,84.239990234375,29.41,0
-0.9615355134010316,-0.2343749850988388,0.2656250298023224,-2.727675676345825,0.2613904774188995,84.239990234375,29.41,0
-0.958522379398346,-0.2343749850988388,0.2656250298023224,-3.05810546875,0.2613910138607025,84.239990234375,29.41,0
-0.9565887451171876,-0.2343749850988388,0.2656250298023224,-2.901150941848755,0.2609320878982544,84.35821533203125,29.41,0
-0.9609456062316896,-0.2343749850988388,0.2656250298023224,-2.5102379322052,0.2606375515460968,84.43408966064453,29.41,0
-0.9637416005134584,-0.2343749850988388,0.2656250298023224,-2.187720775604248,0.260448545217514,84.48278045654297,29.41,0
-0.959938108921051,-0.2343749850988388,0.2656250298023224,-1.9879131317138672,0.2603272497653961,84.51403045654297,29.41,0
-0.9630950093269348,-0.2343749850988388,0.2656250298023224,-1.9743304252624512,0.2602494060993194,84.5340805053711,29.41,0
-0.9651209712028505,-0.2343749850988388,0.2656250298023224,-2.413435935974121,0.2601994574069977,84.54695129394531,29.41,0
-0.966421127319336,-0.2343749850988388,0.2656250298023224,-3.26127552986145,0.2601674199104309,84.55520629882812,29.41,0
-0.961657702922821,-0.2343749850988388,0.2656250298023224,-3.941507816314697,0.2601468563079834,84.56050872802734,29.41,0
-0.9641985893249512,-0.2343749850988388,0.2656250298023224,-3.994706392288208,0.2610518634319305,84.56391143798828,29.43,0
-0.960231363773346,-0.2343749850988388,0.2656250298023224,-3.39831280708313,0.2616326510906219,84.56609344482422,29.43,0
-0.9632832407951356,-0.2343749850988388,0.2656250298023224,-2.338474988937378,0.2620053589344024,84.56748962402344,29.43,0
-0.9596439599990844,-0.2343749850988388,0.2656250298023224,-1.3573955297470093,0.2622445523738861,84.56838989257812,29.43,0
-0.9629062414169312,-0.2343749850988388,0.2656250298023224,-1.27592933177948,0.2623980343341827,84.5689697265625,29.43,0
-0.9594020247459412,-0.2343749850988388,0.2656250298023224,-2.1945271492004395,0.2624965310096741,84.5693359375,29.43,0
-0.9571532607078552,-0.2343749850988388,0.2656250298023224,-3.2605128288269043,0.2625597417354584,84.56957244873047,29.43,0
-0.9613078832626344,-0.2343749850988388,0.2656250298023224,-3.95534873008728,0.262600302696228,84.5697250366211,29.43,0
-0.9639740586280824,-0.2343749850988388,0.2656250298023224,-4.533809661865234,0.263085275888443,84.56982421875,29.43,0
-0.9600872993469238,-0.2343749850988388,0.2656250298023224,-4.962353706359863,0.2633965015411377,84.56988525390625,29.43,0
-0.957593023777008,-0.2343749850988388,0.2656250298023224,-4.60683536529541,0.26359623670578,84.5699234008789,29.43,0
-0.9615901112556458,-0.2343749850988388,0.2656250298023224,-3.382728338241577,0.2637244164943695,84.56995391845703,29.43,0
-0.958557426929474,-0.2343749850988388,0.2656250298023224,-2.2460744380950928,0.2638066709041595,84.5699691772461,29.43,0
-0.9622089862823486,-0.2343749850988388,0.2600272595882416,-2.079099655151367,0.2638594508171081,84.56997680664062,29.43,0
-0.9645523428916932,-0.2343749850988388,0.262032687664032,-2.59889554977417,0.2638933360576629,84.56998443603516,29.43,0
-0.9660561680793762,-0.2343749850988388,0.2633196711540222,-2.878732204437256,0.2639150619506836,84.56999206542969,29.43,0
-0.9614234566688538,-0.2343749850988388,0.2641455829143524,-2.513763666152954,0.262551873922348,84.56999206542969,29.43,0
-0.9640482664108276,-0.2343749850988388,0.2646755874156952,-1.742161512374878,0.2616770565509796,84.56999206542969,29.43,0
-0.9601349234580994,-0.2343749850988388,0.2650157213211059,-0.7131879925727844,0.2611156404018402,84.56999206542969,29.43,0
-0.9576235413551332,-0.2343749850988388,0.2652339935302734,0.6421676874160767,0.2607553601264953,84.56999206542969,29.43,0
-0.961609661579132,-0.2343749850988388,0.2653740644454956,2.060091018676758,0.2605241537094116,84.56999206542969,29.43,0
-0.9641677141189576,-0.2343749850988388,0.2654639780521393,2.8482251167297363,0.2603757679462433,84.56999206542969,29.43,0
-0.9658093452453612,-0.2343749850988388,0.2655216753482818,2.6840624809265137,0.2602805495262146,84.56999206542969,29.43,0
-0.9668628573417664,-0.2343749850988388,0.2655586898326874,2.1129775047302246,0.2602194547653198,84.56999206542969,29.43,0
-0.9675389528274536,-0.2343749850988388,0.2655824422836303,1.8647130727767944,0.2610984444618225,84.6667251586914,29.43,0
-0.9623750448226928,-0.2343749850988388,0.2655977010726928,2.1603784561157227,0.2616625428199768,84.72879791259766,29.43,0
-0.9590611457824708,-0.2343749850988388,0.265607476234436,2.9018359184265137,0.2620245516300201,84.76863861083984,29.43,0
-0.9625322222709656,-0.2343749850988388,0.2656137645244598,3.836230516433716,0.2622568607330322,84.79420471191406,29.43,0
-0.9591619968414308,-0.2343749850988388,0.2656177878379822,4.285402774810791,0.2624059319496155,84.81060791015625,29.43,0
-0.9625969529151917,-0.2343749850988388,0.2656203806400299,3.577699661254883,0.26250159740448,84.82113647460938,29.43,0
-0.9592035412788392,-0.2343749850988388,0.2656220495700836,1.973529815673828,0.2625629901885986,84.82789611816406,29.43,0
-0.9570258855819702,-0.2343749850988388,0.2656230926513672,0.5428175926208496,0.2626023888587951,84.83222961425781,29.43,0
-0.9556283354759216,-0.2343749850988388,0.2656237781047821,0.025917287915945,0.2617094814777374,84.83501434326172,29.41,0
-0.9547315239906312,-0.2343749850988388,0.2656242251396179,0.2709950804710388,0.2611364424228668,84.83679962158203,29.41,0
-0.95415598154068,-0.2343749850988388,0.2656244933605194,0.9334149956703186,0.260768711566925,84.83794403076172,29.41,0
-0.9593843817710876,-0.2343749850988388,0.2656246721744537,1.9639732837677,0.2605327069759369,84.83867645263672,29.41,0
-0.9627397060394288,-0.2343749850988388,0.2656247913837433,2.929845094680786,0.2603812515735626,84.83914947509766,29.41,0
-0.9648929238319396,-0.2343749850988388,0.2600270807743072,2.750771760940552,0.2602840662002563,84.8394546508789,29.41,0
-0.9606769680976868,-0.2343749850988388,0.2620325684547424,1.0559369325637815,0.2602216899394989,84.83964538574219,29.41,0
-0.963569164276123,-0.2343749850988388,0.263319581747055,-1.0061708688735962,0.2601816654205322,84.83976745605469,29.41,0
-0.959827482700348,-0.2343749850988388,0.2641455233097076,-2.057237386703491,0.2606152892112732,84.83985137939453,29.41,0
-0.9574262499809264,-0.2343749850988388,0.2646755576133728,-1.9113415479660036,0.2608935534954071,84.83990478515625,29.41,0
-0.9614830613136292,-0.2343749850988388,0.2650156915187835,-1.3340662717819214,0.2610721290111542,84.83993530273438,29.41,0
-0.9640864729881288,-0.2343749850988388,0.2652339935302734,-0.9671868085861206,0.2611867189407348,84.83995819091797,29.41,0
-0.9657571911811828,-0.2343749850988388,0.2653740644454956,-0.767570436000824,0.2612602710723877,84.83997344970703,29.41,0
-0.9612315893173218,-0.2343749850988388,0.2654639780521393,-0.4818347990512848,0.2613074481487274,84.83998107910156,29.41,0
-0.9639251232147216,-0.2343749850988388,0.2655216753482818,-0.2948835492134094,0.2613377273082733,84.8399887084961,29.41,0
-0.965653657913208,-0.2343749850988388,0.2655586898326874,-0.5689922571182251,0.2613571584224701,84.8399887084961,29.41,0
-0.961165189743042,-0.2343749850988388,0.2655824422836303,-1.1712260246276855,0.2618285715579986,84.8399887084961,29.41,0
-0.9638825058937072,-0.2343749850988388,0.2655977010726928,-1.6006958484649658,0.2621310949325561,84.8399887084961,29.41,0
-0.965626299381256,-0.2343749850988388,0.265607476234436,-1.478639006614685,0.2623252272605896,84.8399887084961,29.41,0
-0.9611476063728333,-0.2343749850988388,0.2656137645244598,-0.6694645285606384,0.2624498307704925,84.8399887084961,29.41,0
-0.9638712406158448,-0.2343749850988388,0.2656177878379822,0.4910981357097626,0.2625297904014587,84.8399887084961,29.41,0
-0.9656190872192384,-0.2343749850988388,0.2656203806400299,1.0854122638702393,0.2625810801982879,84.8399887084961,29.41,0
-0.9611429572105408,-0.2343749850988388,0.2656220495700836,0.4171142280101776,0.2626140117645263,84.8399887084961,29.41,0
-0.963868260383606,-0.2343749850988388,0.2656230926513672,-0.9038223028182985,0.2626351416110992,84.8399887084961,29.41,0
-0.9656171798706056,-0.2343749850988388,0.2656237781047821,-1.4935778379440308,0.2617304921150207,84.91880798339844,29.41,0
-0.9611417651176452,-0.2343749850988388,0.2656242251396179,-0.8545976281166077,0.2611499428749084,84.96939086914062,29.41,0
-0.9582697153091432,-0.2343749850988388,0.2656244933605194,0.418863832950592,0.2607773840427398,85.0018539428711,29.41,0
-0.9620243310928344,-0.2343749850988388,0.2656246721744537,1.970526099205017,0.2605382800102234,85.0226821899414,29.41,0
-0.9644338488578796,-0.2343749850988388,0.2656247913837433,3.765208005905152,0.2603848278522491,85.03604888916016,29.41,0
-0.9659801721572876,-0.2343749850988388,0.2656248807907104,5.088895320892334,0.2602863609790802,85.04463195800781,29.41,0
-0.9613747000694276,-0.2343749850988388,0.260027140378952,4.935240268707275,0.2602231800556183,85.05014038085938,29.41,0
-0.9640169739723206,-0.2343749850988388,0.256434828042984,3.464506864547729,0.2601826190948486,85.05367279052734,29.41,0
-0.96011483669281,-0.2343749850988388,0.259727269411087,1.8937242031097408,0.261074811220169,85.05593872070312,29.41,0
-0.9632084369659424,-0.2343749850988388,0.2618401646614074,1.043319582939148,0.2616473734378814,85.0573959350586,29.41,0
-0.9651937484741212,-0.2343749850988388,0.2631961107254028,0.8665841221809387,0.2620148062705993,85.0583267211914,29.41,0
-0.9664677977561952,-0.2343749850988388,0.2640662789344787,1.129335880279541,0.2622506022453308,85.05892181396484,29.41,0
-0.9672853946685792,-0.2343749850988388,0.2646247148513794,1.5881434679031372,0.2624019384384155,85.05931091308594,29.41,0
-0.9678100943565368,-0.2343749850988388,0.2649830877780914,1.771519899368286,0.2624990344047546,85.05955505371094,29.41,0
-0.968146800994873,-0.2343749850988388,0.2652130722999573,1.3697268962860107,0.2625613510608673,85.0597152709961,29.41,0
-0.962765097618103,-0.2343749850988388,0.2653606534004211,0.6748051047325134,0.2626013457775116,85.059814453125,29.41,0
-0.9593114852905272,-0.2343749850988388,0.2654553651809692,0.2897480428218841,0.2630859613418579,85.05988311767578,29.41,0
-0.96269291639328,-0.2343749850988388,0.2599183619022369,0.6337655782699585,0.2633969485759735,85.05992126464844,29.41,0
-0.959265112876892,-0.2343749850988388,0.2619628012180328,1.800336241722107,0.2635965347290039,85.05995178222656,29.41,0
-0.9626631736755372,-0.2343749850988388,0.2632748186588287,3.4016270637512207,0.2637245953083038,85.05996704101562,29.41,0
-0.9648438096046448,-0.2343749850988388,0.2641167938709259,4.450738906860352,0.2638067901134491,85.05997467041016,29.41,0
-0.9662432074546814,-0.2343749850988388,0.259059339761734,4.038477897644043,0.2638595402240753,85.05998229980469,29.41,0
