acc_x,acc_y,acc_z,bvp,eda,hr,temp,label
0.0,0.0,0.0,0.0,0.0,0.0,35.68,0
-0.0312499981373548,-0.1562499850988388,0.0338541641831398,0.398333340883255,0.0514668300747871,11.911665916442873,35.68,0
-0.0731707289814949,-0.3742378056049347,0.0834603682160377,1.3700000047683716,0.1205077096819877,27.89073181152344,35.68,0
-0.1046511605381965,-0.5588663220405579,0.1266092211008072,2.5086047649383545,0.1805613785982132,41.78976821899414,35.68,0
-0.1436324417591095,-0.6989009380340576,0.1474122405052185,3.277782201766968,0.224373772740364,51.92986679077149,35.68,0
-0.1700244098901748,-0.7991999983787537,0.1614967584609985,3.37342381477356,0.2540366053581238,58.79513931274414,35.68,0
-0.1873413324356079,-0.8594575524330139,0.1762913018465042,2.785802125930786,0.2734996974468231,63.29974365234375,35.68,0
-0.1985566616058349,-0.898483395576477,0.1747143417596817,1.983877182006836,0.2861049771308899,66.21715545654297,35.68,0
-0.2113714218139648,-0.9292129278182985,0.1736985146999359,1.5674755573272705,0.2942249476909637,68.09647369384766,35.68,0
-0.2084187269210815,-0.9321801662445068,0.1786402314901352,1.246127963066101,0.2994440197944641,69.30438995361328,35.68,0
-0.2233120948076248,-0.9508750438690186,0.181813582777977,-0.1314590871334076,0.3027954697608948,70.0800552368164,35.68,0
-0.227275088429451,-0.9628755450248718,0.1782533526420593,-2.84268856048584,0.3049467802047729,70.57796478271484,35.68,0
-0.22981858253479,-0.9649800062179564,0.181565910577774,-5.105824947357178,0.3063275218009949,70.89752960205078,35.68,0
-0.2370486110448837,-0.966330587863922,0.1836918145418167,-4.473215103149414,0.3072136342525482,71.10261535644531,35.68,0
-0.2360907793045044,-0.956001877784729,0.1850561201572418,-0.169418603181839,0.3077823221683502,71.2342300415039,35.68,0
-0.2466716021299362,-0.9493734836578368,0.1803338974714279,5.945812702178955,0.3081472814083099,71.31869506835938,35.68,0
-0.2534617781639099,-0.9451197385787964,0.1829012036323547,11.14920711517334,0.3079221844673157,71.3729019165039,35.68,0
-0.26341712474823,-0.9479876756668092,0.1901465356349945,13.958229064941406,0.3077777326107025,71.4076919555664,35.68,0
-0.2642081081867218,-0.9554259181022644,0.1947961747646331,14.481919288635254,0.3076850473880768,71.43001556396484,35.68,0
-0.2647157311439514,-0.9546015858650208,0.197780042886734,13.56767463684082,0.3076255619525909,71.44434356689453,35.68,0
-0.2594437003135681,-0.9540725946426392,0.1940971463918686,12.260868072509766,0.3075873851776123,71.45353698730469,35.68,0
-0.2560604214668274,-0.9537330865859984,0.1917336732149124,11.354165077209473,0.3075628876686096,71.45943450927734,35.68,0
-0.2538892328739166,-0.9535152316093444,0.1902169287204742,10.216996192932127,0.3075471520423889,71.46321868896484,35.68,0
-0.2580936551094055,-0.9533753991127014,0.1892435699701309,7.025997638702393,0.3075370490550995,71.46564483642578,35.68,0
-0.2607918083667755,-0.9532856941223145,0.188618928194046,0.5107266902923584,0.3066127300262451,71.46720886230469,35.68,0
-0.2625233232975006,-0.9532281160354614,0.1882180571556091,-8.148618698120117,0.3060195446014404,71.46820831298828,35.68,0
-0.2636345326900482,-0.9531911611557008,0.1879608035087585,-16.288724899291992,0.3056388795375824,71.4688491821289,35.68,0
-0.264347642660141,-0.95316743850708,0.1933934986591339,-22.039215087890625,0.3053945899009704,71.4692611694336,35.68,0
-0.264805257320404,-0.9531522393226624,0.1968798786401748,-23.411623001098636,0.3052378296852112,71.46952819824219,35.68,0
-0.2650989294052124,-0.9531424641609192,0.1991172432899475,-20.702613830566406,0.3051372170448303,71.46969604492188,35.68,0
-0.2652873992919922,-0.9531362056732178,0.2005530595779419,-16.015668869018555,0.3050726652145386,71.46980285644531,35.68,0
-0.2710061073303222,-0.9531322121620178,0.2014744728803634,-10.768747329711914,0.3050312399864197,71.4698715209961,35.68,0
-0.2746760547161102,-0.9531296491622924,0.1964680105447769,-5.363089561462402,0.3050046563148498,71.45916748046875,35.71,0
-0.2770312130451202,-0.9531279802322388,0.1932551562786102,-0.3463767170906067,0.3049875795841217,71.45230102539062,35.71,0
-0.272944837808609,-0.947529137134552,0.1911933273077011,3.328047752380371,0.304976612329483,71.44789123535156,35.71,0
-0.2647246718406677,-0.9439361095428468,0.195467934012413,5.145112991333008,0.3049695789813995,71.445068359375,35.71,0
-0.2594494521617889,-0.9472280740737916,0.198211133480072,5.551694869995117,0.304965078830719,71.44325256347656,35.71,0
-0.2616618871688843,-0.9493407011032104,0.1999715566635131,4.795164108276367,0.3049621880054474,71.44208526611328,35.71,0
-0.2630816996097564,-0.9562942385673524,0.2011013031005859,2.181616306304932,0.3049603402614593,71.44133758544922,35.71,0
-0.2751884162425995,-0.9495610594749452,0.1962285339832306,-2.021324157714844,0.3049591481685638,71.44085693359375,35.71,0
-0.266164481639862,-0.9396423101425172,0.1986992508172989,-5.624920845031738,0.305876225233078,71.4405517578125,35.71,0
-0.260373443365097,-0.9332770109176636,0.205882579088211,-6.715843677520752,0.3064647614955902,71.44035339355469,35.71,0
-0.2454615235328674,-0.9515832662582396,0.255274623632431,-5.947079181671143,0.3068424463272095,71.44023132324219,35.71,0
-0.2414896935224533,-0.9745267033576964,0.3149604797363281,-4.902013301849365,0.3070848286151886,71.44014739990234,35.71,0
-0.2277452498674392,-0.9500660300254822,0.3364700973033905,-4.131038188934326,0.30724036693573,71.44009399414062,35.71,0
-0.2637070417404175,-0.906379759311676,0.3278826177120209,-2.6546452045440674,0.3073401749134063,71.4400634765625,35.71,0
-0.3035785853862762,-0.883942186832428,0.3223716914653778,1.0299066305160522,0.3074042499065399,71.4400405883789,35.71,0
-0.3403613865375519,-0.8975319266319275,0.3076395392417907,6.436047077178955,0.3074453473091125,71.44002532958984,35.71,0
-0.3639664947986603,-0.9174485802650452,0.2925875186920166,10.471444129943848,0.3074717223644256,71.44001770019531,35.71,0
-0.373517096042633,-0.9246321320533752,0.2717324495315552,10.879340171813965,0.3074886500835418,71.44001007080078,35.71,0
-0.3740483522415161,-0.9012532830238342,0.2247622162103653,8.794517517089844,0.3074995279312134,71.44001007080078,35.71,0
-0.3743892908096313,-0.8638589978218079,0.1834238767623901,6.213444709777832,0.3075065016746521,71.44001007080078,35.71,0
-0.3858036398887634,-0.8678503632545471,0.1568953096866607,3.690077304840088,0.3075109720230102,71.44001007080078,35.71,0
-0.3987264633178711,-0.892802894115448,0.1510663479566574,1.683807373046875,0.3075138330459595,71.44001007080078,35.71,0
-0.4238129258155823,-0.9088159799575806,0.1305323392152786,0.9838411211967468,0.3075156807899475,71.44001007080078,35.71,0
-0.4343141913414001,-0.9190922379493712,0.1173547878861427,0.8606574535369873,0.307516872882843,71.44001007080078,35.71,0
-0.4298577606678009,-0.9592735767364502,0.1144959703087806,-0.3361583352088928,0.3065997660160064,71.44001007080078,35.71,0
-0.4214000999927521,-0.9570708274841307,0.1182591170072555,-2.712782144546509,0.3060112297534942,71.44001007080078,35.71,0
-0.4047769010066986,-0.9332661032676696,0.1262718588113784,-4.961642742156982,0.305633544921875,71.44001007080078,35.71,0
-0.3773157894611358,-0.8844029307365417,0.1370117515325546,-6.422745227813721,0.3053911626338959,71.44001007080078,35.71,0
-0.3540950417518616,-0.8474476337432861,0.1383062303066253,-7.356813907623291,0.3052356243133545,71.44001007080078,35.71,0
-0.3391933143138885,-0.8349273800849915,0.144734725356102,-7.737708568572998,0.3051358163356781,71.44001007080078,35.71,0
-0.3352279961109161,-0.8548814654350281,0.1544579267501831,-7.118743896484375,0.3050717413425445,71.44001007080078,35.71,0
-0.3326832950115204,-0.8788824081420898,0.160697728395462,-5.453296184539795,0.3050306439399719,71.44001007080078,35.71,0
-0.3254524767398834,-0.9278714656829834,0.1702998429536819,-3.367056369781494,0.305922120809555,71.4328384399414,35.68,0
-0.3096165955066681,-0.9928964972496032,0.1820597052574157,-1.5553276538848877,0.3064942061901092,71.42823791503906,35.68,0
-0.2938562631607055,-1.0402235984802246,0.1952042877674102,-0.2278659641742706,0.3068613409996032,71.42528533935547,35.68,0
-0.2221666872501373,-1.0817909240722656,0.2092374861240387,0.717169463634491,0.3070969581604004,71.42339324951172,35.68,0
-0.170562669634819,-1.1364552974700928,0.218243196606636,1.309308409690857,0.3072481453418731,71.42218017578125,35.68,0
-0.1094573065638542,-1.1715357303619385,0.2072292119264602,1.5639190673828125,0.3073451817035675,71.42140197753906,35.68,0
-0.0870367214083671,-1.1716573238372805,0.1889655292034149,1.594758152961731,0.3074074387550354,71.4208984375,35.68,0
-0.0838440284132957,-1.1605397462844849,0.1828427165746688,1.4748284816741943,0.3074474036693573,71.42057800292969,35.68,0
-0.0929906889796257,-1.0750362873077393,0.1621201187372207,1.057519793510437,0.3079323470592499,71.42037200927734,35.68,0
-0.0708716213703155,-0.9865784645080566,0.1376260071992874,0.3920492529869079,0.3082435429096222,71.42023468017578,35.68,0
-0.0230902303010225,-0.9689957499504088,0.1275048702955246,0.3375764489173889,0.3084432482719421,71.42015075683594,35.68,0
-0.0148179810494184,-0.9633099436759948,0.1210097074508667,1.8574568033218384,0.3085714280605316,71.42009735107422,35.68,0
-0.0319004245102405,-0.9484655857086182,0.1112437099218368,4.513056755065918,0.3086536824703216,71.42005920410156,35.68,0
-0.0596562772989273,-0.8997548818588257,0.1049764528870582,6.582690238952637,0.3087064623832702,71.42003631591797,35.68,0
-0.0886639356613159,-0.8572996258735657,0.1009544879198074,6.8325066566467285,0.3087403178215027,71.4200210571289,35.68,0
-0.1296704709529876,-0.824456512928009,0.0983734279870987,5.448734283447266,0.3087620437145233,71.42001342773438,35.68,0
-0.1559861153364181,-0.7977818846702576,0.0967170521616935,3.457275629043579,0.3073988556861877,71.42000579833984,35.68,0
-0.1784717589616775,-0.7862614393234253,0.095654085278511,2.018056154251098,0.3065240383148193,71.42000579833984,35.68,0
-0.2152928411960601,-0.7956616282463074,0.1005697101354599,1.7464767694473269,0.3059626221656799,71.42000579833984,35.68,0
-0.2445202618837356,-0.8184874057769775,0.1093220487236976,2.191978454589844,0.3056023418903351,71.42000579833984,35.68,0
-0.2576789557933807,-0.861124575138092,0.1317321211099624,2.287999153137207,0.3053711354732513,71.42000579833984,35.68,0
-0.2493301331996917,-0.8996822237968445,0.1573091596364975,1.4503933191299438,0.3052227795124054,71.42000579833984,35.68,0
-0.2495701164007187,-0.9412196278572084,0.1849185824394226,-0.1081679761409759,0.3051275610923767,71.42000579833984,35.68,0
-0.2553218901157379,-1.0126581192016602,0.2474189102649688,-1.9789286851882932,0.3050664663314819,71.42000579833984,35.68,0
-0.2646108269691467,-1.064100980758667,0.3043213486671448,-3.996302604675293,0.3059450984001159,71.42000579833984,35.68,0
-0.2705719470977783,-1.1530917882919312,0.3408380448818207,-6.200911045074463,0.3065089583396911,71.42000579833984,35.68,0
-0.3247774243354797,-1.2046031951904297,0.3194901645183563,-8.729883193969727,0.3068708181381225,71.42000579833984,35.68,0
-0.3595633506774902,-1.2152692079544067,0.294594794511795,-11.617481231689451,0.3071030378341675,71.42000579833984,35.68,0
-0.3427025377750397,-1.1717339754104614,0.2562272846698761,-14.796128273010254,0.3072520494461059,71.42000579833984,35.68,0
-0.2926978170871734,-1.143795609474182,0.2428007572889328,-17.889278411865234,0.307347685098648,71.42000579833984,35.68,0
-0.2382165789604187,-1.1538552045822144,0.2341843843460083,-19.79188537597656,0.3074090480804443,71.42000579833984,35.68,0
-0.2032536566257476,-1.1882997751235962,0.2398504465818405,-18.820331573486328,0.3074484467506408,71.42000579833984,35.68,0
-0.2032075673341751,-1.204806566238403,0.2490843683481216,-14.180777549743652,0.3074737191200256,71.37701416015625,35.71,0
-0.1863846629858017,-1.1314330101013184,0.1542502343654632,-7.230302333831787,0.3074899315834045,71.34942626953125,35.71,0
-0.0804265215992927,-1.022770643234253,0.1717599928379058,-0.5271950364112854,0.3075003325939178,71.33171844482422,35.71,0
-0.0740042105317115,-0.9194507002830504,0.1158234477043151,4.111235618591309,0.3075070083141327,71.32035827636719,35.71,0
-0.081078290939331,-0.830754816532135,0.1079154685139656,6.206599712371826,0.3075112998485565,71.31306457519531,35.71,0
-0.1248024478554725,-0.7850304841995239,0.0972428098320961,6.29379940032959,0.3075140416622162,71.30838775634766,35.71,0
-0.2032420635223388,-0.7780783176422119,0.0736003890633583,5.776547431945801,0.307515799999237,71.30538177490234,35.71,0
-0.253580093383789,-0.7848123908042908,0.0528302676975727,6.211276054382324,0.3075169324874878,71.30345153808594,35.71,0
-0.2746886014938354,-0.7891339063644409,0.0339034236967563,8.016436576843262,0.3065998256206512,71.30221557617188,35.71,0
-0.2490503937005996,-0.8478849530220032,0.0273550394922494,10.181589126586914,0.3060112595558166,71.30142211914062,35.71,0
-0.2269995063543319,-0.9079790711402892,0.0287504382431507,11.535233497619627,0.3056335747241974,71.30091094970703,35.71,0
-0.1848596334457397,-0.9745329022407532,0.0408414751291275,12.006258964538574,0.3053911924362182,71.30058288574219,35.71,0
-0.1466211378574371,-1.0508300065994265,0.0541985780000686,12.398099899291992,0.3052356541156769,71.30037689208984,35.71,0
-0.1500707566738128,-1.1669663190841677,0.0683681741356849,12.9612455368042,0.3051358163356781,71.30023956298828,35.71,0
-0.2250555902719497,-1.1855182647705078,0.1166458278894424,12.559551239013672,0.3050717413425445,71.30015563964844,35.71,0
-0.3011654019355774,-1.119054913520813,0.175616517663002,9.56109619140625,0.3050306439399719,71.30010223388672,35.71,0
-0.2772372364997864,-1.0820003747940063,0.2358516156673431,3.448829412460327,0.3054631948471069,71.30006408691406,35.71,0
-0.1723171323537826,-1.0750142335891724,0.2689092457294464,-4.557807445526123,0.3057407736778259,71.30004119873047,35.71,0
-0.0042254975996911,-1.064933180809021,0.2565370798110962,-12.164401054382324,0.3059189021587372,71.3000259399414,35.71,0
0.0140816420316696,-1.008083701133728,0.2485973536968231,-17.149768829345703,0.3060332238674164,71.30001831054688,35.71,0
-0.0133543107658624,-0.9268187880516052,0.2490998655557632,-18.39300537109375,0.3061065971851349,71.30001068115234,35.71,0
-0.1093299686908721,-0.8410810232162476,0.2382268011569976,-16.342695236206055,0.3061536848545074,71.30001068115234,35.71,0
-0.1989104896783828,-0.7860594391822815,0.2144557684659958,-12.5585298538208,0.3061839044094085,71.30001068115234,35.71,0
-0.2619958817958832,-0.7563475370407104,0.2047986537218094,-8.607475280761719,0.3062032759189605,71.30001068115234,35.71,0
-0.296882688999176,-0.7484757304191589,0.2153946012258529,-5.301662445068359,0.3066746294498443,71.30001068115234,35.71,0
-0.3304665684700012,-0.7546195983886719,0.2277922481298446,-2.832672119140625,0.3069771230220794,71.30001068115234,35.71,0
-0.3464210033416748,-0.7753556966781616,0.2413461208343505,-1.1084959506988523,0.3071712553501129,71.30001068115234,35.71,0
-0.3454641103744507,-0.8054562211036682,0.2500442266464233,0.3275781571865082,0.3072958290576935,71.30001068115234,35.71,0
-0.3448500037193298,-0.8695552349090576,0.2836150228977203,2.263036727905273,0.3073757886886596,71.30001068115234,35.71,0
-0.3612492382526397,-0.9610702395439148,0.3219521641731262,5.171000003814697,0.3074270784854889,71.30001068115234,35.71,0
-0.3773711025714874,-1.030994892120361,0.3409569561481476,8.588418960571289,0.3074600100517273,71.30001068115234,35.71,0
-0.3933149576187134,-1.137444019317627,0.3363597989082336,11.26158618927002,0.3074811398983001,71.30001068115234,35.71,0
-0.4203401207923889,-1.205756902694702,0.3502029478549957,11.981115341186523,0.3065768480300903,71.22835540771484,35.71,0
-0.4712699651718139,-1.221607327461243,0.3646844625473022,10.36497402191162,0.3059965372085571,71.182373046875,35.71,0
-0.4703671634197235,-1.2261813879013062,0.3291956484317779,6.966910362243652,0.3056241273880005,71.15286254882812,35.71,0
-0.4473966956138611,-1.2515078783035278,0.3064209818840027,2.697587251663208,0.3053851127624511,71.13392639160156,35.71,0
-0.4046667218208313,-1.290152072906494,0.275012195110321,-1.7081164121627808,0.3052317500114441,71.12177276611328,35.71,0
-0.3660495281219482,-1.3037561178207395,0.2492580711841583,-5.635293960571289,0.3051333129405975,71.11397552490234,35.71,0
-0.3244739174842834,-1.239715337753296,0.2215349972248077,-8.212851524353027,0.305070161819458,71.10897064208984,35.71,0
-0.2754019796848297,-1.1202489137649536,0.186950609087944,-8.451862335205078,0.3050296306610107,71.10575866699219,35.71,0
-0.2383126616477966,-1.021191120147705,0.1591585576534271,-6.058034420013428,0.3054625391960144,71.10369873046875,35.71,0
-0.2145108729600906,-0.929632604122162,0.1245298981666565,-1.867125153541565,0.3057403564453125,71.10237121582031,35.71,0
-0.1992362439632415,-0.865277886390686,0.0911116674542427,2.642307758331299,0.3059186339378357,71.10152435302734,35.71,0
-0.2006294131278991,-0.8183809518814087,0.0584702230989933,5.933867931365967,0.306033045053482,71.1009750366211,35.71,0
-0.2183167934417724,-0.7938829660415649,0.0431205965578556,6.871117115020752,0.3061064779758453,71.10062408447266,35.71,0
-0.2296675443649292,-0.783759355545044,0.0388678647577762,5.502172946929932,0.3061535954475403,71.10040283203125,35.71,0
-0.2257562577724456,-0.7940558791160583,0.030540931969881,3.1261467933654785,0.3061838448047638,71.10025787353516,35.71,0
-0.212050661444664,-0.8286525011062622,0.0307949613779783,1.0854591131210327,0.3062032461166382,71.10016632080078,35.71,0
-0.1696685552597046,-0.8676479458808899,0.0533490777015686,-0.0700860023498535,0.3062157034873962,71.10010528564453,35.71,0
-0.1200790628790855,-0.9374551773071288,0.0734207853674888,-0.1488718539476394,0.3062236905097961,71.10006713867188,35.71,0
-0.0882553830742836,-1.0270355939865112,0.0807038769125938,1.2801716327667236,0.3062288165092468,71.10004425048828,35.71,0
-0.1406038403511047,-1.1125121116638184,0.0853777527809143,4.855520725250244,0.3062320947647095,71.10002899169922,35.71,0
-0.2245780378580093,-1.1225837469100952,0.1107682734727859,10.922426223754885,0.306234210729599,71.10002136230469,35.71,0
-0.37363001704216,-1.073069453239441,0.1606490910053253,18.3518180847168,0.3062355518341064,71.10001373291016,35.71,0
-0.4245007932186126,-1.1028695106506348,0.1758664101362228,23.91132354736328,0.3062364161014557,71.10000610351562,35.71,0
-0.4067667722702026,-1.1163957118988037,0.1576431393623352,24.208202362060547,0.306236982345581,71.10000610351562,35.71,0
-0.3170172572135925,-1.1082826852798462,0.1515462696552276,18.89946937561035,0.3053191304206848,71.10000610351562,35.71,0
-0.2146389782428741,-1.0582940578460691,0.1756225079298019,11.082479476928713,0.3047301173210144,71.10000610351562,35.71,0
-0.1265473961830139,-0.9590409398078918,0.2246599048376083,4.328435897827148,0.3043521046638489,71.10000610351562,35.71,0
-0.1091997101902961,-0.86175936460495,0.2225426435470581,0.366667777299881,0.304109513759613,71.10000610351562,35.71,0
-0.1092625111341476,-0.804927408695221,0.2155861258506775,-0.6316770315170288,0.3039538562297821,71.10000610351562,35.71,0
-0.1932694315910339,-0.802042543888092,0.2111218273639679,0.7052245140075684,0.3038539588451385,71.10000610351562,35.71,0
-0.2919624149799347,-0.8169845342636108,0.2082569003105163,3.1645822525024414,0.3037898540496826,71.10000610351562,35.71,0
-0.416873425245285,-0.8377690315246582,0.1952228099107742,5.430710792541504,0.3037486970424652,71.10000610351562,35.71,0
-0.4690452516078949,-0.8902917504310608,0.1868582814931869,6.612705707550049,0.3046405017375946,71.06417846679688,35.68,0
-0.4913305640220642,-0.9463889002799988,0.1926859617233276,6.206905364990234,0.3052128255367279,71.04118347167969,35.68,0
-0.4888386726379394,-0.999182105064392,0.246805801987648,4.0799641609191895,0.3055801093578338,71.02642822265625,35.68,0
-0.4760439693927765,-1.0386595726013184,0.3039278984069824,0.7374340891838074,0.3058158159255981,71.01696014404297,35.68,0
-0.4510397613048553,-1.1087760925292969,0.3461833298206329,-2.7009191513061523,0.3059670627117157,71.0108871459961,35.68,0
-0.4573845863342285,-1.1817617416381836,0.3733004331588745,-5.065089702606201,0.3060641288757324,71.00698852539062,35.68,0
-0.4782496690750122,-1.2230019569396973,0.3795070946216583,-5.998318672180176,0.3061264157295227,71.00448608398438,35.68,0
-0.4524552524089813,-1.199087619781494,0.3331102132797241,-6.342848300933838,0.3061663806438446,71.00287628173828,35.68,0
-0.4191085398197174,-1.1949362754821775,0.2865420281887054,-7.452425956726074,0.3061920404434204,71.00184631347656,35.68,0
-0.3865129947662353,-1.2090654373168943,0.2622550129890442,-9.962942123413086,0.3062084913253784,71.00118255615234,35.68,0
-0.3655950427055359,-1.2405239343643188,0.2466690093278885,-13.343839645385742,0.306219071149826,71.0007553100586,35.68,0
-0.3353777825832367,-1.243918776512146,0.2478623688220977,-16.65276336669922,0.306225836277008,71.00048828125,35.68,0
-0.3215838670730591,-1.1789240837097168,0.2262370884418487,-19.37811279296875,0.3062301874160766,71.00031280517578,35.68,0
-0.2903406322002411,-1.1036276817321775,0.1955659091472625,-21.230979919433597,0.3062329888343811,71.00019836425781,35.68,0
-0.236703872680664,-1.0049268007278442,0.15349180996418,-21.402591705322266,0.3062347769737243,71.00012969970703,35.68,0
-0.2022828906774521,-0.9135973453521729,0.1096977591514587,-19.065824508666992,0.3062359392642975,71.00008392333984,35.68,0
-0.1913890391588211,-0.8605851531028748,0.0759954825043678,-14.886454582214355,0.305777758359909,71.00005340576172,35.68,0
-0.2067890912294387,-0.8265649676322937,0.043171752244234,-10.82866668701172,0.305483728647232,71.00003051757812,35.68,0
-0.2166719585657119,-0.8047327399253845,0.0221073720604181,-8.156542778015137,0.3052950203418731,71.0000228881836,35.68,0
-0.2174164354801178,-0.7851243019104004,0.0085894651710987,-6.585030555725098,0.3051739335060119,71.00001525878906,35.68,0
-0.2011008709669113,-0.8229207396507263,0.005512224510312,-5.4045610427856445,0.3050962090492248,71.00000762939453,35.68,0
-0.1794349402189254,-0.863969624042511,0.0091352025046944,-4.342484474182129,0.3050463497638702,71.00000762939453,35.68,0
-0.137542113661766,-0.884714663028717,0.0058624469675123,-3.080527782440185,0.3050143420696258,71.00000762939453,35.68,0
-0.1050599366426467,-0.9148209691047668,0.0149577297270298,-0.8842199444770813,0.3049938082695007,71.00000762939453,35.68,0
-0.1345947086811065,-1.0069124698638916,0.0263923332095146,3.1011159420013428,0.3054395616054535,71.00000762939453,35.68,0
-0.2263194918632507,-1.0604137182235718,0.0617192760109901,9.570847511291504,0.3057256042957306,71.00000762939453,35.68,0
-0.3187698423862457,-1.0611611604690552,0.1011833995580673,18.65953826904297,0.3059091866016388,71.00000762939453,35.68,0
-0.4396746754646301,-1.0840319395065308,0.1600958406925201,28.658672332763672,0.3060269951820373,71.00000762939453,35.68,0
-0.4948733150959015,-1.1266978979110718,0.1811091303825378,35.49828338623047,0.3061025738716125,71.00000762939453,35.68,0
-0.4071455895900726,-1.1596763134002686,0.1498120576143264,35.20512771606445,0.3061510920524597,71.00000762939453,35.68,0
-0.2668803632259369,-1.130459904670715,0.1297274082899093,27.55449104309082,0.3061822354793548,71.00000762939453,35.68,0
-0.0425196327269077,-1.0669283866882324,0.2455870360136032,16.37166404724121,0.3062022030353546,71.00000762939453,35.68,0
-0.0440799742937088,-0.95338636636734,0.2975479960441589,6.185805797576904,0.3062150180339813,70.93910217285156,35.71,0
-0.0842657312750816,-0.869326114654541,0.2917091250419616,-0.4476217925548553,0.3062232434749603,70.90001678466797,35.71,0
-0.1380435079336166,-0.8041855096817017,0.2543754279613495,-3.11749267578125,0.3062285184860229,70.87493133544922,35.71,0
-0.2285327315330505,-0.7959687113761902,0.2192212492227554,-2.7780463695526123,0.3062319159507751,70.85883331298828,35.71,0
-0.3201901614665985,-0.8074889183044434,0.1966613233089447,-1.0304495096206665,0.3062340915203094,70.84850311279297,35.71,0
-0.4014017283916473,-0.8316752910614014,0.193379208445549,0.8147379159927368,0.3062354922294616,70.84187316894531,35.71,0
-0.442323088645935,-0.8583922386169434,0.1912729442119598,2.44669508934021,0.3062363862991333,70.8376235961914,35.71,0
-0.4405951797962188,-0.9035265445709229,0.2123123556375503,4.110194206237793,0.3062369525432586,70.83489227294922,35.71,0
-0.4226929843425751,-0.960479974746704,0.2761942148208618,5.543154716491699,0.3053191006183624,70.83313751220703,35.71,0
-0.3944110572338104,-1.019420504570007,0.3339832425117492,5.699657917022705,0.304730087518692,70.83201599121094,35.71,0
-0.3426747024059295,-1.0908317565917969,0.3542755842208862,3.844006299972534,0.3043521046638489,70.83129119873047,35.71,0
-0.3094732761383056,-1.1422572135925293,0.3561024963855743,0.5501841306686401,0.304109513759613,70.83082580566406,35.71,0
-0.338546484708786,-1.1976501941680908,0.3572748899459839,-2.9787189960479736,0.3039538562297821,70.83052825927734,35.71,0
-0.4075839817523956,-1.2052093744277954,0.335636168718338,-6.275147914886475,0.3038539588451385,70.83033752441406,35.71,0
-0.4406927227973938,-1.204462647438049,0.2937608063220978,-9.640924453735352,0.3037898540496826,70.83021545410156,35.71,0
-0.4339511394500732,-1.231972336769104,0.2500942945480346,-13.10494327545166,0.3037486970424652,70.83013916015625,35.71,0
-0.4240269958972931,-1.249626398086548,0.2276694178581237,-15.97281551361084,0.3046405017375946,70.83009338378906,35.71,0
-0.3896693885326385,-1.2889447212219238,0.2300717383623123,-17.55530548095703,0.3052128255367279,70.83006286621094,35.71,0
-0.3116429150104522,-1.2526013851165771,0.2204178720712661,-17.968982696533203,0.3055801093578338,70.83003997802734,35.71,0
-0.2503744661808014,-1.201289415359497,0.2030270248651504,-18.155641555786133,0.3058158159255981,70.83002471923828,35.71,0
-0.1774692386388778,-1.1123826503753662,0.1694754809141159,-19.20331573486328,0.3059670627117157,70.83001708984375,35.71,0
-0.1418784111738205,-1.0273385047912598,0.1311507076025009,-21.22986602783203,0.3060641288757324,70.83000946044922,35.71,0
-0.1638204604387283,-0.955968737602234,0.078567199409008,-22.680856704711918,0.3061264157295227,70.83000946044922,35.71,0
-0.2282815724611282,-0.9045699834823608,0.0392243564128875,-21.530542373657227,0.3061663806438446,70.83000946044922,35.71,0
-0.275246798992157,-0.8827807903289795,0.008378610946238,-17.58234977722168,0.3061920404434204,70.83000946044922,35.71,0
-0.277397483587265,-0.8576021790504456,-0.0114164128899574,-12.719952583312988,0.3062084913253784,70.83000946044922,35.71,0
-0.2619843482971191,-0.8358461856842041,-0.0241197198629379,-8.671659469604492,0.306219071149826,70.83000946044922,35.71,0
-0.2297019958496093,-0.8274822235107422,-0.0322719700634479,-5.633040904998779,0.306225836277008,70.83000946044922,35.71,0
-0.1921917200088501,-0.8165169358253479,-0.0319058410823345,-3.084740161895752,0.3062301874160766,70.83000946044922,35.71,0
-0.1681197732686996,-0.8094800710678101,-0.0204753316938877,-0.5752390027046204,0.3062329888343811,70.83000946044922,35.71,0
-0.1806606650352478,-0.8049641847610474,0.0148489810526371,2.7548508644104004,0.3062347769737243,70.83000946044922,35.71,0
-0.1999042332172393,-0.8300550580024719,0.0375180952250957,8.295357704162598,0.3062359392642975,70.83000946044922,35.71,0
-0.2458402961492538,-0.9245257377624512,0.0464680530130863,16.68741226196289,0.3048595488071441,70.98047637939453,35.73,0
-0.2921127378940582,-1.052324891090393,0.0913960412144661,26.368457794189453,0.3039762377738952,71.07703399658203,35.73,0
-0.333003282546997,-1.1119478940963743,0.1594126671552658,33.67746353149414,0.3034093976020813,71.13899993896484,35.73,0
-0.3704400360584259,-1.111026167869568,0.2478440105915069,35.25470733642578,0.3030456304550171,71.17876434326172,35.73,0
-0.4224536418914795,-1.1384234428405762,0.3101919293403625,31.27277946472168,0.3028121888637543,71.20428466796875,35.73,0
-0.4054530262947082,-1.139212131500244,0.3334099054336548,25.53607940673828,0.3026623725891113,71.22066497802734,35.73,0
-0.3273697197437286,-1.0949361324310305,0.3762987554073334,21.374530792236328,0.3025662302970886,71.2311782836914,35.73,0
-0.2548692226409912,-1.0385334491729736,0.4318112134933471,18.431612014770508,0.3025045394897461,71.23792266845703,35.73,0
-0.107582651078701,-0.9519574642181396,0.4842292368412018,14.33615016937256,0.3033831417560577,71.24224853515625,35.73,0
-0.0690403506159782,-0.9019957780838012,0.484281450510025,8.121761322021484,0.3039470016956329,71.24502563476562,35.73,0
-0.2010437995195388,-0.8923243284225464,0.4731194078922272,1.2891583442687988,0.3043088316917419,71.24681091308594,35.73,0
-0.4089070558547973,-0.930899977684021,0.4491629302501678,-3.5111916065216064,0.3045410513877868,71.24795532226562,35.73,0
-0.5423017144203186,-0.9612533450126648,0.4225935041904449,-4.5532941818237305,0.3046900629997253,71.24868774414062,35.73,0
-0.5943201184272766,-0.9639390707015992,0.4055427610874176,-2.495715618133545,0.3047856986522674,71.24916076660156,35.73,0
-0.5829203128814697,-0.9600648283958436,0.400198370218277,-0.0754293277859687,0.3048470616340637,71.24945831298828,35.73,0
-0.4972357451915741,-0.94078528881073,0.391170859336853,-0.016163021326065,0.3048864603042602,71.24964904785156,35.73,0
-0.3974661231040954,-0.9284127354621888,0.3629864156246185,-2.7617905139923096,0.304911732673645,71.24977111816406,35.73,0
-0.3390375077724457,-0.9204727411270142,0.3337037265300751,-6.408210754394531,0.3049279451370239,71.2498550415039,35.73,0
-0.3071391582489013,-0.9321706891059875,0.2981184720993042,-9.034879684448242,0.3049383461475372,71.24990844726562,35.73,0
-0.2810708582401275,-0.9452754855155944,0.2752818763256073,-10.466161727905272,0.3049450218677521,71.24993896484375,35.73,0
-0.2531461715698242,-0.9536854028701782,0.2270400375127792,-11.495736122131348,0.3049493134021759,71.24996185302734,35.73,0
-0.2296279370784759,-0.9814735054969788,0.1792878806591034,-12.417985916137695,0.3049520552158355,71.2499771118164,35.73,0
-0.2145352810621261,-1.00490403175354,0.1542410552501678,-13.002667427062988,0.3049538135528564,71.24998474121094,35.73,0
-0.2104474604129791,-1.0367337465286257,0.098983034491539,-13.223831176757812,0.3049549460411072,71.24999237060547,35.73,0
-0.2022263556718826,-1.0907468795776367,0.0355327427387237,-13.326353073120115,0.304037481546402,71.24999237060547,35.73,0
-0.1913527548313141,-1.1645938158035278,-0.0219793263822793,-13.359902381896973,0.3034487068653106,71.24999237060547,35.73,0
-0.1787769347429275,-1.1392134428024292,-0.0812783539295196,-13.162896156311035,0.3030708432197571,71.24999237060547,35.73,0
-0.16510871052742,-1.1005346775054932,-0.1249308362603187,-13.022138595581056,0.3028283715248108,71.24999237060547,35.73,0
-0.1451416909694671,-1.064517378807068,-0.1529444903135299,-13.7916259765625,0.3026727437973022,71.24999237060547,35.73,0
-0.143523558974266,-1.0078169107437134,-0.165324255824089,-15.962084770202637,0.3025728762149811,71.24999237060547,35.73,0
-0.14808289706707,-0.965831995010376,-0.1676711142063141,-18.68767738342285,0.3025088012218475,71.24999237060547,35.73,0
-0.1733999252319336,-0.95568186044693,-0.1523838639259338,-19.96390724182129,0.3024676740169525,71.24999237060547,35.73,0
-0.195244699716568,-0.9547658562660216,-0.1313778460025787,-18.07448959350586,0.3033595085144043,71.3323974609375,35.71,0
-0.214861199259758,-0.9485802054405212,-0.1122996136546135,-13.114596366882324,0.3039318323135376,71.3852767944336,35.71,0
-0.2218521684408188,-0.939012885093689,-0.0944585278630256,-6.7682085037231445,0.3042991161346435,71.4192123413086,35.71,0
-0.2319363355636596,-0.9216775298118592,-0.0662158206105232,-0.4599349498748779,0.3045348227024078,71.44099426269531,35.71,0
-0.2496033310890197,-0.9329438209533693,-0.0145046329125761,5.680576324462891,0.3046860694885254,71.45497131347656,35.71,0
-0.2609409987926483,-0.940173864364624,0.0410717278718948,12.04660701751709,0.3047831356525421,71.46393585205078,35.71,0
-0.2962057292461395,-0.9560092687606812,0.1047263145446777,18.797393798828125,0.3048454225063324,71.46968841552734,35.71,0
-0.3356299102306366,-0.954975962638855,0.1623694896697998,26.21784019470215,0.3048853874206543,71.47338104248047,35.71,0
-0.3553323149681091,-0.9039328694343568,0.188166007399559,34.92427444458008,0.3049110472202301,71.47575378417969,35.71,0
-0.3791717290878296,-0.8599808216094971,0.2159162759780883,44.63152313232422,0.3049274981021881,71.47727966308594,35.71,0
-0.4112638235092163,-0.8205793499946594,0.2337248027324676,52.70610046386719,0.3049380779266357,71.47825622558594,35.71,0
-0.4486519992351532,-0.7785004377365112,0.1947733163833618,55.70969772338867,0.3049448430538177,71.4788818359375,35.71,0
-0.4558522701263428,-0.7458988428115845,0.15858094394207,53.1948356628418,0.3049491941928863,71.47928619384766,35.71,0
-0.4268863201141357,-0.6689992547035217,0.1185614466667175,48.31721878051758,0.3049519956111908,71.47954559326172,35.71,0
-0.4026998877525329,-0.6028562188148499,0.0816836878657341,44.47769546508789,0.304953783750534,71.47970581054688,35.71,0
-0.3871784210205078,-0.5660071969032288,0.0636154413223266,42.51885223388672,0.3049549460411072,71.47981262207031,35.71,0
-0.4052065014839172,-0.5591529607772827,0.0576180517673492,40.122520446777344,0.304037481546402,71.4798812866211,35.71,0
-0.4167758822441101,-0.5715476274490356,0.0369759500026702,33.01378631591797,0.3034487068653106,71.47992706298828,35.71,0
-0.4745804369449615,-0.6354795098304749,0.0069357128813862,18.68212890625,0.3030708432197571,71.4799575805664,35.71,0
-0.5620560050010681,-0.7492784261703491,0.0156464911997318,-0.8687487244606018,0.3028283715248108,71.47997283935547,35.71,0
-0.634986162185669,-0.8502968549728394,0.0548232123255729,-21.16090583801269,0.3026727437973022,71.47998046875,35.71,0
-0.726570725440979,-0.9599068760871888,0.0799645781517028,-38.53965377807617,0.3025728762149811,71.47998809814453,35.71,0
-0.7965399622917175,-1.0414438247680664,0.0849033072590828,-50.527076721191406,0.3025088012218475,71.47999572753906,35.71,0
-0.8638333082199097,-1.0601829290390017,0.110463798046112,-55.7479362487793,0.3024676740169525,71.47999572753906,35.71,0
-0.9126160740852356,-1.0218286514282229,0.1324648261070251,-55.12530517578125,0.302441269159317,71.47999572753906,35.71,0
-0.9495198130607604,-0.986019492149353,0.1577793657779693,-51.50858688354492,0.3024243414402008,71.47999572753906,35.71,0
-0.984398066997528,-0.9742348194122314,0.1684270054101944,-47.18134307861328,0.3024134635925293,71.47999572753906,35.71,0
-1.0011831521987915,-0.977867603302002,0.1640644967555999,-42.845947265625,0.3024064898490906,71.47999572753906,35.71,0
-1.0119547843933103,-0.9857966899871826,0.1556671261787414,-38.77400970458984,0.3024020195007324,71.47999572753906,35.71,0
-0.9964763522148132,-0.979689598083496,0.1390826255083084,-35.426448822021484,0.3023991584777832,71.47999572753906,35.71,0
-0.9529565572738647,-0.9533793330192566,0.106048546731472,-32.683467864990234,0.3023973107337951,71.47999572753906,35.71,0
-0.90263694524765,-0.9029082655906676,0.0400669798254966,-29.78392219543457,0.3023961186408996,71.47999572753906,35.71,0
-0.8759424686431885,-0.859323263168335,-0.0022761907894164,-26.321748733520508,0.3028542995452881,71.63762664794922,35.73,0
-0.8644092679023743,-0.7585818767547607,-0.0406451486051082,-22.63106918334961,0.3031483292579651,71.73878479003906,35.73,0
-0.8793990015983582,-0.6043674349784851,-0.0708659142255783,-19.15917015075684,0.3033370077610016,71.80370330810547,35.73,0
-0.9002141356468201,-0.488608181476593,-0.0734665393829345,-15.967392921447754,0.3034580945968628,71.84536743164062,35.73,0
-0.9079743027687072,-0.3807339072227478,-0.0639399215579032,-12.980459213256836,0.3035357892513275,71.87210083007812,35.73,0
-0.9073565602302552,-0.3059086203575134,-0.0690218359231948,-10.314858436584473,0.3035856485366821,71.8892593383789,35.73,0
-0.9181556701660156,-0.2578900754451751,-0.0666853412985801,-7.923540115356445,0.3036176562309265,71.9002685546875,35.73,0
-0.9306836724281312,-0.2270745187997818,-0.0875770077109336,-5.360730171203613,0.3036381900310516,71.90733337402344,35.73,0
-0.9387234449386596,-0.2184944152832031,-0.0785929784178733,-2.551729202270508,0.3031924366950989,71.91187286376953,35.73,0
-0.9382851123809814,-0.1794015616178512,-0.0504364483058452,-0.2582613527774811,0.3029063940048218,71.91478729248047,35.73,0
-0.9324060678482056,-0.1599117964506149,-0.0547583065927028,1.0666687488555908,0.3027228116989136,71.91665649414062,35.73,0
-0.9510243535041808,-0.1641976982355117,-0.0351407304406166,2.4256584644317627,0.302605003118515,71.91785430908203,35.73,0
-0.9629724621772766,-0.1333615034818649,-0.0169535242021083,5.608541011810303,0.3025294244289398,71.91862487792969,35.73,0
-0.9370534420013428,-0.1023770570755004,-0.0332708917558193,11.337601661682127,0.3024809062480926,71.91911315917969,35.73,0
-0.9484089612960817,-0.0824930220842361,0.001039755763486,18.184762954711918,0.3024497628211975,71.91943359375,35.73,0
-0.944500744342804,-0.0641348212957382,0.0342539027333259,23.592744827270508,0.3024297952651977,71.91963958740234,35.73,0
-0.891612708568573,-0.0411580353975296,0.0107866339385509,26.01000022888184,0.3028759062290191,71.91976928710938,35.73,0
-0.9248455166816713,0.0015760140959173,0.0181177891790866,25.705480575561523,0.3031621873378753,71.91985321044922,35.73,0
-0.9461724162101746,0.017804717645049,0.0508113764226436,23.822664260864254,0.3033459186553955,71.91990661621094,35.73,0
-1.0046409368515017,0.0450126901268959,0.060596689581871,21.313907623291016,0.3034638166427612,71.91993713378906,35.73,0
-1.0477604866027832,0.0400821007788181,0.05568078905344,18.50735092163086,0.3035394847393036,71.91996002197266,35.73,0
-1.0698343515396118,0.036917932331562,0.0581238232553005,15.176505088806152,0.3035880327224731,71.91997528076172,35.73,0
-1.0672067403793335,0.0068984804674983,0.0484960712492466,11.079290390014648,0.3036191761493683,71.91998291015625,35.73,0
-1.059922695159912,-0.0347573719918727,0.0423175357282161,6.465187072753906,0.3036391735076904,71.91999053955078,35.73,0
-1.0328571796417236,-0.0782830268144607,0.038352508097887,2.0030221939086914,0.3045702278614044,71.91999053955078,35.73,0
-1.0266835689544678,-0.128606379032135,0.0246124323457479,-1.562723159790039,0.3051677048206329,71.91999053955078,35.73,0
-0.9947328567504884,-0.1776943355798721,-0.0009984815260395,-3.933412790298462,0.305551141500473,71.91999053955078,35.73,0
-0.9910220503807068,-0.2091961652040481,-0.0902051553130149,-5.5550971031188965,0.3057972192764282,71.91999053955078,35.73,0
-0.977445125579834,-0.218216672539711,-0.1698439568281173,-6.885989189147949,0.3059551417827606,71.91999053955078,35.73,0
-1.0079166889190674,-0.2463966161012649,-0.2545382082462311,-7.517959117889404,0.3060564696788788,71.91999053955078,35.73,0
-0.9994826912879944,-0.2532853186130523,-0.3088901042938232,-6.891739368438721,0.3061214983463287,71.91999053955078,35.73,0
-0.971679151058197,-0.2633038759231567,-0.3101833760738373,-5.486746788024902,0.3061632215976715,71.91999053955078,35.73,0
-0.9706297516822816,-0.2753309905529022,-0.2718288898468017,-4.119368553161621,0.3038946688175201,72.06687927246094,35.71,0
-0.97555410861969,-0.2830492854118347,-0.2416174262762069,-2.310394048690796,0.3024388253688812,72.16114807128906,35.71,0
-0.9955075979232788,-0.2824046909809112,-0.211033895611763,1.197088599205017,0.3015045523643493,72.22164154052734,35.71,0
-1.0251059532165527,-0.2931865751743316,-0.1746138334274292,6.514674186706543,0.3009049892425537,72.26045989990234,35.71,0
-1.032904863357544,-0.2889102101325989,-0.1624370813369751,12.57471752166748,0.3005202114582062,72.2853775024414,35.71,0
-1.0211164951324463,-0.2693725526332855,-0.1770138293504715,18.76013565063477,0.3002732992172241,72.30136108398438,35.71,0
-1.0023558139801023,-0.2512366473674774,-0.1975639015436172,25.25888061523437,0.3001148402690887,72.3116226196289,35.71,0
-0.9847185015678406,-0.2284025102853775,-0.2219472974538803,32.25605392456055,0.3000131547451019,72.31820678710938,35.71,0
-0.9789976477622986,-0.2137488722801208,-0.2375951707363128,39.56592178344727,0.3004071712493896,72.32243347167969,35.71,0
-0.980924129486084,-0.1987472474575042,-0.2476370632648468,46.155738830566406,0.3006600439548492,72.32514190673828,35.71,0
-0.9765626788139344,-0.1779245138168335,-0.2540813684463501,49.67535400390625,0.3008223176002502,72.3268814086914,35.71,0
-0.9737637042999268,-0.1701594591140747,-0.2526191771030426,47.76392364501953,0.3009264469146728,72.3280029296875,35.71,0
-0.9719675183296204,-0.1707740575075149,-0.2404852956533432,40.29642868041992,0.3009932935237884,72.32872009277344,35.71,0
-0.9708148241043092,-0.1711684763431549,-0.232698455452919,29.664623260498047,0.3010361790657043,72.32917785644531,35.71,0
-0.9756728410720824,-0.1658238172531128,-0.2332990914583206,18.793432235717773,0.3010637164115906,72.32947540283203,35.71,0
-0.9787904620170592,-0.1623939275741577,-0.2392823249101638,9.29837703704834,0.3010813891887665,72.32966613769531,35.71,0
-0.9751933813095092,-0.1601928174495697,-0.2375242412090301,1.4459527730941772,0.3010927140712738,72.32978820800781,35.71,0
-0.972885012626648,-0.1475847214460373,-0.2307982295751571,-4.610732555389404,0.3010999858379364,72.32986450195312,35.71,0
-0.982599139213562,-0.1338957995176315,-0.2264818549156189,-8.24320125579834,0.3011046648025512,72.32991027832031,35.71,0
-0.9888331294059752,-0.1251110434532165,-0.2237118631601333,-9.209349632263184,0.30110764503479,72.32994079589844,35.71,0
-0.987235963344574,-0.1194734871387481,-0.2219342440366745,-8.5683012008667,0.3011095523834228,72.32996368408203,35.71,0
-0.9862110018730164,-0.1270511746406555,-0.2207934707403183,-8.189156532287598,0.3011108040809631,72.3299789428711,35.71,0
-0.9967488050460817,-0.1431096494197845,-0.2256591618061065,-8.744757652282715,0.3011116087436676,72.32998657226562,35.71,0
-0.9979135990142822,-0.1534150540828704,-0.2231839001178741,-8.356135368347168,0.3011121153831482,72.32999420166016,35.71,0
-1.0042588710784912,-0.1712240129709243,-0.2159976512193679,-4.352200508117676,0.3001942336559295,72.32999420166016,35.71,0
-0.9915375709533693,-0.1714572310447693,-0.2113859206438064,3.720130443572998,0.2996051907539367,72.32999420166016,35.71,0
-0.9945693016052246,-0.1716068983078003,-0.214024156332016,14.209864616394045,0.2992271780967712,72.32999420166016,35.71,0
-1.0077104568481443,-0.160507395863533,-0.2269127815961837,25.932100296020508,0.2989845871925354,72.32999420166016,35.71,0
-0.999350368976593,-0.1477866023778915,-0.2351839542388916,38.89668655395508,0.2988288998603821,72.32999420166016,35.71,0
-0.9883875846862792,-0.1340253502130508,-0.2292963713407516,52.65854644775391,0.2987289726734161,72.32999420166016,35.71,0
-0.9925478100776672,-0.125194177031517,-0.2311158329248428,64.73593139648438,0.2986648678779602,72.32999420166016,35.71,0
-1.0008153915405271,-0.1195268407464027,-0.2378812283277511,70.98898315429688,0.2986237108707428,72.32999420166016,35.71,0
-0.9949254989624025,-0.1158898696303367,-0.247820645570755,68.33824157714844,0.2990562319755554,72.49479675292969,35.75,0
-0.9799501299858092,-0.113555870950222,-0.243003636598587,57.15765380859375,0.2993338108062744,72.60055541992188,35.75,0
-0.9759376049041748,-0.106460265815258,-0.2287168204784393,40.4063720703125,0.2995119392871856,72.66842651367188,35.75,0
-0.9845581650733948,-0.1075044944882392,-0.2195483595132827,21.183570861816406,0.2996262609958648,72.71198272705078,35.75,0
-0.9676992297172546,-0.1081746146082878,-0.2080667912960052,1.861461281776428,0.299699604511261,72.73993682861328,35.75,0
-0.9400867819786072,-0.0974091142416,-0.1839052587747573,-15.589787483215332,0.2997466921806335,72.75787353515625,35.75,0
-0.9391600489616394,-0.1016959846019744,-0.1851931065320968,-29.8270206451416,0.2997769117355346,72.7693862915039,35.75,0
-0.9665542244911194,-0.1044470518827438,-0.2196062207221985,-40.48625183105469,0.2997962832450866,72.77677154541016,35.75,0
-1.0065252780914309,-0.1118103042244911,-0.25848388671875,-47.702903747558594,0.3002680242061615,72.78150939941406,35.75,0
-1.009785294532776,-0.1221333891153335,-0.2722378075122833,-51.41341400146485,0.3005707561969757,72.78455352783203,35.75,0
-1.0006818771362305,-0.1231603771448135,-0.2586731612682342,-51.64863967895508,0.3007650077342987,72.78650665283203,35.75,0
-1.000437617301941,-0.129417210817337,-0.2443703860044479,-49.46017456054688,0.3008896708488464,72.78775787353516,35.75,0
-0.9946830868721008,-0.1334324926137924,-0.2351916879415512,-46.63704299926758,0.3009696900844574,72.78855895996094,35.75,0
-0.990990161895752,-0.1304114907979965,-0.2516924142837524,-44.15537643432617,0.3010210394859314,72.78907775878906,35.75,0
-0.9886202216148376,-0.1284727901220321,-0.2678794264793396,-41.602657318115234,0.3010540008544922,72.7894058227539,35.75,0
-0.981501579284668,-0.1216308623552322,-0.2782673239707947,-38.17676162719727,0.301075130701065,72.78961944580078,35.75,0
-0.9769332408905028,-0.1116423308849334,-0.2737381160259247,-33.59222412109375,0.3001704812049866,72.78975677490234,35.75,0
-0.9740015268325806,-0.0996344909071922,-0.2764292955398559,-27.984697341918945,0.2995899319648742,72.78984069824219,35.75,0
-0.949729025363922,-0.0863307788968086,-0.2781563401222229,-21.86039352416992,0.2992173731327057,72.78990173339844,35.75,0
-0.9565434455871582,-0.0833909958600997,-0.2792646586894989,-16.246356964111328,0.2989782989025116,72.7899398803711,35.75,0
-0.988905429840088,-0.0982977375388145,-0.268780380487442,-12.292498588562012,0.2988248467445373,72.78996276855469,35.75,0
-1.0096734762191772,-0.1134617999196052,-0.2620521783828735,-10.450160026550291,0.2987263798713684,72.78997802734375,35.75,0
-1.0118056535720823,-0.1231932193040847,-0.252136617898941,-10.349790573120115,0.2986631989479065,72.78998565673828,35.75,0
-0.9907828569412231,-0.1238405108451843,-0.2457733899354934,-10.994729042053224,0.2986226379871368,72.78999328613281,35.75,0
-0.9772916436195374,-0.1242559030652046,-0.2416898310184478,-10.745837211608888,0.2981376945972442,72.78999328613281,35.75,0
-0.9798293113708496,-0.1245224848389625,-0.227873682975769,-8.250273704528809,0.2978264689445495,72.78999328613281,35.75,0
-0.9926533699035645,-0.1302913278341293,-0.2134094983339309,-3.954667568206787,0.2976267337799072,72.78999328613281,35.75,0
-1.0008831024169922,-0.128395676612854,-0.2153227776288986,0.3711731731891632,0.2974985539913177,72.78999328613281,35.75,0
-1.0005667209625244,-0.1215813755989074,-0.2165506035089492,3.448185443878174,0.2974162995815277,72.78999328613281,35.75,0
-0.9947659373283386,-0.1172083467245101,-0.2229363322257995,4.792301177978516,0.2973635196685791,72.78999328613281,35.75,0
-0.9910433292388916,-0.114401988685131,-0.2214365452528,4.0785441398620605,0.2973296642303467,72.78999328613281,35.75,0
-0.9942521452903748,-0.1126010343432426,-0.2204740643501281,1.460202932357788,0.297307938337326,72.78999328613281,35.75,0
-0.990713596343994,-0.1114452853798866,-0.2198564112186432,-2.06870698928833,0.2991300523281097,72.95121002197266,35.77,0
-0.9828449487686156,-0.1163013651967048,-0.2138622552156448,-5.3866353034973145,0.3002993762493133,73.05467224121094,35.77,0
-0.9833930730819702,-0.1194177195429802,-0.2100155502557754,-7.884895801544189,0.3010497987270355,73.12106323242188,35.77,0
-0.9893426299095154,-0.1270153820514679,-0.2131447345018386,-9.495301246643066,0.3015313744544983,73.1636734008789,35.77,0
-0.9931607246398926,-0.131891131401062,-0.2151528596878051,-10.414124488830566,0.3018404245376587,73.1910171508789,35.77,0
-0.9956109523773192,-0.1350201070308685,-0.2220393419265747,-10.806730270385742,0.3020387589931488,73.20856475830078,35.77,0
-1.0027811527252195,-0.1370280981063842,-0.2264586836099624,-10.725502014160156,0.3021660149097442,73.2198257446289,35.77,0
-1.0017848014831543,-0.1383167207241058,-0.2236969918012619,-10.161066055297852,0.3022477030754089,73.22705078125,35.77,0
-0.9955475926399232,-0.1335459053516388,-0.2163269221782684,-9.067998886108398,0.3018411993980407,73.231689453125,35.77,0
-0.9915449023246764,-0.1304842680692672,-0.2171950042247772,-7.524625778198242,0.3015803098678589,73.23466491699219,35.77,0
-1.000171780586243,-0.1285194903612136,-0.2065565437078476,-5.986043453216553,0.3014129102230072,73.236572265625,35.77,0
-1.0057079792022705,-0.1328563839197158,-0.1997293978929519,-5.034495830535889,0.3013054728507995,73.23780059814453,35.77,0
-1.0036630630493164,-0.1356395483016967,-0.2065436691045761,-4.9146599769592285,0.3012365102767944,73.23858642578125,35.77,0
-0.9967529773712158,-0.1374256312847137,-0.2109166830778122,-5.432464122772217,0.3011922538280487,73.23908996582031,35.77,0
-0.9979162216186525,-0.1385718286037445,-0.2137230336666107,-6.176757335662842,0.3011638522148132,73.23941802978516,35.77,0
-0.9930649995803832,-0.1393073946237564,-0.2155239880084991,-6.747548580169678,0.3011456429958343,73.2396240234375,35.77,0
-0.9899517297744752,-0.1397794336080551,-0.2110819518566131,-6.916807651519775,0.3006746768951416,73.23976135253906,35.77,0
-0.9935516119003296,-0.1400823593139648,-0.2082313150167465,-6.60626745223999,0.3003724217414856,73.2398452758789,35.77,0
-1.0014595985412598,-0.1402767598628997,-0.2064019441604614,-5.919750213623047,0.3001784682273865,73.23989868164062,35.77,0
-1.0009366273880005,-0.1404015123844146,-0.2052279561758041,-5.360958099365234,0.300053983926773,73.23993682861328,35.77,0
-0.9950032830238342,-0.1404815763235092,-0.2044745534658432,-5.665133953094482,0.299974113702774,73.23995971679688,35.77,0
-0.9911956191062928,-0.1405329555273056,-0.1983932852745056,-6.974517345428467,0.2999228537082672,73.23997497558594,35.77,0
-0.9943498373031616,-0.1405659317970276,-0.1944906860589981,-8.556397438049316,0.2998899519443512,73.23998260498047,35.77,0
-0.990776300430298,-0.1405870914459228,-0.2031817734241485,-9.865327835083008,0.2998688220977783,73.239990234375,35.77,0
-0.9940807819366456,-0.1406006664037704,-0.2087592035531997,-11.561559677124023,0.3007735013961792,73.239990234375,35.77,0
-0.9962013959884644,-0.1406093835830688,-0.2067407071590423,-14.616937637329102,0.3013540506362915,73.239990234375,35.77,0
-0.9919645190238952,-0.1350172013044357,-0.2054453492164611,-18.68425750732422,0.3017266094684601,73.239990234375,35.77,0
-0.9892455339431764,-0.1314284652471542,-0.2046140730381012,-22.4981746673584,0.3019657135009765,73.239990234375,35.77,0
-0.9875006079673768,-0.1291254162788391,-0.2096783816814422,-25.54759979248047,0.3021191656589508,73.239990234375,35.77,0
-0.9919785857200624,-0.1276474595069885,-0.2129283547401428,-28.324954986572266,0.3022176325321197,73.239990234375,35.77,0
-0.9948523044586182,-0.1266989856958389,-0.2094162255525589,-31.29313468933105,0.3022808134555816,73.239990234375,35.77,0
-0.9966965317726136,-0.1260903179645538,-0.2071623504161834,-33.91445541381836,0.3023213744163513,73.239990234375,35.77,0
-0.9978800415992736,-0.1256996989250183,-0.211313709616661,-34.217376708984375,0.3023473918437958,73.39404296875,35.77,0
-0.9986395239830016,-0.1254490315914154,-0.2139778137207031,-29.9156436920166,0.3023640811443329,73.49290466308594,35.77,0
-0.99912691116333,-0.1252881586551666,-0.2100897133350372,-20.785219192504883,0.3023748099803924,73.55635070800781,35.77,0
-0.9994397163391112,-0.1251849234104156,-0.207594558596611,-9.286864280700684,0.302381694316864,73.5970687866211,35.77,0
-0.9996404647827148,-0.1307164430618286,-0.2059933096170425,1.4704865217208862,0.3023861050605774,73.62319946289062,35.77,0
-0.9997692704200744,-0.1342662572860717,-0.2049657106399536,9.592011451721191,0.3023889362812042,73.63996887207031,35.77,0
-0.9942541718482972,-0.130946546792984,-0.2043062597513198,14.70362663269043,0.3023907542228699,73.65072631835938,35.77,0
-0.9907149076461792,-0.128816157579422,-0.2038830667734146,17.50031852722168,0.302391916513443,73.65763092041016,35.77,0
-0.994041383266449,-0.1274489909410476,-0.2092092633247375,19.01205062866211,0.3014744520187378,73.66206359863281,35.77,0
-0.9961761236190796,-0.1265716254711151,-0.2070295363664627,19.749326705932617,0.3008856773376465,73.66490936279297,35.77,0
-0.9975460767745972,-0.1260085850954055,-0.2056307047605514,19.53461265563965,0.3005078434944153,73.66673278808594,35.77,0
-0.9928274154663086,-0.1256472468376159,-0.2047330141067505,18.264728546142575,0.300265371799469,73.66790008544922,35.77,0
-0.9953970313072203,-0.1254153698682785,-0.2041569352149963,16.503990173339844,0.3001097440719604,73.66865539550781,35.77,0
-0.9970460534095764,-0.1252665668725967,-0.2037872374057769,14.90473175048828,0.3000098764896393,73.66913604736328,35.77,0
-0.9981043338775636,-0.1251710653305053,-0.2035499811172485,13.398354530334473,0.2999458014965057,73.66944122314453,35.77,0
-0.9987834692001344,-0.125109776854515,-0.2033977210521698,11.543169975280762,0.2999046742916107,73.66963958740234,35.77,0
-0.9936215281486512,-0.1250704526901245,-0.2033000141382217,9.496383666992188,0.3007965087890625,73.66976928710938,35.77,0
-0.99590665102005,-0.1250452101230621,-0.203237310051918,8.007328033447266,0.3013688325881958,73.66985321044922,35.77,0
-0.997373104095459,-0.1250290125608444,-0.2031970769166946,7.230866432189941,0.3017361164093017,73.66990661621094,35.77,0
-0.9927164316177368,-0.1250186115503311,-0.2031712532043457,6.069801330566406,0.301971822977066,73.66993713378906,35.77,0
-0.9897280335426332,-0.1250119507312774,-0.2031546831130981,3.3148717880249023,0.3021230697631836,73.66996002197266,35.77,0
-0.9934080243110656,-0.1250076740980148,-0.2031440436840057,-0.5703854560852051,0.3022201359272003,73.66997528076172,35.77,0
-0.9957696199417114,-0.1250049173831939,-0.2031372189521789,-3.199857711791992,0.3022824227809906,73.66998291015625,35.77,0
-0.9972851872444152,-0.1250031590461731,-0.2031328380107879,-2.103640556335449,0.3023223876953125,73.66999053955078,35.77,0
-0.9926599860191344,-0.1250020265579223,-0.2031300365924835,3.1067285537719727,0.3023480474948883,73.66999053955078,35.77,0
-0.9952896237373352,-0.1250012964010238,-0.203128233551979,10.369780540466309,0.3023644983768463,73.66999053955078,35.77,0
-0.996977150440216,-0.1250008344650268,-0.2031270712614059,16.890146255493164,0.3023750782012939,73.66999053955078,35.77,0
-0.9924623370170592,-0.1250005364418029,-0.2031263262033462,20.924074172973636,0.3023818433284759,73.66999053955078,35.77,0
-0.9951627850532532,-0.1250003427267074,-0.203125849366188,22.18726348876953,0.3023861944675445,73.66999053955078,35.77,0
-0.9968957304954528,-0.1194024458527565,-0.2031255513429641,21.42873764038086,0.302388995885849,73.66999053955078,35.77,0
-0.998007833957672,-0.1214078143239021,-0.2031253576278686,19.834943771362305,0.3023907840251922,73.66999053955078,35.77,0
-0.9931237697601318,-0.1170969679951667,-0.2031252235174179,18.296247482299805,0.3023919463157654,73.66999053955078,35.77,0
-0.9955872297286988,-0.1199282854795456,-0.2031251490116119,16.950544357299805,0.301015555858612,73.91360473632812,35.77,0
-0.9971681237220764,-0.1161474883556366,-0.2031250894069671,15.563892364501951,0.3001322448253631,74.0699462890625,35.77,0
-0.9925848841667176,-0.1137211918830871,-0.2031250596046447,14.100807189941406,0.2995654046535492,74.17028045654297,35.77,0
-0.995241403579712,-0.112164132297039,-0.2031250447034835,12.70689582824707,0.299201637506485,74.23466491699219,35.77,0
-0.9969462156295776,-0.1111649051308631,-0.2031250298023224,11.389619827270508,0.2989681959152221,74.27598571777344,35.77,0
-0.99804025888443,-0.1105236560106277,-0.2031250149011612,9.97822093963623,0.2988183796405792,74.30249786376953,35.77,0
-0.9987423419952391,-0.1157099157571792,-0.2031250149011612,8.320125579833984,0.2987222373485565,74.31951904296875,35.77,0
-0.9991928935050964,-0.1190381571650505,-0.2031250149011612,6.478636741638184,0.298660546541214,74.33043670654297,35.77,0
-0.999482035636902,-0.1211740300059318,-0.2031250149011612,4.548117160797119,0.2995391488075256,74.33744812011719,35.77,0
-0.9996675848960876,-0.1225447133183479,-0.2031250149011612,2.2201173305511475,0.3001030087471008,74.3419418334961,35.77,0
-0.9997866749763488,-0.1234243363142013,-0.2031250149011612,-0.8358616232872009,0.3004648387432098,74.3448257446289,35.77,0
-0.9998630881309508,-0.1183910518884658,-0.2031250149011612,-4.02583646774292,0.3006970584392547,74.3466796875,35.77,0
-0.9999121427536012,-0.1207587569952011,-0.2031250149011612,-5.944005966186523,0.3008460700511932,74.34786987304688,35.77,0
-0.9999436140060424,-0.1222782135009765,-0.2031250149011612,-5.681042671203613,0.3009417057037353,74.3486328125,35.77,0
-0.9999638199806212,-0.1176555380225181,-0.2031250149011612,-3.5956101417541504,0.3010030686855316,74.34912109375,35.77,0
-0.9999767541885376,-0.1146889701485633,-0.2031250149011612,-0.8385996222496033,0.3010424673557281,74.34943389892578,35.77,0
-0.9999850988388062,-0.1183829754590988,-0.2031250149011612,1.5755547285079956,0.3006084561347961,74.34963989257812,35.77,0
-0.999990463256836,-0.1207535713911056,-0.2031250149011612,3.329026699066162,0.3003299236297607,74.34976959228516,35.77,0
-0.999993860721588,-0.1222748830914497,-0.2031250149011612,4.479382038116455,0.3001511693000793,74.349853515625,35.77,0
-0.9999960660934448,-0.1176533997058868,-0.2031250149011612,5.016989707946777,0.3000364601612091,74.34990692138672,35.77,0
-0.9999974966049194,-0.1202853769063949,-0.2031250149011612,4.917756080627441,0.2999628484249115,74.34993743896484,35.77,0
-0.9999983906745912,-0.1163766533136367,-0.2031250149011612,4.298774242401123,0.299915611743927,74.34996032714844,35.77,0
-0.994401216506958,-0.1138682588934898,-0.2031250149011612,3.2638490200042725,0.2998853027820587,74.3499755859375,35.77,0
-0.9964070320129396,-0.1178562864661216,-0.2031250149011612,1.936917066574097,0.2998658418655395,74.34998321533203,35.77,0
-0.9976942539215088,-0.1204155758023262,-0.2031250149011612,0.6232162714004517,0.299394428730011,74.34999084472656,35.77,0
-0.99292254447937,-0.122057981789112,-0.2031250149011612,-0.50286465883255,0.2990919053554535,74.34999084472656,35.77,0
-0.9954581260681152,-0.1231119856238365,-0.2031250149011612,-1.7414095401763916,0.29889777302742,74.34999084472656,35.77,0
-0.9970852732658386,-0.1237883791327476,-0.2031250149011612,-3.4784538745880127,0.2987731695175171,74.34999084472656,35.77,0
-0.9981294870376588,-0.1242224499583244,-0.2031250149011612,-5.485249996185303,0.2986932098865509,74.34999084472656,35.77,0
-0.9987996220588684,-0.1245010122656822,-0.2031250149011612,-7.156431674957275,0.2986419200897217,74.34999084472656,35.77,0
-0.9992296695709229,-0.1246797814965248,-0.2031250149011612,-8.486845970153809,0.2986089885234833,74.34999084472656,35.77,0
-0.9995056390762328,-0.1247945055365562,-0.2031250149011612,-10.22552490234375,0.2985878586769104,74.34999084472656,35.77,0
-0.9996827244758606,-0.1248681247234344,-0.2031250149011612,-13.03586769104004,0.2990332245826721,74.57211303710938,35.77,0
-0.9997963905334472,-0.1249153688549995,-0.2031250149011612,-16.7596435546875,0.2993190288543701,74.71466064453125,35.77,0
-0.9998693466186525,-0.1249456852674484,-0.2031250149011612,-20.03782844543457,0.2995024621486664,74.80613708496094,35.77,0
-0.999916136264801,-0.1249651461839675,-0.2031250149011612,-20.747957229614254,0.2996201515197754,74.8648452758789,35.77,0
-0.9999461770057678,-0.124977633357048,-0.2031250149011612,-17.83247184753418,0.2996957004070282,74.90251922607422,35.77,0
-0.999965488910675,-0.1249856427311897,-0.2031250149011612,-12.590277671813965,0.2997441589832306,74.92669677734375,35.77,0
-0.9999778270721436,-0.1249907836318016,-0.2031250149011612,-7.345287322998047,0.2997752726078033,74.94220733642578,35.77,0
-0.9999857544898988,-0.124994084239006,-0.2031250149011612,-3.3774819374084477,0.2997952401638031,74.95216369628906,35.77,0
-0.9999908804893494,-0.1249962002038955,-0.2031250149011612,-0.8025122284889221,0.3002673387527466,74.95855712890625,35.77,0
-0.999994158744812,-0.1249975636601448,-0.2031250149011612,0.4702021181583404,0.3005703091621399,74.96265411376953,35.77,0
-0.9999962449073792,-0.1249984353780746,-0.2031250149011612,0.5811895132064819,0.3007647395133972,74.96528625488281,35.77,0
-0.999997615814209,-0.1249989941716194,-0.2031250149011612,-0.0354396402835845,0.3008895218372345,74.96697235107422,35.77,0
-0.9999984502792358,-0.124999351799488,-0.2031250149011612,-0.8682308793067932,0.3009696006774902,74.96805572509766,35.77,0
-0.9999989867210388,-0.1249995827674865,-0.2031250149011612,-1.628370761871338,0.3010209798812866,74.96875,35.77,0
-0.9999993443489076,-0.1249997317790985,-0.2031250149011612,-2.137680053710937,0.3010539412498474,74.96920013427734,35.77,0
-0.9999995827674866,-0.1249998286366462,-0.1975272297859192,-2.2316582202911377,0.3010751008987427,74.96949005126953,35.77,0
-0.9999997615814208,-0.124999888241291,-0.1995326727628708,-2.001779317855835,0.3001704812049866,74.96967315673828,35.77,0
-0.9999998211860656,-0.1305976957082748,-0.200819656252861,-1.900829792022705,0.2995899319648742,74.96978759765625,35.77,0
-0.9999998807907104,-0.1341900527477264,-0.1960477828979492,-2.427170991897583,0.2992173731327057,74.96986389160156,35.77,0
-0.9999999403953552,-0.1308976411819458,-0.1929854750633239,-3.685668468475342,0.2989782989025116,74.96990966796875,35.77,0
-0.9999999403953552,-0.1343825459480285,-0.1966180354356765,-5.302961826324463,0.2988248467445373,74.96994018554688,35.77,0
-0.9999999403953552,-0.1366189569234848,-0.1989492028951645,-6.906894683837891,0.2987263798713684,74.96996307373047,35.77,0
-0.9999999403953552,-0.138054147362709,-0.200445219874382,-8.548827171325684,0.2986631989479065,74.96997833251953,35.77,0
-0.9999999403953552,-0.1333774030208587,-0.2014052718877792,-10.51249885559082,0.2986226379871368,74.96998596191406,35.77,0
-0.9944021701812744,-0.1303761303424835,-0.1964236050844192,-13.008658409118652,0.2999737560749054,74.9699935913086,35.77,0
-0.9964076280593872,-0.1284500956535339,-0.1932266503572464,-15.979093551635742,0.300840824842453,74.9699935913086,35.77,0
-0.9976946115493774,-0.1272140741348266,-0.196772813796997,-18.53021240234375,0.3013972640037536,74.9699935913086,35.77,0
-0.99852055311203,-0.1264208704233169,-0.1934507638216018,-18.86689758300781,0.301754355430603,74.9699935913086,35.77,0
-0.9990505576133728,-0.1259118318557739,-0.1969166249036789,-15.869393348693848,0.301983505487442,74.9699935913086,35.77,0
-0.999390721321106,-0.1255851686000824,-0.1991408169269561,-10.456338882446287,0.3021305799484253,74.9699935913086,35.77,0
-0.9996089935302734,-0.1253755241632461,-0.2005681842565536,-4.653878211975098,0.3022249639034271,74.9699935913086,35.77,0
-0.9941512942314148,-0.1252409964799881,-0.1958864033222198,0.0657634437084198,0.3022855222225189,74.9699935913086,35.77,0
-0.9962466359138488,-0.1251546591520309,-0.1984796822071075,3.227113008499145,0.3023243844509125,75.17778778076172,35.81,0
-0.9975913166999816,-0.1250992566347122,-0.2001439034938812,4.987192153930664,0.302349328994751,75.3111343383789,35.81,0
-0.9984542727470398,-0.1250637024641037,-0.2012118995189666,5.726208686828613,0.3023653328418731,75.39671325683594,35.81,0
-0.999008059501648,-0.1250408738851547,-0.2018972784280777,5.741897106170654,0.3023756146430969,75.45162963867188,35.81,0
-0.9993634223937988,-0.1250262260437011,-0.2023371160030365,5.314890861511231,0.3023822009563446,75.48686981201172,35.81,0
-0.9995914697647096,-0.1250168234109878,-0.2026193886995315,4.782917499542236,0.3023864328861236,75.50949096679688,35.81,0
-0.9997377991676332,-0.1250108033418655,-0.2028005272150039,4.34121561050415,0.3023891448974609,75.52400207519531,35.81,0
-0.9998317360877992,-0.1250069290399551,-0.2029167711734771,4.039843559265137,0.3023908734321594,75.53331756591797,35.81,0
-0.999891996383667,-0.1250044405460357,-0.2029913663864135,3.828527688980103,0.3014737665653229,75.53929901123047,35.81,0
-0.9999306797981262,-0.125002846121788,-0.2030392438173294,3.427806615829468,0.3008852303028106,75.54313659667969,35.81,0
-0.9943577647209167,-0.1250018328428268,-0.2030699700117111,2.5831046104431152,0.3005075454711914,75.54559326171875,35.81,0
-0.9907813668251038,-0.1250011771917343,-0.2030896842479705,1.4857242107391355,0.3002651631832123,75.54717254638672,35.81,0
-0.9940840005874634,-0.1250007599592209,-0.2031023353338241,0.4160659313201904,0.3001096248626709,75.54818725585938,35.81,0
-0.9962034225463868,-0.1250004917383194,-0.2031104564666748,-0.7683572173118591,0.3000098168849945,75.54883575439453,35.81,0
-0.9975636005401612,-0.125000312924385,-0.2031156718730926,-2.2843751907348637,0.2999457418918609,75.54925537109375,35.81,0
-0.998436450958252,-0.1250001937150955,-0.2031190097332,-3.930792570114136,0.2999046444892883,75.54952239990234,35.81,0
-0.9989966154098512,-0.1250001192092895,-0.203121155500412,-5.438773155212402,0.300337553024292,75.54969787597656,35.81,0
-0.9993560910224916,-0.1250000745058059,-0.2031225264072418,-6.98688554763794,0.3006153702735901,75.5498046875,35.81,0
-0.9995867609977722,-0.1250000447034835,-0.2031234055757522,-8.940505027770996,0.3007936477661133,75.54987335205078,35.81,0
-0.9997348189353944,-0.1250000298023224,-0.2031239718198776,-11.172268867492676,0.3009080588817596,75.54991912841797,35.81,0
-0.9998298287391664,-0.1250000149011612,-0.2031243443489074,-12.765702247619627,0.3009814918041229,75.5499496459961,35.81,0
-0.9998908042907716,-0.1250000149011612,-0.2031245827674865,-12.469887733459473,0.3010286092758178,75.54997253417969,35.81,0
-0.999929904937744,-0.1250000149011612,-0.2031247317790985,-9.697014808654783,0.3010588586330414,75.54998016357422,35.81,0
-0.9999549984931946,-0.1250000149011612,-0.2031248211860656,-5.101639747619629,0.3010782599449157,75.54998779296875,35.81,0
-0.999971091747284,-0.1194022372364997,-0.2031248807907104,-0.0352903828024864,0.30200856924057,75.54999542236328,35.81,0
-0.9999814629554749,-0.1214076802134513,-0.203124925494194,4.351677417755127,0.3026055693626404,75.54999542236328,35.81,0
-0.9999880790710448,-0.122694656252861,-0.2031249552965164,7.4249267578125,0.3029887080192566,75.54999542236328,35.81,0
-0.9999923706054688,-0.1235205605626106,-0.2031249701976776,9.06398105621338,0.3032345771789551,75.54999542236328,35.81,0
-0.9999951124191284,-0.1240505799651146,-0.2031249850988388,9.603523254394531,0.3033923506736755,75.54999542236328,35.81,0
-0.9999968409538268,-0.1243907138705253,-0.2031249850988388,9.537775039672852,0.3034936189651489,75.54999542236328,35.81,0
-0.9999979734420776,-0.1190112233161926,-0.2031249850988388,9.269879341125488,0.3035585880279541,75.54999542236328,35.81,0
-0.9999986886978148,-0.1155589744448661,-0.2031249850988388,9.11587142944336,0.3036002814769745,75.54999542236328,35.81,0
-0.9999991655349731,-0.113343521952629,-0.2031249850988388,9.18900203704834,0.3031681180000305,75.73270416259766,35.81,0
-0.999999463558197,-0.1175195425748825,-0.2031249850988388,9.311166763305664,0.3028907775878906,75.84996032714844,35.81,0
-0.9999996423721312,-0.1201994717121124,-0.2031249850988388,9.228349685668944,0.3027127981185913,75.92520904541016,35.81,0
-0.9999997615814208,-0.1163215264678001,-0.2031249850988388,8.813362121582031,0.3025985956192016,75.97349548339844,35.81,0
-0.9999998211860656,-0.1194306537508964,-0.2031249850988388,8.09564208984375,0.3025253117084503,76.00448608398438,35.81,0
-0.9999998807907104,-0.121425911784172,-0.2031249850988388,7.147820949554443,0.3024782836437225,76.02437591552734,35.81,0
-0.9999999403953552,-0.1227063536643982,-0.2031249850988388,5.977099418640137,0.3024480938911438,76.03713989257812,35.81,0
-0.9999999403953552,-0.1235280707478523,-0.2031249850988388,4.51286506652832,0.3024287223815918,76.04532623291016,35.81,0
-0.9999999403953552,-0.1240554004907608,-0.2031249850988388,2.630986452102661,0.3024162948131561,76.05058288574219,35.81,0
-0.9999999403953552,-0.1243938133120536,-0.2031249850988388,0.1407428532838821,0.3024083077907562,76.053955078125,35.81,0
-0.9999999403953552,-0.119013212621212,-0.2031249850988388,-3.0050249099731445,0.3024031817913055,76.05612182617188,35.81,0
-0.9999999403953552,-0.1155602484941482,-0.2031249850988388,-6.2848639488220215,0.3023999035358429,76.05751037597656,35.81,0
-0.9999999403953552,-0.1133443340659141,-0.2031249850988388,-8.396841049194336,0.3023977875709533,76.05840301513672,35.81,0
-0.9999999403953552,-0.1119222864508628,-0.2031249850988388,-7.989559173583984,0.3023964464664459,76.05897521972656,35.81,0
-0.9999999403953552,-0.1110097020864486,-0.2031249850988388,-4.923032283782959,0.3023955821990967,76.05934143066406,35.81,0
-0.9999999403953552,-0.110424056649208,-0.2031249850988388,-0.5870295166969299,0.3023950159549713,76.05957794189453,35.81,0
-0.9999999403953552,-0.1100482270121574,-0.2031249850988388,3.309748411178589,0.3028535842895508,76.05973052978516,35.81,0
-0.9999999403953552,-0.1154048144817352,-0.2031249850988388,6.00393533706665,0.3031478524208069,76.05982971191406,35.81,0
-0.9999999403953552,-0.1132445856928825,-0.2031249850988388,7.611101627349853,0.3033367097377777,76.05989074707031,35.81,0
-0.9999999403953552,-0.1174560487270355,-0.2031249850988388,8.334386825561523,0.3034579157829284,76.05992889404297,35.81,0
-0.9999999403953552,-0.114560954272747,-0.2031249850988388,8.250415802001953,0.3035356998443603,76.05995178222656,35.81,0
-0.9999999403953552,-0.1127030476927757,-0.2031249850988388,7.5588297843933105,0.3035855889320373,76.05996704101562,35.81,0
-0.9999999403953552,-0.1171085238456726,-0.2031249850988388,6.602701187133789,0.3036176264286041,76.05997467041016,35.81,0
-0.9999999403953552,-0.1199357062578201,-0.2031249850988388,5.580699443817139,0.3036381900310516,76.05998229980469,35.81,0
-0.9999999403953552,-0.1217500269412994,-0.2031249850988388,4.50567626953125,0.3027335107326507,76.05998992919922,35.81,0
-0.9999999403953552,-0.1229143515229225,-0.2031249850988388,3.403791904449463,0.3021529614925384,76.05998992919922,35.81,0
-0.9999999403953552,-0.1236615478992462,-0.2031249850988388,2.352738857269287,0.3017804026603699,76.05998992919922,35.81,0
-0.9999999403953552,-0.1241410598158836,-0.2031249850988388,1.3665492534637451,0.3015412986278534,76.05998992919922,35.81,0
-0.9999999403953552,-0.1244487836956977,-0.2031249850988388,0.2106136232614517,0.3013878464698791,76.05998992919922,35.81,0
-0.9999999403953552,-0.1190484836697578,-0.2031249850988388,-1.548650860786438,0.3012893795967102,76.05998992919922,35.81,0
-0.9999999403953552,-0.1155828833580017,-0.2031249850988388,-4.039024353027344,0.3012261986732483,76.05998992919922,35.81,0
-0.9999999403953552,-0.1189566329121589,-0.2031249850988388,-6.82303524017334,0.3011856377124786,76.05998992919922,35.81,0
-0.9999999403953552,-0.1211217120289802,-0.2031249850988388,-9.340498924255373,0.3016185462474823,76.26419830322266,35.81,0
-0.9999999403953552,-0.1225111410021781,-0.2031249850988388,-11.464787483215332,0.3018963634967804,76.39524841308594,35.81,0
-0.9999999403953552,-0.1234027966856956,-0.197527214884758,-13.49797534942627,0.3020746409893036,76.4793472290039,35.81,0
-0.9999999403953552,-0.12397500872612,-0.1939348876476287,-15.436874389648438,0.3021890521049499,76.53331756591797,35.81,0
-0.9999999403953552,-0.1243422180414199,-0.1916295439004898,-16.129430770874023,0.3022624850273132,76.56795501708984,35.81,0
-0.9999999403953552,-0.12457787245512,-0.1957478821277618,-13.951428413391112,0.3023096024990082,76.59017944335938,35.81,0
-0.9999999403953552,-0.1247291043400764,-0.1927930116653442,-8.870824813842773,0.3023398518562317,76.60444641113281,35.81,0
-0.9999999403953552,-0.1248261556029319,-0.1908967494964599,-2.830307006835937,0.3023592531681061,76.61360168457031,35.81,0
-0.9999999403953552,-0.1248884350061416,-0.1952776163816452,2.239147424697876,0.303289920091629,76.61947631835938,35.81,0
-0.9999999403953552,-0.1249284073710441,-0.1980890035629272,5.728881359100342,0.3038871586322784,76.62324523925781,35.81,0
-0.9999999403953552,-0.1249540522694587,-0.1942954063415527,7.796428203582764,0.3042704463005066,76.62566375732422,35.81,0
-0.9999999403953552,-0.1249705106019973,-0.1974586695432663,8.736342430114746,0.3045164048671722,76.62721252441406,35.81,0
-0.9999999403953552,-0.1249810755252838,-0.1994886696338653,8.877373695373535,0.3046742379665375,76.62821197509766,35.81,0
-0.9999999403953552,-0.124987855553627,-0.1951936334371566,8.426910400390625,0.3047755360603332,76.62885284423828,35.81,0
-0.9999999403953552,-0.1305899769067764,-0.1924373358488083,7.5932769775390625,0.3048405349254608,76.62926483154297,35.81,0
-0.9999999403953552,-0.13418510556221,-0.1906684935092926,6.775275707244873,0.3048822581768036,76.62952423095703,35.81,0
-0.9999999403953552,-0.1364922523498535,-0.1895333528518676,6.23241662979126,0.3044497370719909,76.62969207763672,35.81,0
-0.9999999403953552,-0.1379728466272354,-0.1888048946857452,5.805224418640137,0.3041721880435943,76.62979888916016,35.81,0
-0.9999999403953552,-0.1389230042695999,-0.1939351856708526,5.154906749725342,0.3039940595626831,76.62986755371094,35.81,0
-0.9999999403953552,-0.1395327597856521,-0.1916297376155853,4.099871635437012,0.3038797378540039,76.62991333007812,35.81,0
-0.9999999403953552,-0.1399240642786026,-0.1901502311229705,2.684800386428833,0.3038063943386078,76.62994384765625,35.81,0
-0.9999999403953552,-0.1401751786470413,-0.189200758934021,0.999269962310791,0.3037593066692352,76.62996673583984,35.81,0
-0.9999999403953552,-0.1403363347053527,-0.1885914504528045,-0.9816328883171082,0.3037290871143341,76.62997436523438,35.81,0
-0.9999999403953552,-0.140439748764038,-0.1882004290819168,-3.2380707263946533,0.3037097156047821,76.6299819946289,35.81,0
-0.9999999403953552,-0.1349083483219146,-0.1879494935274124,-5.535192966461182,0.3101240694522857,76.62998962402344,35.81,0
-0.9999999403953552,-0.1313586086034774,-0.1877884566783905,-7.582565784454346,0.314240425825119,76.62998962402344,35.81,0
-0.9999999403953552,-0.1346783638000488,-0.1876851171255111,-9.40876007080078,0.3168820738792419,76.62998962402344,35.81,0
-0.9999999403953552,-0.1312110126018524,-0.1876187920570373,-11.4476900100708,0.3185773193836212,76.62998962402344,35.81,0
-0.9944021701812744,-0.1345836520195007,-0.1875762343406677,-13.84167766571045,0.3196652233600616,76.62998962402344,35.81,0
-0.9964076280593872,-0.1367480158805847,-0.1875489205121994,-15.395915031433104,0.3203633725643158,76.62998962402344,35.81,0
-0.9976946115493774,-0.1381369680166244,-0.1875313967466354,-14.172137260437012,0.3208114206790924,76.62998962402344,35.81,0
-0.99852055311203,-0.1334305554628372,-0.187520146369934,-9.800629615783691,0.3210989534854889,76.62998962402344,35.81,0
-0.9990505576133728,-0.1304102391004562,-0.1875129342079162,-4.1865081787109375,0.3153159916400909,76.82344818115234,35.79,0
-0.999390721321106,-0.1284719854593277,-0.1875082999467849,0.5806489586830139,0.3116047978401184,76.94760131835938,35.79,0
-0.9996089935302734,-0.1272281259298324,-0.1875053197145462,3.836977481842041,0.3092231750488281,77.02727508544922,35.79,0
-0.9941512942314148,-0.1264298856258392,-0.1931011825799942,5.736825466156006,0.3076947927474975,77.07840728759766,35.79,0
-0.9962466359138488,-0.1259176135063171,-0.1910945177078247,6.533294677734375,0.3067139685153961,77.11122131347656,35.79,0
-0.9975913166999816,-0.1255888640880584,-0.1954045295715332,6.678999900817871,0.3060845136642456,77.13227844238281,35.79,0
-0.9984542727470398,-0.1253778934478759,-0.1981704533100128,6.632784843444824,0.3056805729866028,77.14579010009766,35.79,0
-0.999008059501648,-0.1252425163984298,-0.1999454498291015,6.395337104797363,0.3054213523864746,77.15446472167969,35.79,0
-0.9993634223937988,-0.1251556277275085,-0.201084554195404,5.795135021209717,0.3043367862701416,77.16002655029297,35.79,0
-0.9995914697647096,-0.1250998675823211,-0.2018155604600906,4.994380950927734,0.3036407828330993,77.1635971069336,35.79,0
-0.9997377991676332,-0.1250640898942947,-0.2022846788167953,4.34794807434082,0.3031941056251526,77.1658935546875,35.79,0
-0.9998317360877992,-0.125041127204895,-0.2025857269763946,3.850705146789551,0.3029074668884277,77.16736602783203,35.79,0
-0.999891996383667,-0.1250263899564743,-0.197181150317192,3.1661806106567383,0.3027235269546509,77.1683120727539,35.79,0
-0.9999306797981262,-0.1250169426202774,-0.1993105858564376,2.146514892578125,0.3026054799556732,77.16891479492188,35.79,0
-0.9999555349349976,-0.1250108778476715,-0.2006771266460418,0.9261052012443542,0.3025297224521637,77.16930389404297,35.79,0
-0.9999714493751526,-0.1250069737434387,-0.2015540897846222,-0.4517911076545715,0.302481085062027,77.1695556640625,35.79,0
-0.999981701374054,-0.1250044703483581,-0.2021168768405914,-2.1277947425842285,0.3038270175457001,77.16971588134766,35.79,0
-0.9999882578849792,-0.1250028759241104,-0.2024780511856079,-4.109748840332031,0.3046907782554626,77.16981506347656,35.79,0
-0.9999924898147584,-0.125001847743988,-0.202709823846817,-6.10533332824707,0.3052450716495514,77.16988372802734,35.79,0
-0.9999951720237732,-0.1250011920928955,-0.202858567237854,-7.962779521942139,0.3056007921695709,77.169921875,35.79,0
-0.9999969005584716,-0.1250007599592209,-0.2029540240764618,-9.985939025878906,0.3058290779590606,77.16995239257812,35.79,0
-0.9999980330467224,-0.1250004917383194,-0.2030152827501297,-12.326815605163574,0.3059755861759186,77.16996765136719,35.79,0
-0.9999987483024596,-0.125000312924385,-0.203054592013359,-14.223138809204102,0.3060695827007293,77.16997528076172,35.79,0
-1.0055969953536987,-0.1250001937150955,-0.2030798196792602,-14.265005111694336,0.3061299324035644,77.16998291015625,35.79,0
-1.003591775894165,-0.1250001192092895,-0.2030960023403167,-11.493881225585938,0.3057097196578979,77.16999053955078,35.79,0
-0.9967072010040284,-0.1194023042917251,-0.2031063884496688,-6.215356826782227,0.3054400384426117,77.16999053955078,35.79,0
-0.992289125919342,-0.1158099472522735,-0.1975152790546417,0.0739825665950775,0.3052669763565063,77.16999053955078,35.79,0
-0.9950516223907472,-0.1079068034887313,-0.1939272284507751,5.643460750579834,0.3051559329032898,77.16999053955078,35.79,0
-0.9968244433403016,-0.108432799577713,-0.1972223967313766,9.507820129394531,0.3050846755504608,77.16999053955078,35.79,0
-0.9979621171951294,-0.1087703481316566,-0.2105325907468795,11.561416625976562,0.3050389289855957,77.16999053955078,35.79,0
-1.004289984703064,-0.1089869663119316,-0.2134765386581421,12.205772399902344,0.3050095736980438,77.16999053955078,35.79,0
-1.0027530193328855,-0.1147237569093704,-0.2153657972812652,12.089061737060549,0.3049907386302948,77.16999053955078,35.79,0
-0.9961689710617064,-0.1128075271844863,-0.2165782153606414,11.813539505004885,0.3036015033721924,77.34195709228516,35.79,0
-0.9863459467887878,-0.1115778014063835,-0.2173562794923782,11.58298683166504,0.3027099668979645,77.45231628417969,35.79,0
-0.980042040348053,-0.1163864061236381,-0.2122578173875808,11.241572380065918,0.3021378517150879,77.52313995361328,35.79,0
-0.987192153930664,-0.1138745173811912,-0.1921925991773605,10.635554313659668,0.3017706871032715,77.56858825683594,35.79,0
-0.997378408908844,-0.1122625321149826,-0.1849136650562286,9.805989265441896,0.3015350699424743,77.5977554321289,35.79,0
-1.0039154291152954,-0.1168258264660835,-0.1746446937322616,8.807887077331543,0.3013838529586792,77.61647033691406,35.79,0
-1.008110523223877,-0.1253520548343658,-0.1736524254083633,7.612063884735107,0.3012868165969848,77.62848663330078,35.79,0
-1.0108026266098022,-0.1364214718341827,-0.1674178689718246,6.2929368019104,0.3012245595455169,77.63619232177734,35.79,0
-1.006932497024536,-0.1491229683160781,-0.1634168922901153,4.937671184539795,0.3025617301464081,77.6411361694336,35.79,0
-1.0044488906860352,-0.1572740525007248,-0.1608493030071258,3.290520668029785,0.3034198582172394,77.6443099975586,35.79,0
-1.0028550624847412,-0.162504956126213,-0.1647993475198745,0.9222517609596252,0.3039705455303192,77.64634704589844,35.79,0
-1.0018322467803955,-0.1658618450164795,-0.1673342585563659,-2.209726333618164,0.3043239414691925,77.64765930175781,35.79,0
-1.001175880432129,-0.168016105890274,-0.1689610183238983,-5.487881183624268,0.3045507371425628,77.64849853515625,35.79,0
-1.0007545948028564,-0.1582030355930328,-0.164407193660736,-7.79940128326416,0.3046962916851043,77.64904022216797,35.79,0
-1.0004842281341553,-0.1519055664539337,-0.167082592844963,-7.9787445068359375,0.3047896921634674,77.64938354492188,35.79,0
-1.0003107786178589,-0.1478642225265503,-0.1687995046377182,-5.639772415161133,0.304849624633789,77.64960479736328,35.79,0
-1.0001994371414185,-0.1452707201242447,-0.1643035560846328,-1.6202040910720823,0.3048880994319916,77.64974975585938,35.79,0
-1.0001280307769775,-0.1380085796117782,-0.1782116293907165,2.6359689235687256,0.3049127757549286,77.64984130859375,35.79,0
-1.0000821352005005,-0.144543707370758,-0.1759414821863174,5.979956150054932,0.3049286305904388,77.64990234375,35.79,0
-1.0000526905059814,-0.1487375795841217,-0.1688868552446365,7.914562702178955,0.304938793182373,77.64994049072266,35.79,0
-1.0000338554382324,-0.1458311825990677,-0.1699573844671249,8.539878845214844,0.3049453198909759,77.64996337890625,35.79,0
-1.0000216960906982,-0.1383682489395141,-0.1762421578168869,8.342880249023438,0.3049494922161102,77.64997863769531,35.79,0
-0.9944161772727966,-0.1391767412424087,-0.1746775954961776,7.79729700088501,0.3049521744251251,77.64998626708984,35.79,0
-0.9964166283607484,-0.1396955847740173,-0.179271325469017,7.06383752822876,0.3049539029598236,77.64999389648438,35.79,0
-0.9977003931999208,-0.1400285512208938,-0.182219311594963,6.109497547149658,0.304036796092987,77.64999389648438,35.79,0
-0.998524248600006,-0.1402422338724136,-0.1785133779048919,4.991913795471191,0.3034482598304748,77.64999389648438,35.79,0
-0.9990529417991638,-0.1459771394729614,-0.1761351227760315,3.9845244884490967,0.3030705749988556,77.64999389648438,35.79,0
-0.9993922114372252,-0.1496574729681015,-0.1690111309289932,3.2377278804779053,0.3028281927108764,77.64999389648438,35.79,0
-0.9996099472045898,-0.1520192921161651,-0.1644393652677536,2.339315414428711,0.3026726543903351,77.64999389648438,35.79,0
-0.9997496604919434,-0.1535349786281585,-0.1671032309532165,0.6270895004272461,0.3025728166103363,77.64999389648438,35.79,0
-0.9998393654823304,-0.1545076519250869,-0.1688127517700195,-2.0480518341064453,0.3025087416172027,77.64999389648438,35.79,0
-0.9998969435691832,-0.1551318615674972,-0.1699098199605941,-5.495187759399414,0.3024676442146301,77.64999389648438,35.79,0
-0.9999338388442992,-0.1555324494838714,-0.1706138551235199,-9.89631462097168,0.3033594787120819,77.85061645507812,35.81,0
-0.99995756149292,-0.1557895243167877,-0.1710656732320785,-15.715737342834473,0.3039318025112152,77.9793701171875,35.81,0
-1.0055705308914185,-0.1559544950723648,-0.1713556200265884,-23.15110969543457,0.3042990863323211,78.06199645996094,35.81,0
-1.0035748481750488,-0.1560603678226471,-0.171541690826416,-31.802631378173828,0.3045347929000854,78.11502075195312,35.81,0
-1.0022941827774048,-0.1561283022165298,-0.1772588789463043,-40.17416763305664,0.304686039686203,78.1490478515625,35.81,0
-1.001472234725952,-0.1505741328001022,-0.1809278428554535,-46.04093170166016,0.3047831058502197,78.17088317871094,35.81,0
-1.0009448528289795,-0.1470097750425338,-0.1776845902204513,-48.648712158203125,0.30484539270401,78.18489837646484,35.81,0
-1.0006062984466553,-0.1447223871946334,-0.1756032556295395,-49.942481994628906,0.3048853874206543,78.19389343261719,35.81,0
-1.0003890991210938,-0.1432544738054275,-0.1798653602600097,-52.28101348876953,0.3049110472202301,78.19966125488281,35.81,0
-1.0002497434616089,-0.1423124521970749,-0.1826005280017852,-55.37241363525391,0.3049274981021881,78.20336151123047,35.81,0
-1.0001602172851562,-0.1417079120874405,-0.1787580251693725,-56.09164810180664,0.3049380779266357,78.20574188232422,35.81,0
-1.0001028776168823,-0.1413199454545974,-0.1818899065256118,-50.89990615844727,0.3049448430538177,78.20726776123047,35.81,0
-1.0000660419464111,-0.1410709768533706,-0.1838997602462768,-38.79083633422852,0.3049491941928863,78.20824432373047,35.81,0
-1.00004243850708,-0.1409112066030502,-0.1795918047428131,-22.486234664916992,0.3049519956111908,78.20886993408203,35.81,0
-1.0000271797180176,-0.1408086717128753,-0.1768272072076797,-6.287177562713623,0.304953783750534,78.20927429199219,35.81,0
-1.0000174045562744,-0.1407428681850433,-0.1750530451536178,7.189460277557373,0.3049549460411072,78.20953369140625,35.81,0
-1.0000112056732178,-0.1407006382942199,-0.1739144921302795,17.715261459350586,0.304037481546402,78.20970153808594,35.81,0
-1.000007152557373,-0.1406735330820083,-0.1787815988063812,25.9497184753418,0.3034487068653106,78.20980834960938,35.81,0
-1.0000046491622925,-0.1406561434268951,-0.1763072609901428,32.39128875732422,0.3030708432197571,78.20987701416016,35.81,0
-1.0000029802322388,-0.1406449824571609,-0.174719363451004,37.21297454833984,0.3028283715248108,78.20992279052734,35.81,0
-1.0000019073486328,-0.1406378298997879,-0.1737003475427627,40.34666061401367,0.3026727437973022,78.20995330810547,35.81,0
-1.0000011920928955,-0.1350354552268982,-0.1786441802978515,41.741477966308594,0.3025728762149811,78.20996856689453,35.81,0
-1.0000007152557373,-0.1314401775598526,-0.1818168461322784,41.543907165527344,0.3025088012218475,78.20997619628906,35.81,0
-1.0000004768371582,-0.129132941365242,-0.183852881193161,39.86586380004883,0.3024676740169525,78.2099838256836,35.81,0
-1.0000003576278689,-0.1276522874832153,-0.1851594895124435,36.646610260009766,0.3033595085144043,78.20999145507812,35.81,0
-1.000000238418579,-0.1267020851373672,-0.1859979927539825,32.06212615966797,0.3039318323135376,78.20999145507812,35.81,0
-1.0000001192092896,-0.1260922998189926,-0.1865361034870147,26.63376235961914,0.3042991161346435,78.20999145507812,35.81,0
-1.0000001192092896,-0.1257009804248809,-0.186881422996521,20.61368751525879,0.3045348227024078,78.20999145507812,35.81,0
-1.0000001192092896,-0.125449851155281,-0.1871030330657959,13.877123832702637,0.3046860694885254,78.20999145507812,35.81,0
-1.0000001192092896,-0.1252886950969696,-0.1872452497482299,6.931540489196777,0.3047831356525421,78.20999145507812,35.81,0
-1.0000001192092896,-0.1251852661371231,-0.1873365193605423,1.5177167654037476,0.3048454225063324,78.20999145507812,35.81,0
-1.0000001192092896,-0.1251188963651657,-0.1873950809240341,-0.390978068113327,0.3048853874206543,78.20999145507812,35.81,0
-1.0000001192092896,-0.1250762939453125,-0.187432661652565,1.801908493041992,0.3044517636299133,78.41061401367188,35.81,0
-1.0000001192092896,-0.1250489652156829,-0.1874567866325378,6.888482093811035,0.304173469543457,78.53936767578125,35.81,0
-1.0000001192092896,-0.1194336488842964,-0.1874722689390182,12.84684944152832,0.3039948940277099,78.62199401855469,35.81,0
-1.0000001192092896,-0.1158300638198852,-0.1874822080135345,18.057043075561523,0.3038802742958069,78.67501831054688,35.81,0
-1.0000001192092896,-0.1135174855589866,-0.1874885857105255,21.651426315307617,0.303806722164154,78.70904541015625,35.81,0
-1.0000001192092896,-0.112033411860466,-0.1874926686286926,23.402795791625977,0.3037595450878143,78.73088073730469,35.81,0
-1.0000001192092896,-0.1110810190439224,-0.1818975210189819,23.71706199645996,0.3037292659282684,78.7448959350586,35.81,0
-1.0000001192092896,-0.1104698255658149,-0.1783068776130676,23.392099380493164,0.3037098348140716,78.75389099121094,35.81,0
-1.0000001192092896,-0.1156753674149513,-0.1816003769636154,22.87545585632324,0.3023202121257782,78.75965881347656,35.81,0
-1.0000001192092896,-0.119015984237194,-0.1837139576673507,22.074586868286133,0.3014284372329712,78.76335906982422,35.81,0
-1.0000001192092896,-0.1155620291829109,-0.1794725656509399,20.98025894165039,0.3008561432361603,78.76573944091797,35.81,0
-1.0000001192092896,-0.113345481455326,-0.1767506748437881,19.85881996154785,0.3004888892173767,78.76726531982422,35.81,0
-1.0000001192092896,-0.1119230240583419,-0.1806017011404037,18.70565223693848,0.3002531826496124,78.76824188232422,35.81,0
-1.0000001192092896,-0.1110101714730262,-0.1830730736255645,17.18819808959961,0.3001019358634949,78.76886749267578,35.81,0
-1.0000001192092896,-0.1104243621230125,-0.1846590489149093,15.307991027832031,0.3000048696994781,78.76927185058594,35.81,0
-1.0000001192092896,-0.1100484207272529,-0.1856768429279327,13.460101127624512,0.2999425828456878,78.76953125,35.81,0
-1.0000001192092896,-0.1098071634769439,-0.1863300055265426,11.679524421691896,0.3008208274841308,78.76969909667969,35.81,0
-1.0000001192092896,-0.1096523404121398,-0.1867491602897644,9.530149459838867,0.3013844192028045,78.76980590820312,35.81,0
-1.0000001192092896,-0.1095529794692993,-0.1870181560516357,6.835999011993408,0.3017461001873016,78.7698745727539,35.81,0
-1.0000001192092896,-0.1094892174005508,-0.1871907860040664,4.028693199157715,0.3019782304763794,78.7699203491211,35.81,0
-1.0000001192092896,-0.1094482988119125,-0.1817037910223007,1.8617031574249268,0.3021271824836731,78.76995086669922,35.81,0
-1.0000001192092896,-0.1150198131799697,-0.1781825572252273,1.083674073219299,0.3022227585315704,78.76996612548828,35.81,0
-1.0000001192092896,-0.1185952872037887,-0.1759228259325027,2.06040096282959,0.3022841215133667,78.76997375488281,35.81,0
-1.0000001192092896,-0.1152920499444007,-0.1744726598262787,4.435504913330078,0.3023234903812408,78.76998138427734,35.81,0
-1.0000001192092896,-0.118769995868206,-0.1791398078203201,7.424983501434326,0.3023487627506256,78.76998901367188,35.81,0
-1.0000001192092896,-0.1210019439458847,-0.1821349114179611,10.31791877746582,0.3023649752140045,78.76998901367188,35.81,0
-1.0000001192092896,-0.1224342808127403,-0.1784592270851135,12.62942600250244,0.3023753762245178,78.76998901367188,35.81,0
-1.0000001192092896,-0.1177556961774826,-0.1761003732681274,14.1880521774292,0.3023820519447326,78.76998901367188,35.81,0
-1.0000001192092896,-0.1203510239720344,-0.1745865941047668,15.095141410827637,0.3023863434791565,78.76998901367188,35.81,0
-1.0000001192092896,-0.1164187788963317,-0.1792129129171371,15.379905700683594,0.3023890852928161,78.76998901367188,35.81,0
-1.0000001192092896,-0.1138952895998954,-0.1765840500593185,14.921369552612305,0.302390843629837,78.76998901367188,35.81,0
-1.0000001192092896,-0.1178736388683319,-0.1804947704076767,13.824610710144045,0.3023919761180877,78.76998901367188,35.81,0
-1.0000001192092896,-0.1204267144203186,-0.1830044537782669,12.411423683166504,0.3014744818210602,78.96703338623047,35.81,0
-1.0000001192092896,-0.1220651268959045,-0.1846150159835815,10.798754692077637,0.3008857071399688,79.0934829711914,35.81,0
-1.0000001192092896,-0.1231165677309036,-0.1800508052110672,8.818036079406738,0.3005078434944153,79.17463684082031,35.81,0
-1.0000001192092896,-0.1237913221120834,-0.1771217584609985,6.2643632888793945,0.300265371799469,79.22671508789062,35.81,0
-1.0000001192092896,-0.124224342405796,-0.1752420663833618,3.12804651260376,0.3001097440719604,79.2601318359375,35.81,0
-1.0000001192092896,-0.1245022267103195,-0.1796335577964782,-0.360682338476181,0.3000098764896393,79.28157806396484,35.81,0
-1.0000001192092896,-0.1246805563569068,-0.1768539994955063,-3.864197015762329,0.2999458014965057,79.29534149169922,35.81,0
-1.0000001192092896,-0.1247949972748756,-0.1750702410936355,-7.255392551422119,0.2999046742916107,79.3041763305664,35.81,0
-1.0000001192092896,-0.1248684376478195,-0.173925518989563,-10.993669509887695,0.3007965087890625,79.30984497070312,35.81,0
-1.0000001192092896,-0.1249155700206756,-0.1787886768579483,-15.750015258789062,0.3013688325881958,79.31348419189453,35.81,0
-1.0000001192092896,-0.1249458193778991,-0.1763118058443069,-21.04505729675293,0.3017361164093017,79.3158187866211,35.81,0
-1.0000001192092896,-0.1249652281403541,-0.174722284078598,-24.76554107666016,0.301971822977066,79.31731414794922,35.81,0
-1.0000001192092896,-0.1249776855111122,-0.1737022250890731,-24.86028480529785,0.3021230697631836,79.31827545166016,35.81,0
-1.0000001192092896,-0.1249856799840927,-0.1730476021766662,-21.32776260375977,0.3022201359272003,79.31889343261719,35.81,0
-1.0000001192092896,-0.1305885910987854,-0.1726275086402893,-16.090839385986328,0.3022824227809906,79.31929016113281,35.81,0
-1.0000001192092896,-0.1341842114925384,-0.1723579168319702,-11.1895751953125,0.3023223876953125,79.31954193115234,35.81,0
-1.0000001192092896,-0.1364916712045669,-0.1721849143505096,-7.539083003997803,0.3018891215324402,79.3197021484375,35.81,0
-1.0000001192092896,-0.1379724740982055,-0.1776716560125351,-5.13550329208374,0.301611065864563,79.31980895996094,35.81,0
-1.0000001192092896,-0.1333249807357788,-0.1755949556827545,-3.732744693756104,0.3014326393604278,79.31987762451172,35.81,0
-1.0000001192092896,-0.130342498421669,-0.1742622554302215,-3.0725674629211426,0.3013181388378143,79.3199234008789,35.81,0
-1.0000001192092896,-0.128428503870964,-0.1734070032835006,-2.9462575912475586,0.3012446463108063,79.31995391845703,35.81,0
-1.0000001192092896,-0.1272002160549163,-0.1728581488132476,-3.284360408782959,0.3011974990367889,79.3199691772461,35.81,0
-1.0000001192092896,-0.1264119744300842,-0.1725059300661087,-3.9742352962493896,0.301167219877243,79.31997680664062,35.81,0
-1.0000001192092896,-0.1259061247110366,-0.1722798943519592,-4.760884761810303,0.3011477887630462,79.31998443603516,35.81,0
-1.0000001192092896,-0.1255815029144287,-0.1777326166629791,-5.534404277801514,0.3006760478019714,79.31999206542969,35.81,0
-1.0000001192092896,-0.1253731697797775,-0.1812318563461303,-6.349653720855713,0.3003733158111572,79.31999206542969,35.81,0
-1.0000001192092896,-0.1252394765615463,-0.1834774613380432,-7.116448879241943,0.3001790344715118,79.31999206542969,35.81,0
-1.0000001192092896,-0.1251536756753921,-0.1793207973241806,-7.741089344024658,0.3000543415546417,79.31999206542969,35.81,0
-1.0000001192092896,-0.1250986158847808,-0.1766532808542251,-8.403475761413574,0.2999743223190307,79.31999206542969,35.81,0
-1.0000001192092896,-0.1250632852315902,-0.1749414205551147,-9.190397262573242,0.2999229729175567,79.31999206542969,35.81,0
-1.0000001192092896,-0.1250406056642532,-0.1738428473472595,-9.89960479736328,0.2998900115489959,79.31999206542969,35.81,0
-1.0055978298187256,-0.125026062130928,-0.1731378585100174,-10.50520133972168,0.2998688817024231,79.31999206542969,35.81,0
-1.0035923719406128,-0.1250167191028595,-0.1782831996679306,-11.420477867126465,0.3003146052360534,79.52778625488281,35.81,0
-1.0023053884506226,-0.1250107288360595,-0.1815851926803589,-13.104117393493652,0.3006006479263305,79.6611328125,35.81,0
-1.0014795064926147,-0.1250068843364715,-0.18370421230793,-15.56745433807373,0.3007842004299164,79.74671173095703,35.81,0
-1.000949501991272,-0.1250044107437133,-0.1850640773773193,-17.94719696044922,0.3009020090103149,79.80162811279297,35.81,0
-1.000609278678894,-0.1250028312206268,-0.185936763882637,-18.571569442749023,0.3009775876998901,79.83686828613281,35.81,0
-1.0003910064697266,-0.1250018179416656,-0.1808990240097046,-16.267410278320312,0.3010261058807373,79.85948944091797,35.81,0
-1.0002509355545044,-0.1194033920764923,-0.1776660978794098,-11.582329750061035,0.3010572493076324,79.8740005493164,35.81,0
-1.000161051750183,-0.1214084178209304,-0.18118916451931,-6.1718058586120605,0.3010772168636322,79.88331604003906,35.81,0
-1.0001033544540403,-0.1226951256394386,-0.1834500730037689,-1.34901225566864,0.301548957824707,79.88929748535156,35.81,0
-1.0000662803649902,-0.1235208660364151,-0.1849009841680526,2.304861307144165,0.3018516898155212,79.89313507080078,35.81,0
-1.0000425577163696,-0.1240507736802101,-0.1858320981264114,4.581637859344482,0.3020459711551666,79.89559173583984,35.81,0
-1.0000272989273071,-0.1243908405303955,-0.1864296346902847,5.623580455780029,0.3021706640720367,79.89717102050781,35.81,0
-1.000017523765564,-0.12460907548666,-0.1868131011724472,5.869495391845703,0.3022506833076477,79.89818572998047,35.81,0
-1.0000112056732178,-0.1191513538360595,-0.1870591938495636,5.6368088722229,0.3023020327091217,79.89883422851562,35.81,0
-1.000007152557373,-0.115648902952671,-0.187217116355896,5.039661884307861,0.3023349940776825,79.89925384521484,35.81,0
-1.0000046491622925,-0.1189990043640136,-0.1873184591531753,4.208625316619873,0.3023561239242553,79.89952087402344,35.81,0
-1.0000029802322388,-0.121148906648159,-0.1873835027217865,3.3278040885925293,0.3014514744281769,79.89969635009766,35.81,0
-1.0000019073486328,-0.1169308125972747,-0.1874252408742904,2.5475893020629883,0.3008709251880646,79.8998031616211,35.81,0
-1.0000011920928955,-0.1142238825559616,-0.181854248046875,1.9143370389938357,0.300498366355896,79.89987182617188,35.81,0
-1.0000007152557373,-0.1124867349863052,-0.1782791018486023,1.3073279857635498,0.3002592921257019,79.89991760253906,35.81,0
-1.0000004768371582,-0.1113719344139099,-0.1815825551748275,0.5666921138763428,0.3001058399677276,79.89994812011719,35.81,0
-1.0000003576278689,-0.110656514763832,-0.1837025284767151,-0.2131242603063583,0.3000073730945587,79.89997100830078,35.81,0
-1.000000238418579,-0.110197402536869,-0.1850630044937133,-0.8676162958145142,0.2999441921710968,79.89997863769531,35.81,0
-1.0000001192092896,-0.1099027693271637,-0.1859360784292221,-1.545577049255371,0.2999036312103271,79.89998626708984,35.81,0
-1.0000001192092896,-0.1153114661574363,-0.1864963620901107,-2.54311752319336,0.2998776137828827,79.89999389648438,35.81,0
-1.0000001192092896,-0.118782453238964,-0.1868559271097183,-4.007274150848389,0.2998609244823456,79.89999389648438,35.81,0
-1.0000001192092896,-0.1154121607542038,-0.187086671590805,-5.97150182723999,0.299850195646286,79.89999389648438,35.81,0
-1.0000001192092896,-0.1132493019104003,-0.1872347444295883,-8.05243968963623,0.2998433113098144,79.89999389648438,35.81,0
-1.0000001192092896,-0.111861303448677,-0.1873297691345214,-9.040356636047363,0.2998389005661011,79.89999389648438,35.81,0
-1.0000001192092896,-0.110970564186573,-0.1873907595872879,-7.603616237640381,0.2998360693454742,79.89999389648438,35.81,0
-1.0000001192092896,-0.1103989407420158,-0.1874298900365829,-3.6471571922302246,0.2998342514038086,79.89999389648438,35.81,0
-1.0000001192092896,-0.1156298816204071,-0.1874550133943557,1.4784902334213257,0.2998330891132355,79.89999389648438,35.81,0
-1.0000001192092896,-0.1189868003129959,-0.1874711364507675,6.139962196350098,0.3012094795703888,80.11495208740234,35.79,0
-1.0000001192092896,-0.1155432984232902,-0.187481477856636,9.42161464691162,0.3020927608013153,80.25289916992188,35.79,0
-1.0000001192092896,-0.1133334562182426,-0.1874881088733673,11.14067268371582,0.3026596009731293,80.34142303466797,35.79,0
-1.0000001192092896,-0.1175130829215049,-0.1874923706054687,11.566758155822754,0.3030233681201935,80.39823150634766,35.79,0
-1.0000001192092896,-0.1145975515246391,-0.1874950975179672,11.29206085205078,0.3032568097114563,80.4346923828125,35.79,0
-1.0000001192092896,-0.1127265319228172,-0.1874968558549881,10.922317504882812,0.3034066259860992,80.45809173583984,35.79,0
-1.0000001192092896,-0.1115258187055587,-0.1874979883432388,10.606220245361328,0.3035027682781219,80.47310638427734,35.79,0
-1.0000001192092896,-0.1107552722096443,-0.1874987035989761,10.005702018737791,0.3035644590854645,80.48274230957031,35.79,0
-1.0000001192092896,-0.1158585548400878,-0.1874991655349731,8.828574180603027,0.3031451404094696,80.48892211914062,35.79,0
-1.0000001192092896,-0.1191335469484329,-0.187499463558197,7.24916934967041,0.3028760254383087,80.49288940429688,35.79,0
-1.0000001192092896,-0.1212352514266967,-0.1874996572732925,5.723289489746094,0.3027033507823944,80.49543762207031,35.79,0
-1.0000001192092896,-0.1169862300157547,-0.1874997764825821,4.396557807922363,0.3025925159454345,80.4970703125,35.79,0
-1.0000001192092896,-0.1142594516277313,-0.1819020807743072,2.9862561225891118,0.3025214076042175,80.49812316894531,35.79,0
-1.0000001192092896,-0.118107333779335,-0.1839075833559036,1.3109519481658936,0.3024757504463196,80.49879455566406,35.79,0
-1.0000001192092896,-0.120576687157154,-0.1851945966482162,-0.5308330059051514,0.3024464547634125,80.49922943115234,35.79,0
-1.0000001192092896,-0.1221613734960556,-0.1860205233097076,-2.5976808071136475,0.3024276494979858,80.49950408935547,35.79,0
-1.0000001192092896,-0.1231783330440521,-0.1865505576133728,-5.170800685882568,0.3019566833972931,80.49967956542969,35.79,0
-1.0000001192092896,-0.1182331815361976,-0.1868907064199447,-8.2407808303833,0.3016544282436371,80.49979400634766,35.79,0
-1.0000001192092896,-0.1206574440002441,-0.1871089935302734,-11.128056526184082,0.3014604747295379,80.49987030029297,35.79,0
-1.0000001192092896,-0.1166154220700264,-0.1872490793466568,-12.626269340515137,0.3013359904289245,80.49991607666016,35.79,0
-1.0000001192092896,-0.1196192577481269,-0.1873389780521392,-11.706884384155272,0.3012561202049255,80.49994659423828,35.79,0
-1.0000001192092896,-0.121546946465969,-0.1873966604471206,-8.429944038391113,0.3012048602104187,80.49996948242188,35.79,0
-1.0000001192092896,-0.1227840259671211,-0.1818359047174453,-3.9983181953430176,0.3011719584465027,80.4999771118164,35.79,0
-1.0000001192092896,-0.1235779151320457,-0.1782673299312591,0.2034404873847961,0.3011508285999298,80.49998474121094,35.79,0
-1.0000001192092896,-0.1240873858332634,-0.1815750002861023,3.397865295410156,0.3020551204681396,80.49999237060547,35.79,0
-1.0000001192092896,-0.1244143396615982,-0.1836976706981659,5.444280624389648,0.3026354610919952,80.49999237060547,35.79,0
-1.0000001192092896,-0.1246241554617881,-0.1850598901510238,6.624997138977051,0.3030078709125519,80.49999237060547,35.79,0
-1.0000001192092896,-0.1247588023543357,-0.1859340816736221,7.257322788238525,0.3032468855381012,80.49999237060547,35.79,0
-1.0000001192092896,-0.1248452141880989,-0.1808973103761673,7.39441967010498,0.3034002482891083,80.49999237060547,35.79,0
-1.0000001192092896,-0.1249006688594818,-0.1776649951934814,7.041743755340576,0.3034986853599548,80.49999237060547,35.79,0
-1.0000001192092896,-0.1249362528324127,-0.1755906790494918,6.410585880279541,0.3035618364810943,80.49999237060547,35.79,0
-1.0000001192092896,-0.1249590888619422,-0.1742595136165619,5.679530620574951,0.3036023676395416,80.49999237060547,35.79,0
-1.0000001192092896,-0.1249737441539764,-0.1734052449464798,4.819880485534668,0.3031694591045379,80.67195892333984,35.79,0
-1.0000001192092896,-0.1249831467866897,-0.1728570163249969,3.884871006011963,0.3028916418552398,80.78231811523438,35.79,0
-1.0000001192092896,-0.1249891817569732,-0.1725051999092102,2.973151683807373,0.3027133643627167,80.85314178466797,35.79,0
-1.0000001192092896,-0.1305908262729644,-0.1722794324159622,1.8865021467208865,0.3025989532470703,80.89859008789062,35.79,0
-1.0000001192092896,-0.1285878717899322,-0.1721345484256744,0.3830735087394714,0.302525520324707,80.9277572631836,35.79,0
-1.0000001192092896,-0.1273024827241897,-0.1720415651798248,-1.4093153476715088,0.3024784028530121,80.94647216796875,35.79,0
-1.0000001192092896,-0.1320753693580627,-0.1719818860292434,-3.2402567863464355,0.3024481534957886,80.95848846435547,35.79,0
-1.0000001192092896,-0.1351383328437805,-0.1719435900449752,-5.156842708587647,0.3024287521839142,80.96619415283203,35.79,0
-1.0000001192092896,-0.1315062046051025,-0.1719190180301666,-7.4185791015625,0.3014980852603912,80.97113800048828,35.79,0
-1.0000001192092896,-0.1291753053665161,-0.1719032526016235,-10.28156566619873,0.3009008467197418,80.97431182861328,35.79,0
-1.0000001192092896,-0.1276794672012329,-0.1774909049272537,-13.777599334716797,0.3005175590515136,80.97634887695312,35.79,0
-1.0000001192092896,-0.1267195343971252,-0.1810767352581024,-17.117420196533203,0.300271600484848,80.9776611328125,35.79,0
-1.0000001192092896,-0.1261035054922104,-0.1777801513671875,-18.59794807434082,0.3001137673854828,80.97850036621094,35.79,0
-1.0000001192092896,-0.1257081627845764,-0.1756645888090133,-16.87188148498535,0.300012469291687,80.97904205322266,35.79,0
-1.0000001192092896,-0.1254544556140899,-0.1743069440126419,-12.32133674621582,0.2999474704265594,80.97938537597656,35.79,0
-1.0000001192092896,-0.125291645526886,-0.1790334582328796,-6.814438819885254,0.2999057471752167,80.97960662841797,35.79,0
-1.0000001192092896,-0.1251871585845947,-0.1764688938856125,-2.187743663787842,0.3007971942424774,80.97975158691406,35.79,0
-1.0000001192092896,-0.1251201033592224,-0.1804208755493164,0.8852978348731995,0.3013692498207092,80.97984313964844,35.79,0
-1.0000001192092896,-0.1250770688056945,-0.1829570233821869,2.764252185821533,0.3017363846302032,80.97990417480469,35.79,0
-1.0000001192092896,-0.1250494569540023,-0.1845845729112625,4.0237956047058105,0.301971971988678,80.97994232177734,35.79,0
-1.0000001192092896,-0.1250317394733429,-0.180031269788742,4.9539055824279785,0.3021231591701507,80.97996520996094,35.79,0
-1.0000001192092896,-0.125020369887352,-0.1771092265844345,5.518553256988525,0.3022201955318451,80.97998046875,35.79,0
-1.0000001192092896,-0.125013068318367,-0.1752340197563171,5.533401966094971,0.302282452583313,80.97998809814453,35.79,0
-1.0000001192092896,-0.1250083893537521,-0.1740306317806244,4.994796752929688,0.3023224174976349,80.97999572753906,35.79,0
-1.0000001192092896,-0.1194076091051101,-0.173258364200592,4.208494186401367,0.3023480772972107,80.97999572753906,35.79,0
-1.0000001192092896,-0.1158133521676063,-0.1783605366945266,3.3886239528656006,0.3023645281791687,80.97999572753906,35.79,0
-1.0000001192092896,-0.1191045418381691,-0.1816348135471344,2.4540646076202397,0.3023750782012939,80.97999572753906,35.79,0
-1.0000001192092896,-0.121216632425785,-0.1781382858753204,1.3742531538009644,0.3023818433284759,80.97999572753906,35.79,0
-1.0000001192092896,-0.1169742792844772,-0.175894409418106,0.2979567348957062,0.3023861944675445,80.97999572753906,35.79,0
-1.0000001192092896,-0.1198495551943779,-0.1800522059202194,-0.8226574063301086,0.302388995885849,80.97999572753906,35.79,0
-1.0000001192092896,-0.1160969659686088,-0.1827204376459121,-2.218909740447998,0.3023907840251922,80.97999572753906,35.79,0
-1.0000001192092896,-0.1136887744069099,-0.1788349747657776,-3.924606323242188,0.3023919463157654,80.97999572753906,35.79,0
-1.0000001192092896,-0.1121433302760124,-0.1819392889738083,-5.764400005340576,0.3014744818210602,81.1842041015625,35.79,0
-1.0000001192092896,-0.1167493313550949,-0.1839314550161361,-7.607850074768066,0.3008857071399688,81.31525421142578,35.79,0
-1.0000001192092896,-0.1197051927447319,-0.1852099150419235,-9.482307434082031,0.3005078434944153,81.39935302734375,35.79,0
-1.0000001192092896,-0.1216020956635475,-0.1860303580760955,-11.552209854125977,0.300265371799469,81.45332336425781,35.79,0
-1.0000001192092896,-0.1172216460108757,-0.180959090590477,-13.905170440673828,0.3001097440719604,81.48796081542969,35.79,0
-1.0000001192092896,-0.1200082972645759,-0.183302417397499,-16.042116165161133,0.3000098764896393,81.51018524169922,35.79,0
-1.0000001192092896,-0.1161988377571106,-0.184806227684021,-16.790115356445312,0.2999458014965057,81.52445220947266,35.79,0
-1.0000001192092896,-0.1193519234657287,-0.1857712864875793,-15.14925479888916,0.2999046742916107,81.53360748291016,35.79,0
-1.0000001192092896,-0.1157776117324829,-0.186390608549118,-11.029560089111328,0.3003375828266144,81.53948211669922,35.79,0
-1.0000001192092896,-0.1134838312864303,-0.1867880523204803,-5.18653678894043,0.3006154000759125,81.54325103759766,35.79,0
-1.0000001192092896,-0.1120118126273155,-0.1870431154966354,1.1497987508773804,0.3007936775684356,81.54566955566406,35.79,0
-1.0000001192092896,-0.1110671535134315,-0.1872068047523498,6.591803550720215,0.300908088684082,81.5472183227539,35.79,0
-1.0000001192092896,-0.1104609295725822,-0.1873118430376052,10.223889350891112,0.3009814918041229,81.5482177734375,35.79,0
-1.0000001192092896,-0.1100718900561332,-0.1873792558908462,12.081852912902832,0.3010286092758178,81.54885864257812,35.79,0
-1.0000001192092896,-0.1098222211003303,-0.1818247437477111,12.87293815612793,0.3010588586330414,81.54927062988281,35.79,0
-1.0000001192092896,-0.1096620038151741,-0.1782601773738861,13.20506477355957,0.3010782599449157,81.54953002929688,35.79,0
-1.0000001192092896,-0.1095591858029365,-0.1815704107284546,13.206832885742188,0.3010907173156738,81.54969787597656,35.79,0
-1.0000001192092896,-0.1094932034611702,-0.1836947351694107,12.821049690246582,0.3010987043380737,81.5498046875,35.79,0
-1.0000001192092896,-0.1094508543610572,-0.1850579977035522,12.17222785949707,0.3011038303375244,81.54987335205078,35.79,0
-1.0000001192092896,-0.1150214523077011,-0.1859328597784042,11.433419227600098,0.301107108592987,81.54991912841797,35.79,0
-1.0000001192092896,-0.1185963451862335,-0.186494305729866,10.540132522583008,0.3011092245578766,81.5499496459961,35.79,0
-1.0000001192092896,-0.1152927279472351,-0.186854600906372,9.361417770385742,0.301110565662384,81.54997253417969,35.79,0
-1.0000001192092896,-0.1131726577877998,-0.187085822224617,7.938627243041992,0.3011114299297333,81.54998016357422,35.79,0
-1.0000001192092896,-0.1118121147155761,-0.1872342079877853,6.337707996368408,0.3011119961738586,81.54998779296875,35.79,0
-1.0000001192092896,-0.1109390035271644,-0.1817316561937332,4.511415481567383,0.2997352182865143,81.54999542236328,35.79,0
-1.0000001192092896,-0.1159764602780342,-0.1837982088327407,2.4939184188842773,0.2988516688346863,81.54999542236328,35.79,0
-1.0000001192092896,-0.1136114373803138,-0.185124397277832,0.3501344919204712,0.298284649848938,81.54999542236328,35.79,0
-1.0000001192092896,-0.1120937019586563,-0.1859754770994186,-2.103977918624878,0.2979207932949066,81.54999542236328,35.79,0
-1.0000001192092896,-0.1111197099089622,-0.1865216493606567,-4.922039985656738,0.297687292098999,81.54999542236328,35.79,0
-1.0000001192092896,-0.1104946509003639,-0.1868721544742584,-7.339547634124756,0.2975374162197113,81.54999542236328,35.79,0
-1.0000001192092896,-0.1100935265421867,-0.1870970875024795,-8.066972732543945,0.2974412441253662,81.54999542236328,35.79,0
-1.0000001192092896,-0.109836108982563,-0.1872414350509643,-6.377081394195557,0.2973795235157013,81.54999542236328,35.79,0
-1.0000001192092896,-0.109670914709568,-0.1817362904548645,-2.6916565895080566,0.2982577979564667,81.7828598022461,35.81,0
-1.0000001192092896,-0.1151626780629158,-0.1838011890649795,1.6617664098739624,0.2988214194774627,81.93230438232422,35.81,0
-1.0000001192092896,-0.1130891963839531,-0.185126319527626,5.30461311340332,0.2991831004619598,82.02820587158203,35.81,0
-1.0000001192092896,-0.1173563301563263,-0.1803789287805557,7.656712532043457,0.2994152307510376,82.08975219726562,35.81,0
-1.0000001192092896,-0.1200947314500808,-0.1829301118850708,8.86880111694336,0.2995641827583313,82.1292495727539,35.81,0
-1.0000001192092896,-0.1218520775437355,-0.178969532251358,9.195244789123535,0.2996597588062286,82.15459442138672,35.81,0
-1.0000001192092896,-0.1229798421263694,-0.1764278560876846,8.863768577575684,0.2997211217880249,82.17086029052734,35.81,0
-1.0000001192092896,-0.1237035766243934,-0.1747967600822448,8.296371459960938,0.299760490655899,82.1812973022461,35.81,0
-1.0000001192092896,-0.1241680309176445,-0.1737500131130218,7.835519313812256,0.2993268370628357,82.18799591064453,35.81,0
-1.0000001192092896,-0.1244660913944244,-0.1730782687664032,7.4143805503845215,0.2990485429763794,82.19229888916016,35.81,0
-1.0000001192092896,-0.1246573701500892,-0.1726471930742263,6.839599132537842,0.2988699376583099,82.19505310058594,35.81,0
-1.0000001192092896,-0.1247801184654235,-0.1723705530166626,6.1375579833984375,0.2987553179264068,82.19682312011719,35.81,0
-1.0000001192092896,-0.1248588934540748,-0.1721930205821991,5.346683502197266,0.298681765794754,82.19795989990234,35.81,0
-1.0000001192092896,-0.1249094456434249,-0.1776768565177917,4.269516468048096,0.2986345589160919,82.19869232177734,35.81,0
-1.0000001192092896,-0.124941885471344,-0.1755982935428619,2.7399299144744877,0.298604279756546,82.19915771484375,35.81,0
-1.0000001192092896,-0.1249627023935318,-0.1742644011974334,0.8698506355285645,0.2985848486423492,82.19945526123047,35.81,0
-1.0000001192092896,-0.124976061284542,-0.1734083741903305,-1.1506685018539429,0.2981134355068207,82.19964599609375,35.81,0
-1.0000001192092896,-0.1249846369028091,-0.1728590279817581,-3.2748963832855225,0.2978109121322632,82.19976806640625,35.81,0
-1.0055978298187256,-0.1249901428818702,-0.172506496310234,-5.562407970428467,0.2976167500019073,82.1998519897461,35.81,0
-1.0035923719406128,-0.1249936744570732,-0.1722802519798278,-8.201903343200684,0.2974921464920044,82.19990539550781,35.81,0
-1.0023053884506226,-0.1249959394335746,-0.1721350699663162,-11.404044151306152,0.2974121868610382,82.19993591308594,35.81,0
-1.0014795064926147,-0.124997392296791,-0.1720418930053711,-14.838285446166992,0.297360897064209,82.19995880126953,35.81,0
-1.000949501991272,-0.1249983236193656,-0.1719821095466613,-17.174739837646484,0.2973279654979706,82.1999740600586,35.81,0
-1.000609278678894,-0.124998927116394,-0.1719437390565872,-16.786123275756836,0.2973068356513977,82.19998168945312,35.81,0
-1.0003910064697266,-0.1305970847606659,-0.1719191074371338,-13.240761756896973,0.2982111275196075,82.19998931884766,35.81,0
-1.0002509355545044,-0.1285918802022934,-0.1719033122062683,-7.8666253089904785,0.2987914681434631,82.19998931884766,35.81,0
-1.000161051750183,-0.1329028308391571,-0.1718931645154953,-2.5477094650268555,0.2991638779640198,82.19998931884766,35.81,0
-1.0001033544540403,-0.1356693506240844,-0.1718866527080536,1.6323356628417969,0.2994028925895691,82.19998931884766,35.81,0
-1.0000662803649902,-0.1374447494745254,-0.1718824803829193,4.443820476531982,0.2995562553405761,82.19998931884766,35.81,0
-1.0000425577163696,-0.1329863220453262,-0.1718797981739044,5.936385631561279,0.2996546924114227,82.19998931884766,35.81,0
-1.0000272989273071,-0.1301251649856567,-0.1774758547544479,6.396250247955322,0.2997178435325622,82.19998931884766,35.81,0
-1.000017523765564,-0.1282890290021896,-0.175469309091568,6.422671794891357,0.2997583746910095,82.19998931884766,35.81,0
-1.0000112056732178,-0.1271107047796249,-0.1741816252470016,6.375141143798828,0.299784392118454,82.33255004882812,35.81,0
-1.000007152557373,-0.1263545304536819,-0.1733552664518356,6.025789260864258,0.2998010814189911,82.41761779785156,35.81,0
-1.0000046491622925,-0.1258692592382431,-0.1728249490261078,5.167479515075684,0.2998118102550506,82.47220611572266,35.81,0
-1.0000029802322388,-0.1255578398704528,-0.1724846214056015,4.1580963134765625,0.2998186945915222,82.50724029541016,35.81,0
-1.0000019073486328,-0.125357985496521,-0.1722662150859832,3.3956897258758545,0.2998231053352356,82.52972412109375,35.81,0
-1.0000011920928955,-0.1252297312021255,-0.1721260547637939,2.738039970397949,0.2998259365558624,82.54415130615234,35.81,0
-1.0000007152557373,-0.1251474320888519,-0.1720361113548278,1.8359330892562864,0.2998277544975281,82.55341339111328,35.81,0
-1.0000004768371582,-0.1250946074724197,-0.1719783991575241,0.6551401019096375,0.2998289167881012,82.55935668945312,35.81,0
-1.0000003576278689,-0.1250607073307037,-0.1719413548707962,-0.6973323822021484,0.2989118099212646,82.56317138671875,35.81,0
-1.000000238418579,-0.1250389516353607,-0.171917587518692,-2.357020616531372,0.29832324385643,82.56562042236328,35.81,0
-1.0000001192092896,-0.1250250041484832,-0.1719023287296295,-4.425234317779541,0.2979455590248108,82.56719207763672,35.81,0
-1.0000001192092896,-0.1250160485506057,-0.1718925386667251,-6.537078380584717,0.2977031767368316,82.56819915771484,35.81,0
-1.0000001192092896,-0.1250102967023849,-0.1774840354919433,-8.254179000854492,0.2975476384162903,82.56884765625,35.81,0
-1.0000001192092896,-0.1250066012144088,-0.181072324514389,-9.74661636352539,0.2974478006362915,82.56925964355469,35.81,0
-1.0000001192092896,-0.125004231929779,-0.1777773201465606,-11.574942588806152,0.2973837256431579,82.56952667236328,35.81,0
-1.0000001192092896,-0.1250027120113372,-0.1756627708673477,-13.87318515777588,0.2973426282405853,82.56969451904297,35.81,0
-1.0000001192092896,-0.1250017434358596,-0.1743057668209076,-15.84962558746338,0.2982341051101684,82.5698013305664,35.81,0
-1.0000001192092896,-0.1250011175870895,-0.1734349280595779,-16.114870071411133,0.298806220293045,82.56986999511719,35.81,0
-1.0000001192092896,-0.1194029450416565,-0.1728760749101638,-13.859684944152832,0.299173355102539,82.56991577148438,35.81,0
-1.0000001192092896,-0.1214081346988678,-0.1725174337625503,-9.646688461303713,0.2994089722633362,82.5699462890625,35.81,0
-1.0000001192092896,-0.1226949468255043,-0.1778850555419922,-4.793485164642334,0.2995601594448089,82.5699691772461,35.81,0
-1.0000001192092896,-0.1235207468271255,-0.1813296824693679,-0.3247648477554321,0.2996571958065033,82.56997680664062,35.81,0
-1.0000001192092896,-0.1240506991744041,-0.177942469716072,3.1412930488586426,0.2997194528579712,82.56998443603516,35.81,0
-1.0000001192092896,-0.1243907958269119,-0.1757687479257583,5.329783439636231,0.2997594177722931,82.56999206542969,35.81,0
-1.0000001192092896,-0.1246090456843376,-0.1799715608358383,6.5264410972595215,0.2997850775718689,82.56999206542969,35.81,0
-1.0000001192092896,-0.1247491091489791,-0.1770709007978439,7.179745197296143,0.2998015284538269,82.56999206542969,35.81,0
-1.0000001192092896,-0.1248389929533004,-0.1752094328403473,7.301643848419189,0.2998120784759521,82.56999206542969,35.81,0
-1.0000001192092896,-0.1192988976836204,-0.1740148514509201,6.846067905426025,0.2998188436031341,82.56999206542969,35.81,0
-1.0000001192092896,-0.1157435849308967,-0.1732482314109802,6.267099380493164,0.2998231947422027,82.56999206542969,35.81,0
-1.0000001192092896,-0.1134619936347007,-0.1783540397882461,6.092592239379883,0.2998259961605072,82.56999206542969,35.81,0
-1.0000001192092896,-0.1119977980852127,-0.1816306561231613,6.199140548706055,0.2998277842998504,82.56999206542969,35.81,0
-1.0000001192092896,-0.1166559383273124,-0.1837333887815475,6.14212703704834,0.2998289465904236,82.56999206542969,35.81,0
-1.0000001192092896,-0.1140474900603294,-0.1794850379228592,5.818933010101318,0.2989118099212646,82.66313934326172,35.81,0
-1.0000001192092896,-0.1123735383152961,-0.1767586916685104,5.278346538543701,0.29832324385643,82.72291564941406,35.81,0
-1.0000001192092896,-0.1168970614671707,-0.1750090718269348,4.336721420288086,0.2979455590248108,82.76128387451172,35.81,0
-1.0000001192092896,-0.1198000013828277,-0.1794840395450592,2.8797876834869385,0.2977031767368316,82.78590393066406,35.81,0
-1.0000001192092896,-0.121662937104702,-0.1823558211326599,1.1781402826309204,0.2975476384162903,82.80170440673828,35.81,0
-1.0000001192092896,-0.1228584647178649,-0.1786009818315506,-0.4082744121551513,0.2974478006362915,82.81184387207031,35.81,0
-1.0000001192092896,-0.1236256882548332,-0.1817891150712967,-1.8562530279159544,0.2973837256431579,82.81835174560547,35.81,0
-1.0000001192092896,-0.1241180449724197,-0.1838350892066955,-3.4303460121154785,0.2973426282405853,82.82252502441406,35.81,0
-1.0000001192092896,-0.124434009194374,-0.185148075222969,-5.210762023925781,0.2973162531852722,82.82520294189453,35.81,0
-1.0000001192092896,-0.1246367767453193,-0.1859906762838363,-6.536041736602783,0.297299325466156,82.82691955566406,35.81,0
-1.0000001192092896,-0.1247669011354446,-0.1809336245059967,-6.258018970489502,0.2972884476184845,82.8280258178711,35.81,0
-1.0000001192092896,-0.1248504072427749,-0.1776883006095886,-3.922889471054077,0.2972814738750458,82.8287353515625,35.81,0
-1.0000001192092896,-0.1249039992690086,-0.1756056398153305,-0.378687173128128,0.2972770035266876,82.82918548583984,35.81,0
-1.0000001192092896,-0.1193406209349632,-0.1798668801784515,3.117436170578003,0.2972741425037384,82.82947540283203,35.81,0
-1.0000001192092896,-0.1157703623175621,-0.1826014965772628,5.880520343780518,0.2972722947597503,82.82966613769531,35.81,0
-1.0000001192092896,-0.1190769523382186,-0.1843564212322235,7.750438690185547,0.2972711026668548,82.82978820800781,35.81,0
-1.0000001192092896,-0.1211989298462867,-0.1854826360940933,8.778480529785156,0.2986474931240082,82.82986450195312,35.81,0
