acc_x,acc_y,acc_z,bvp,eda,hr,temp,label
0.0,0.0,0.0,0.0,0.0,0.0,29.91,0
-0.0338541641831398,-0.1093749925494194,0.1145833283662796,-5.393332958221436,0.5360003113746643,9.416666030883787,29.91,0
-0.0792682915925979,-0.2560975551605224,0.2724847495555877,-14.632439613342283,1.2550251483917236,22.04878044128418,29.91,0
-0.1237541511654853,-0.3837209343910217,0.4197985827922821,-21.877906799316406,1.8804529905319212,33.03654479980469,29.91,0
-0.1562089920043945,-0.4768290817737579,0.5326101779937744,-19.145463943481445,2.3367364406585693,41.052711486816406,29.91,0
-0.1946514397859573,-0.5453569293022156,0.6089884042739868,-1.998047113418579,2.6456594467163086,46.47999572753906,29.91,0
-0.2309813797473907,-0.6014271974563599,0.6257850527763367,28.47298622131348,2.8483574390411377,50.04107284545898,29.91,0
-0.2545104920864105,-0.6321618556976318,0.6310840845108032,70.53919982910156,2.979635000228882,52.34740829467773,29.91,0
-0.2473066002130508,-0.624009370803833,0.6400877237319946,126.45195770263672,3.0444881916046143,53.83308410644531,29.91,0
-0.2594602704048157,-0.641148030757904,0.6402801275253296,201.4642333984375,3.086172103881836,54.78799057006836,29.91,0
-0.2560718357563019,-0.657750129699707,0.6348071694374084,297.7795715332031,3.1129395961761475,55.40118789672852,29.91,0
-0.2594940066337585,-0.6684072613716125,0.6424884796142578,404.4157104492188,3.130121946334839,55.79480743408203,29.91,0
-0.2728855013847351,-0.6752471327781677,0.6474184393882751,495.1889953613281,3.1411497592926025,56.04743957519531,29.91,0
-0.2814797759056091,-0.6852344274520874,0.6505823731422424,547.383056640625,3.1482269763946533,56.209571838378906,29.91,0
-0.2869952023029327,-0.6916438341140747,0.6470150947570801,561.3897094726562,3.152768850326538,56.31361770629883,29.91,0
-0.2905347049236297,-0.6957570314407349,0.6503235697746277,553.09619140625,3.155683755874634,56.38039016723633,29.91,0
-0.2872083783149719,-0.692798912525177,0.6524467468261719,532.8416748046875,3.146078109741211,56.42324066162109,29.91,0
-0.2850737571716308,-0.6909005641937256,0.6482115387916565,502.3426208496094,3.13991379737854,56.45074081420898,29.91,0
-0.2893016338348388,-0.700877845287323,0.6510913968086243,464.4416198730469,3.135957956314087,56.468387603759766,29.91,0
-0.2920148372650146,-0.6960851550102234,0.65293949842453,424.3161926269531,3.133419275283813,56.479713439941406,29.91,0
-0.2937560379505157,-0.6874116659164429,0.6541255116462708,384.8877258300781,3.1317901611328125,56.48698043823242,29.91,0
-0.3004712164402008,-0.6818455457687378,0.6492888331413269,347.3431396484375,3.130744695663452,56.49164581298828,29.91,0
-0.2991828322410583,-0.6838712692260742,0.651782751083374,313.55474853515625,3.1300737857818604,56.4946403503418,29.91,0
-0.3039537966251373,-0.6739757657051086,0.6477854251861572,284.0433654785156,3.129643201828003,56.496559143066406,29.91,0
-0.3014177680015564,-0.718005359172821,0.6172312498092651,256.18048095703125,3.124317407608032,56.4977912902832,29.89,0
-0.3053880631923675,-0.7070766091346741,0.6144167184829712,227.24742126464844,3.120899438858032,56.49858093261719,29.89,0
-0.3079359829425812,-0.7112587094306946,0.6182082295417786,197.8819732666016,3.118705987930298,56.49908828735352,29.89,0
-0.3095710873603821,-0.7139425277709961,0.6150436401367188,170.90805053710938,3.1172983646392822,56.49941635131836,29.89,0
-0.3106203973293304,-0.7156648635864258,0.6074150204658508,147.77964782714844,3.1163949966430664,56.49962615966797,29.89,0
-0.3112937808036804,-0.7167701125144958,0.6025194525718689,127.13697814941406,3.1158154010772705,56.499759674072266,29.89,0
-0.3005303740501404,-0.7118816375732422,0.5993777513504028,107.22610473632812,3.115443468093872,56.499847412109375,29.89,0
-0.3048185706138611,-0.7087445259094238,0.5917637944221497,88.67692565917969,3.1152048110961914,56.49990081787109,29.89,0
-0.3075704872608185,-0.7067312598228455,0.5812798142433167,73.1905517578125,3.051244020462036,56.20258331298828,29.89,0
-0.2981409728527069,-0.6998414993286133,0.5633562803268433,60.39339447021485,3.010197639465332,56.01177978515625,29.89,0
-0.3032852113246918,-0.6954200863838196,0.5350606441497803,48.70223617553711,2.983856439590454,55.88933563232422,29.89,0
-0.3065864741802215,-0.6925826668739319,0.5057066082954407,38.62723159790039,2.966952323913574,55.81075668334961,29.89,0
-0.2695206105709076,-0.6739684343338013,0.4588799774646759,32.380210876464844,2.956104040145874,55.76033020019531,29.89,0
-0.2345383316278457,-0.6508273482322693,0.4176338016986847,30.191181182861328,2.9491424560546875,55.72796630859375,29.89,0
-0.2344798147678375,-0.6583678126335144,0.3687732815742492,29.63187599182129,2.9446747303009038,55.70719909667969,29.89,0
-0.234442263841629,-0.6855979561805725,0.3150263130664825,29.126060485839844,2.941807746887207,55.6938705444336,29.89,0
-0.2288203984498977,-0.7142682671546936,0.2581434845924377,29.26719284057617,2.9266552925109863,55.68531799316406,29.89,0
-0.2140170484781265,-0.7662538290023804,0.199248269200325,28.92427062988281,2.916931390762329,55.67982864379883,29.89,0
-0.2157126665115356,-0.8220062851905823,0.1614527106285095,22.194664001464844,2.910691022872925,55.676307678222656,29.89,0
-0.2559852302074432,-0.9081649780273438,0.1315999329090118,1.0629618167877195,2.906686305999756,55.67404556274414,29.89,0
-0.3042209446430206,-1.0082389116287231,0.1180399060249328,-35.65950012207031,2.90411639213562,55.6725959777832,29.89,0
-0.3407736122608185,-1.0892539024353027,0.1037400886416435,-75.77019500732422,2.9024672508239746,55.67166519165039,29.89,0
-0.3530354797840118,-1.146842360496521,0.0833677425980568,-104.50955200195312,2.9014089107513428,55.67106628417969,29.89,0
-0.3553066551685333,-1.1782015562057495,0.0758917182683944,-122.88832092285156,2.9007296562194824,55.670684814453125,29.89,0
-0.3231775164604187,-1.1759350299835205,0.0710940361022949,-143.2594451904297,2.9025890827178955,55.670440673828125,29.89,0
-0.2801677882671356,-1.1464916467666626,0.062417384237051,-168.59561157226562,2.903782367706299,55.67028045654297,29.89,0
-0.2413710802793502,-1.1219987869262695,0.0568492077291011,-190.70526123046875,2.904548168182373,55.6701774597168,29.89,0
-0.2052780389785766,-1.1062806844711304,0.0700691938400268,-204.49270629882807,2.9050395488739014,55.67011260986328,29.89,0
-0.1989089250564575,-1.0849981307983398,0.0953463464975357,-209.60406494140625,2.9053549766540527,55.67007064819336,29.89,0
-0.2507993280887604,-1.043351411819458,0.1059699952602386,-203.5946350097656,2.90555739402771,55.6700439453125,29.89,0
-0.2785018384456634,-1.0054293870925903,0.0959943160414695,-184.45127868652344,2.9056873321533203,55.67002868652344,29.89,0
-0.2794863879680633,-0.9866909384727478,0.0783969461917877,-155.76513671875,2.905770778656006,55.67001724243164,29.89,0
-0.2409337908029556,-1.0026545524597168,0.0559084229171276,-123.55593872070312,2.903069972991944,55.67000961303711,29.91,0
-0.2049974054098129,-1.018496870994568,0.0414765812456607,-90.20719909667967,2.901336669921875,55.67000579833984,29.91,0
-0.1987288296222686,-1.0286635160446167,0.0210195071995258,-54.32870864868164,2.900224447250366,55.67000198364258,29.91,0
-0.2170971184968948,-1.0239924192428589,-0.0033042121212929,-15.207446098327637,2.899510622024536,55.67000198364258,29.91,0
-0.2568736970424652,-1.0153969526290894,-0.0245115496218204,23.705575942993164,2.899052619934082,55.67000198364258,29.91,0
-0.293595552444458,-1.00428307056427,-0.0493167489767074,54.26653289794922,2.89875864982605,55.67000198364258,29.91,0
-0.3115637600421905,-0.98595529794693,-0.0596375241875648,66.85694885253906,2.8985700607299805,55.67000198364258,29.91,0
-0.3063014149665832,-0.9574002623558044,-0.060663029551506,56.69069290161133,2.898448944091797,55.67000198364258,29.91,0
-0.2973265647888183,-0.9278797507286072,-0.0557233653962612,27.01238822937012,2.903420925140381,58.29602813720703,29.91,0
-0.2915670275688171,-0.8977396488189697,-0.0525533705949783,-15.037158012390137,2.906611680984497,59.98126220703125,29.91,0
-0.2766753137111664,-0.8672019243240356,-0.0561168268322944,-64.4132308959961,2.9086592197418213,61.062747955322266,29.91,0
-0.2671186923980713,-0.8420067429542542,-0.0584036484360694,-118.50180053710938,2.90997314453125,61.75678253173828,29.91,0
-0.260985791683197,-0.8594245910644531,-0.054273422807455,-171.8385467529297,2.910816431045532,62.20217514038086,29.91,0
-0.2570500373840332,-0.8762001395225525,-0.0516228824853897,-213.6871337890625,2.9113576412200928,62.48800277709961,29.91,0
-0.2489265352487564,-0.89256352186203,-0.0499219186604023,-234.59249877929688,2.911705017089844,62.67142868041992,29.91,0
-0.2437133342027664,-0.9142601490020752,-0.0432325638830661,-234.01480102539065,2.911927938461304,62.78914260864258,29.91,0
-0.2403677999973297,-0.9281837940216064,-0.0333419442176818,-218.12435913085935,2.9180383682250977,62.86468505859375,29.91,0
-0.2438186109066009,-0.9427169561386108,-0.0213969405740499,-192.7080078125,2.921959638595581,62.91316223144531,29.91,0
-0.2516309022903442,-0.9632390141487122,-0.0081335501745343,-161.39700317382812,2.924476146697998,62.94427108764648,29.91,0
-0.2510466277599334,-0.9764088988304138,0.0003781297418754,-126.91937255859376,2.926091194152832,62.964237213134766,29.91,0
-0.2506716549396515,-0.990458369255066,0.022633759304881,-91.05084991455078,2.9271275997161865,62.97705078125,29.91,0
-0.256028801202774,-0.9994745254516602,0.0481116883456707,-56.2171630859375,2.927792549133301,62.98527145385742,29.91,0
-0.2594667077064514,-0.9996627569198608,0.0756575092673301,-27.97315216064453,2.9282193183898926,62.99054718017578,29.91,0
-0.2392818629741668,-0.9885880351066588,0.0877370536327362,-12.900127410888672,2.9284932613372803,62.993934631347656,29.91,0
-0.2151328474283218,-0.97588312625885,0.0954890102148056,-12.717370986938477,2.9332594871521,62.99610900878906,29.91,0
-0.1772443056106567,-0.97332763671875,0.1172570958733558,-22.49874496459961,2.9363181591033936,62.997501373291016,29.91,0
-0.1865162551403045,-0.9548943638801576,0.1088355034589767,-36.32077026367188,2.9382810592651367,62.99839782714844,29.91,0
-0.2316508889198303,-0.9374671578407288,0.0810399129986763,-53.61358642578125,2.9395406246185303,62.99897003173828,29.91,0
-0.2214312702417373,-0.926283359527588,0.0799956247210502,-77.76244354248047,2.940349102020264,62.99934005737305,29.91,0
-0.2204706817865371,-0.9247040152549744,0.0793254598975181,-108.06298828125,2.9408679008483887,62.99957656860352,29.91,0
-0.214256465435028,-0.912494957447052,0.0788953825831413,-135.551025390625,2.9412007331848145,62.99972915649414,29.91,0
-0.2158663123846054,-0.904659867286682,0.073021613061428,-149.4653778076172,2.941414356231689,62.99982452392578,29.91,0
-0.2224971950054168,-0.9052295684814452,0.0580566152930259,-147.4464569091797,2.9410924911499023,62.99988555908203,29.91,0
-0.2323502898216247,-0.9055951237678528,0.0484529435634613,-136.9471893310547,2.9408860206604004,62.99992752075195,29.91,0
-0.2386734336614608,-0.9114274978637696,0.0422898605465889,-126.00701141357422,2.94075345993042,62.99995422363281,29.91,0
-0.2539268136024475,-0.9375615119934082,0.0327369719743728,-115.49322509765624,2.9406683444976807,62.99996948242188,29.91,0
-0.2581177651882171,-0.96552836894989,0.0210087038576602,-101.982177734375,2.9406137466430664,62.99998092651367,29.91,0
-0.2608072757720947,-1.039453625679016,0.0022866281215101,-84.51634216308594,2.9405786991119385,62.9999885559082,29.91,0
-0.2961198985576629,-1.1148834228515625,0.0014674263074994,-65.17174530029297,2.940556287765503,62.99999237060547,29.91,0
-0.3299770653247833,-1.1241055727005005,0.0065394840203225,-46.40200424194336,2.9405417442321777,62.999996185302734,29.91,0
-0.3293135464191437,-1.0348615646362305,-0.0069988840259611,-31.487024307250977,2.9400734901428223,62.28348159790039,29.91,0
-0.3120944201946258,-0.983187735080719,-0.0268825776875019,-23.774805068969727,2.9397730827331543,61.82366561889648,29.91,0
-0.2898486256599426,-1.0004063844680786,-0.0396427884697914,-22.9705867767334,2.939580202102661,61.52857971191406,29.91,0
-0.2811703383922577,-1.0506408214569092,-0.0422337837517261,-25.872262954711918,2.9394564628601074,61.33921051025391,29.91,0
-0.2756010890007019,-1.088476061820984,-0.049494307488203,-29.883935928344727,2.9393770694732666,61.21768569946289,29.91,0
-0.2720270752906799,-1.0847676992416382,-0.0597514696419239,-32.135963439941406,2.939326047897339,61.13969802856445,29.91,0
-0.2641357183456421,-1.048801302909851,-0.0663339272141456,-29.292844772338867,2.939293384552002,61.08964920043945,29.91,0
-0.2534737288951874,-1.0145245790481567,-0.0705581679940223,-22.25922966003418,2.939272403717041,61.05753326416016,29.91,0
-0.2746203243732452,-0.9869299530982972,-0.0788668170571327,-18.97428321838379,2.9452264308929443,61.036922454833984,29.91,0
-0.2881909906864166,-0.9636235237121582,-0.0841988325119018,-30.01424789428711,2.949047565460205,61.0236930847168,29.91,0
-0.2857043147087097,-0.920677900314331,-0.082022838294506,-59.86632537841797,2.9514997005462646,61.01520538330078,29.91,0
-0.2841085195541382,-0.8875201344490051,-0.0750286355614662,-101.85543060302734,2.953073263168335,61.00975799560547,29.91,0
-0.288682222366333,-0.8662413954734802,-0.059344608336687,-143.9093475341797,2.954083204269409,61.00626373291016,29.91,0
-0.2916173338890075,-0.8525859117507935,-0.0548772774636745,-177.91897583007812,2.9547312259674072,61.00402069091797,29.91,0
-0.2935009300708771,-0.8438225984573364,-0.0464126281440258,-200.78692626953125,2.9551470279693604,61.00257873535156,29.91,0
-0.2891119420528412,-0.854992151260376,-0.0409805029630661,-211.19183349609372,2.955414056777954,61.00165557861328,29.91,0
-0.2806975543498993,-0.8789534568786621,-0.0374944768846035,-209.41421508789065,2.96109390258789,61.00106430053711,29.91,0
-0.2752977013587951,-0.916721522808075,-0.0352573469281196,-196.4867706298828,2.9647388458251958,61.00068283081055,29.91,0
-0.2662346065044403,-0.9297633171081544,-0.0338216833770275,-171.95086669921875,2.9670779705047607,61.00043869018555,29.91,0
-0.2548206746578216,-0.9605239033699036,-0.0440959073603153,-134.18663024902344,2.968579053878784,61.000282287597656,29.91,0
-0.2474958598613739,-0.9970576167106628,-0.0450915396213531,-83.2471923828125,2.9695422649383545,61.00017929077149,29.91,0
-0.2483929842710495,-0.9925139546394348,-0.028937155380845,-24.723241806030277,2.970160484313965,61.00011444091797,29.91,0
-0.248968705534935,-0.950413703918457,-0.0073746526613831,31.67482185363769,2.97055721282959,61.00007247924805,29.91,0
-0.2493381798267364,-0.9401894807815552,0.0008651465177536,81.0517349243164,2.9708118438720703,61.00004577636719,29.91,0
-0.2551730573177337,-0.9560192823410034,0.000555201258976,122.79886627197266,2.9737296104431152,61.000030517578125,29.91,0
-0.2477219998836517,-0.9829712510108948,0.005954070482403,148.83384704589844,2.9756019115448,61.00001907348633,29.91,0
-0.2373425662517547,-0.9890719056129456,0.0206143017858266,147.8974151611328,2.976803541183472,61.0000114440918,29.91,0
-0.2250838577747345,-0.948204755783081,0.0412179417908191,124.72265625,2.977574586868286,61.00000762939453,29.91,0
-0.2284124791622162,-0.9219785928726196,0.0432446263730526,98.56532287597656,2.978069543838501,61.00000381469727,29.91,0
-0.2361463755369186,-0.9107459187507628,0.0445452369749546,80.8010025024414,2.9783871173858643,61.00000381469727,29.91,0
-0.2411095350980758,-0.9147329926490784,0.0453798919916152,67.48062896728516,2.978590965270996,61.00000381469727,29.91,0
-0.2386968433856964,-0.9116938710212708,0.0403177514672279,53.03187561035156,2.978721618652344,61.00000381469727,29.91,0
-0.2315507382154464,-0.915341317653656,0.0370691604912281,38.880027770996094,2.979723691940308,63.86606216430664,29.91,0
-0.2437580972909927,-0.9176820516586304,0.0349844023585319,28.46188735961914,2.980366945266724,65.70533752441406,29.91,0
-0.2571898400783539,-0.913586437702179,0.0336465239524841,21.47518920898437,2.9807796478271484,66.88567352294922,29.91,0
-0.265809565782547,-0.9389469623565674,0.0327879525721073,12.753341674804688,2.9810445308685303,67.64315032958984,29.91,0
-0.2769390046596527,-0.9720152020454408,0.037834744900465,-5.056838512420654,2.9812145233154297,68.1292495727539,29.91,0
-0.2896789908409118,-1.0044320821762085,0.0522690340876579,-31.13553810119629,2.981323480606079,68.44120025634766,29.91,0
-0.2698659300804138,-1.0364309549331665,0.0279454831033945,-48.80998229980469,2.981393575668335,68.64139556884766,29.91,0
-0.2627488076686859,-1.084954857826233,0.0067382543347775,-39.05105209350586,2.981438398361206,68.76986694335938,29.91,0
-0.3029636442661285,-1.1440834999084473,0.0155197726562619,-2.0498342514038086,2.9851393699646,68.85231018066406,29.91,0
-0.3567600846290588,-1.1372467279434204,0.026753019541502,41.94771957397461,2.9875144958496094,68.90522003173828,29.91,0
-0.3744902312755584,-1.0936747789382937,-0.0052225510589778,68.84293365478516,2.9890387058258057,68.93917846679688,29.91,0
-0.3578795492649078,-1.0825061798095703,-0.0257426295429468,64.47830200195312,2.99001693725586,68.96096801757812,29.91,0
-0.341621994972229,-1.0865343809127808,-0.0333134606480598,33.1385383605957,2.990644693374634,68.9749526977539,29.91,0
-0.319993257522583,-1.083521604537964,-0.0437697581946849,-3.980003118515015,2.9910476207733154,68.98392486572266,29.91,0
-0.3005154132843017,-1.0480015277862549,-0.0504800081253051,-27.8614501953125,2.991306066513061,68.98968505859375,29.91,0
-0.2936134338378906,-0.9916201829910278,-0.0491884872317314,-39.40399169921875,2.991472005844116,68.99337768554688,29.91,0
-0.3003796935081482,-0.9610356688499452,-0.0483596622943878,-50.881134033203125,2.9924967288970947,68.9957504272461,29.91,0
-0.2935263216495514,-0.9358105063438416,-0.0590233206748962,-64.45152282714844,2.993154287338257,68.99727630615234,29.91,0
-0.2667371332645416,-0.902829110622406,-0.0714644193649292,-69.9144058227539,2.9935762882232666,68.99825286865234,29.91,0
-0.2551431655883789,-0.8760657906532288,-0.0738506242632865,-61.71947860717773,2.993847131729126,68.9988784790039,29.91,0
-0.2533005774021148,-0.8476951122283936,-0.0697841793298721,-46.03873062133789,2.994020938873291,68.99928283691406,29.91,0
-0.2633136808872223,-0.8126950860023499,-0.0615767911076545,-29.95700454711914,2.9941325187683105,68.99954223632812,29.91,0
-0.2809350490570068,-0.7846363186836243,-0.0563097633421421,-14.703471183776855,2.994204044342041,68.99970245361328,29.91,0
-0.2922434210777282,-0.8002164959907532,-0.0585274621844291,-0.8269123435020447,2.9942498207092285,68.99980926513672,29.91,0
-0.2995004951953888,-0.8382037878036499,-0.0543528795242309,9.414565086364746,2.998410701751709,68.9998779296875,29.89,0
-0.2929621040821075,-0.8681796193122864,-0.0460760965943336,13.755011558532717,3.0010807514190674,68.99992370605469,29.89,0
-0.2663750648498535,-0.9489918947219848,-0.0519600845873355,7.397726535797119,3.0027942657470703,68.99995422363281,29.89,0
-0.2437152564525604,-1.0232436656951904,-0.0613338649272918,-12.98631477355957,3.003894090652466,68.99996948242188,29.89,0
-0.2571623623371124,-0.986927568912506,-0.0225672200322151,-36.0737533569336,3.0045998096466064,68.9999771118164,29.89,0
-0.2713897228240967,-0.9580242037773132,0.019104303792119,-39.71588897705078,3.0050525665283203,68.99998474121094,29.89,0
-0.2637266814708709,-0.9730623364448548,0.0234555918723344,-16.37329864501953,3.005343198776245,68.99999237060547,29.89,0
-0.2420156747102737,-1.016299605369568,0.0094546750187873,17.594284057617188,3.0055296421051025,68.99999237060547,29.89,0
-0.2168872505426406,-1.0440467596054075,0.0172630157321691,45.71955108642578,3.0047311782836914,71.0993881225586,29.89,0
-0.1951635032892227,-1.000277757644653,0.0446650572121143,71.5250015258789,3.004218816757202,72.4466552734375,29.89,0
-0.1868202239274978,-0.9442005157470704,0.0678478851914405,105.17076110839844,3.003890037536621,73.3112564086914,29.89,0
-0.2038570791482925,-0.8914200067520142,0.0659319683909416,143.1565399169922,3.003679037094116,73.86610412597656,29.89,0
-0.225985899567604,-0.879939615726471,0.0535068921744823,174.4336700439453,3.0035436153411865,74.22217559814453,29.89,0
-0.2457846850156784,-0.8837677240371704,0.0511309653520584,195.73434448242188,3.0034565925598145,74.45068359375,29.89,0
-0.2528926134109497,-0.8974199295043945,0.0440084598958492,208.08551025390625,3.0034008026123047,74.59732818603516,29.89,0
-0.2574540972709656,-0.9117789268493652,0.0394376441836357,209.52731323242188,3.0033650398254395,74.6914291381836,29.89,0
-0.2827724814414978,-0.9321892261505128,0.0421021319925785,201.76483154296875,3.001047134399414,74.75182342529297,29.89,0
-0.3046181499958038,-0.934091866016388,0.0494098216295242,191.9540100097656,2.9995596408843994,74.79058074951172,29.89,0
-0.324235200881958,-0.9521061778068542,0.0540994778275489,182.38710021972656,2.9986050128936768,74.8154525756836,29.89,0
-0.3312265276908874,-0.9916555881500244,0.0627068057656288,170.8629913330078,2.997992515563965,74.83141326904297,29.89,0
-0.3245176076889038,-1.0170360803604126,0.062632717192173,158.9749298095703,2.9975993633270264,74.8416519165039,29.89,0
-0.3034188747406006,-1.100497126579285,0.0289985239505767,144.78616333007812,2.997347116470337,74.84822845458984,29.89,0
-0.3458566665649414,-1.1764487028121948,0.0354029051959514,115.697021484375,2.997185230255127,74.85244750976562,29.89,0
-0.3842863440513611,-1.152419090270996,0.050708420574665,67.00372314453125,2.9970812797546387,74.85515594482422,29.89,0
-0.3865572214126587,-1.136998176574707,0.0101506477221846,15.656912803649902,2.9938008785247803,74.85688781738281,29.89,0
-0.3712212145328522,-1.1382975578308103,-0.0158769972622394,-20.321786880493164,2.9916958808898926,74.85800170898438,29.89,0
-0.3333905637264251,-1.122338056564331,-0.0325800403952598,-43.42876052856445,2.990345001220703,74.85871887207031,29.89,0
-0.2979174852371216,-1.0729117393493652,-0.0488968677818775,-68.10240173339844,2.98947811126709,74.85917663574219,29.89,0
-0.2751529216766357,-1.0355950593948364,-0.0537702925503253,-102.72355651855467,2.988921642303467,74.8594741821289,29.89,0
-0.2773372530937195,-0.9780606627464294,-0.0568977780640125,-143.6567840576172,2.9885644912719727,74.85966491699219,29.89,0
-0.2843368053436279,-0.9355406165122986,-0.0645025894045829,-179.11468505859375,2.988335371017456,74.85978698730469,29.89,0
-0.2944264709949493,-0.9082537293434144,-0.0749806985259056,-201.7118988037109,2.9881882667541504,74.85986328125,29.89,0
-0.2841081321239471,-0.8795469999313354,-0.0761071667075157,-218.5314178466797,2.989471197128296,74.85990905761719,29.91,0
-0.2662908732891083,-0.8555269241333008,-0.0768300741910934,-240.92559814453125,2.9902944564819336,74.85993957519531,29.91,0
-0.2492589950561523,-0.8401122093200684,-0.0660984441637992,-266.43511962890625,2.9908227920532227,74.8599624633789,29.91,0
-0.2439266890287399,-0.819024384021759,-0.0592114999890327,-279.2266540527344,2.991161823272705,74.85997772216797,29.91,0
-0.2517002820968628,-0.8110892176628113,-0.0603896304965019,-267.6632995605469,2.9913792610168457,74.8599853515625,29.91,0
-0.2678844630718231,-0.8507790565490723,-0.0611456856131553,-235.902587890625,2.991518974304199,74.85999298095703,29.91,0
-0.2782705426216125,-0.893043041229248,-0.0616308785974979,-196.53990173339844,2.9916086196899414,74.85999298095703,29.91,0
-0.2737401723861694,-0.908970057964325,-0.0507466979324817,-155.6770782470703,2.991666078567505,74.85999298095703,29.91,0
-0.2596372961997986,-0.9471799731254578,-0.0493596345186233,-115.09112548828124,2.993539333343506,76.38617706298828,29.91,0
-0.2449891120195388,-0.9996898174285888,-0.0428717210888862,-86.02886962890625,2.994741439819336,77.36559295654297,29.91,0
-0.2467842996120453,-0.9942031502723694,-0.0107192797586321,-78.97160339355469,2.9955129623413086,77.99412536621094,29.91,0
-0.2479363530874252,-0.9906821250915528,0.009914306923747,-80.27508544921875,2.9960081577301025,78.39747619628906,29.91,0
-0.2486756742000579,-0.999618113040924,0.0063624316826462,-63.671607971191406,2.996325969696045,78.65632629394531,29.91,0
-0.2491501271724701,-0.9997549057006836,0.0040830424986779,-22.166893005371094,2.9965298175811768,78.82244110107422,29.91,0
-0.2494546025991439,-0.9830493927001952,0.0250113606452941,32.03994369506836,2.9966607093811035,78.92904663085938,29.91,0
-0.2216611206531524,-0.9275465607643129,0.0552352741360664,91.00199127197266,2.9967446327209477,78.9974594116211,29.91,0
-0.1982270926237106,-0.886330246925354,0.0634356886148452,156.69854736328125,2.993125915527344,79.0413589477539,29.91,0
-0.1943840235471725,-0.8710755705833435,0.0575026981532573,227.70571899414065,2.9908037185668945,79.06953430175781,29.91,0
-0.1975155472755432,-0.8668837547302246,0.0592930205166339,291.41259765625,2.9893133640289307,79.08761596679688,29.91,0
-0.2107207179069519,-0.8753892183303833,0.0604419447481632,332.6865234375,2.9883570671081543,79.0992202758789,29.91,0
-0.2247928231954574,-0.8864453434944153,0.0499837100505828,346.1152648925781,2.987743377685547,79.1066665649414,29.91,0
-0.2394212633371353,-0.8991382718086243,0.043272215873003,333.6854248046875,2.987349510192871,79.11144256591797,29.91,0
-0.2656022608280182,-0.9184794425964355,0.0389651656150817,298.5133361816406,2.9870967864990234,79.11450958251953,29.91,0
-0.2880015075206756,-0.9476848244667052,0.0362011492252349,251.8204345703125,2.9869346618652344,79.1164779663086,29.91,0
-0.3023760616779327,-0.9888182282447816,0.0400251373648643,215.30308532714844,2.9831581115722656,79.11774444580078,29.91,0
-0.294807493686676,-1.015215277671814,0.0424791537225246,204.8372802734375,2.980734348297119,79.1185531616211,29.91,0
-0.2843526303768158,-1.0265575647354126,0.0328584499657154,217.8609161376953,2.9791789054870605,79.11907196044922,29.91,0
-0.2776433229446411,-1.101009726524353,0.004293339792639,236.89480590820312,2.9781808853149414,79.1194076538086,29.91,0
-0.2957287728786468,-1.1879732608795166,-0.0028425559867173,239.74839782714844,2.9775402545928955,79.11962127685547,29.91,0
-0.3521171510219574,-1.1318259239196775,0.0149691347032785,213.5424346923828,2.9771292209625244,79.11975860595703,29.91,0
-0.3715106546878814,-1.079000473022461,-0.0015892190858721,164.7683868408203,2.976865530014038,79.11984252929688,29.91,0
-0.3447718620300293,-1.09548020362854,-0.0346065163612365,111.33484649658205,2.976696252822876,79.11990356445312,29.91,0
-0.3164168894290924,-1.1228492259979248,-0.0445995666086673,64.37271118164062,2.976128578186035,79.11994171142578,29.89,0
-0.2926225364208221,-1.1068264245986938,-0.0566103048622608,20.81478500366211,2.975764274597168,79.11996459960938,29.89,0
-0.2773526906967163,-1.0629572868347168,-0.0699158832430839,-29.285667419433597,2.9755306243896484,79.11997985839844,29.89,0
-0.273151159286499,-1.0068156719207764,-0.0728568583726883,-91.70643615722656,2.9753806591033936,79.11998748779297,29.89,0
-0.270454853773117,-0.9707872867584229,-0.08034198731184,-165.47653198242188,2.9752843379974365,79.1199951171875,29.89,0
-0.2687245309352875,-0.9476662874221802,-0.0963410586118698,-248.4788818359375,2.975222587585449,79.1199951171875,29.89,0
-0.2564185559749603,-0.9216330647468568,-0.1066083386540412,-336.2344665527344,2.9751830101013184,79.1199951171875,29.89,0
-0.2317279577255249,-0.8881331086158752,-0.102001741528511,-414.6375427246094,2.9751574993133545,79.1199951171875,29.89,0
-0.2214807271957397,-0.866634726524353,-0.099045492708683,-465.1169128417969,2.971468687057495,80.35240173339844,29.89,0
-0.2261001914739608,-0.8472405672073364,-0.0915505662560463,-478.2911682128906,2.969101428985596,81.1432876586914,29.89,0
-0.2458580285310745,-0.8403922915458679,-0.0867407545447349,-455.7420349121094,2.9675822257995605,81.65083312988281,29.89,0
-0.2641352415084839,-0.8471930027008057,-0.0836540982127189,-404.7756042480469,2.9666073322296143,81.97654724121094,29.89,0
-0.2646689713001251,-0.868350625038147,-0.076075479388237,-338.7431335449219,2.965981721878052,82.1855697631836,29.89,0
-0.248218148946762,-0.8987216949462891,-0.071211963891983,-272.9408569335937,2.9655802249908447,82.31970977783203,29.89,0
-0.226465418934822,-0.9517987370491028,-0.068090833723545,-217.2924041748047,2.965322494506836,82.40579223632812,29.89,0
-0.2348968535661697,-0.9802627563476562,-0.0492945536971092,-178.07667541503906,2.9651570320129395,82.4610366821289,29.89,0
-0.2403076738119125,-0.970540463924408,-0.0148410834372043,-156.52151489257812,2.9650509357452397,82.49649047851562,29.89,0
-0.2549755573272705,-0.9531056880950928,0.0128669431433081,-140.1700897216797,2.964982748031616,82.51924133300781,29.89,0
-0.2531930208206177,-0.9699059128761292,0.0250505860894918,-111.34465026855467,2.9649391174316406,82.53384399414062,29.89,0
-0.2576468586921692,-1.0030784606933594,0.0272715725004673,-67.09101104736328,2.964910984039306,82.543212890625,29.89,0
-0.2493095397949218,-1.0243666172027588,0.0398924238979816,-16.07477569580078,2.964893102645874,82.54922485351562,29.89,0
-0.2327635735273361,-1.004441499710083,0.0591873079538345,38.8943977355957,2.964881658554077,82.55308532714844,29.89,0
-0.1997542381286621,-0.9524703025817872,0.0659718811511993,100.7137451171875,2.964874267578125,82.5555648803711,29.89,0
-0.1897662878036499,-0.9247159957885742,0.0647280514240264,168.89598083496094,2.964869499206543,82.5571517944336,29.89,0
-0.1889543682336807,-0.9069048762321472,0.063929833471775,239.1696319580078,2.962571382522583,82.55817413330078,29.89,0
-0.2052266597747802,-0.8954747319221497,0.0522220358252525,303.5343017578125,2.96109676361084,82.55883026123047,29.89,0
-0.2212670445442199,-0.8881394863128662,0.0447086468338966,347.953125,2.9601504802703857,82.55924987792969,29.89,0
-0.2427563965320587,-0.8946276903152466,0.0342892110347747,359.0579833984375,2.959542989730835,82.55951690673828,29.89,0
-0.2565470337867737,-0.898791491985321,0.0276026166975498,337.02587890625,2.959153175354004,82.5596923828125,29.89,0
-0.2597992718219757,-0.895865797996521,0.0233115442097187,297.5330505371094,2.9589030742645264,82.55979919433594,29.89,0
-0.25628861784935,-0.9163793325424194,0.0205577816814184,260.83563232421875,2.958742618560791,82.55986785888672,29.89,0
-0.2596334517002105,-0.9463370442390442,0.0187905747443437,242.5266571044922,2.958639621734619,82.5599136352539,29.89,0
-0.2561821937561035,-0.9711599946022034,0.0120587088167667,246.4400329589844,2.955819129943848,82.55994415283203,29.89,0
-0.2371740490198135,-0.998285472393036,-0.0090547380968928,255.08477783203125,2.954009294509888,82.55996704101562,29.89,0
-0.2249757200479507,-1.0380841493606567,-0.0337996818125247,239.7532196044922,2.952847719192505,82.55997467041016,29.89,0
-0.24513640999794,-1.1252001523971558,-0.0552773363888263,195.97657775878903,2.9521021842956543,82.55998229980469,29.89,0
-0.2916610240936279,-1.1363240480422974,-0.0466693602502346,150.7943572998047,2.951623916625977,82.55998992919922,29.89,0
-0.3215178549289703,-1.0986804962158203,-0.0579385794699192,123.19263458251952,2.9513168334960938,82.55998992919922,29.89,0
-0.3294826745986938,-1.0857185125350952,-0.0987571626901626,102.93939208984376,2.951119899749756,82.55998992919922,29.89,0
-0.2898118495941162,-1.1221824884414673,-0.1193544045090675,74.03539276123047,2.950993537902832,82.55998992919922,29.89,0
-0.2419623136520385,-1.1175941228866575,-0.1269747614860534,33.70082473754883,2.950912475585937,83.469970703125,29.89,0
-0.2112552225589752,-1.0866607427597046,-0.1374628394842147,-10.53711223602295,2.9508602619171143,84.05393981933594,29.89,0
-0.1971469670534134,-1.005233883857727,-0.1329979300498962,-48.12294769287109,2.95082688331604,84.42869567871094,29.89,0
-0.1992886364459991,-0.9641743898391724,-0.1357303857803344,-76.6033706665039,2.950805425643921,84.66919708251953,29.89,0
-0.2062608152627945,-0.9378247857093812,-0.137483924627304,-104.05543518066406,2.950791597366333,84.82353210449219,29.89,0
-0.2107351571321487,-0.9209151268005372,-0.1498047858476638,-133.1439971923828,2.9507827758789062,84.92257690429688,29.89,0
-0.2080087661743164,-0.9156612157821656,-0.1577116101980209,-157.83009338378906,2.950777053833008,84.98613739013672,29.89,0
-0.1950635761022567,-0.9010940194129944,-0.1571879833936691,-177.7814178466797,2.9507734775543213,85.02693176269531,29.89,0
-0.1923538744449615,-0.8805500864982605,-0.1456563919782638,-196.7578125,2.94939398765564,85.05310821533203,29.89,0
-0.2018104791641235,-0.8729639649391174,-0.138256087899208,-212.97691345214844,2.9485087394714355,85.06990814208984,29.89,0
-0.2358680665493011,-0.8680956363677979,-0.1391047686338424,-224.62496948242188,2.9479405879974365,85.0806884765625,29.89,0
-0.25772425532341,-0.8593736290931702,-0.1396494060754776,-232.7878875732422,2.9475760459899902,85.08760833740234,29.89,0
-0.2717503011226654,-0.8649718761444092,-0.1399989128112793,-237.69677734375,2.947342157363892,85.09204864501953,29.89,0
-0.3031425178050995,-0.9189444780349731,-0.1458209902048111,-241.8322296142578,2.9471919536590576,85.09489440917969,29.89,0
-0.3288860023021698,-0.9591788053512572,-0.143959492444992,-246.17709350585935,2.9470956325531006,85.09672546386719,29.89,0
-0.3286133706569671,-0.9794010519981384,-0.1483626663684845,-239.7975616455078,2.9470338821411133,85.097900390625,29.89,0
-0.3228406310081482,-0.997976303100586,-0.1567861437797546,-209.780029296875,2.944239854812622,85.0986557006836,29.89,0
-0.3247337937355041,-1.0882656574249268,-0.1789851635694503,-158.631591796875,2.942446708679199,85.09913635253906,29.89,0
-0.3371442556381225,-1.0510460138320925,-0.1708401143550872,-97.34031677246094,2.941296100616455,85.09944152832031,29.89,0
-0.3451085984706878,-0.9879761934280396,-0.1544175446033477,-30.03077507019043,2.940557718276977,85.09963989257812,29.89,0
-0.344621866941452,-0.9083172082901,-0.1326829344034195,45.619171142578125,2.940083742141724,85.09976959228516,29.89,0
-0.3555050492286682,-0.8627943992614746,-0.1187349185347557,130.61965942382812,2.939779758453369,85.099853515625,29.89,0
-0.3792825937271118,-0.8951560258865356,-0.0873927846550941,217.1139068603516,2.939584493637085,85.09990692138672,29.89,0
-0.360954999923706,-0.9439127445220948,-0.0560836568474769,285.9373779296875,2.9394593238830566,85.09993743896484,29.89,0
-0.3268023133277893,-0.9640064239501952,-0.0303934887051582,319.6611022949219,2.9402968883514404,85.09996032714844,29.87,0
-0.2712984383106231,-0.9545102715492249,0.0084840804338455,318.5357666015625,2.940834283828736,85.0999755859375,29.87,0
-0.2300814688205719,-0.9428184628486632,0.0390312410891056,295.9383850097656,2.9411792755126958,85.09998321533203,29.87,0
-0.2260218858718872,-0.9353153109550476,0.0642324239015579,263.6492004394531,2.9414005279541016,85.09999084472656,29.87,0
-0.2458077818155288,-0.9305002093315125,0.0860028639435768,230.0198516845703,2.941542625427246,85.09999084472656,29.87,0
-0.2585052251815796,-0.9274101853370668,0.0943761095404625,204.08206176757807,2.941633701324463,85.09999084472656,29.87,0
-0.244262620806694,-0.9142315983772278,0.0829562544822692,191.86474609375,2.9416921138763428,85.09999084472656,29.87,0
-0.2295247614383697,-0.9057743549346924,0.0644320994615554,191.17518615722656,2.941729784011841,85.09999084472656,29.87,0
-0.2312624007463455,-0.9003469944000244,0.035751037299633,190.3959045410156,2.9403767585754395,85.42242431640625,29.87,0
-0.2379752844572067,-0.8856684565544128,0.0173451825976371,172.0975799560547,2.939508438110352,85.62934875488281,29.87,0
-0.2478810101747512,-0.8482597470283508,-0.0112599581480026,130.5369873046875,2.938951253890991,85.76213836669922,29.87,0
-0.2598356902599334,-0.8354485630989075,-0.0632037371397018,85.92066955566406,2.938593626022339,85.84735107421875,29.87,0
-0.2787030637264251,-0.8328248262405396,-0.1021360382437706,62.16437149047852,2.938364028930664,85.90203857421875,29.87,0
-0.3243977129459381,-0.8255432844161987,-0.1215227767825126,55.02273178100586,2.9382166862487797,85.9371337890625,29.87,0
-0.3649174571037292,-0.8432615399360657,-0.1731484830379486,42.52931213378906,2.938122272491455,85.95965576171875,29.87,0
-0.3685296177864074,-0.8770231604576111,-0.2230722159147262,17.49452018737793,2.9380617141723637,85.97410583496094,29.87,0
-0.3484565913677215,-0.8930916786193848,-0.23831707239151,-8.763794898986816,2.9371049404144287,85.98338317871094,29.87,0
-0.3355748653411865,-0.886610209941864,-0.2313070148229599,-26.7039737701416,2.936490774154663,85.98933410644531,29.87,0
-0.3385036587715149,-0.8768529891967773,-0.2268083691596985,-39.864933013916016,2.936096668243408,85.99315643310547,29.87,0
-0.3403832018375397,-0.8537980318069458,-0.2351169437170028,-59.621070861816406,2.9358439445495605,85.99560546875,29.87,0
-0.335991621017456,-0.8278071284294128,-0.2292533665895462,-95.08102416992188,2.9356815814971924,85.99717712402344,29.87,0
-0.3555644452571869,-0.8167254328727722,-0.2478815466165542,-147.2250518798828,2.935577392578125,85.9981918334961,29.87,0
-0.3793207108974457,-0.8152116537094116,-0.2542382776737213,-206.0706329345703,2.935510635375977,85.99884033203125,29.87,0
-0.4281527400016784,-0.8086423873901367,-0.2695132195949554,-251.1786193847656,2.9354677200317383,85.99925231933594,29.87,0
-0.4706858992576599,-0.8044266104698181,-0.2681202292442322,-265.405517578125,2.9336037635803223,85.99951934814453,29.87,0
-0.4699923396110534,-0.8017212152481079,-0.3008129298686981,-252.23040771484372,2.9324076175689697,85.99969482421875,29.87,0
-0.5143294334411621,-0.7887894511222839,-0.3497821092605591,-230.62374877929688,2.9316399097442627,85.99980163574219,29.87,0
-0.5595757961273193,-0.7636972665786743,-0.3756099343299866,-214.1712188720703,2.931147336959839,85.99987030029297,29.87,0
-0.5102434158325195,-0.7811812162399292,-0.3530003130435943,-201.6926727294922,2.93083119392395,85.99991607666016,29.87,0
-0.5289647579193115,-0.8315858244895935,-0.3832729756832123,-183.00857543945312,2.9306282997131348,85.99994659423828,29.87,0
-0.5913589596748352,-0.8639326095581055,-0.4250913262367248,-153.6176300048828,2.9304981231689453,85.99996948242188,29.87,0
-0.5306400656700134,-0.9126797914505004,-0.3623635470867157,-130.5108642578125,2.93041467666626,85.9999771118164,29.87,0
-0.5196630358695984,-0.9439629316329956,-0.28852179646492,-140.2694854736328,2.9220986366271973,85.99998474121094,29.89,0
-0.5518030524253845,-0.9304519891738892,-0.2523299753665924,-180.17239379882807,2.916761875152588,85.99999237060547,29.89,0
-0.4772664606571197,-0.8993903398513794,-0.2682885527610779,-213.00225830078125,2.913336992263794,85.99999237060547,29.89,0
-0.4350309669971466,-0.8850545287132263,-0.2729320824146271,-211.0202789306641,2.9111390113830566,85.99999237060547,29.89,0
-0.4806977212429046,-0.8702568411827087,-0.2535209357738495,-178.6587677001953,2.909728527069092,85.99999237060547,29.89,0
-0.554786205291748,-0.8663583397865295,-0.2298684418201446,-128.98680114746094,2.9088234901428223,85.99999237060547,29.89,0
-0.5967341661453247,-0.8190743327140808,-0.1475163400173187,-69.19117736816406,2.908242464065552,85.99999237060547,29.89,0
-0.6180561780929565,-0.7887301445007324,-0.100265271961689,-8.838685035705566,2.907869815826416,85.99999237060547,29.89,0
-0.6485327482223511,-0.7860503196716309,-0.0811378061771392,44.09339904785156,2.942058801651001,86.26869201660156,29.89,0
-0.640101969242096,-0.7787327766418457,-0.0408740229904651,92.9656753540039,2.9639992713928223,86.44112396240234,29.89,0
-0.6514849066734314,-0.7684390544891357,0.001758275553584,144.08700561523438,2.978079319000244,86.5517807006836,29.89,0
-0.6811808943748474,-0.7562353610992432,0.0347150042653083,194.1724853515625,2.9871151447296143,86.62279510498047,29.89,0
-0.7058358788490295,-0.7484037280082703,0.0670602843165397,233.36497497558597,2.992913722991944,86.66836547851562,29.89,0
-0.7272557616233826,-0.7489755749702454,0.0822198539972305,255.42111206054688,2.9966349601745605,86.6976089477539,29.89,0
-0.7354040741920471,-0.7493425607681274,0.0863506123423576,259.6123352050781,2.999023199081421,86.71637725830078,29.89,0
-0.7350354194641113,-0.7495781183242798,0.1001970469951629,247.1942901611328,3.0005557537078857,86.72842407226562,29.89,0
-0.7236032485961914,-0.7385337352752686,0.1426695436239242,220.2804412841797,3.0300002098083496,86.73615264892578,29.89,0
-0.7162667512893677,-0.7258483171463013,0.1923170387744903,178.04530334472656,3.048896074295044,86.7411117553711,29.89,0
-0.7003630995750427,-0.7177075147628784,0.2409712672233581,112.0201187133789,3.0610222816467285,86.74429321289062,29.89,0
-0.6957548260688782,-0.6956899166107178,0.2609992027282715,18.299894332885746,3.0688042640686035,86.746337890625,29.89,0
-0.6871997117996216,-0.6871580481529236,0.2906453013420105,-83.11203002929688,3.073798179626465,86.74765014648438,29.89,0
-0.6537206172943115,-0.687280535697937,0.3208660185337066,-158.9365234375,3.077003002166748,86.74848937988281,29.89,0
-0.6602245569229126,-0.6593703031539917,0.3234665989875793,-194.8065185546875,3.079059600830078,86.74903106689453,29.89,0
-0.6755939722061157,-0.635861337184906,0.3587221503257751,-201.24923706054688,3.0803794860839844,86.74937438964844,29.89,0
-0.6798593997955322,-0.6151768565177917,0.4037382304668426,-192.53668212890625,3.0770952701568604,86.74959564208984,29.89,0
-0.6825966835021973,-0.6019027233123779,0.4102358520030975,-176.43418884277344,3.0749876499176025,86.74974060058594,29.89,0
-0.7067444324493408,-0.604579746723175,0.4311989843845367,-159.41903686523438,3.07363510131836,86.74983215332031,29.89,0
-0.6774588823318481,-0.5895043611526489,0.4390541315078735,-145.92381286621094,3.0727670192718506,86.74989318847656,29.89,0
-0.6810562014579773,-0.5686342716217041,0.4217040240764618,-133.0538330078125,3.0722098350524902,86.74993133544922,29.89,0
-0.6721692085266113,-0.5608388185501099,0.4665474593639374,-114.50188446044922,3.071852445602417,86.74995422363281,29.89,0
-0.6440749168395996,-0.5446406006813049,0.5065209865570068,-88.86788177490234,3.0716230869293213,86.74996948242188,29.89,0
-0.6428389549255371,-0.5398433208465576,0.537771463394165,-59.99666213989258,3.0714757442474365,86.7499771118164,29.89,0
-0.6084591150283813,-0.5367646813392639,0.597010612487793,-30.205158233642575,3.0791847705841064,86.74998474121094,29.87,0
-0.5807983875274658,-0.529191255569458,0.6014402508735657,3.035825729370117,3.084131956100464,86.74999237060547,29.87,0
-0.6190250515937805,-0.5299288034439087,0.5986851453781128,42.9722900390625,3.0873067378997803,86.74999237060547,29.87,0
-0.6435567140579224,-0.5527932047843933,0.6472970843315125,88.30538177490234,3.0893442630767822,86.74999237060547,29.87,0
-0.6928863525390625,-0.5506729483604431,0.6561022996902466,134.34671020507812,3.090651750564575,86.74999237060547,29.87,0
-0.5957944989204407,-0.5101279020309448,0.6281663179397583,178.68226623535156,3.0914909839630127,86.74999237060547,29.87,0
-0.5222909450531006,-0.472912847995758,0.6382275223731995,223.3275146484375,3.092029333114624,86.74999237060547,29.87,0
-0.5199028253555298,-0.4490303695201874,0.6278908848762512,272.46343994140625,3.0923750400543213,86.74999237060547,29.87,0
-0.5127725005149841,-0.4504972994327545,0.6100618839263916,330.9405822753906,3.094433307647705,87.00435638427734,29.87,0
-0.4242300391197204,-0.5018186569213867,0.7105757594108582,398.2713012695313,3.095754146575928,87.16759490966797,29.87,0
-0.4681685268878937,-0.4619826972484588,0.7302975654602051,458.6623229980469,3.096601724624634,87.27235412597656,29.87,0
-0.4851701557636261,-0.419624924659729,0.7037694454193115,488.1138305664063,3.0971455574035645,87.3395767211914,29.87,0
-0.4624941945075989,-0.3980399370193481,0.7259296774864197,477.3324890136719,3.097494602203369,87.38272094726562,29.87,0
-0.4479420483112335,-0.3841879367828369,0.790530800819397,436.3970947265625,3.0977187156677246,87.41040802001953,29.87,0
-0.4889833033084869,-0.4536673426628113,0.798401415348053,377.7406311035156,3.097862482070923,87.42817687988281,29.87,0
-0.5153211951255798,-0.4478752613067627,0.730681300163269,310.6065368652344,3.097954750061035,87.4395751953125,29.87,0
-0.5266255736351013,-0.4497560262680053,0.687222421169281,247.8446350097656,3.138868808746338,87.44689178466797,29.87,0
-0.5506734251976013,-0.439767450094223,0.6985174417495728,200.13023376464844,3.165125131607056,87.45158386230469,29.87,0
-0.5493125915527344,-0.416564017534256,0.711363673210144,166.16732788085938,3.1819748878479004,87.45459747314453,29.87,0
-0.5484393239021301,-0.4072711765766144,0.7084121108055115,138.98728942871094,3.1927881240844727,87.45653533935547,29.87,0
-0.5590744614601135,-0.406905323266983,0.7009201645851135,116.14933776855467,3.1997275352478027,87.45777893066406,29.87,0
-0.560301661491394,-0.4178661108016968,0.6961122751235962,97.70647430419922,3.2041807174682617,87.45857238769531,29.87,0
-0.5834803581237793,-0.4193023145198822,0.6930268406867981,81.27088165283203,3.207038640975952,87.4590835571289,29.87,0
-0.5815617442131042,-0.4314195513725281,0.6966446042060852,64.63666534423828,3.2088727951049805,87.45941162109375,29.87,0
-0.5243527889251709,-0.4280001521110534,0.7157595753669739,48.27623748779297,3.245855569839477,87.45962524414062,29.87,0
-0.5044326782226562,-0.4258057773113251,0.7224286794662476,31.984031677246094,3.2695889472961426,87.45976257324219,29.87,0
-0.4580624401569366,-0.4076042175292969,0.7435018420219421,13.503663063049316,3.2848196029663086,87.45984649658203,29.87,0
-0.4283047020435333,-0.4071190655231476,0.7626231908798218,-6.886086940765381,3.294593811035156,87.45989990234375,29.87,0
-0.4260012209415436,-0.3956121802330017,0.7860897183418274,-24.040861129760746,3.3008663654327397,87.4599380493164,29.87,0
-0.5476740002632141,-0.4106188118457794,0.761964738368988,-32.92892074584961,3.304891586303711,87.4599609375,29.87,0
-0.5361921787261963,-0.39226034283638,0.7632760405540466,-34.86748123168945,3.3074748516082764,87.45997619628906,29.87,0
-0.5400193929672241,-0.369283378124237,0.7473242282867432,-36.35515213012695,3.309132575988769,87.4599838256836,29.87,0
-0.5032910704612732,-0.3657336235046386,0.7594783902168274,-41.39040756225586,3.3056061267852783,87.45999145507812,29.91,0
-0.4853186905384063,-0.3522600531578064,0.744887113571167,-47.67409896850586,3.3033430576324463,87.45999145507812,29.91,0
-0.5521538853645325,-0.3604068160057068,0.7355232834815979,-51.54897689819336,3.30189061164856,87.45999145507812,29.91,0
-0.5670560002326965,-0.3600371479988098,0.7351118922233582,-53.097015380859375,3.300958633422852,87.45999145507812,29.91,0
-0.5654237866401672,-0.3597999215126037,0.7292501330375671,-54.14777755737305,3.3003604412078857,87.45999145507812,29.91,0
-0.5587785243988037,-0.3596476912498474,0.7366839051246643,-55.13736343383789,3.299976587295532,87.45999145507812,29.91,0
-0.5545139908790588,-0.3651477694511413,0.7414544820785522,-57.13738632202149,3.2997303009033203,87.45999145507812,29.91,0
-0.5741683840751648,-0.3630796372890472,0.7277226448059082,-65.41049194335938,3.299572229385376,87.45999145507812,29.91,0
-0.5923792123794556,-0.3617524206638336,0.7245081067085266,-89.1878662109375,3.3086514472961426,87.34535217285156,29.91,0
-0.59287029504776,-0.3609007000923157,0.7280430197715759,-133.11817932128906,3.3144779205322266,87.27178192138672,29.91,0
-0.5875876545906067,-0.3659518957138061,0.7247137427330017,-185.7289581298828,3.3182170391082764,87.22457122802734,29.91,0
-0.5841975808143616,-0.369193434715271,0.7169793844223022,-224.65760803222656,3.3206167221069336,87.19427490234375,29.91,0
-0.5820220112800598,-0.3712736666202545,0.717613697052002,-238.5337829589844,3.3221566677093506,87.1748275756836,29.91,0
-0.5862236618995667,-0.3670108914375305,0.7180207967758179,-236.69097900390625,3.3231449127197266,87.162353515625,29.91,0
-0.5945178270339966,-0.3642752766609192,0.7182820439338684,-235.24685668945312,3.3237791061401367,87.15434265136719,29.91,0
-0.599840521812439,-0.3569219410419464,0.7184497117996216,-241.94381713867188,3.324186086654663,87.14920043945312,29.91,0
-0.6088541150093079,-0.3522029817104339,0.7185572981834412,-251.99874877929688,3.315725564956665,87.14590454101562,29.91,0
-0.6034429669380188,-0.3491746485233307,0.7186263203620911,-252.24996948242188,3.310296058654785,87.14379119873047,29.91,0
-0.5999704003334045,-0.3472312390804291,0.7186706066131592,-232.7751007080078,3.306811571121216,87.1424331665039,29.91,0
-0.603339672088623,-0.3459840714931488,0.718699038028717,-195.57180786132807,3.3045754432678223,87.14156341552734,29.91,0
-0.6110996603965759,-0.3451837003231048,0.7075217366218567,-151.03616333007812,3.30314040184021,87.14100646972656,29.91,0
-0.6216773390769958,-0.3446700572967529,0.7003487944602966,-110.27499389648438,3.30221962928772,87.1406478881836,29.91,0
-0.6228677034378052,-0.344340443611145,0.7013434171676636,-82.46525573730469,3.301628589630127,87.14041900634766,29.91,0
-0.6180338263511658,-0.3441289067268371,0.7019816637039185,-67.87154388427734,3.3012492656707764,87.14026641845703,29.91,0
-0.626127302646637,-0.349590927362442,0.7023912668228149,-57.81111907958984,3.296874523162842,87.14016723632812,29.91,0
-0.6201256513595581,-0.3530961573123932,0.7026541233062744,-46.32139587402344,3.294066905975342,87.14010620117188,29.91,0
-0.6162741780281067,-0.3497478365898132,0.7028228044509888,-38.2206916809082,3.2922651767730717,87.14006805419922,29.91,0
-0.6249980330467224,-0.347599059343338,0.7029310464859009,-41.29787826538086,3.291109085083008,87.14004516601562,29.91,0
-0.6305965185165405,-0.3462201058864593,0.703000545501709,-52.94917297363281,3.290367126464844,87.14002990722656,29.91,0
-0.6229937672615051,-0.3453351855278015,0.703045129776001,-65.8109130859375,3.289891004562378,87.14002227783203,29.91,0
-0.6237125396728516,-0.3447672724723816,0.6974759697914124,-83.33296203613281,3.2895853519439697,87.1400146484375,29.91,0
-0.6297715306282043,-0.3444028198719024,0.6939020156860352,-128.37921142578125,3.289389133453369,87.14000701904297,29.91,0
-0.633659839630127,-0.3441689312458038,0.6972061991691589,-210.2807464599609,3.297067165374756,87.14000701904297,29.87,0
-0.6361551880836487,-0.3384210765361786,0.6993266344070435,-298.1502990722656,3.301994562149048,87.14000701904297,29.87,0
-0.6377565264701843,-0.3347324430942535,0.7006874084472656,-345.6264953613281,3.305156707763672,87.14000701904297,29.87,0
-0.6387841701507568,-0.3323652744293213,0.6959629058837891,-337.6744384765625,3.3071858882904053,87.14000701904297,29.87,0
-0.6394436359405518,-0.3364439308643341,0.6985287666320801,-299.2962951660156,3.308488130569458,87.14000701904297,29.87,0
-0.6398668885231018,-0.3390613794326782,0.6945776343345642,-261.93853759765625,3.309324026107788,87.14000701904297,29.87,0
-0.6401385068893433,-0.3407411277294159,0.6920419931411743,-245.45204162597656,3.3098602294921875,87.14000701904297,29.87,0
-0.6403127908706665,-0.3418190777301788,0.696012556552887,-217.8690643310547,3.31020450592041,87.14000701904297,29.87,0
-0.6404246687889099,-0.342510849237442,0.6929628849029541,-129.61265563964844,3.3131797313690186,87.01819610595703,29.87,0
-0.6348986625671387,-0.3429547846317291,0.696603536605835,-3.2435107231140137,3.315088987350464,86.94002532958984,29.87,0
-0.6313523650169373,-0.3432396650314331,0.6989399194717407,118.20706176757812,3.316314220428467,86.88986206054688,29.87,0
-0.6290766000747681,-0.3434225022792816,0.7004392743110657,215.6649169921875,3.317100524902344,86.857666015625,29.87,0
-0.6276161074638367,-0.343539834022522,0.7014014720916748,278.66632080078125,3.3176052570343018,86.83700561523438,29.87,0
-0.6210811138153076,-0.3436151146888733,0.7020189166069031,300.81512451171875,3.3179290294647217,86.82374572753906,29.87,0
-0.6224851012229919,-0.3436634242534637,0.7024151682853699,295.28179931640625,3.3181369304656982,86.81523895263672,29.87,0
-0.6233860850334167,-0.3436944484710693,0.7026694416999817,281.6888732910156,3.318270206451416,86.80978393554688,29.87,0
-0.6183664798736572,-0.3437143564224243,0.7028326392173767,266.2340393066406,3.322027921676636,86.80628204345703,29.87,0
-0.6207429766654968,-0.3437271118164062,0.7029373645782471,239.16622924804688,3.324439287185669,86.80403137207031,29.87,0
-0.6166703104972839,-0.3437353074550628,0.7030045986175537,197.2012939453125,3.325986862182617,86.8025894165039,29.87,0
-0.6140567064285278,-0.3437405824661255,0.7030477523803711,151.2758026123047,3.326979875564575,86.80166625976562,29.87,0
-0.62357497215271,-0.3437439501285553,0.7030754089355469,111.0234832763672,3.3276171684265137,86.80107116699219,29.87,0
-0.629683256149292,-0.3437461256980896,0.7030931711196899,73.5950698852539,3.328026294708252,86.80068969726562,29.87,0
-0.6280054450035095,-0.3437475264072418,0.703104555606842,28.01214408874512,3.3282887935638428,86.80044555664062,29.87,0
-0.6269287467002869,-0.3437484204769134,0.6975141167640686,-33.12527847290039,3.3284571170806885,86.80028533935547,29.87,0
-0.6262377500534058,-0.3437489867210388,0.6939265131950378,-103.85059356689452,3.332237720489502,86.80018615722656,29.87,0
-0.6257942914962769,-0.3437493443489074,0.6972219347953796,-163.80120849609375,3.3346638679504395,86.80011749267578,29.87,0
-0.6255097389221191,-0.3437495827674866,0.6993367671966553,-191.55499267578125,3.336220979690552,86.80007934570312,29.87,0
-0.6309248805046082,-0.3437497317790985,0.6950961351394653,-177.25514221191406,3.3372201919555664,86.800048828125,29.87,0
-0.6288022398948669,-0.3437498211860657,0.6979725360870361,-124.58586120605467,3.3378612995147705,86.80003356933594,29.87,0
-0.6274400353431702,-0.3437498807907104,0.6998184323310852,-48.38954544067383,3.3382728099823,86.8000259399414,29.87,0
-0.6265658736228943,-0.3437499105930328,0.7010030150413513,26.894535064697266,3.3385369777679443,86.80001831054688,29.87,0
-0.6260048747062683,-0.3437499403953552,0.7017632126808167,77.2101821899414,3.338706493377685,86.80001068115234,29.87,0
-0.625644862651825,-0.3437499701976776,0.7022510766983032,93.16690826416016,3.339733362197876,86.80001068115234,29.87,0
-0.6198160648345947,-0.3437499701976776,0.7025641798973083,80.23133850097656,3.3403923511505127,86.80001068115234,29.87,0
-0.6216732263565063,-0.3437499701976776,0.7027651071548462,51.7816276550293,3.340815305709839,86.80001068115234,29.87,0
-0.6284628510475159,-0.3437499701976776,0.7028940320014954,25.51718139648437,3.3410868644714355,86.80001068115234,29.87,0
-0.6272222399711609,-0.3437499701976776,0.6973789930343628,11.74318790435791,3.34126091003418,86.80001068115234,29.87,0
-0.626426100730896,-0.3437499701976776,0.6994375586509705,5.88811731338501,3.3413727283477783,86.80001068115234,29.87,0
-0.6259151697158813,-0.3437499701976776,0.7007586359977722,-0.7282251715660095,3.341444492340088,86.80001068115234,29.87,0
-0.6311850547790527,-0.3437499701976776,0.7016063928604126,-12.307744979858398,3.3414905071258545,86.80001068115234,29.87,0
-0.6345669627189636,-0.3437499701976776,0.6965526938438416,-32.28141021728516,3.343356132507324,86.71402740478516,29.87,0
-0.6311395168304443,-0.3437499701976776,0.6989072561264038,-60.23932647705078,3.3445534706115723,86.65884399414062,29.87,0
-0.6289399862289429,-0.3437499701976776,0.7004182934761047,-85.64360809326172,3.3453218936920166,86.62342834472656,29.87,0
-0.6275284290313721,-0.3493477404117584,0.6957902312278748,-97.43973541259766,3.345814943313598,86.60070037841797,29.87,0
-0.6266226172447205,-0.3529400825500488,0.6984179615974426,-95.6664581298828,3.3461313247680664,86.58612060546875,29.87,0
-0.6260412931442261,-0.3496476709842682,0.700104296207428,-86.65038299560547,3.346334457397461,86.5767593383789,29.87,0
-0.6256682276725769,-0.3475347757339477,0.70118647813797,-73.91060638427734,3.3464646339416504,86.57075500488281,29.87,0
-0.6254288554191589,-0.3461788594722748,0.7018809914588928,-58.40858459472656,3.346548318862915,86.56690216064453,29.87,0
-0.625275194644928,-0.3453086912631988,0.7023266553878784,-40.70400238037109,3.343847751617432,86.5644302368164,29.87,0
-0.6307743787765503,-0.3447502851486206,0.7026126980781555,-20.03110694885254,3.3421146869659424,86.5628433227539,29.87,0
-0.6287056803703308,-0.3443919122219085,0.702796220779419,3.9331374168396,3.3410024642944336,86.56182098388672,29.87,0
-0.6273781061172485,-0.3497597277164459,0.6973162293434143,28.22187805175781,3.3402886390686035,86.56116485595703,29.87,0
-0.6265261173248291,-0.3476066887378692,0.6993972659111023,49.70591354370117,3.3398306369781494,86.56074523925781,29.87,0
-0.6259793639183044,-0.3462249934673309,0.7007327675819397,69.26824188232422,3.339536666870117,86.56047821044922,29.87,0
-0.6312263011932373,-0.3453383147716522,0.6959920525550842,87.84810638427734,3.339348077774048,86.560302734375,29.87,0
-0.6289956569671631,-0.3447692990303039,0.6985474824905396,100.54901885986328,3.3392269611358643,86.56019592285156,29.87,0
-0.6275641918182373,-0.3444041311740875,0.7001873850822449,99.68238830566406,3.338231086730957,86.56012725830078,29.87,0
-0.626645565032959,-0.3441697955131531,0.701239824295044,82.5604019165039,3.3375918865203857,86.5600814819336,29.87,0
-0.6260560154914856,-0.3440194129943847,0.7019152045249939,54.03579330444336,3.337181806564331,86.56005096435547,29.87,0
-0.631275475025177,-0.343922883272171,0.7023486495018005,23.58540916442871,3.336918592453003,86.56002807617188,29.87,0
-0.6346250176429749,-0.3438609540462494,0.7026267647743225,0.8878552913665771,3.33674955368042,86.56002044677734,29.87,0
-0.631176769733429,-0.3438211977481842,0.7028052806854248,-8.938382148742676,3.3366410732269287,86.56001281738281,29.87,0
-0.6289638876914978,-0.3437956869602203,0.7029198408126831,-7.047361850738525,3.336571455001831,86.56000518798828,29.87,0
-0.6275438070297241,-0.3493770956993103,0.7029933333396912,3.115459680557251,3.336526870727539,86.56000518798828,29.87,0
-0.6322302222251892,-0.347361147403717,0.6974427103996277,19.417804718017575,3.332366704940796,86.56000518798828,29.81,0
-0.6352376937866211,-0.3460674285888672,0.6994784474372864,38.63911056518555,3.329697132110596,86.56000518798828,29.81,0
-0.637167751789093,-0.3452371954917907,0.7007848620414734,54.05525207519531,3.327983856201172,86.56000518798828,29.81,0
-0.6384063363075256,-0.3447043895721435,0.701623260974884,59.48813629150391,3.3268845081329346,86.56000518798828,29.81,0
-0.6336033940315247,-0.3443624675273895,0.7021612524986267,54.75263977050781,3.326178789138794,86.56000518798828,29.81,0
-0.6361189484596252,-0.3441430330276489,0.7025065422058105,44.86020278930664,3.32572603225708,86.56000518798828,29.81,0
-0.6377332806587219,-0.344002217054367,0.6971303224563599,35.11552429199219,3.3254354000091557,86.56000518798828,29.81,0
-0.638769268989563,-0.3439118564128876,0.6936801671981812,28.224252700805664,3.325248956680298,86.56000518798828,29.81,0
-0.6338363289833069,-0.3438538610935211,0.6970638632774353,24.181583404541016,3.320080041885376,86.46327209472656,29.81,0
-0.6306706666946411,-0.3438166379928589,0.6992353200912476,21.092836380004883,3.316762924194336,86.40119934082031,29.81,0
-0.6286391019821167,-0.3437927663326263,0.7006288170814514,16.903789520263672,3.314634323120117,86.36135864257812,29.81,0
-0.6273353695869446,-0.343777447938919,0.7015230655670166,11.374517440795898,3.313268184661865,86.3357925415039,29.81,0
-0.6264986991882324,-0.3437676131725311,0.7020969986915588,5.741089820861816,3.312391519546509,86.31938934326172,29.81,0
-0.6259617805480957,-0.3437612950801849,0.702465295791626,0.642694354057312,3.311828851699829,86.3088607788086,29.81,0
-0.63121497631073,-0.3437572419643402,0.7027016282081604,-3.6287009716033936,3.3114678859710693,86.3021011352539,29.81,0
-0.6345862150192261,-0.3437546491622925,0.7028533220291138,-5.391793727874756,3.3112361431121826,86.29776763916016,29.81,0
-0.6367496848106384,-0.3437529802322387,0.702950656414032,-2.937086820602417,3.3078742027282715,86.29498291015625,29.81,0
-0.6325402855873108,-0.3437519073486328,0.7030131220817566,3.0125274658203125,3.305716753005981,86.29319763183594,29.81,0
-0.6298389434814453,-0.3437512218952179,0.6974554061889648,10.230511665344238,3.3043322563171387,86.29205322265625,29.81,0
-0.6281053423881531,-0.3437507748603821,0.693888783454895,16.876005172729492,3.303443670272827,86.29132080078125,29.81,0
-0.6269928216934204,-0.3437505066394806,0.6971977353096008,21.66375732421875,3.302873373031616,86.29084777832031,29.81,0
-0.6318766474723816,-0.3437503278255462,0.6993212103843689,24.06273651123047,3.3025074005126958,86.29054260253906,29.81,0
-0.6294130086898804,-0.3437502086162567,0.7006839513778687,24.43434333801269,3.3022725582122803,86.29035186767578,29.81,0
-0.6278319954872131,-0.3437501192092895,0.6959607005119324,23.658950805664062,3.302121877670288,86.29022979736328,29.81,0
-0.6268174052238464,-0.3437500894069671,0.6985273361206055,23.200756072998047,3.297434568405152,86.29014587402344,29.81,0
-0.6317640542984009,-0.3437500596046448,0.7001745104789734,24.336162567138672,3.294426441192627,86.29009246826172,29.81,0
-0.6349385380744934,-0.3437500298023224,0.6956337690353394,26.307954788208008,3.2924959659576416,86.2900619506836,29.81,0
-0.6313779950141907,-0.3437500298023224,0.6983175873756409,27.089689254760746,3.29125714302063,86.2900390625,29.81,0
-0.6290930509567261,-0.3437500298023224,0.7000398635864258,25.9111328125,3.290462017059326,86.29002380371094,29.81,0
-0.6332244873046875,-0.3437500298023224,0.7011451125144958,23.248872756958008,3.289951801300049,86.2900161743164,29.81,0
-0.6358757615089417,-0.3437500298023224,0.701854407787323,19.67744827270508,3.2896244525909424,86.29000854492188,29.81,0
-0.6319794654846191,-0.3437500298023224,0.7023096084594727,16.01338768005371,3.289414405822754,86.29000854492188,29.81,0
-0.6350768208503723,-0.3437500298023224,0.697003960609436,12.820098876953123,3.28468918800354,86.29000854492188,29.79,0
-0.637064516544342,-0.3437500298023224,0.6991968750953674,9.38079071044922,3.2816567420959477,86.29000854492188,29.79,0
-0.6383401155471802,-0.3437500298023224,0.6950063705444336,5.131572723388672,3.2797107696533203,86.29000854492188,29.79,0
-0.6391586661338806,-0.3437500298023224,0.6923171281814575,1.4875298738479614,3.2784619331359863,86.29000854492188,29.79,0
-0.6396839618682861,-0.3437500298023224,0.6961891055107117,-0.0413450077176094,3.277660608291626,86.29000854492188,29.79,0
-0.6400210857391357,-0.3437500298023224,0.6986739635467529,-0.1232623979449272,3.277146339416504,86.29000854492188,29.79,0
-0.6402374505996704,-0.3437500298023224,0.700268566608429,0.0785306170582771,3.276816368103028,86.29000854492188,29.79,0
-0.6347784996032715,-0.3437500298023224,0.6956941485404968,0.9567880630493164,3.276604652404785,86.29000854492188,29.79,0
-0.6368730664253235,-0.3437500298023224,0.6927585601806641,3.1898834705352783,3.273714303970337,86.20760345458984,29.79,0
-0.6382172107696533,-0.3437500298023224,0.6964724063873291,6.328261375427246,3.2718594074249268,86.15472412109375,29.79,0
-0.6390798091888428,-0.3437500298023224,0.6988557577133179,9.61768913269043,3.270669221878052,86.12078857421875,29.79,0
-0.6396333575248718,-0.3437500298023224,0.6947874426841736,12.785513877868652,3.2699053287506104,86.09900665283203,29.79,0
-0.6343908309936523,-0.3437500298023224,0.6977744102478027,15.67109489440918,3.269415140151977,86.08502960205078,29.79,0
-0.636624276638031,-0.3437500298023224,0.6996912956237793,17.89189910888672,3.2691006660461426,86.07606506347656,29.79,0
-0.6380575895309448,-0.3437500298023224,0.695323646068573,18.88000869750977,3.268898725509644,86.0703125,29.79,0
-0.6333796381950378,-0.3437500298023224,0.6981185674667358,18.12766456604004,3.2687692642211914,86.06661987304688,29.79,0
-0.6359753608703613,-0.3437500298023224,0.6999121308326721,15.574125289916992,3.2640953063964844,86.06424713134766,29.79,0
-0.6376411318778992,-0.3437500298023224,0.7010631561279297,11.89334201812744,3.261095762252808,86.0627212524414,29.79,0
-0.633112370967865,-0.3437500298023224,0.7018018364906311,8.030128479003906,3.2591710090637207,86.0617446899414,29.79,0
-0.6358038187026978,-0.3437500298023224,0.7022758722305298,3.945946216583252,3.2579357624053955,86.06111907958984,29.79,0
-0.637531042098999,-0.3437500298023224,0.7025800943374634,-1.4013864994049072,3.257143020629883,86.06071472167969,29.79,0
-0.6386394500732422,-0.3381522595882416,0.7027752995491028,-8.257940292358398,3.25663423538208,86.06045532226562,29.79,0
-0.6393507719039917,-0.340157687664032,0.7029005885124207,-15.155136108398438,3.25630784034729,86.06029510498047,29.79,0
-0.6342095136642456,-0.3414446711540222,0.7029809951782227,-19.749740600585938,3.25609827041626,86.06018829345703,29.79,0
-0.6365079283714294,-0.3422705829143524,0.7030326128005981,-20.22989845275879,3.254586696624756,86.06011962890625,29.79,0
-0.6379829049110413,-0.3428005874156952,0.6974679231643677,-16.747671127319336,3.253616571426392,86.06007385253906,29.79,0
-0.6389294266700745,-0.3375429511070251,0.6994946002960205,-11.575265884399414,3.2529940605163574,86.06004333496094,29.79,0
-0.6395368576049805,-0.3341689109802246,0.7007952332496643,-6.873040199279785,3.252594470977783,86.06002807617188,29.79,0
-0.6399266719818115,-0.3320036232471466,0.7016298770904541,-2.927535057067871,3.252338171005249,86.06002044677734,29.79,0
-0.634579062461853,-0.3306140899658203,0.7021655440330505,0.5860885977745056,3.252173662185669,86.06001281738281,29.79,0
-0.636745035648346,-0.3353201150894165,0.6969115138053894,3.059467077255249,3.252068042755127,86.06000518798828,29.79,0
-0.6381350755691528,-0.3327424228191376,0.6935397386550903,4.095022201538086,3.252000331878662,86.06000518798828,29.79,0
-0.6390271186828613,-0.3310881853103637,0.6913759708404541,5.071266174316406,3.2492029666900635,86.06000518798828,29.77,0
-0.645197331905365,-0.3356243669986725,0.6955851316452026,7.24901819229126,3.2474076747894287,86.06000518798828,29.77,0
-0.6435592770576477,-0.3329376578330993,0.6982863545417786,9.284273147583008,3.24625563621521,86.06000518798828,29.77,0
-0.6425080299377441,-0.3312134742736816,0.6944220662117004,9.078535079956056,3.245516300201416,86.06000518798828,29.77,0
-0.6418334245681763,-0.3301070034503937,0.6919421553611755,6.617830276489258,3.245041847229004,86.06000518798828,29.77,0
-0.6414005160331726,-0.3293969333171844,0.6959484815597534,2.720765352249145,3.244737386703491,86.06000518798828,29.77,0
-0.6411226987838745,-0.3289412558078766,0.6929217576980591,-2.169724702835083,3.244541883468628,86.06000518798828,29.77,0
-0.6409444212913513,-0.3286488354206085,0.6965771317481995,-6.289785385131836,3.2444164752960205,86.06000518798828,29.77,0
-0.6408299803733826,-0.3284611701965332,0.6989229321479797,-7.57958984375,3.240663528442383,85.92386627197266,29.77,0
-0.6407565474510193,-0.3283407390117645,0.694830596446991,-7.483007431030273,3.238255262374878,85.83650207519531,29.77,0
-0.640709400177002,-0.3282634615898132,0.6922043561935425,-9.516833305358888,3.2367095947265625,85.78043365478516,29.77,0
-0.6406791806221008,-0.3282138705253601,0.6905189752578735,-13.430140495300291,3.2357177734375,85.74445343017578,29.77,0
-0.640659749507904,-0.32818204164505,0.6894373893737793,-14.759225845336914,3.235081195831299,85.72135925292969,29.77,0
-0.640647292137146,-0.3337593674659729,0.6887432932853699,-10.854496002197266,3.234672784805298,85.70654296875,29.77,0
-0.6406393051147461,-0.3373385965824127,0.6882978677749634,-3.906270742416382,3.234410762786865,85.69703674316406,29.77,0
-0.6406341791152954,-0.3340377509593963,0.6880120038986206,2.755983352661133,3.2342424392700195,85.69093322753906,29.77,0
-0.6406309008598328,-0.3319194614887237,0.6934263706207275,8.432222366333008,3.2309212684631348,85.68701934814453,29.77,0
-0.6406288146972656,-0.3305600583553314,0.6969009637832642,13.640490531921388,3.228789806365967,85.68450164794922,29.77,0
-0.6406274437904358,-0.3352854549884796,0.6935330033302307,17.445009231567383,3.227421998977661,85.68289184570312,29.77,0
-0.6406265497207642,-0.3383179306983948,0.6913716197013855,18.743688583374023,3.2265443801879883,85.68185424804688,29.77,0
-0.6406260132789612,-0.3346662223339081,0.6899845600128174,18.634889602661133,3.2259809970855717,85.68119049072266,29.77,0
-0.6406256556510925,-0.3323227763175964,0.6946921944618225,18.91974449157715,3.2256195545196533,85.6807632446289,29.77,0
-0.6406254172325134,-0.3308188915252685,0.6921155452728271,19.45722198486328,3.2253875732421875,85.68048858642578,29.77,0
-0.6406252384185791,-0.3298537731170654,0.6904619932174683,19.060550689697266,3.225238800048828,85.68031311035156,29.77,0
-0.6406251788139343,-0.3292344212532043,0.689400851726532,17.19741439819336,3.221470594406128,85.6801986694336,29.77,0
-0.6462228894233704,-0.328836977481842,0.6887198686599731,13.716076850891112,3.21905255317688,85.68013000488281,29.77,0
-0.6442174315452576,-0.3285818994045257,0.68828284740448,9.300167083740234,3.217500686645508,85.68008422851562,29.77,0
-0.6429303884506226,-0.3284182250499725,0.6880024075508118,6.34089994430542,3.2165048122406006,85.6800537109375,29.77,0
-0.64210444688797,-0.3283131718635559,0.6878224015235901,6.455219745635986,3.2158658504486084,85.6800308227539,29.77,0
-0.6415744423866272,-0.3282457590103149,0.6933046579360962,7.263011932373047,3.2154557704925537,85.68002319335938,29.77,0
-0.641234278678894,-0.328202486038208,0.6912251114845276,4.288394927978516,3.2151925563812256,85.68001556396484,29.77,0
-0.6410160064697266,-0.328174740076065,0.6898905634880066,-3.6213574409484863,3.2150235176086426,85.68000793457031,29.77,0
-0.6464737057685852,-0.3281569182872772,0.689034104347229,-12.856751441955566,3.2139968872070312,85.68000793457031,29.75,0
-0.6443783640861511,-0.3337432444095611,0.6884844899177551,-19.46776580810547,3.2133381366729736,85.68000793457031,29.75,0
-0.6430336833000183,-0.3373282253742218,0.6881318092346191,-23.11921119689941,3.2129154205322266,85.68000793457031,29.75,0
-0.6477685570716858,-0.3396288752555847,0.6935032606124878,-25.838668823242188,3.212644100189209,85.68000793457031,29.75,0
-0.6452093124389648,-0.3355075120925903,0.6913525462150574,-28.90224838256836,3.212470054626465,85.68000793457031,29.75,0
-0.6435669660568237,-0.3328626751899719,0.6899723410606384,-32.072021484375,3.212358236312866,85.68000793457031,29.75,0
-0.6425129771232605,-0.3367631435394287,0.6890866160392761,-34.02021789550781,3.2122864723205566,85.68000793457031,29.75,0
-0.6418365836143494,-0.3392662405967712,0.688518226146698,-33.002689361572266,3.21224045753479,85.68000793457031,29.75,0
-0.641402542591095,-0.340872585773468,0.6881534457206726,-28.724130630493164,3.2089977264404297,85.59760284423828,29.75,0
-0.6411240100860596,-0.3363056778907776,0.6879193186759949,-22.979782104492188,3.206916570663452,85.54472351074219,29.75,0
-0.6409452557563782,-0.3333748877048492,0.6877691149711609,-17.086523056030273,3.2055811882019043,85.51078796386719,29.75,0
-0.6408305168151855,-0.337091863155365,0.6876726746559143,-10.184144973754885,3.204724073410034,85.48900604248047,29.75,0
-0.6407569050788879,-0.3338794112205505,0.6876108050346375,-1.602391242980957,3.204174041748047,85.47502899169922,29.75,0
-0.640709638595581,-0.3374156355857849,0.687571108341217,6.81751823425293,3.203821182250977,85.466064453125,29.75,0
-0.6406792998313904,-0.3396849632263183,0.687545657157898,12.163610458374023,3.20359468460083,85.46031188964844,29.75,0
-0.6406598687171936,-0.3411412835121155,0.6875293254852295,12.792850494384766,3.203449249267578,85.45661926269531,29.75,0
-0.6406473517417908,-0.3420758843421936,0.687518835067749,9.366887092590332,3.200601816177368,85.4542465209961,29.75,0
-0.6406393647193909,-0.3426756560802459,0.6875120997428894,4.724984169006348,3.1987743377685547,85.45272064208984,29.75,0
-0.6406342387199402,-0.3374627828598022,0.6875077486038208,1.8033993244171145,3.197601556777954,85.45174407958984,29.75,0
-0.6406309008598328,-0.334117442369461,0.6875049471855164,1.1644830703735352,3.1968491077423096,85.45111846923828,29.75,0
-0.6406288146972656,-0.3375683724880218,0.6875031590461731,1.2631890773773191,3.19636607170105,85.45071411132812,29.75,0
-0.6406274437904358,-0.3341852128505707,0.6875020265579224,0.4702973365783691,3.1960561275482178,85.45045471191406,29.75,0
-0.6406265497207642,-0.3376118838787079,0.6875013113021851,-1.8584834337234497,3.195857286453247,85.4502944946289,29.75,0
-0.646223783493042,-0.3398109078407287,0.6875008344650269,-5.258891105651856,3.195729732513428,85.45018768310547,29.75,0
-0.6498157382011414,-0.3356243371963501,0.687500536441803,-8.247156143188477,3.1947295665740967,85.45011901855469,29.75,0
-0.6465230584144592,-0.3329376578330993,0.6875003576278687,-9.20114040374756,3.1940877437591557,85.4500732421875,29.75,0
-0.6444100141525269,-0.3312134742736816,0.6875002384185791,-7.69963264465332,3.193675756454468,85.45004272460938,29.75,0
-0.6430540084838867,-0.3357047736644745,0.6875001788139343,-4.769217491149902,3.1934115886688232,85.45002746582031,29.75,0
-0.642183780670166,-0.3385870456695556,0.6875001192092896,-1.4341199398040771,3.193242073059082,85.45001983642578,29.75,0
-0.6472231149673462,-0.340436726808548,0.6875000596046448,1.970802903175354,3.1931331157684326,85.45001220703125,29.75,0
-0.6448593139648438,-0.3360259532928467,0.6875000596046448,4.610873699188232,3.193063259124756,85.45000457763672,29.75,0
-0.6433423161506653,-0.3331953883171081,0.6875000596046448,5.5814385414123535,3.1930184364318848,85.45000457763672,29.75,0
-0.6423687934875488,-0.3369766473770141,0.6875000596046448,6.00366735458374,3.189317464828491,85.45000457763672,29.75,0
-0.641744077205658,-0.3338054716587066,0.6930978298187256,7.553608894348144,3.186942338943481,85.45000457763672,29.75,0
-0.6413431763648987,-0.3373681604862213,0.6966901421546936,9.12148380279541,3.185418128967285,85.45000457763672,29.75,0
-0.6466836333274841,-0.3340567350387573,0.6933977007865906,8.347115516662598,3.1844401359558105,85.45000457763672,29.75,0
-0.6445130705833435,-0.3319316506385803,0.6912847757339478,5.600313186645508,3.183812379837036,85.45000457763672,29.75,0
-0.6431201696395874,-0.3361656665802002,0.6899288296699524,3.117476224899292,3.1834094524383545,85.45000457763672,29.75,0
-0.6422262787818909,-0.3388828039169311,0.6946564316749573,1.5384644269943235,3.1831510066986084,85.45000457763672,29.75,0
-0.6416525840759277,-0.335028737783432,0.6920925974845886,0.1812183558940887,3.1829850673675537,85.45000457763672,29.75,0
-0.6412844657897949,-0.3325554132461548,0.6904472708702087,-0.9333992004394532,3.180583238601685,85.35685729980469,29.75,0
-0.6410481929779053,-0.3309681713581085,0.6893913745880127,-1.81707763671875,3.179041862487793,85.29708099365234,29.75,0
-0.6408965587615967,-0.3299495875835418,0.688713788986206,-3.2583200931549072,3.1780526638031006,85.25872039794922,29.75,0
-0.6407992839813232,-0.3348937034606933,0.6882789134979248,-4.674039363861084,3.177417993545532,85.23410034179688,29.75,0
-0.6463346481323242,-0.3380665481090545,0.6879998445510864,-3.6802189350128174,3.177010536193848,85.21829986572266,29.75,0
-0.6498869061470032,-0.3345049023628235,0.6878207921981812,0.4613168835639953,3.1767492294311523,85.20816040039062,29.75,0
-0.646568775177002,-0.3322192430496216,0.6877058744430542,5.644832134246826,3.176581382751465,85.20165252685547,29.75,0
-0.6444393992424011,-0.3307524621486664,0.687632143497467,10.056833267211914,3.17647385597229,85.19747924804688,29.75,0
-0.6430728435516357,-0.3354089260101318,0.6875848174095154,13.61546516418457,3.174568653106689,85.1948013305664,29.75,0
-0.6421958804130554,-0.3383971750736236,0.6875544190406799,15.942181587219238,3.1733460426330566,85.19308471679688,29.75,0
-0.6416330933570862,-0.3347170948982239,0.6875349283218384,16.23158836364746,3.1725614070892334,85.19197845458984,29.75,0
-0.6412719488143921,-0.3323554396629333,0.6931201815605164,15.349705696105955,3.172057867050171,85.19126892089844,29.75,0
-0.6410401463508606,-0.3308398425579071,0.6911067366600037,15.310402870178224,3.1717348098754883,85.1908187866211,29.75,0
-0.640891432762146,-0.3354650139808655,0.689814567565918,16.782697677612305,3.17152738571167,85.1905288696289,29.75,0
-0.6407960057258606,-0.3328354060649872,0.6889853477478027,18.47987174987793,3.1713943481445312,85.19033813476562,29.75,0
-0.6407347321510315,-0.3367456495761871,0.688453197479248,18.34019660949707,3.171308994293213,85.19021606445312,29.75,0
-0.6406953930854797,-0.3336572349071502,0.6881117224693298,15.151633262634276,3.1712541580200195,85.19013977050781,29.75,0
-0.6406701803207397,-0.331675261259079,0.6878925561904907,9.945566177368164,3.1712188720703125,85.19009399414062,29.75,0
-0.6406539678573608,-0.3304033577442169,0.6877519488334656,5.046191215515137,3.171196222305298,85.1900634765625,29.75,0
-0.6406435966491699,-0.3295871317386627,0.6876617074012756,1.4470672607421875,3.1711816787719727,85.1900405883789,29.75,0
-0.6406369209289551,-0.3290633261203766,0.687603771686554,-1.704548716545105,3.171172380447388,85.19002532958984,29.75,0
-0.6462303996086121,-0.3287271559238434,0.6875665783882141,-5.446710586547852,3.17116641998291,85.19001770019531,29.75,0
-0.6442221999168396,-0.3285114169120788,0.687542736530304,-9.997759819030762,3.1711626052856445,85.19001007080078,29.75,0
-0.6373357176780701,-0.328372985124588,0.6875274181365967,-14.466033935546877,3.171160221099853,85.19001007080078,29.75,0
-0.6385141015052795,-0.3338819146156311,0.6875175833702087,-16.80687713623047,3.169781446456909,85.19001007080078,29.75,0
-0.6448681354522705,-0.3374172449111938,0.6875112652778625,-15.274653434753418,3.1688966751098637,85.19001007080078,29.75,0
-0.6489457488059998,-0.3340882360935211,0.6875072121620178,-10.217971801757812,3.1683290004730225,85.19001007080078,29.75,0
-0.6459648013114929,-0.3319518566131592,0.6875046491622925,-3.734236240386963,3.1679646968841557,85.19001007080078,29.75,0
-0.6440517902374268,-0.330580860376358,0.6875029802322388,2.045975685119629,3.1677308082580566,85.19001007080078,29.75,0
-0.642824113368988,-0.3352988064289093,0.6875019073486328,5.798374176025391,3.1675808429718018,85.19001007080078,29.75,0
-0.6420362591743469,-0.3327287435531616,0.6875012516975403,7.020615100860596,3.1674845218658447,85.19001007080078,29.75,0
-0.6415306925773621,-0.3310794234275818,0.6875007748603821,6.325375080108643,3.1674227714538574,85.19001007080078,29.75,0
-0.6412062048912048,-0.3300209641456604,0.693098247051239,5.470796585083008,3.163710594177246,85.1864242553711,29.75,0
-0.6409980058670044,-0.3293417096138,0.6966903805732727,6.144035339355469,3.1613283157348637,85.18412017822266,29.75,0
-0.640864372253418,-0.3345035910606384,0.6933978796005249,7.998363494873047,3.159799575805664,85.18264770507812,29.75,0
-0.6407786011695862,-0.3322184085845947,0.6912848949432373,8.704717636108398,3.158818483352661,85.18170166015625,29.75,0
-0.6407235860824585,-0.3307519257068634,0.6899289488792419,7.040712356567383,3.158188819885254,85.18109130859375,29.75,0
-0.6406882405281067,-0.3298107981681824,0.689058780670166,4.52190637588501,3.1577847003936768,85.18070220947266,29.75,0
-0.640665590763092,-0.3348046243190765,0.6885003447532654,2.8123347759246826,3.1575255393981934,85.18045043945312,29.75,0
-0.6406510472297668,-0.3324115872383117,0.688141942024231,1.6758219003677368,3.1573591232299805,85.18029022216797,29.75,0
-0.6406416893005371,-0.3308758735656738,0.6935097575187683,0.4950687885284424,3.158170461654663,85.18018341064453,29.75,0
-0.6406357288360596,-0.3298903405666351,0.6913567185401917,-0.9433600306510924,3.158691167831421,85.18011474609375,29.75,0
-0.640631914138794,-0.3292579054832458,0.6899750232696533,-3.525193214416504,3.1590254306793213,85.1800765991211,29.75,0
-0.6406294107437134,-0.3288520276546478,0.6890883445739746,-7.722111225128174,3.1592400074005127,85.18004608154297,29.75,0
-0.6406278014183044,-0.3285915553569793,0.6941170692443848,-11.655023574829102,3.1593775749206543,85.1800308227539,29.75,0
-0.6406267881393433,-0.3284243941307068,0.6917464733123779,-12.882047653198242,3.159465789794922,85.18002319335938,29.75,0
-0.6406261324882507,-0.3283171355724334,0.6902251243591309,-11.218998908996582,3.159522533416748,85.18001556396484,29.75,0
-0.6462234854698181,-0.3282482922077179,0.68924880027771,-7.747841835021973,3.1595590114593506,85.18000793457031,29.75,0
-0.6442177891731262,-0.3282041251659393,0.6886222958564758,-2.754504680633545,3.155450820922852,85.18000793457031,29.75,0
-0.6429306268692017,-0.3281757831573486,0.688220202922821,3.179854393005371,3.1528143882751465,85.18000793457031,29.75,0
-0.6421046257019043,-0.3281576037406921,0.6879621744155884,7.865915775299072,3.151122570037842,85.18000793457031,29.75,0
-0.6415745615959167,-0.3281459212303161,0.6877965927124023,9.597763061523438,3.1500368118286133,85.18000793457031,29.75,0
-0.6412343978881836,-0.3281384408473968,0.6876903176307678,9.380026817321776,3.1493401527404785,85.18000793457031,29.75,0
-0.6410160660743713,-0.32813361287117,0.6932199001312256,9.655875205993652,3.148893117904663,85.18000793457031,29.75,0
-0.6408759355545044,-0.3281305134296417,0.6911706924438477,11.652847290039062,3.148606061935425,85.18000793457031,29.75,0
-0.6407860517501831,-0.3281285464763641,0.6898556351661682,14.41757583618164,3.1484220027923584,85.18000793457031,29.75,0
-0.6407283544540405,-0.3281272649765014,0.6890116930007935,15.815649032592772,3.1460084915161133,85.18000793457031,29.69,0
-0.640691339969635,-0.328126460313797,0.6884701251983643,14.480907440185549,3.1444594860076904,85.18000793457031,29.69,0
-0.6406675577163696,-0.328125923871994,0.688122570514679,11.277759552001951,3.143465518951416,85.18000793457031,29.69,0
-0.6406522989273071,-0.3281255960464477,0.6878995299339294,8.584465026855469,3.14282774925232,85.18000793457031,29.69,0
-0.640642523765564,-0.328125387430191,0.6933541893959045,7.640647888183594,3.142418384552002,85.18000793457031,29.69,0
-0.6406362652778625,-0.3281252384185791,0.6912568807601929,6.956143856048584,3.142155647277832,85.18000793457031,29.69,0
-0.6406322121620178,-0.3281251490116119,0.6955087184906006,3.840684413909912,3.1419870853424072,85.18000793457031,29.69,0
-0.6406296491622925,-0.3281250894069671,0.6926395297050476,-2.3896596431732178,3.141878843307495,85.18000793457031,29.69,0
-0.6406279802322388,-0.3281250596046448,0.690798282623291,-9.343560218811035,3.141809463500977,85.0689468383789,29.69,0
-0.6462246775627136,-0.3281250298023224,0.6896166205406189,-13.838417053222656,3.141764879226685,84.99767303466797,29.69,0
-0.6498163342475891,-0.3281250298023224,0.6944561004638672,-14.444438934326172,3.1417362689971924,84.95193481445312,29.69,0
-0.6465234756469727,-0.3281250298023224,0.6919640302658081,-11.612613677978516,3.1417179107666016,84.9225845336914,29.69,0
-0.6444103121757507,-0.3281250298023224,0.6903647780418396,-6.725044250488281,3.1417062282562256,84.90374755859375,29.69,0
-0.643054187297821,-0.3281250298023224,0.694936215877533,-1.6073193550109863,3.1416985988616943,84.89165496826172,29.69,0
-0.6421838998794556,-0.3281250298023224,0.6922721266746521,2.2179107666015625,3.1416938304901123,84.88389587402344,29.69,0
-0.6416254043579102,-0.3281250298023224,0.6905624866485596,4.626150131225586,3.141690731048584,84.87892150878906,29.69,0
-0.6412670016288757,-0.3281250298023224,0.689465343952179,6.669597625732422,3.140311479568481,84.87572479248047,29.69,0
-0.6410369873046875,-0.3281250298023224,0.6887612342834473,9.252779006958008,3.1394264698028564,84.87367248535156,29.69,0
-0.6408894062042236,-0.3281250298023224,0.688309371471405,12.494013786315918,3.1388585567474365,84.87236022949219,29.69,0
-0.6463924646377563,-0.3281250298023224,0.6880193948745728,15.89602279663086,3.1384940147399902,84.87151336669922,29.69,0
-0.6443262100219727,-0.3281250298023224,0.687833309173584,18.33001708984375,3.138260126113892,84.8709716796875,29.69,0
-0.6430002450942993,-0.3281250298023224,0.6877139210700989,18.097143173217773,3.1381099224090576,84.8706283569336,29.69,0
-0.6421492695808411,-0.3281250298023224,0.6876372694969177,13.953126907348633,3.1380136013031006,84.87040710449219,29.69,0
-0.6472009420394897,-0.3281250298023224,0.687588095664978,6.790438175201416,3.1379518508911133,84.8702621459961,29.69,0
-0.6448450684547424,-0.3281250298023224,0.6875565052032471,0.0156305693089962,3.135157823562622,84.87017059326172,29.69,0
-0.6433331966400146,-0.3281250298023224,0.6875362396240234,-3.1354706287384038,3.133364677429199,84.87010955810547,29.69,0
-0.6423629522323608,-0.3281250298023224,0.6875232458114624,-3.061859130859375,3.132214069366455,84.87007141113281,29.69,0
-0.6473380923271179,-0.3281250298023224,0.6875149011611938,-3.1650876998901367,3.131475687026977,84.87004852294922,29.69,0
-0.6505308747291565,-0.3281250298023224,0.6875095367431641,-5.667485237121582,3.131001710891724,84.87003326416016,29.69,0
-0.6469820141792297,-0.3281250298023224,0.6875061392784119,-9.895825386047363,3.130697727203369,84.87002563476562,29.69,0
-0.6447045803070068,-0.3281250298023224,0.6875039339065552,-14.002952575683594,3.130502462387085,84.8700180053711,29.69,0
-0.6432430148124695,-0.3281250298023224,0.6931002736091614,-16.000972747802734,3.1303772926330566,84.87001037597656,29.69,0
-0.6479028463363647,-0.3281250298023224,0.691093921661377,-14.24874496459961,3.13075590133667,84.87001037597656,29.69,0
-0.6508932709693909,-0.3281250298023224,0.6898064017295837,-9.212093353271484,3.1309988498687744,84.87001037597656,29.69,0
-0.6472145915031433,-0.3281250298023224,0.6889801025390625,-3.618942975997925,3.131154775619507,84.87001037597656,29.69,0
-0.6504516005516052,-0.3281250298023224,0.6884498596191406,0.2462775409221649,3.131254911422729,84.87001037597656,29.69,0
-0.6525289416313171,-0.3281250298023224,0.6881095767021179,1.9923255443573,3.131319046020508,84.87001037597656,29.69,0
-0.6538620591163635,-0.3281250298023224,0.6878911852836609,2.059561252593994,3.1313602924346924,84.87001037597656,29.69,0
-0.6491197943687439,-0.3281250298023224,0.6933488249778748,1.074510097503662,3.1313867568969727,84.87001037597656,29.69,0
-0.6460764408111572,-0.3281250298023224,0.6912534236907959,0.2166586816310882,3.131403684616089,84.87001037597656,29.69,0
-0.6441234350204468,-0.3281250298023224,0.6899087429046631,0.8698844909667969,3.128660202026367,84.81268310546875,29.69,0
-0.6428700685501099,-0.3281250298023224,0.689045786857605,3.1771044731140137,3.126899719238281,84.77589416503906,29.69,0
-0.6476635336875916,-0.3281250298023224,0.6884920001029968,5.431581974029541,3.125769853591919,84.75228881835938,29.69,0
-0.6451418995857239,-0.3281250298023224,0.688136637210846,5.8716721534729,3.125044822692871,84.73713684082031,29.69,0
-0.6435236930847168,-0.3281250298023224,0.6879085302352905,4.556267738342285,3.124579429626465,84.7274169921875,29.69,0
-0.6424852013587952,-0.3281250298023224,0.6877622008323669,2.4868760108947754,3.1242809295654297,84.72117614746094,29.69,0
-0.6474165320396423,-0.3281250298023224,0.6876682639122009,0.05542628839612,3.124089241027832,84.71717071533203,29.69,0
-0.6505811810493469,-0.3281250298023224,0.687608003616333,-2.4005820751190186,3.123966217041016,84.714599609375,29.69,0
-0.6526120901107788,-0.3281250298023224,0.6875693202018738,-4.012532711029053,3.124805450439453,84.71295166015625,29.69,0
-0.6539154052734375,-0.3281250298023224,0.6875444650650024,-4.867860794067383,3.125344038009644,84.7118911743164,29.69,0
-0.649154007434845,-0.3281250298023224,0.6875285506248474,-6.813965797424316,3.125689744949341,84.71121215820312,29.69,0
-0.6460984349250793,-0.3281250298023224,0.687518298625946,-11.444815635681152,3.1259114742279053,84.71077728271484,29.69,0
-0.6497353315353394,-0.3281250298023224,0.6875117421150208,-17.666025161743164,3.126053810119629,84.71049499511719,29.69,0
-0.6464715003967285,-0.3281250298023224,0.6875075101852417,-22.274641036987305,3.126145124435425,84.71031951904297,29.69,0
-0.6443769335746765,-0.3281250298023224,0.6875048279762268,-23.21877861022949,3.126203775405884,84.710205078125,29.69,0
-0.6430327892303467,-0.3281250298023224,0.6875030994415283,-21.05892372131348,3.126241445541382,84.71012878417969,29.69,0
-0.6421701908111572,-0.3281250298023224,0.6875019669532776,-16.785297393798828,3.1258065700531006,84.7100830078125,29.69,0
-0.6416166424751282,-0.3281250298023224,0.6875012516975403,-10.445823669433594,3.125527620315552,84.71005249023438,29.69,0
-0.6468591690063477,-0.3281250298023224,0.6875007748603821,-3.095874786376953,3.1253485679626465,84.71002960205078,29.69,0
-0.6502234935760498,-0.3281250298023224,0.693098247051239,2.577446937561035,3.1252336502075195,84.71002197265625,29.69,0
-0.646784782409668,-0.3281250298023224,0.6910926103591919,5.240215301513672,3.125159978866577,84.71001434326172,29.69,0
-0.6445779800415039,-0.3281250298023224,0.6898055076599121,6.164442539215088,3.125112771987915,84.71000671386719,29.69,0
-0.6431617736816406,-0.3281250298023224,0.6889795660972595,6.628585815429688,3.12508225440979,84.71000671386719,29.69,0
-0.6422529816627502,-0.3281250298023224,0.688449501991272,6.442798614501953,3.125062704086304,84.71000671386719,29.69,0
-0.6472675204277039,-0.3281250298023224,0.6881093382835388,5.374188423156738,3.1250503063201904,84.71000671386719,29.71,0
-0.6448878049850464,-0.3281250298023224,0.6878910660743713,3.6817121505737305,3.125042200088501,84.71000671386719,29.71,0
-0.6433606147766113,-0.3281250298023224,0.6877509355545044,1.047905683517456,3.12503719329834,84.71000671386719,29.71,0
-0.6479783058166504,-0.3281250298023224,0.6876610517501831,-3.211026668548584,3.1250338554382324,84.71000671386719,29.71,0
-0.6453438997268677,-0.3281250298023224,0.6876033544540405,-8.530783653259277,3.1250317096710205,84.71000671386719,29.71,0
-0.6436533331871033,-0.3281250298023224,0.687566339969635,-13.076790809631348,3.125030279159546,84.71000671386719,29.71,0
-0.6481661796569824,-0.3281250298023224,0.6875425577163696,-15.506927490234377,3.125029325485229,84.71000671386719,29.71,0
-0.6454644799232483,-0.3281250298023224,0.6875272989273071,-15.869868278503418,3.1250288486480717,84.71000671386719,29.71,0
-0.6437307000160217,-0.3281250298023224,0.6931152939796448,-15.26087760925293,3.126405715942383,84.71358489990234,29.71,0
-0.6426180601119995,-0.3281250298023224,0.6967013478279114,-15.482683181762695,3.127289295196533,84.71588134765625,29.71,0
-0.6475018262863159,-0.3281250298023224,0.6934049129486084,-17.928621292114258,3.1278562545776367,84.71735382080078,29.71,0
-0.6450381278991699,-0.3281250298023224,0.6912894248962402,-21.86278343200684,3.1282200813293457,84.71829986572266,29.71,0
-0.6434571146965027,-0.3281250298023224,0.6899318099021912,-24.71351623535156,3.128453493118286,84.71891021728516,29.71,0
-0.6424424648284912,-0.3281250298023224,0.6890605688095093,-24.393407821655277,3.128603458404541,84.71929931640625,29.71,0
-0.6417913436889648,-0.3281250298023224,0.6885014772415161,-20.78095054626465,3.128699541091919,84.71955108642578,29.71,0
-0.6469712853431702,-0.3281250298023224,0.688142716884613,-15.553632736206056,3.1287612915039062,84.71971130371094,29.71,0
-0.6502954363822937,-0.3281250298023224,0.6879124641418457,-10.579716682434082,3.1306369304656982,84.71981811523438,29.71,0
-0.6468309164047241,-0.3281250298023224,0.6877647042274475,-6.330883502960205,3.131840705871582,84.71988677978516,29.71,0
-0.6446076035499573,-0.3281250298023224,0.6876698732376099,-2.6870877742767334,3.132613182067871,84.71992492675781,29.71,0
-0.643180787563324,-0.3337228000164032,0.6876090168952942,-0.4382736384868622,3.1331088542938232,84.71995544433594,29.71,0
-0.6422651410102844,-0.3317173421382904,0.6875699758529663,0.2417972683906555,3.133427143096924,84.719970703125,29.71,0
-0.6416775584220886,-0.3304303586483001,0.6875448822975159,1.258604884147644,3.1336312294006348,84.71997833251953,29.71,0
-0.6413004994392395,-0.3296044468879699,0.6931265592575073,4.135912895202637,3.1337623596191406,84.71998596191406,29.71,0
-0.6410585045814514,-0.3290744125843048,0.6911107897758484,7.741447925567627,3.1338465213775635,84.7199935913086,29.71,0
-0.6409031748771667,-0.3343320488929748,0.6898171901702881,9.929883003234863,3.1361958980560303,84.7199935913086,29.71,0
-0.6408035159111023,-0.3321083188056946,0.6889870166778564,9.535841941833496,3.137703418731689,84.7199935913086,29.71,0
-0.6407395601272583,-0.3306812644004822,0.688454270362854,6.499307632446289,3.138670921325684,84.7199935913086,29.71,0
-0.6406984925270081,-0.3297654688358307,0.6881123781204224,2.2470383644104004,3.139291763305664,84.7199935913086,29.71,0
-0.6406721472740173,-0.3291777670383453,0.6878929734230042,-0.5355618596076965,3.1396901607513428,84.7199935913086,29.71,0
-0.6406552791595459,-0.328800618648529,0.6933499574661255,-0.5801427960395813,3.1399459838867188,84.7199935913086,29.71,0
-0.6406444311141968,-0.3285585641860962,0.6912541389465332,0.204492449760437,3.1401100158691406,84.7199935913086,29.71,0
-0.6406374573707581,-0.3284032344818115,0.6899092197418213,-0.9578715562820436,3.1402153968811035,84.7199935913086,29.71,0
-0.6406329870223999,-0.3283035457134247,0.6890460848808289,-4.899467468261719,3.13982367515564,84.7199935913086,29.71,0
-0.6406301259994507,-0.3282395899295807,0.6884921789169312,-10.506388664245604,3.1395723819732666,84.7199935913086,29.71,0
-0.6406282782554626,-0.3281985223293304,0.6881366968154907,-15.78839874267578,3.139410972595215,84.7199935913086,29.71,0
-0.6406270861625671,-0.3281721770763397,0.6879085898399353,-18.655033111572266,3.1393074989318848,84.7199935913086,29.71,0
-0.6406263113021851,-0.3281552791595459,0.6877622008323669,-17.968957901000977,3.1392409801483154,84.7199935913086,29.71,0
-0.6462236046791077,-0.3281444311141968,0.6876682639122009,-13.967594146728516,3.139198303222656,84.7199935913086,29.71,0
-0.6498156189918518,-0.328137457370758,0.687608003616333,-7.663122653961182,3.13917088508606,84.7199935913086,29.71,0
-0.6465229988098145,-0.3281329870223999,0.6875693202018738,-0.6652336120605469,3.139153480529785,84.7199935913086,29.71,0
-0.6444100141525269,-0.3337278962135315,0.6875444650650024,4.982780456542969,3.139601469039917,84.77731323242188,29.71,0
-0.6430540084838867,-0.3373183906078338,0.6875285506248474,8.044886589050293,3.139889001846313,84.81410217285156,29.71,0
-0.642183780670166,-0.3340247869491577,0.687518298625946,9.01401424407959,3.140073537826538,84.83770751953125,29.71,0
-0.6416253447532654,-0.3319111466407776,0.6931095123291016,9.435319900512695,3.140192031860352,84.85285949707031,29.71,0
-0.641266942024231,-0.330554723739624,0.6966976523399353,10.62641143798828,3.140267848968506,84.86257934570312,29.71,0
-0.6410369873046875,-0.3296842575073242,0.6934025287628174,12.694843292236328,3.1403167247772217,84.86882019042969,29.71,0
-0.6464871764183044,-0.3291256427764892,0.6912878751754761,14.204955101013184,3.140347957611084,84.8728256225586,29.71,0
-0.6499847769737244,-0.3287671506404876,0.6899308562278748,13.39351749420166,3.1403679847717285,84.87539672851562,29.71,0
-0.6466315388679504,-0.328537106513977,0.6890599727630615,10.150026321411133,3.13716721534729,84.87704467773438,29.71,0
-0.6444796323776245,-0.3339872360229492,0.6885011196136475,6.219931602478027,3.13511323928833,84.87810516357422,29.71,0
-0.6430986523628235,-0.3318870365619659,0.6881424784660339,3.361060619354248,3.133795022964477,84.8787841796875,29.71,0
-0.642212450504303,-0.3305392563343048,0.6879122853279114,2.149770021438598,3.132949113845825,84.87921905517578,29.71,0
-0.641643762588501,-0.3296743333339691,0.6933623552322388,1.9492281675338743,3.132406234741211,84.87950134277344,29.71,0
-0.6412788033485413,-0.3291192650794983,0.6912621259689331,1.0825214385986328,3.132057905197144,84.87967681884766,29.71,0
-0.6466423273086548,-0.3287630677223205,0.6899142861366272,-1.9707365036010744,3.1318342685699463,84.87979125976562,29.71,0
-0.650084376335144,-0.3285344839096069,0.6890493631362915,-6.538256645202637,3.131690740585327,84.87986755371094,29.71,0
-0.6466954946517944,-0.3283877968788147,0.6884942650794983,-9.920832633972168,3.1302216053009038,84.87991333007812,29.71,0
-0.6445206999778748,-0.3282936513423919,0.6881380677223206,-10.135489463806152,3.129278898239136,84.87994384765625,29.71,0
-0.643125057220459,-0.3282332420349121,0.6935072541236877,-7.310453414916992,3.128673791885376,84.87996673583984,29.71,0
-0.6422293782234192,-0.3281944692134857,0.6913551092147827,-2.4272406101226807,3.1282854080200195,84.87997436523438,29.71,0
-0.6472523808479309,-0.328169584274292,0.6899740099906921,3.4686903953552246,3.1280362606048584,84.8799819946289,29.71,0
-0.6504758596420288,-0.3281536102294922,0.6890876889228821,8.871683120727539,3.127876281738281,84.87998962402344,29.71,0
-0.6469467282295227,-0.3281433582305908,0.6885188817977905,12.482316970825195,3.127773761749268,84.87998962402344,29.71,0
-0.6446819305419922,-0.3281367719173431,0.688153862953186,14.376669883728027,3.1277079582214355,84.87998962402344,29.71,0
-0.6432285308837891,-0.3281325399875641,0.6879196166992188,15.287837028503418,3.129042863845825,84.87998962402344,29.67,0
-0.642295777797699,-0.3281298279762268,0.6877692937850952,15.170387268066406,3.129899501800537,84.87998962402344,29.67,0
-0.6472949981689453,-0.3281280994415283,0.6876727938652039,13.640488624572754,3.1304492950439453,84.87998962402344,29.67,0
-0.6449054479598999,-0.3281269967556,0.6876108646392822,11.318804740905762,3.130802154541016,84.87998962402344,29.67,0
-0.6433719396591187,-0.3281262814998626,0.6931689381599426,9.531527519226074,3.131028413772583,84.87998962402344,29.67,0
-0.6423878073692322,-0.3281258344650268,0.691137969493866,8.853873252868652,3.131173610687256,84.87998962402344,29.67,0
-0.6473540663719177,-0.328125536441803,0.6898346543312073,8.906224250793457,3.131266832351685,84.87998962402344,29.67,0
-0.6505411267280579,-0.3281253576278686,0.6889982223510742,9.050880432128906,3.131326675415039,84.87998962402344,29.67,0
-0.646988570690155,-0.3281252384185791,0.6884614825248718,8.441527366638184,3.1281518936157227,84.93731689453125,29.67,0
-0.6447087526321411,-0.3281251490116119,0.6881170272827148,6.094393253326416,3.1261143684387207,84.97410583496094,29.67,0
-0.6432456970214844,-0.3281250894069671,0.6878959536552429,1.9692749977111816,3.124806880950928,84.99771118164062,29.67,0
-0.6479045748710632,-0.3281250596046448,0.6877540946006775,-2.841864585876465,3.1239678859710693,85.01286315917969,29.67,0
-0.6452966332435608,-0.3281250298023224,0.6876630783081055,-7.104461669921875,3.123429536819458,85.0225830078125,29.67,0
-0.6436229944229126,-0.3281250298023224,0.6932024359703064,-9.53543186187744,3.1230838298797607,85.02882385253906,29.67,0
-0.6425489187240601,-0.3281250298023224,0.6911594867706299,-8.924448013305664,3.1228621006011963,85.03282928466797,29.67,0
-0.6418596506118774,-0.3281250298023224,0.6954461932182312,-5.651962757110596,3.1227197647094727,85.035400390625,29.67,0
-0.6414173245429993,-0.3281250298023224,0.6925994157791138,-1.7104264497756958,3.121251344680786,85.03704833984375,29.67,0
-0.6411334872245789,-0.3281250298023224,0.690772533416748,1.5319572687149048,3.1203091144561768,85.0381088256836,29.67,0
-0.6409513354301453,-0.3281250298023224,0.6896001100540161,4.20027494430542,3.119704484939575,85.03878784179688,29.67,0
-0.6408344507217407,-0.3281250298023224,0.6888477206230164,6.5467634201049805,3.119316339492798,85.03922271728516,29.67,0
-0.6407594084739685,-0.3281250298023224,0.6883648633956909,8.564912796020508,3.1190671920776367,85.03950500488281,29.67,0
-0.6463090181350708,-0.3281250298023224,0.6936528086662292,10.974225997924805,3.1189074516296387,85.03968048095703,29.67,0
-0.6498704552650452,-0.3281250298023224,0.6914485096931458,14.372575759887695,3.118804931640625,85.039794921875,29.67,0
-0.6465582251548767,-0.3281250298023224,0.6900339126586914,17.262792587280273,3.118739128112793,85.03987121582031,29.67,0
-0.6444326043128967,-0.3281250298023224,0.6891261339187622,17.32986068725586,3.1177785396575928,85.0399169921875,29.67,0
-0.6430684924125671,-0.3281250298023224,0.6941413283348083,14.678804397583008,3.1171622276306152,85.03994750976562,29.67,0
-0.6477908492088318,-0.3281250298023224,0.6917620301246643,11.440584182739258,3.1167666912078857,85.03997039794922,29.67,0
-0.6452236175537109,-0.3281250298023224,0.6902351379394531,8.893163681030273,3.1165127754211426,85.03997802734375,29.67,0
-0.6435761451721191,-0.3281250298023224,0.6892552375793457,7.082829475402832,3.116349935531616,85.03998565673828,29.67,0
-0.6425188779830933,-0.3281250298023224,0.6886264085769653,5.949721813201904,3.11624526977539,85.03999328613281,29.67,0
-0.641840398311615,-0.3281250298023224,0.6882228851318359,4.918039798736572,3.116178274154663,85.03999328613281,29.67,0
-0.6470027565956116,-0.3281250298023224,0.6879639029502869,2.6187283992767334,3.1161351203918457,85.03999328613281,29.67,0
-0.6447178721427917,-0.3281250298023224,0.6877977252006531,-1.72289776802063,3.1138124465942383,85.03999328613281,29.69,0
-0.6432515978813171,-0.3281250298023224,0.6876910924911499,-7.314260005950928,3.1123218536376958,85.03999328613281,29.69,0
-0.642310619354248,-0.3281250298023224,0.687622606754303,-12.768996238708496,3.11136531829834,85.03999328613281,29.69,0
-0.6417067050933838,-0.3281250298023224,0.6875786781311035,-17.408790588378906,3.1107516288757324,85.03999328613281,29.69,0
-0.6413191556930542,-0.3281250298023224,0.6875504851341248,-20.938060760498047,3.1103577613830566,85.03999328613281,29.69,0
-0.6410704851150513,-0.3281250298023224,0.6875324249267578,-22.404029846191406,3.110105037689209,85.03999328613281,29.69,0
-0.6409108638763428,-0.3281250298023224,0.6875208020210266,-20.811922073364254,3.109942674636841,85.03999328613281,29.69,0
-0.6408084630966187,-0.3281250298023224,0.6875133514404297,-16.537220001220703,3.109838485717773,85.03999328613281,29.69,0
-0.6407427191734314,-0.3281250298023224,0.6931063532829285,-10.906407356262209,3.1083946228027344,85.09014892578125,29.69,0
-0.6407005190849304,-0.3281250298023224,0.6910978555679321,-4.892549991607666,3.1074678897857666,85.1223373413086,29.69,0
-0.6406734585762024,-0.3281250298023224,0.6898089051246643,0.5682087540626526,3.1068732738494877,85.14299774169922,29.69,0
-0.6406561136245728,-0.3281250298023224,0.6889817118644714,4.187252044677734,3.1064915657043457,85.15625762939453,29.69,0
-0.6406449675559998,-0.3281250298023224,0.6940486431121826,5.8541340827941895,3.1062467098236084,85.16476440429688,29.69,0
-0.6406378149986267,-0.3281250298023224,0.6973003149032593,7.231944561004639,3.1060895919799805,85.17021942138672,29.69,0
-0.6462309956550598,-0.3281250298023224,0.6937893033027649,9.391541481018066,3.1059887409210205,85.17372131347656,29.69,0
-0.6498203873634338,-0.3281250298023224,0.6915361285209656,11.268259048461914,3.105923891067505,85.17597198486328,29.69,0
-0.6521238684654236,-0.3281250298023224,0.6900901794433594,11.498167991638184,3.1026687622070312,85.17741394042969,29.69,0
-0.6480042934417725,-0.3281250298023224,0.6891622543334961,10.255670547485352,3.100579738616944,85.17833709716797,29.69,0
-0.6453605890274048,-0.3281250298023224,0.694164514541626,8.591323852539062,3.0992393493652344,85.1789321899414,29.69,0
-0.6436640024185181,-0.3281250298023224,0.6917769312858582,7.018098831176758,3.098379135131836,85.17931365966797,29.69,0
-0.6425752639770508,-0.3281250298023224,0.6902446746826172,5.159423351287842,3.0978269577026367,85.17955780029297,29.69,0
-0.6418765783309937,-0.3281250298023224,0.6892613768577576,2.533601999282837,3.097472667694092,85.17971801757812,29.69,0
-0.6414281725883484,-0.3281250298023224,0.6942281126976013,-0.6024421453475952,3.097245216369629,85.17981719970703,29.69,0
-0.6411404013633728,-0.3281250298023224,0.6974154710769653,-3.5751049518585205,3.0970993041992188,85.17988586425781,29.69,0
-0.6409557461738586,-0.3281250298023224,0.6938631534576416,-6.127652645111084,3.0974650382995605,85.17992401123047,29.69,0
-0.6408372521400452,-0.3281250298023224,0.691583514213562,-8.295951843261719,3.0976996421813965,85.1799545288086,29.69,0
-0.6407611966133118,-0.3281250298023224,0.6957183480262756,-10.264236450195312,3.0978503227233887,85.17996978759766,29.69,0
-0.6407123804092407,-0.3281250298023224,0.6927740573883057,-12.695287704467772,3.097946882247925,85.17997741699219,29.69,0
-0.6406810879707336,-0.3281250298023224,0.6908845901489258,-15.90338134765625,3.098008871078491,85.17998504638672,29.69,0
-0.6462587714195251,-0.3281250298023224,0.68967205286026,-18.43863296508789,3.098048686981201,85.17999267578125,29.69,0
-0.6498382091522217,-0.3281250298023224,0.6888939142227173,-18.188343048095703,3.098074197769165,85.17999267578125,29.69,0
-0.6521352529525757,-0.3281250298023224,0.6883945465087891,-14.989696502685549,3.098090648651123,85.17999267578125,29.69,0
-0.6480116248130798,-0.3281250298023224,0.6880740523338318,-10.52591609954834,3.096724033355713,85.17999267578125,29.69,0
-0.6509630680084229,-0.3281250298023224,0.6878684163093567,-5.991838455200195,3.0958468914031982,85.17999267578125,29.69,0
-0.6472593545913696,-0.3281250298023224,0.687736451625824,-1.591776967048645,3.0952839851379395,85.17999267578125,29.69,0
-0.650480329990387,-0.3281250298023224,0.6876517534255981,2.1132428646087646,3.0949227809906006,85.17999267578125,29.69,0
-0.6469495892524719,-0.3281250298023224,0.687597393989563,4.412094593048096,3.094691038131714,85.17999267578125,29.69,0
-0.6446837782859802,-0.3281250298023224,0.6931602954864502,6.091572284698486,3.0945422649383545,85.17999267578125,29.69,0
-0.6432296633720398,-0.3281250298023224,0.6911324262619019,8.874670028686523,3.094446897506714,85.17999267578125,29.69,0
-0.642296552658081,-0.3281250298023224,0.6898310780525208,13.03594970703125,3.0943856239318848,85.17999267578125,29.69,0
-0.6472954750061035,-0.3281250298023224,0.6889959573745728,17.297082901000977,3.0897555351257324,85.22657012939453,29.69,0
-0.6505035161972046,-0.3281250298023224,0.6884599924087524,20.690826416015625,3.0867843627929688,85.25646209716797,29.69,0
-0.6525622606277466,-0.3281250298023224,0.6881160736083984,22.69677352905273,3.0848774909973145,85.27564239501953,29.69,0
-0.6538833975791931,-0.3281250298023224,0.6878953576087952,22.59403419494629,3.083653926849365,85.28794860839844,29.69,0
-0.6491335034370422,-0.3281250298023224,0.6933515071868896,20.460956573486328,3.0828685760498047,85.29584503173828,29.69,0
-0.646085262298584,-0.3281250298023224,0.6912551522254944,17.752185821533203,3.082364559173584,85.30091857910156,29.69,0
-0.6497268676757812,-0.3281250298023224,0.689909815788269,15.666343688964844,3.0820412635803223,85.30416870117188,29.69,0
-0.6520638465881348,-0.3281250298023224,0.6890465021133423,13.79396629333496,3.081833600997925,85.30625915527344,29.69,0
-0.6535635590553284,-0.3281250298023224,0.688492476940155,10.836920738220217,3.081241607666016,85.30760192871094,29.69,0
-0.6489282250404358,-0.3281250298023224,0.6881369352340698,6.119771957397461,3.080861568450928,85.30845642089844,29.69,0
-0.6459535360336304,-0.3281250298023224,0.6879087686538696,-0.052923671901226,3.080617666244507,85.30900573730469,29.69,0
-0.6496423482894897,-0.3281250298023224,0.6877623200416565,-7.700675010681152,3.080461263656616,85.30936431884766,29.69,0
-0.6520096063613892,-0.3281250298023224,0.6876683235168457,-17.466533660888672,3.0803608894348145,85.3095932006836,29.69,0
-0.6535287499427795,-0.3281250298023224,0.687608003616333,-28.194005966186523,3.080296516418457,85.30973815917969,29.69,0
-0.648905873298645,-0.3281250298023224,0.6875693202018738,-35.73747634887695,3.0802550315856934,85.30982971191406,29.69,0
-0.6515369415283203,-0.3281250298023224,0.6875444650650024,-36.40473937988281,3.080228567123413,85.30989074707031,29.69,0
-0.6476276516914368,-0.3281250298023224,0.6875285506248474,-30.728240966796875,3.0765392780303955,85.30992889404297,29.69,0
-0.6451188921928406,-0.3281250298023224,0.687518298625946,-22.27757453918457,3.074171781539917,85.30995178222656,29.69,0
-0.6491066813468933,-0.3281250298023224,0.6875117421150208,-13.748331069946287,3.072652578353882,85.30996704101562,29.69,0
-0.6460680365562439,-0.3281250298023224,0.6875075101852417,-5.81352424621582,3.0716774463653564,85.30997467041016,29.69,0
-0.6441180109977722,-0.3281250298023224,0.6875048279762268,0.579053521156311,3.071051836013794,85.30998229980469,29.69,0
-0.6484643816947937,-0.3281250298023224,0.6875030994415283,3.2233333587646484,3.070650339126587,85.30998992919922,29.69,0
-0.6512536406517029,-0.3281250298023224,0.6875019669532776,1.3126264810562134,3.070392608642578,85.30998992919922,29.69,0
-0.6474458575248718,-0.3281250298023224,0.6875012516975403,-2.614817380905152,3.0702271461486816,85.30998992919922,29.69,0
-0.6450022459030151,-0.3281250298023224,0.6875007748603821,-5.364509582519531,3.068743944168091,85.30998992919922,29.69,0
-0.6490318179130554,-0.3281250298023224,0.6875004768371582,-6.541561126708984,3.0677921772003174,85.30998992919922,29.69,0
-0.6516177654266357,-0.3281250298023224,0.6875002980232239,-8.626060485839844,3.067181348800659,85.30998992919922,29.69,0
-0.6476795077323914,-0.3281250298023224,0.6875001788139343,-15.09043788909912,3.066789388656616,85.30998992919922,29.69,0
-0.6451521515846252,-0.3281250298023224,0.6875001192092896,-27.24237632751465,3.066537857055664,85.30998992919922,29.69,0
-0.6435302495956421,-0.3337228000164032,0.6875000596046448,-40.63677215576172,3.0663764476776123,85.30998992919922,29.69,0
-0.6424894332885742,-0.3373151123523712,0.6875000596046448,-47.14030456542969,3.066272735595703,85.30998992919922,29.69,0
-0.6418215036392212,-0.3340226709842682,0.6875000596046448,-43.11696243286133,3.066206216812134,85.30998992919922,29.69,0
-0.6469905972480774,-0.3319097757339477,0.6875000596046448,-32.474220275878906,3.064786434173584,85.3171615600586,29.69,0
-0.6447100639343262,-0.3305538594722748,0.6930978298187256,-20.61079978942871,3.063875198364258,85.32176208496094,29.69,0
-0.6432465314865112,-0.335281491279602,0.6910923719406128,-9.852038383483888,3.0632903575897217,85.32471466064453,29.69,0
-0.6479051113128662,-0.332717627286911,0.6898053884506226,-1.2387964725494385,3.062915086746216,85.32660675048828,29.69,0
-0.6508947014808655,-0.3310722708702087,0.68897944688797,3.905350923538208,3.0626742839813232,85.32781982421875,29.69,0
-0.6472154855728149,-0.3300163745880127,0.6884494423866272,5.422446250915527,3.062519788742065,85.32859802246094,29.69,0
-0.6448543667793274,-0.329338788986206,0.688109278678894,4.705054759979248,3.062420606613159,85.3291015625,29.69,0
-0.6433391571044922,-0.3289039433002472,0.6878910064697266,2.9370341300964355,3.062356948852539,85.32942199707031,29.69,0
-0.6479645371437073,-0.3286248743534088,0.6877509355545044,0.3908853828907013,3.0604796409606934,85.32962799072266,29.69,0
-0.6509328484535217,-0.3284457921981811,0.6876610517501831,-2.2211294174194336,3.059274911880493,85.32976531982422,29.69,0
-0.6472399830818176,-0.3283308744430542,0.6876033544540405,-3.377896547317505,3.058501720428467,85.32984924316406,29.69,0
-0.6448701024055481,-0.3282571136951446,0.6931641101837158,-2.4471805095672607,3.0580055713653564,85.32990264892578,29.69,0
-0.6489470601081848,-0.328209787607193,0.6911349296569824,-0.0801080986857414,3.057687282562256,85.32994079589844,29.69,0
-0.6515634059906006,-0.3281794190406799,0.6898326873779297,3.1979870796203613,3.057482957839966,85.32996368408203,29.69,0
-0.6476446390151978,-0.3281599283218384,0.6889969706535339,6.892343997955322,3.05735182762146,85.3299789428711,29.69,0
-0.6451297998428345,-0.3281474113464355,0.688460648059845,9.800556182861328,3.057267665863037,85.32998657226562,29.69,0
-0.643515944480896,-0.3281393945217132,0.6881164908409119,11.125909805297852,3.05721378326416,85.32999420166016,29.69,0
-0.6480780243873596,-0.3281342387199402,0.687895655632019,11.288591384887695,3.0571792125701904,85.32999420166016,29.69,0
-0.6510056853294373,-0.3281309306621551,0.6877539157867432,11.109967231750488,3.057156801223755,85.32999420166016,29.69,0
-0.6472867131233215,-0.3281288146972656,0.6876629590988159,11.335680961608888,3.057142496109009,85.32999420166016,29.69,0
-0.6449000835418701,-0.3281274437904358,0.6876046061515808,12.193463325500488,3.057133436203003,85.32999420166016,29.69,0
-0.6433684825897217,-0.3281265795230865,0.6875671148300171,12.62929630279541,3.0571274757385254,85.32999420166016,29.69,0
-0.6423856019973755,-0.3281260132789612,0.6875430941581726,11.253839492797852,3.05712366104126,85.32999420166016,29.69,0
-0.6417548656463623,-0.3281256556510925,0.6875276565551758,8.343412399291992,3.0571212768554688,85.32999420166016,29.69,0
-0.6413500905036926,-0.3281254172325134,0.6875177621841431,5.601519584655762,3.0548243522644043,85.32999420166016,29.69,0
-0.6410903334617615,-0.3281252682209015,0.6875113844871521,4.146449565887451,3.0533504486083984,85.32999420166016,29.69,0
-0.6409236192703247,-0.3281251788139343,0.6875073313713074,3.5960049629211426,3.0524044036865234,85.32999420166016,29.69,0
-0.6464143991470337,-0.3281251192092895,0.6875047087669373,2.898833990097046,3.051797389984131,85.32999420166016,29.69,0
-0.6499381065368652,-0.3281250894069671,0.6875030398368835,1.5844464302062988,3.051407814025879,85.32999420166016,29.69,0
-0.652199387550354,-0.3281250596046448,0.6875019669532776,-0.0937918946146965,3.0511577129364014,85.32999420166016,29.69,0
-0.6480527520179749,-0.3281250298023224,0.6875012516975403,-2.08076286315918,3.050997257232666,85.32999420166016,29.69,0
-0.6453917026519775,-0.3281250298023224,0.6875007748603821,-4.8390727043151855,3.050894260406494,85.32999420166016,29.69,0
-0.6492817401885986,-0.3281250298023224,0.6875004768371582,-8.33599853515625,3.048992156982422,85.31566619873047,29.69,0
-0.6517781615257263,-0.3281250298023224,0.6875002980232239,-11.38620376586914,3.047771453857422,85.30647277832031,29.69,0
-0.6533802151679993,-0.3281250298023224,0.6875001788139343,-12.627135276794434,3.046988010406494,85.30057525634766,29.69,0
-0.65440833568573,-0.3281250298023224,0.6875001192092896,-11.689526557922363,3.046485424041748,85.29678344726562,29.69,0
-0.6550680994987488,-0.3281250298023224,0.6875000596046448,-8.984851837158203,3.046162843704224,85.29435729980469,29.69,0
-0.6498937606811523,-0.3281250298023224,0.6875000596046448,-4.902560234069824,3.0459558963775635,85.29279327392578,29.69,0
-0.6465731859207153,-0.3281250298023224,0.6930978298187256,0.1927794069051742,3.045823097229004,85.29179382324219,29.69,0
-0.6444422006607056,-0.3281250298023224,0.6910923719406128,5.092747211456299,3.045737743377685,85.29115295410156,29.69,0
-0.6486724615097046,-0.3281250298023224,0.6898053884506226,8.050971031188965,3.046142339706421,85.29074096679688,29.69,0
-0.6513871550559998,-0.3281250298023224,0.68897944688797,8.817294120788574,3.0464019775390625,85.29047393798828,29.69,0
-0.6531292796134949,-0.3281250298023224,0.6884494423866272,9.380727767944336,3.0465686321258545,85.2903060913086,29.69,0
-0.6542472839355469,-0.3281250298023224,0.688109278678894,11.34013557434082,3.046675443649292,85.29019927978516,29.69,0
-0.6549647450447083,-0.3281250298023224,0.6878910064697266,13.901628494262695,3.046744108200073,85.29013061523438,29.69,0
-0.6554251909255981,-0.3281250298023224,0.6877509355545044,15.67083740234375,3.046788215637207,85.29008483886719,29.69,0
-0.6557207107543945,-0.3281250298023224,0.6876610517501831,16.433626174926758,3.046816349029541,85.29005432128906,29.69,0
-0.655910313129425,-0.3281250298023224,0.6876033544540405,16.238868713378906,3.0468344688415527,85.29003143310547,29.69,0
-0.6504342555999756,-0.3281250298023224,0.687566339969635,14.895808219909668,3.045469045639038,85.29002380371094,29.69,0
-0.6525177955627441,-0.3281250298023224,0.6875425577163696,12.848076820373535,3.04459285736084,85.2900161743164,29.69,0
-0.6538549065589905,-0.3281250298023224,0.6875272989273071,10.950000762939451,3.0440304279327397,85.29000854492188,29.69,0
-0.654712975025177,-0.3281250298023224,0.687517523765564,9.409493446350098,3.0436694622039795,85.29000854492188,29.69,0
-0.6552636027336121,-0.3281250298023224,0.6875112652778625,8.005305290222168,3.043437957763672,85.29000854492188,29.69,0
-0.6556169986724854,-0.3225272595882416,0.6875072121620178,6.767416000366211,3.043289422988892,85.29000854492188,29.69,0
-0.6558437943458557,-0.324532687664032,0.6875046491622925,5.446371078491211,3.043194055557251,85.29000854492188,29.69,0
-0.6447937488555908,-0.3202219009399414,0.6875029802322388,3.158405303955078,3.043132781982422,85.29000854492188,29.69,0
-0.6488980650901794,-0.323053240776062,0.6875019073486328,-0.5059981346130371,3.0417163372039795,85.29000854492188,29.67,0
-0.6515319347381592,-0.324870228767395,0.6875012516975403,-4.459012985229492,3.040807247161865,85.29000854492188,29.67,0
-0.6532222032546997,-0.326036274433136,0.6875007748603821,-6.866857528686523,3.040223836898804,85.29000854492188,29.67,0
-0.654306948184967,-0.3267845809459686,0.6875004768371582,-6.674524307250977,3.0398495197296143,85.29000854492188,29.67,0
-0.6550030708312988,-0.3272647857666015,0.6875002980232239,-4.301238536834717,3.039609432220459,85.29000854492188,29.67,0
-0.6554498076438904,-0.3275729715824127,0.6875001788139343,-0.951086699962616,3.0394551753997803,85.29000854492188,29.67,0
-0.65573650598526,-0.3277707397937774,0.6875001192092896,2.366767883300781,3.039356231689453,85.29000854492188,29.67,0
-0.650322675704956,-0.3278976678848266,0.6875000596046448,5.011866569519043,3.039292812347412,85.29000854492188,29.67,0
-0.6524462103843689,-0.3279791176319122,0.6875000596046448,6.970866680145264,3.038792848587036,85.2434310913086,29.67,0
-0.6538089513778687,-0.3280313909053802,0.6875000596046448,9.198918342590332,3.038471937179565,85.21353912353516,29.67,0
-0.6546834707260132,-0.3280649185180664,0.6875000596046448,12.316146850585938,3.0382659435272217,85.1943588256836,29.67,0
-0.6552447080612183,-0.3280864357948303,0.6875000596046448,14.843243598937988,3.0381338596343994,85.18205261230469,29.67,0
-0.6556048393249512,-0.3281002640724182,0.6875000596046448,14.46591091156006,3.0380489826202397,85.17415618896484,29.67,0
-0.6558359861373901,-0.3281091153621673,0.6875000596046448,11.017355918884276,3.037994623184204,85.16908264160156,29.67,0
-0.6559842824935913,-0.3281148076057434,0.6875000596046448,6.862515449523926,3.037959575653076,85.16583251953125,29.67,0
-0.6560794711112976,-0.3281184732913971,0.6875000596046448,4.364559173583984,3.0379371643066406,85.16374206542969,29.67,0
-0.6561405658721924,-0.3281207978725433,0.6875000596046448,3.775383472442627,3.038382053375244,85.16239929199219,29.67,0
-0.6561797857284546,-0.3281223177909851,0.6875000596046448,3.798532724380493,3.038667678833008,85.16154479980469,29.67,0
-0.6562049388885498,-0.3281232714653015,0.6875000596046448,3.4479658603668213,3.038850784301758,85.16099548339844,29.67,0
-0.6562210917472839,-0.3281238973140716,0.6875000596046448,2.3954174518585205,3.038968324661255,85.16063690185547,29.67,0
-0.6562314629554749,-0.3281242847442627,0.6875000596046448,0.1937752664089203,3.03904390335083,85.16040802001953,29.67,0
-0.6562380790710449,-0.3281245529651642,0.6875000596046448,-3.425978422164917,3.039092302322388,85.16026306152344,29.67,0
-0.6562423706054688,-0.3281247019767761,0.6875000596046448,-7.927134037017822,3.039123296737671,85.16017150878906,29.67,0
-0.6562451124191284,-0.3281248211860657,0.6875000596046448,-12.617753028869627,3.0391433238983154,85.16011047363281,29.67,0
-0.6562468409538269,-0.3281248807907104,0.6875000596046448,-16.949892044067383,3.039156198501587,85.16007232666016,29.67,0
-0.6562479734420776,-0.3281249105930328,0.6875000596046448,-19.70851325988769,3.0391643047332764,85.16004943847656,29.67,0
-0.6562486886978149,-0.3281249403953552,0.6875000596046448,-19.4976749420166,3.0391695499420166,85.1600341796875,29.67,0
-0.6562491655349731,-0.3281249701976776,0.6875000596046448,-16.478397369384766,3.039172887802124,85.16002655029297,29.67,0
-0.656249463558197,-0.3281249701976776,0.6875000596046448,-12.3124361038208,3.039175033569336,85.16001892089844,29.67,0
-0.6562496423721313,-0.3281249701976776,0.6875000596046448,-8.306243896484375,3.0391764640808105,85.1600112915039,29.67,0
-0.6562497615814209,-0.3281249701976776,0.6875000596046448,-4.685605525970459,3.039177417755127,85.1600112915039,29.67,0
-0.6562498211860657,-0.3281249701976776,0.6875000596046448,-1.4234533309936523,3.0391781330108643,85.1600112915039,29.67,0
-0.6506521105766296,-0.3281249701976776,0.6875000596046448,1.2575503587722778,3.0382602214813232,85.1600112915039,29.69,0
-0.6526575684547424,-0.3281249701976776,0.6875000596046448,3.218096971511841,3.0376710891723637,85.1600112915039,29.69,0
