acc_x,acc_y,acc_z,bvp,eda,hr,temp,label
0.0,0.0,0.0,0.0,0.0,0.0,25.09,0
-0.0156249990686774,-0.1510416567325592,0.0651041641831398,-0.189999982714653,0.2565523087978363,12.928332328796388,25.09,0
-0.0365853644907474,-0.349466472864151,0.1482469588518142,-2.153902530670166,0.6007078886032104,30.271221160888672,25.09,0
-0.0647840574383735,-0.5170785188674927,0.2255502492189407,-5.587608337402344,0.9000639915466309,45.356544494628906,25.09,0
-0.0800183191895484,-0.6180077195167542,0.255256175994873,-9.459260940551758,1.1184604167938232,56.36210250854492,25.09,0
-0.0793531164526939,-0.724769115447998,0.2918375134468078,-13.38752555847168,1.2663240432739258,63.81333160400391,25.09,0
-0.0900228023529052,-0.7837137579917908,0.3047339618206024,-17.066762924194336,1.3633438348770142,68.70240783691406,25.09,0
-0.1025123670697212,-0.8497859835624695,0.2907690405845642,-20.270902633666992,1.426178812980652,71.86882019042969,25.09,0
-0.0881970971822738,-0.8867576718330383,0.2873634099960327,-23.75527000427246,1.450152039527893,73.90853881835938,25.09,0
-0.0901853516697883,-0.904926300048828,0.2795798182487488,-28.79840850830078,1.4655606746673584,75.21955108642578,25.09,0
-0.0970586016774177,-0.9333828687667848,0.2633885741233825,-35.461036682128906,1.475455403327942,76.0614242553711,25.09,0
-0.0902761369943618,-0.9292604923248292,0.2641897201538086,-42.4675178527832,1.4818068742752075,76.6018295288086,25.09,0
-0.1027157381176948,-0.949004888534546,0.2479112297296524,-49.292945861816406,1.485883355140686,76.94866943359375,25.09,0
-0.0995037481188774,-0.9504809379577636,0.2430618554353714,-57.23074722290039,1.4884995222091677,77.1712646484375,25.09,0
-0.1030401736497879,-0.945830464363098,0.2399497479200363,-67.5553970336914,1.490178465843201,77.3141098022461,25.09,0
-0.1053096652030944,-0.9540415406227112,0.2379525601863861,-79.53714752197266,1.4912558794021606,77.4057846069336,25.09,0
-0.1067660972476005,-0.9537131786346436,0.2366708666086197,-91.50753784179688,1.509850263595581,77.46461486816406,25.09,0
-0.1077007576823234,-0.9479047060012816,0.2358483523130417,-103.4061508178711,1.5217829942703247,77.50237274169922,25.09,0
-0.119496114552021,-0.9497749209403992,0.2297227382659912,-116.7848663330078,1.5294407606124878,77.52660369873047,25.09,0
-0.1270657032728195,-0.9509751200675964,0.2257916778326034,-133.3525390625,1.5343550443649292,77.54215240478516,25.09,0
-0.115130104124546,-0.9293542504310608,0.2456600368022918,-153.95501708984375,1.537508845329285,77.55213165283203,25.09,0
-0.1522527188062667,-0.9322725534439088,0.2360193133354187,-174.775146484375,1.5395326614379885,77.55853271484375,25.09,0
-0.2152602970600128,-0.9565364122390748,0.207441359758377,-184.38177490234372,1.540831446647644,77.56263732910156,25.09,0
-0.2556949257850647,-0.9441186785697936,0.1891016662120819,-170.86766052246094,1.541664958000183,77.56527709960938,25.09,0
-0.2648502290248871,-0.9417474865913392,0.1829300820827484,-131.65721130371094,1.5803005695343018,77.56697082519531,25.09,0
-0.2427366971969604,-0.9346280097961426,0.1901650577783584,-71.481689453125,1.6050946712493896,77.56805419921875,25.09,0
-0.217349961400032,-0.9356569051742554,0.1948080509901046,2.262652635574341,1.6210061311721802,77.5687484741211,25.09,0
-0.2122537642717361,-0.9363172054290771,0.1865921169519424,75.76182556152344,1.631217122077942,77.56919860839844,25.09,0
-0.2089833170175552,-0.9367409348487854,0.1869173794984817,131.46664428710938,1.6377699375152588,77.56948852539062,25.09,0
-0.2012867629528045,-0.93141508102417,0.1871261149644851,162.28517150878906,1.641975164413452,77.56967163085938,25.09,0
-0.190749779343605,-0.9279972910881042,0.1872600615024566,174.9871368408203,1.6446738243103027,77.56978607177734,25.09,0
-0.1839877516031265,-0.9258039593696594,0.1873460263013839,178.09783935546875,1.6464056968688965,77.56986236572266,25.09,0
-0.1852460354566574,-0.9243963956832886,0.1874011904001236,175.5263214111328,1.6645017862319946,78.3043441772461,25.11,0
-0.1804557591676712,-0.9290908575057985,0.1874365955591201,170.79147338867188,1.676114797592163,78.77568817138672,25.11,0
-0.1773816347122192,-0.9153101444244384,0.1874593049287796,167.68484497070312,1.6835674047470093,79.07817077636719,25.11,0
-0.1698110699653625,-0.8896731734275818,0.1706805676221847,166.30740356445312,1.688349962234497,79.27228546142578,25.11,0
-0.1649527102708816,-0.8788186311721802,0.1543151587247848,164.3558349609375,1.691419243812561,79.39685821533203,25.11,0
-0.1786282211542129,-0.8774505853652954,0.1382150053977966,162.2722625732422,1.693388819694519,79.47679901123047,25.11,0
-0.2041977047920227,-0.8821704387664795,0.1222850829362869,163.01663208007812,1.694652795791626,79.5280990600586,25.11,0
-0.220606729388237,-0.8851993680000305,0.1064644008874893,167.0052490234375,1.695464015007019,79.56102752685547,25.11,0
-0.2367348670959472,-0.8983386754989624,0.1075071468949318,171.54249572753906,1.7014931440353394,79.5821533203125,25.11,0
-0.2414872050285339,-0.9123685359954834,0.1081763207912445,175.7761993408203,1.705362319946289,79.59571075439453,25.11,0
-0.2445369809865951,-0.926969826221466,0.1142035275697708,181.94317626953125,1.7078453302383425,79.60441589355469,25.11,0
-0.2576896846294403,-0.902753472328186,0.1292669922113418,191.57916259765625,1.7094388008117676,79.61000061035156,25.11,0
-0.2717281281948089,-0.8984083533287048,0.1333360821008682,203.4449462890625,1.7104613780975342,79.61358642578125,25.11,0
-0.2863349616527557,-0.9851843118667604,0.1191540658473968,212.66830444335935,1.7111176252365112,79.61588287353516,25.11,0
-0.2957087755203247,-1.0744587182998655,0.1156506389379501,210.24708557128903,1.7115386724472046,79.61735534667969,25.11,0
-0.290528804063797,-1.1205543279647827,0.1134023442864418,188.03257751464844,1.7118089199066162,79.61830139160156,25.11,0
-0.2536179423332214,-1.1053537130355835,0.1175572946667671,144.9977569580078,1.7101463079452517,79.61891174316406,25.11,0
-0.2299306839704513,-1.0844032764434814,0.1202237010002136,84.470947265625,1.7090792655944824,79.61930084228516,25.11,0
-0.2315228879451751,-1.0541651248931885,0.1219348460435867,10.232476234436035,1.7083945274353027,79.61955261230469,25.11,0
-0.2381424456834793,-1.01236891746521,0.1230329573154449,-67.51388549804688,1.7079551219940186,79.61971282958984,25.11,0
-0.2535860538482666,-0.9519599080085754,0.1293354332447052,-130.65896606445312,1.7076730728149414,79.61981964111328,25.11,0
-0.2690946459770202,-0.913192868232727,0.1221844553947448,-167.3019256591797,1.707492113113403,79.61988830566406,25.11,0
-0.2790471613407135,-0.8939121961593628,0.1231931447982788,-180.9436798095703,1.7073760032653809,79.61992645263672,25.11,0
-0.268640786409378,-0.8927345275878906,0.1238404661417007,-180.9136962890625,1.7073014974594116,79.61995697021484,25.11,0
-0.2563648223876953,-0.9031743407249452,0.1242558807134628,-172.29269409179688,1.706335425376892,79.6199722290039,25.11,0
-0.2316934764385223,-0.9322651028633118,0.1133269146084785,-158.2766876220703,1.705715537071228,79.61997985839844,25.11,0
-0.2214585989713668,-0.9565316438674928,0.0951177850365638,-143.0626678466797,1.7053176164627075,79.61998748779297,25.11,0
-0.2204882204532623,-0.9833000302314758,0.0778344422578811,-128.6991729736328,1.7050622701644895,79.6199951171875,25.11,0
-0.2198654860258102,-1.028467297554016,0.0555474385619163,-114.34408569335938,1.704898476600647,79.6199951171875,25.11,0
-0.2194658517837524,-1.0686486959457395,0.0356471501290798,-99.79019927978516,1.7047933340072632,79.6199951171875,25.11,0
-0.2024160623550415,-1.1560102701187134,-0.0107103586196899,-86.59550476074219,1.7047258615493774,79.6199951171875,25.11,0
-0.185876727104187,-1.2288671731948853,-0.0684488117694854,-75.58069610595703,1.7046825885772705,79.6199951171875,25.11,0
-0.1864582747220993,-1.242035984992981,-0.0887087062001228,-65.53131866455078,1.7023597955703735,80.35442352294922,25.11,0
-0.2316136807203292,-1.1777158975601196,-0.0513303652405738,-55.14854049682617,1.7008692026138306,80.82573699951172,25.11,0
-0.24939626455307,-1.0916566848754885,-0.0273430999368429,-44.95305252075195,1.6999125480651855,81.1281967163086,25.11,0
-0.1712437123060226,-1.0252333879470823,-0.0231450013816356,-36.26779556274414,1.699298620223999,81.32230377197266,25.11,0
-0.0763077065348625,-1.004997730255127,-0.0204509031027555,-29.28972816467285,1.6989046335220337,81.44686889648438,25.11,0
0.0014100787229835,-0.9808161854743958,-0.0019286629976704,-23.213777542114254,1.6986517906188965,81.52680969238281,25.11,0
0.0232960060238838,-0.9205156564712524,0.0323489420115947,-17.637935638427734,1.698489546775818,81.57810974121094,25.11,0
0.0205478109419345,-0.8594271540641785,0.0599441081285476,-12.992074966430664,1.69838547706604,81.61103057861328,25.11,0
0.0019908535759896,-0.7922351956367493,0.0720553249120712,-9.702527046203612,1.6932690143585205,81.63215637207031,25.11,0
-0.0323090329766273,-0.7379196882247925,0.0910231545567512,-7.4911723136901855,1.6899855136871338,81.64571380615234,25.11,0
-0.0599184967577457,-0.6974653601646423,0.1031956151127815,-5.656473636627197,1.6878783702850342,81.65441131591797,25.11,0
-0.0944299846887588,-0.6938952207565308,0.0998116508126258,-3.887944459915161,1.6865261793136597,81.65999603271484,25.11,0
-0.1165774762630462,-0.7027996182441711,0.1088355705142021,-2.462815761566162,1.6856584548950195,81.66358184814453,25.11,0
-0.1419860124588012,-0.7476983666419983,0.1258221417665481,-1.6163190603256226,1.6851015090942385,81.66587829589844,25.11,0
-0.1414984166622162,-0.7989029288291931,0.1367231458425521,-1.141155242919922,1.684744119644165,81.66735076904297,25.11,0
-0.1355877369642257,-0.8597519397735596,0.1381210088729858,-0.7824838161468506,1.6845147609710691,81.66829681396484,25.11,0
-0.137392371892929,-0.954779088497162,0.1502136290073394,-0.595300018787384,1.6880401372909546,81.66890716552734,25.11,0
-0.1497460305690765,-1.032555341720581,0.163571760058403,-0.6614701747894287,1.690302491188049,81.66929626464844,25.11,0
-0.1632716804742813,-1.127249836921692,0.1609486788511276,-0.8723154067993164,1.6917543411254885,81.66954803466797,25.11,0
-0.1775494366884231,-1.2328015565872192,0.1760586649179458,-0.996876060962677,1.6926860809326172,81.66970825195312,25.11,0
-0.2035053968429565,-1.3005385398864746,0.1913531571626663,-0.7579626441001892,1.693284034729004,81.66981506347656,25.11,0
-0.2369557619094848,-1.2824326753616333,0.2067660540342331,-0.0815857723355293,1.693667769432068,81.66988372802734,25.11,0
-0.2472267299890518,-1.2372267246246338,0.2166571617126464,0.6175845861434937,1.6939139366149902,81.669921875,25.11,0
-0.2090358585119247,-1.1074562072753906,0.2006136178970337,0.8835605382919312,1.6940720081329346,81.66995239257812,25.11,0
-0.201320469379425,-1.035372614860535,0.1679266989231109,0.771225094795227,1.6946322917938232,81.66996765136719,25.11,0
-0.2131625115871429,-1.0059068202972412,0.1413523405790329,0.5880748629570007,1.694991946220398,81.66997528076172,25.11,0
-0.2375553697347641,-0.9869973063468932,0.1187006682157516,0.4347138106822967,1.6952227354049685,81.66998291015625,25.11,0
-0.2532092928886413,-0.9412756562232972,0.0929685831069946,0.304052323102951,1.6953707933425903,81.66999053955078,25.11,0
-0.2408639937639236,-0.8783474564552307,0.070857435464859,0.1807929724454879,1.6954658031463623,81.66999053955078,25.11,0
-0.2329414933919906,-0.8379637598991394,0.0566677711904048,-0.0165327824652194,1.6955268383026123,81.66999053955078,25.11,0
-0.2278572767972946,-0.8176456093788147,0.0419638864696025,-0.297215849161148,1.695565938949585,81.66999053955078,25.11,0
-0.2078012079000473,-0.8046066164970398,0.0381255559623241,-0.50600266456604,1.6955910921096802,81.66999053955078,25.11,0
-0.1893326044082641,-0.7906411290168762,0.0356623344123363,-0.5396779179573059,1.6891803741455078,82.21812438964844,25.11,0
-0.1830782890319824,-0.804069995880127,0.03408158197999,-0.4466463327407837,1.6850663423538208,82.56988525390625,25.11,0
-0.1790646314620971,-0.8182856440544128,0.0386649221181869,-0.2723016142845154,1.6824262142181396,82.79562377929688,25.11,0
-0.1764888912439346,-0.8497995138168335,0.0304106958210468,-0.0171141754835844,1.6807318925857544,82.94049072265625,25.11,0
-0.1748359352350235,-0.9315988421440125,0.0195158347487449,0.2505451440811157,1.6796445846557615,83.03346252441406,25.11,0
-0.1793729364871978,-1.006484031677246,0.018121913075447,0.5727816224098206,1.678946852684021,83.09312438964844,25.11,0
-0.2046756148338318,-1.048943281173706,0.0396184735000133,1.112753987312317,1.6784991025924685,83.13140869140625,25.11,0
-0.2209134250879287,-1.132168889045715,0.0422181785106658,1.7602136135101318,1.678211688995361,83.1559829711914,25.11,0
-0.2313339114189148,-1.224762797355652,0.060679841786623,2.0431604385375977,1.680781602859497,83.1717529296875,25.11,0
-0.2436189502477646,-1.1610331535339355,0.1341030001640319,1.7339266538619995,1.6824307441711426,83.18186950683594,25.11,0
-0.2403072416782379,-1.075352907180786,0.1868195235729217,1.1306471824645996,1.6834890842437744,83.18836212158203,25.11,0
-0.1989975571632385,-1.0315638780593872,0.1870633065700531,0.5966115593910217,1.6841683387756348,83.1925277709961,25.11,0
-0.1612918227910995,-1.0146580934524536,0.1760242134332656,0.2073247730731964,1.6846041679382324,83.19520568847656,25.11,0
-0.114703357219696,-0.9870156049728394,0.1689399480819702,-0.1069834753870964,1.684883952140808,83.1969223022461,25.11,0
-0.1183922067284584,-0.8965051770210266,0.175589233636856,-0.3695921897888183,1.6850634813308716,83.1980209350586,25.11,0
-0.1375528275966644,-0.8048341870307922,0.1854541301727295,-0.5596147775650024,1.6851786375045776,83.19873046875,25.11,0
-0.1778378784656524,-0.7460049986839294,0.1749915331602096,-0.6958906650543213,1.683416485786438,83.19918060302734,25.11,0
-0.2092882841825485,-0.7138496041297913,0.1626794636249542,-0.8299182057380676,1.6822856664657593,83.19947052001953,25.11,0
-0.2294713407754898,-0.7100074291229248,0.1435827314853668,-1.0198240280151367,1.681559920310974,83.19966125488281,25.11,0
-0.2200325578451156,-0.7411283850669861,0.1425230950117111,-1.2635022401809692,1.6810941696166992,83.19978332519531,25.11,0
-0.2139752954244613,-0.7778933644294739,0.1530386358499527,-1.4270460605621338,1.6807953119277954,83.19985961914062,25.11,0
-0.2044903188943863,-0.8182803392410278,0.1765802353620529,-1.3457051515579224,1.6806035041809082,83.19990539550781,25.11,0
-0.1984034031629562,-0.8553938865661621,0.1916878670454025,-1.0176469087600708,1.6804804801940918,83.19993591308594,25.11,0
-0.1944971829652786,-0.9687756299972534,0.2013830840587616,-0.5348421931266785,1.6804014444351196,83.19995880126953,25.11,0
-0.2087837159633636,-1.069526433944702,0.2076049149036407,0.0114440778270363,1.6812689304351809,83.1999740600586,25.11,0
-0.206756442785263,-1.1509758234024048,0.2115977257490158,0.5196524262428284,1.6818256378173828,83.19998168945312,25.11,0
-0.2110532224178314,-1.2592231035232544,0.2253556251525879,1.0034246444702148,1.6821829080581665,83.19998931884766,25.11,0
-0.2473973035812378,-1.3007010221481323,0.2341846525669098,1.5252537727355957,1.6824121475219729,83.19998931884766,25.11,0
-0.2651230692863464,-1.226559281349182,0.228655070066452,1.9102896451950075,1.682559370994568,83.19998931884766,25.11,0
-0.2317162454128265,-1.0782194137573242,0.180324301123619,1.8600298166275024,1.682653784751892,83.19998931884766,25.11,0
-0.2102776616811752,-1.0222078561782837,0.1437106281518936,1.4086146354675293,1.682714343070984,83.19998931884766,25.11,0
-0.2357040345668792,-1.0310450792312622,0.1146163046360015,0.8645594716072083,1.6827532052993774,83.19998931884766,25.11,0
-0.2576189935207367,-1.0367162227630615,0.0959452465176582,0.4509297907352447,1.6855324506759644,83.64781188964844,25.11,0
-0.2604871988296509,-0.9395957589149476,0.0783654600381851,0.2678853273391723,1.6873160600662231,83.9352035522461,25.11,0
-0.2287412136793136,-0.8604760766029358,0.0558882169425487,0.2184868603944778,1.6884607076644895,84.11962890625,25.11,0
-0.2083684653043747,-0.815299391746521,0.0414636135101318,0.0399001687765121,1.6891952753067017,84.23798370361328,25.11,0
-0.2064899504184723,-0.7863076329231262,0.0322067365050315,-0.3541473746299743,1.6896666288375854,84.3139419555664,25.11,0
-0.2108822017908096,-0.7565068006515503,0.0318639799952507,-0.764657735824585,1.689969182014465,84.36268615722656,25.11,0
-0.202505350112915,-0.7373823523521423,0.0372417904436588,-1.0495951175689695,1.690163254737854,84.39396667480469,25.11,0
-0.2027273476123809,-0.7530982494354248,0.0462907366454601,-1.2826075553894043,1.6902878284454346,84.4140396118164,25.11,0
-0.1972720324993133,-0.7799771428108215,0.0520978271961212,-1.4930453300476074,1.6876134872436523,84.42691802978516,25.11,0
-0.1937711238861084,-0.8532042503356934,0.0502267107367515,-1.6101793050765991,1.6858972311019895,84.43518829345703,25.11,0
-0.1915244460105896,-0.9337838292121888,0.049025934189558,-1.5707067251205444,1.68479585647583,84.44049072265625,25.11,0
-0.2012782096862793,-0.9966906905174256,0.0762442201375961,-1.3375861644744873,1.6840890645980835,84.44389343261719,25.11,0
-0.2019398361444473,-1.104233980178833,0.0825157985091209,-0.901376724243164,1.6836354732513428,84.44608306884766,25.11,0
-0.196766659617424,-1.1900423765182495,0.080942764878273,-0.2918456494808197,1.6833443641662598,84.4474868774414,25.11,0
-0.2102401256561279,-1.2059248685836792,0.1191176995635032,0.4217481315135956,1.6831575632095337,84.4483871459961,25.11,0
-0.2244843989610672,-1.1545418500900269,0.1660072654485702,1.0946460962295532,1.6830376386642456,84.44896697998047,25.11,0
-0.2056366801261901,-1.0935783386230469,0.1681094318628311,1.4548217058181765,1.686173915863037,84.44933319091797,25.11,0
-0.137563556432724,-1.0712487697601318,0.1470673829317093,1.3312866687774658,1.6881866455078125,84.44956970214844,25.11,0
-0.0826825946569442,-1.04572331905365,0.1335638016462326,1.0083938837051392,1.6894782781600952,84.44972229003906,25.11,0
-0.0586587041616439,-0.9845603704452516,0.1304957568645477,0.95881325006485,1.6903071403503418,84.44982147216797,25.11,0
-0.0544371046125888,-0.9117228984832764,0.1341246366500854,1.1240369081497192,1.6908390522003174,84.44988250732422,25.11,0
-0.0797167941927909,-0.825795590877533,0.1308556646108627,0.9864527583122252,1.6911804676055908,84.44992065429688,25.11,0
-0.1295264959335327,-0.7594568133354187,0.1175622791051864,0.4360069334506988,1.6913995742797852,84.449951171875,25.11,0
-0.1670892685651779,-0.7112866640090942,0.1090313494205474,-0.1071140170097351,1.6915401220321655,84.44996643066406,25.11,0
-0.1799993366003036,-0.697167158126831,0.109154462814331,-0.4664055407047272,1.692089319229126,84.4499740600586,25.11,0
-0.1826865077018737,-0.7104971408843994,0.1092334687709808,-0.8940197825431824,1.692441701889038,84.44998168945312,25.11,0
-0.1844109743833542,-0.7694315314292908,0.1204797253012657,-1.4442963600158691,1.692667841911316,84.44998931884766,25.11,0
-0.1911154091358184,-0.8352410793304443,0.1388924717903137,-1.790266990661621,1.6928130388259888,84.44998931884766,25.11,0
-0.2066134810447693,-0.9222560524940492,0.1563064903020858,-1.747180461883545,1.692906141281128,84.44998931884766,25.11,0
-0.2221570312976837,-1.0396728515625,0.1842751204967498,-1.4508367776870728,1.6929659843444824,84.44998931884766,25.11,0
-0.226534217596054,-1.0870352983474731,0.2022237777709961,-0.9919673204421996,1.6930043697357178,84.44998931884766,25.11,0
-0.1845610439777374,-1.1902008056640625,0.213742196559906,-0.3499814569950104,1.6930289268493652,84.44998931884766,25.11,0
-0.1912117153406143,-1.3347753286361694,0.2323296070098877,0.4202656745910644,1.693503975868225,84.85482788085938,25.09,0
-0.217870831489563,-1.3547838926315308,0.2554534673690796,1.233415126800537,1.693808913230896,85.1146240234375,25.09,0
-0.2181857973337173,-1.216484308242798,0.2367063909769058,1.966619610786438,1.6940045356750488,85.2813491821289,25.09,0
-0.2015946060419082,-1.1053404808044434,0.1966867297887802,2.2687668800354004,1.6941300630569458,85.38834381103516,25.09,0
-0.2021428793668747,-1.067601442337036,0.159808874130249,1.893038272857666,1.694210648536682,85.4570083618164,25.09,0
-0.2192880511283874,-1.04338276386261,0.1361427903175354,1.2220081090927124,1.6942623853683472,85.50106811523438,25.09,0
-0.2302908450365066,-0.994253933429718,0.1209552511572837,0.820040225982666,1.6942955255508425,85.52935028076172,25.09,0
-0.2149606943130493,-0.9011503458023072,0.1056109890341758,0.6623924970626831,1.694316864013672,85.54749298095703,25.09,0
-0.19952492415905,-0.8469995856285095,0.0845683738589286,0.3892596065998077,1.6911169290542605,85.55914306640625,25.09,0
-0.1952169090509414,-0.8122487664222717,0.0598688870668411,-0.0260538961738348,1.6890634298324585,85.56661224365234,25.09,0
-0.1980500370264053,-0.7731543779373169,0.049615953117609,-0.3928903043270111,1.6877455711364746,85.5714111328125,25.09,0
-0.1998681873083114,-0.7480658292770386,0.0430362112820148,-0.6927911639213562,1.6868999004364014,85.5744857788086,25.09,0
-0.1898394227027893,-0.7431609630584717,0.0444114878773689,-1.0142229795455933,1.6863571405410769,85.57646179199219,25.09,0
-0.1834035366773605,-0.7456110715866089,0.0452940613031387,-1.3172290325164795,1.6860088109970093,85.57772827148438,25.09,0
-0.1848711222410202,-0.8031612038612366,0.0402626693248748,-1.486602783203125,1.6857852935791016,85.57854461669922,25.09,0
-0.1914107054471969,-0.8960713148117065,0.037033811211586,-1.4985675811767578,1.685641884803772,85.57906341552734,25.09,0
-0.2012052088975906,-0.9668911695480348,0.0517550408840179,-1.3736906051635742,1.6869269609451294,85.57939910888672,25.09,0
-0.2186863124370575,-1.062719225883484,0.0723978281021118,-1.0427714586257937,1.6877516508102417,85.5796127319336,25.09,0
-0.2187091261148452,-1.1745961904525757,0.0800474062561988,-0.4399058520793915,1.6882809400558472,85.57975006103516,25.09,0
-0.207528218626976,-1.263185739517212,0.1073475629091262,0.2873232364654541,1.6886205673217771,85.57984161376953,25.09,0
-0.2003529518842697,-1.157701849937439,0.1696494221687317,0.8543291687965393,1.6888386011123655,85.57990264892578,25.09,0
-0.1845527291297912,-1.078812837600708,0.1928378492593765,1.0892281532287598,1.6889784336090088,85.57994079589844,25.09,0
-0.146424189209938,-1.072968602180481,0.1741321980953216,0.9712796807289124,1.6890681982040403,85.57996368408203,25.09,0
-0.0995643883943557,-1.041229248046875,0.1621279865503311,0.6842151880264282,1.6891257762908936,85.5799789428711,25.09,0
-0.0526991449296474,-0.9704807996749878,0.1600221544504165,0.5501497387886047,1.6877856254577637,85.57998657226562,25.09,0
-0.0562103763222694,-0.8523074388504028,0.1698662936687469,0.6109998822212219,1.6869255304336548,85.57999420166016,25.09,0
-0.0808547809720039,-0.7764706015586853,0.1705859303474426,0.5927287936210632,1.686373591423035,85.57999420166016,25.09,0
-0.1246590092778205,-0.7389984130859375,0.1542544215917587,0.4269526898860931,1.6860194206237793,85.57999420166016,25.09,0
-0.1639655977487564,-0.7261465191841125,0.1381760239601135,0.313401997089386,1.685792088508606,85.57999420166016,25.09,0
-0.1779947429895401,-0.7290944457054138,0.1334556192159652,0.2011233568191528,1.6856462955474854,85.57999420166016,25.09,0
-0.1758023053407669,-0.758975088596344,0.1416218727827072,-0.200527548789978,1.685552716255188,85.57999420166016,25.09,0
-0.1687975376844406,-0.800541877746582,0.146862506866455,-0.8308718800544739,1.6854926347732544,85.57999420166016,25.09,0
-0.1699000597000122,-0.8440104126930237,0.1670189648866653,-1.27479887008667,1.6845362186431885,85.9239273071289,25.07,0
-0.1706075966358184,-0.905492663383484,0.1855520009994506,-1.3447312116622925,1.6839224100112915,86.14463806152344,25.07,0
-0.1710616499185562,-1.00092613697052,0.1974454373121261,-1.181820273399353,1.6835285425186155,86.2862777709961,25.07,0
-0.1545597165822982,-1.0845609903335571,0.199480190873146,-0.9160575270652772,1.6832756996154783,86.3771743774414,25.07,0
-0.1327741742134094,-1.18301522731781,0.1895904242992401,-0.5592123866081238,1.6831134557724,86.43550872802734,25.07,0
-0.1467823386192321,-1.3077729940414429,0.1944392919540405,-0.1188377514481544,1.683009386062622,86.47294616699219,25.07,0
-0.1781630665063858,-1.3150643110275269,0.1975510120391845,0.4503753781318664,1.6829426288604736,86.4969711303711,25.07,0
-0.1815080940723419,-1.2189834117889404,0.1771568357944488,1.1954166889190674,1.6828997135162354,86.51239013671875,25.07,0
-0.1612636446952819,-1.0789554119110107,0.1416779309511184,1.8275920152664185,1.6833311319351196,86.52228546142578,25.07,0
-0.1538696885108947,-0.9946913123130798,0.1133118420839309,1.8571152687072756,1.683608055114746,86.52863311767578,25.07,0
-0.1827113181352615,-0.9518110156059264,0.0895103439688682,1.2992669343948364,1.6837856769561768,86.53270721435547,25.07,0
-0.2180135399103164,-0.9410862326622008,0.0686381384730339,0.7693083882331848,1.6838997602462769,86.53531646728516,25.07,0
-0.2294729351997375,-0.9006170034408569,0.0440480075776577,0.647748589515686,1.683972954750061,86.53699493408203,25.07,0
-0.2144358158111572,-0.85225510597229,0.0226697009056806,0.6091468334197998,1.684019923210144,86.53807067871094,25.07,0
-0.199188083410263,-0.8380125164985657,0.0089503340423107,0.2404472082853317,1.6840500831604004,86.53876495361328,25.07,0
-0.2005985081195831,-0.8400680422782898,0.0001460347848478,-0.3436728119850158,1.6840693950653076,86.5392074584961,25.07,0
-0.195905864238739,-0.8357893824577332,-0.0055040577426552,-0.8116743564605713,1.679491400718689,86.53948974609375,25.07,0
-0.1761010736227035,-0.8330435752868652,0.002065586624667,-1.162166953086853,1.67655348777771,86.5396728515625,25.07,0
-0.1689892709255218,-0.8312814831733704,0.0125211235135793,-1.587717056274414,1.6746681928634644,86.53978729248047,25.07,0
-0.164425328373909,-0.8413462042808533,0.0192308854311704,-2.0327742099761963,1.6734583377838137,86.53986358642578,25.07,0
-0.1614964604377746,-0.898185133934021,0.0235368236899375,-2.271812915802002,1.6726819276809692,86.53990936279297,25.07,0
-0.1596168726682663,-0.9458566308021544,0.0263001266866922,-2.1887640953063965,1.672183632850647,86.5399398803711,25.07,0
-0.1528128832578659,-0.9708516597747804,0.0336712300777435,-1.7879583835601809,1.6718637943267822,86.53996276855469,25.07,0
-0.1540442556142807,-1.0484675168991089,0.0216082576662302,-1.082922339439392,1.671658635139465,86.53997802734375,25.07,0
-0.1660300344228744,-1.148656964302063,0.0082691619172692,-0.1360754072666168,1.672904133796692,86.53998565673828,25.07,0
-0.1905151307582855,-1.1737682819366455,0.0220999959856271,0.9157958030700684,1.6737033128738403,86.53999328613281,25.07,0
-0.2006304860115051,-1.1003189086914062,0.0421713776886463,1.8129459619522093,1.6742162704467771,86.53999328613281,25.07,0
-0.1679375171661377,-1.06437885761261,0.0438564866781234,2.205973863601685,1.674545407295227,86.53999328613281,25.07,0
-0.1301637291908264,-1.1084879636764526,0.0281445682048797,1.974548816680908,1.674756646156311,86.53999328613281,25.07,0
-0.0891293659806251,-1.114403486251831,0.018061563372612,1.5000191926956177,1.6748921871185305,86.53999328613281,25.07,0
-0.0460025481879711,-1.051026463508606,0.0115908719599246,1.2205713987350464,1.6749792098999023,86.53999328613281,25.07,0
-0.0351195633411407,-0.982365906238556,0.0074383546598255,1.0878113508224487,1.675034999847412,86.53999328613281,25.07,0
-0.0505265854299068,-0.9271079301834106,-0.0064220409840345,0.8127371072769165,1.6741526126861572,86.88392639160156,25.09,0
-0.0884028002619743,-0.8860487937927246,-0.0209146179258823,0.4033428728580475,1.673586368560791,87.1046371459961,25.09,0
-0.1183073446154594,-0.8541015982627869,-0.0246173460036516,-0.0134334946051239,1.6732230186462402,87.24627685546875,25.09,0
-0.1263028085231781,-0.8224042057991028,-0.0213957708328962,-0.4779382348060608,1.672989845275879,87.33717346191406,25.09,0
-0.137031614780426,-0.813258171081543,-0.0137305743992328,-0.9694897532463074,1.6728401184082031,87.3955078125,25.09,0
-0.1551122963428497,-0.829779863357544,-0.0032137178350239,-1.2598611116409302,1.6727440357208252,87.43294525146484,25.09,0
-0.1779109835624694,-0.8627736568450928,0.0091331703588366,-1.2384154796600342,1.6726824045181274,87.45697021484375,25.09,0
-0.1869440972805023,-0.8839471340179443,0.0114589175209403,-1.0240286588668823,1.6726428270339966,87.4723892211914,25.09,0
-0.1871432512998581,-0.9815016984939576,-0.0094396499916911,-0.7144838571548462,1.6726174354553225,87.48228454589844,25.09,0
-0.1928688287734985,-1.0608999729156494,-0.0284489206969738,-0.3438721597194671,1.6726012229919434,87.48863220214844,25.09,0
-0.1965431869029998,-1.050277590751648,-0.051843523979187,0.0551809668540954,1.672590732574463,87.49270629882812,25.09,0
-0.1933033913373947,-1.0938408374786377,-0.0892479345202446,0.5584679841995239,1.672584056854248,87.49531555175781,25.09,0
-0.1968220621347427,-1.1665793657302856,-0.1244474798440933,1.2504539489746094,1.6725797653198242,87.49699401855469,25.09,0
-0.22706900537014,-1.1404876708984375,-0.1526342928409576,1.870076894760132,1.6725770235061646,87.4980697631836,25.09,0
-0.2520775198936462,-1.062168002128601,-0.1595274209976196,1.9775266647338867,1.6725752353668213,87.49876403808594,25.09,0
-0.2737243175506592,-0.9727225303649902,-0.1415599435567855,1.527008295059204,1.6725740432739258,87.49920654296875,25.09,0
-0.2876159846782684,-0.9433104395866394,-0.1244316697120666,0.9082944989204408,1.6734914779663086,87.4994888305664,25.09,0
-0.3021286427974701,-0.930033266544342,-0.1078419536352157,0.4431706666946411,1.6740802526474,87.49967193603516,25.09,0
-0.3002464771270752,-0.9383060336112976,-0.0860000848770141,0.126768097281456,1.674458146095276,87.49978637695312,25.09,0
-0.2822453081607818,-0.9492127895355223,-0.0719832256436348,-0.2016710191965103,1.6747006177902222,87.49986267089844,25.09,0
-0.2706931829452514,-0.973005473613739,-0.0517924651503562,-0.5270867347717285,1.674856185913086,87.49990844726562,25.09,0
-0.2856707870960235,-0.9266987442970276,-0.0276396479457616,-0.6606857180595398,1.6749560832977295,87.49993896484375,25.09,0
-0.3120758831501007,-0.8689928650856018,-0.0009442112059332,-0.642527163028717,1.6750202178955078,87.49996185302734,25.09,0
-0.329021155834198,-0.8599494099617004,0.0105896089226007,-0.7455164790153503,1.6750613451004028,87.4999771118164,25.09,0
-0.3287000954151153,-0.8541458249092102,0.0291868988424539,-1.037311315536499,1.6727923154830933,87.49998474121094,25.09,0
-0.3117007315158844,-0.8224325776100159,0.0635126680135726,-1.3033851385116575,1.67133629322052,87.49999237060547,25.09,0
-0.2504115700721741,-0.796483039855957,0.0911387428641319,-1.406067132949829,1.6704018115997314,87.49999237060547,25.09,0
-0.1942863762378692,-0.7630367875099182,0.1032697930932045,-1.342989802360535,1.669802188873291,87.49999237060547,25.09,0
-0.1414751410484314,-0.7247796058654785,0.105457030236721,-1.1448770761489868,1.669417381286621,87.49999237060547,25.09,0
-0.1019861474633216,-0.711423933506012,0.0956651270389556,-0.8314457535743713,1.669170379638672,87.49999237060547,25.09,0
-0.0990354865789413,-0.6972552537918091,0.0781856924295425,-0.3436975479125976,1.6690119504928589,87.49999237060547,25.09,0
-0.1139352470636367,-0.6993581056594849,0.0725661739706993,0.3705596625804901,1.668910264968872,87.49999237060547,25.09,0
-0.1290948241949081,-0.7230986952781677,0.0633621141314506,1.1227000951766968,1.6688449382781982,87.82242584228516,25.11,0
-0.127627819776535,-0.738334059715271,0.0518577061593532,1.573137283325195,1.668803095817566,88.02935028076172,25.11,0
-0.1434797048568725,-0.7649045586585999,0.0444748401641845,1.5505179166793823,1.6687761545181274,88.16213989257812,25.11,0
-0.1536525338888168,-0.8883137106895447,0.0397369414567947,1.213570237159729,1.6687588691711426,88.24735260009766,25.11,0
-0.1601808667182922,-0.9339239597320556,0.0422942042350769,0.8970245122909546,1.6687477827072144,88.30204010009766,25.11,0
-0.1811636984348297,-0.9967806339263916,0.0439353100955486,0.7906132340431213,1.6687407493591309,88.3371353149414,25.11,0
-0.1778359562158584,-1.0763028860092163,0.0617818012833595,0.7509852051734924,1.668736219406128,88.35965728759766,25.11,0
-0.1477115303277969,-1.144128918647766,0.0396480038762092,0.607329249382019,1.6687332391738892,88.37410736083984,25.11,0
-0.1059883087873458,-1.1708624362945557,-0.0025450652465224,0.404079258441925,1.6682723760604858,88.38338470458984,25.11,0
-0.1239949390292167,-1.2104096412658691,-0.0296221487224102,0.1339246779680252,1.6679766178131104,88.38933563232422,25.11,0
-0.1467461138963699,-1.2413865327835083,-0.0469986610114574,-0.3475465178489685,1.6677868366241455,88.39315795898438,25.11,0
-0.194933146238327,-1.2724612951278689,-0.0917365550994873,-0.9001421332359314,1.6676651239395142,88.3956069946289,25.11,0
-0.2202590405941009,-1.3035987615585327,-0.1204467564821243,-1.1150457859039309,1.6675869226455688,88.39717864990234,25.11,0
-0.1973273158073425,-1.3123854398727417,-0.1388713121414184,-0.8982835412025452,1.667536735534668,88.398193359375,25.11,0
-0.1658177375793457,-1.3236219882965088,-0.1339018046855926,-0.5478060841560364,1.6675045490264893,88.39884185791016,25.11,0
-0.1567922532558441,-1.3252352476119995,-0.1251148879528045,-0.244073137640953,1.667483925819397,88.39925384521484,25.11,0
-0.1621957570314407,-1.2926838397979736,-0.1082804054021835,-0.0204942133277654,1.6660935878753662,88.39952087402344,25.11,0
-0.1600656509399414,-1.2494031190872192,-0.0918792262673378,0.0799949616193771,1.6652013063430786,88.39969635009766,25.11,0
-0.1475031226873397,-1.182443618774414,-0.0645605698227882,0.2089694887399673,1.6646286249160769,88.3998031616211,25.11,0
-0.1282456666231155,-1.1898528337478638,-0.0470290333032608,0.5962568521499634,1.6642612218856812,88.39987182617188,25.11,0
-0.127082884311676,-1.1778143644332886,-0.0189849771559238,1.0024288892745972,1.6640254259109497,88.39991760253906,25.11,0
-0.1375322192907333,-1.0749266147613523,0.0493920519948005,0.9728981256484984,1.6638740301132202,88.39994812011719,25.11,0
-0.1610313355922699,-0.9641169905662536,0.121261365711689,0.5204553604125977,1.6637768745422363,88.39997100830078,25.11,0
-0.1817094832658767,-0.8426257371902466,0.1897740513086319,0.0044013075530529,1.6637145280838013,88.39997863769531,25.11,0
-0.1837839782238006,-0.7478663325309753,0.2281437814235687,-0.3912588357925415,1.6613792181015017,88.39998626708984,25.11,0
-0.1795174926519394,-0.7038485407829285,0.247169479727745,-0.7311525344848633,1.659880518913269,88.39999389648438,25.11,0
-0.1935728341341018,-0.7035893201828003,0.2985635101795196,-1.0746668577194214,1.6589187383651731,88.39999389648438,25.11,0
-0.2081905156373977,-0.709020733833313,0.3371430039405823,-1.244958519935608,1.658301591873169,88.39999389648438,25.11,0
-0.2455601841211319,-0.7125062942504883,0.3507055640220642,-1.0067321062088013,1.6579055786132812,88.39999389648438,25.11,0
-0.2751396596431732,-0.7203409075737,0.3594092428684234,-0.4884293973445892,1.657651424407959,88.39999389648438,25.11,0
-0.3277086913585663,-0.7533575892448425,0.3873858451843261,-0.0805784538388252,1.657488226890564,88.39999389648438,25.11,0
-0.3558467030525207,-0.791339099407196,0.4165351688861847,0.0736795291304588,1.6573835611343384,88.39999389648438,25.11,0
-0.3683062791824341,-0.8213112354278564,0.4352415204048157,0.1046044901013374,1.6577752828598022,88.68302154541016,25.09,0
-0.3371177017688751,-0.8517411947250366,0.452843964099884,0.0778768658638,1.6580266952514648,88.86465454101562,25.09,0
-0.305907130241394,-0.8600738644599915,0.4641402065753937,-0.0395875014364719,1.658187985420227,88.98121643066406,25.09,0
-0.2914757430553436,-0.8542256951332092,0.4657917022705078,-0.2296117842197418,1.6582914590835571,89.05601501464844,25.09,0
-0.2878122925758362,-0.8504726886749268,0.4556559920310974,-0.5163569450378418,1.658357858657837,89.10401916503906,25.09,0
-0.296656847000122,-0.8592597842216492,0.4379559159278869,-0.9511537551879884,1.658400535583496,89.13482666015625,25.09,0
-0.3079305589199066,-0.8704966306686401,0.4209992587566376,-1.39139723777771,1.6584279537200928,89.15459442138672,25.09,0
-0.3151653707027435,-0.8721100091934204,0.4101174473762512,-1.577190637588501,1.6584454774856567,89.16728210449219,25.09,0
-0.3030149340629577,-0.873145341873169,0.3863407969474792,-1.5781971216201782,1.6602932214736938,89.17542266845703,25.09,0
-0.2784241437911987,-0.8794075846672058,0.3654845356941223,-1.6827377080917358,1.6614789962768557,89.18064880371094,25.09,0
-0.2626432180404663,-0.883426308631897,0.346502423286438,-1.799981951713562,1.662239909172058,89.18399810791016,25.09,0
-0.2469181418418884,-0.8916030526161194,0.3287230134010315,-1.6960936784744265,1.662728190422058,89.18614959716797,25.09,0
-0.2368266880512237,-0.9024481773376464,0.3173132240772247,-1.3929742574691772,1.663041591644287,89.18753051757812,25.09,0
-0.2359483540058136,-0.9206035137176514,0.2987955212593078,-0.919008731842041,1.6632426977157593,89.18841552734375,25.09,0
-0.2353846877813339,-0.9322545528411864,0.2813141644001007,-0.2422570586204528,1.6633718013763428,89.1889877319336,25.09,0
-0.2294251918792724,-0.934133768081665,0.275693416595459,0.3675894439220428,1.6634546518325806,89.1893539428711,25.09,0
-0.2200029492378235,-0.9297419786453248,0.2720863223075866,0.6980499625205994,1.6648849248886108,89.18958282470703,25.09,0
-0.2139562964439392,-0.9269235730171204,0.2697715163230896,1.0462584495544434,1.665802836418152,89.18973541259766,25.09,0
-0.2156736701726913,-0.930712640285492,0.2682859897613525,1.6960450410842896,1.6663918495178225,89.18983459472656,25.09,0
-0.2167757898569107,-0.9331442713737488,0.2673326730728149,2.335160493850708,1.6667698621749878,89.18989562988281,25.09,0
-0.2174830585718155,-0.9347047209739684,0.2667208909988403,2.551848888397217,1.6670124530792236,89.18993377685547,25.09,0
-0.2235347181558609,-0.9357061386108398,0.2663282752037048,2.4544570446014404,1.667168140411377,89.18995666503906,25.09,0
-0.2274183332920074,-0.936348795890808,0.2604785561561584,2.3453829288482666,1.6672680377960205,89.18997192382812,25.09,0
-0.2243128418922424,-0.9311634302139282,0.2567245364189148,2.1750733852386475,1.6673321723937988,89.18997955322266,25.09,0
-0.2223199158906936,-0.9334335327148438,0.2543154060840606,1.825745940208435,1.6650779247283936,89.18998718261719,25.09,0
-0.2210409641265869,-0.9348903894424438,0.2527693808078766,1.519168496131897,1.6636313199996948,89.18999481201172,25.09,0
-0.2202202081680297,-0.9358252882957458,0.246179461479187,1.45139741897583,1.6627029180526731,89.18999481201172,25.09,0
-0.2196934968233108,-0.9420230388641356,0.2419504225254058,1.4974702596664429,1.6621071100234983,89.18999481201172,25.09,0
-0.2193554788827896,-0.9460003972053528,0.2392364740371704,1.519871950149536,1.6617248058319092,89.18999481201172,25.09,0
-0.2191385626792907,-0.9485528469085692,0.2430925816297531,1.4303534030914309,1.6614794731140137,89.18999481201172,25.09,0
-0.2189993560314178,-0.9501908421516418,0.2455672174692154,1.025395750999451,1.661321997642517,89.18999481201172,25.09,0
-0.2133122533559799,-0.9512420296669006,0.2471552938222885,0.2711217999458313,1.661220908164978,89.18999481201172,25.09,0
-0.2040648162364959,-0.9519166350364684,0.2481744289398193,-0.452960342168808,1.6611560583114624,89.45869445800781,25.09,0
-0.1981303393840789,-0.9523495435714722,0.2488284558057785,-0.8746436834335327,1.6611144542694092,89.6311264038086,25.09,0
-0.1943219453096389,-0.9470295906066896,0.2436503916978836,-1.1094300746917725,1.6610877513885498,89.74178314208984,25.09,0
-0.19187793135643,-0.9436155557632446,0.2403274178504943,-1.2529373168945312,1.6610705852508545,89.81279754638672,25.09,0
-0.1959072798490524,-0.93582683801651,0.232597142457962,-1.21247661113739,1.6610596179962158,89.85836791992188,25.09,0
-0.1984930783510208,-0.9308285117149352,0.2276362925767898,-1.13277268409729,1.6610525846481323,89.88761138916016,25.09,0
-0.20015250146389,-0.9276208281517028,0.218854933977127,-1.2392566204071045,1.6610480546951294,89.90637969970703,25.09,0
-0.2012174278497696,-0.92556232213974,0.218817338347435,-1.347000241279602,1.6610451936721802,89.91842651367188,25.09,0
-0.2019008249044418,-0.924241304397583,0.2187932133674621,-1.1187900304794312,1.6605844497680664,89.92615509033203,25.09,0
-0.2023393958806991,-0.9233935475349426,0.2187777310609817,-0.5925849080085754,1.660288691520691,89.93111419677734,25.09,0
-0.2082186192274093,-0.9228495359420776,0.2187677919864654,-0.0471073500812053,1.660098910331726,89.93429565429688,25.09,0
-0.2119915634393692,-0.9225003719329834,0.2187614142894745,0.353104829788208,1.6599771976470947,89.93634033203125,25.09,0
-0.2144128233194351,-0.9222763180732728,0.2187573313713073,0.4952955245971679,1.6598989963531494,89.93765258789062,25.09,0
-0.2215644270181656,-0.9221325516700744,0.2187547087669372,0.3142695724964142,1.6598488092422483,89.93849182128906,25.09,0
-0.2261539101600647,-0.9220402836799622,0.2187530249357223,-0.0061092688702046,1.6598166227340698,89.93903350830078,25.09,0
-0.2290991842746734,-0.9219810962677002,0.2187519371509552,-0.1830493658781051,1.6597959995269775,89.93937683105469,25.09,0
-0.2309892922639846,-0.9275408387184144,0.2187512367963791,-0.1353834271430969,1.6602416038513184,89.9395980834961,25.09,0
-0.226604476571083,-0.9311087727546692,0.2187507897615432,-0.0116472104564309,1.660527586936951,89.93974304199219,25.09,0
-0.223790556192398,-0.9389962553977966,0.2187505066394806,0.0104383686557412,1.6607111692428589,89.93983459472656,25.09,0
-0.2219847440719604,-0.9440580010414124,0.2187503278255462,-0.0900308042764663,1.660828948020935,89.93989562988281,25.09,0
-0.2208258658647537,-0.9417085647583008,0.2187502086162567,-0.2261576354503631,1.6609045267105105,89.93993377685547,25.09,0
-0.2200821638107299,-0.9457985758781432,0.2187501341104507,-0.3099334239959717,1.6609530448913574,89.93995666503906,25.09,0
-0.2196049094200134,-0.9428255558013916,0.2187500894069671,-0.2956269681453705,1.6609841585159302,89.93997192382812,25.09,0
-0.219298630952835,-0.9409176111221312,0.2131522893905639,-0.1753860712051391,1.6610041856765747,89.93997955322266,25.09,0
-0.2135042995214462,-0.945290982723236,0.2095599323511123,-0.0444837473332881,1.6614758968353271,89.93998718261719,25.09,0
-0.2097858339548111,-0.942499816417694,0.2072545737028122,-0.0285471081733703,1.661778688430786,89.93999481201172,25.09,0
-0.2073995471000671,-0.940708577632904,0.2001773416996002,-0.0971365571022033,1.661972999572754,89.93999481201172,25.09,0
-0.2058681547641754,-0.9395591020584106,0.195635586977005,-0.1519010365009308,1.662097692489624,89.93999481201172,25.09,0
-0.2048853933811187,-0.9388214349746704,0.1927209496498108,-0.1942108869552612,1.6621776819229126,89.93999481201172,25.09,0
-0.2042547166347503,-0.9383479952812196,0.1908505111932754,-0.2285280525684356,1.662229061126709,89.93999481201172,25.09,0
-0.2038499861955642,-0.9380441904067992,0.1896501630544662,-0.182481899857521,1.662261962890625,89.93999481201172,25.09,0
-0.2035902589559555,-0.937849223613739,0.1888798475265503,-0.0812806189060211,1.6622830629348757,89.93999481201172,25.09,0
-0.2034235745668411,-0.9433218836784364,0.1827877312898636,-0.0629089474678039,1.6622966527938845,90.14061737060548,25.11,0
-0.2033166140317917,-0.9468339085578918,0.1844759434461593,-0.1908395141363144,1.6623053550720217,90.26937103271484,25.11,0
-0.2088457345962524,-0.9434899687767028,0.185559332370758,-0.3374243676662445,1.6623109579086304,90.35199737548828,25.11,0
-0.2123940140008926,-0.9469417929649352,0.1862545907497406,-0.3383471071720123,1.662314534187317,90.40502166748048,25.11,0
-0.2146710902452469,-0.9491569995880128,0.1922985464334488,-0.1813059449195861,1.6623167991638184,90.43904876708984,25.11,0
-0.2161323875188827,-0.9505785703659058,0.1961771994829177,0.0090384148061275,1.6623183488845823,90.46088409423828,25.11,0
-0.2170701622962951,-0.9514908194541932,0.1986663043498993,0.12760791182518,1.662319302558899,90.4748992919922,25.11,0
-0.2176719754934311,-0.952076256275177,0.1946658939123153,0.1463777720928192,1.662319898605347,90.48389434814452,25.11,0
-0.2180581837892532,-0.9524520039558412,0.1920986622571945,0.1118497028946876,1.663238525390625,90.48966217041016,25.11,0
-0.2183060348033905,-0.9526931047439576,0.1848533749580383,0.1398476362228393,1.6638280153274536,90.4933624267578,25.11,0
-0.2128673195838928,-0.9472500681877136,0.1746059954166412,0.2652923762798309,1.6642062664031982,90.49574279785156,25.11,0
-0.2093770653009414,-0.9437570571899414,0.1680298149585724,0.3493781685829162,1.6644490957260132,90.4972686767578,25.11,0
-0.2127349972724914,-0.9415154457092284,0.1582118272781372,0.2779494225978851,1.664604902267456,90.4982452392578,25.11,0
-0.2148899137973785,-0.9456746578216552,0.1519112139940261,0.1712067872285843,1.6647049188613892,90.49887084960938,25.11,0
-0.2106750458478927,-0.9427460432052612,0.1478678435087204,0.1922699064016342,1.6647690534591677,90.49927520751952,25.11,0
-0.2079701870679855,-0.9464643597602844,0.1508708149194717,0.288186252117157,1.6648101806640625,90.4995346069336,25.11,0
-0.2118321359157562,-0.9488505721092224,0.1527979522943496,0.2816708981990814,1.665754795074463,90.49970245361328,25.11,0
-0.2087127417325973,-0.9503819346427916,0.1596324443817138,0.1592647135257721,1.6663609743118286,90.49980926513672,25.11,0
-0.2067108899354934,-0.9569624066352844,0.1640184372663498,0.0771289020776748,1.6667500734329224,90.4998779296875,25.11,0
-0.2054262161254882,-0.9667831659317015,0.1668331176042556,0.0674097687005996,1.6669996976852417,90.49992370605467,25.11,0
-0.1990040093660354,-0.9618900418281556,0.1686394065618515,0.0110165271908044,1.667159914970398,90.4999542236328,25.11,0
-0.1892848312854766,-0.9587498903274536,0.1642008125782013,-0.0681643113493919,1.6672627925872805,90.49996948242188,25.11,0
-0.1998409479856491,-0.9455391764640808,0.1613523811101913,-0.0437439307570457,1.6673288345336914,90.4999771118164,25.11,0
-0.2066152542829513,-0.9370613098144532,0.1595244109630584,0.0507443286478519,1.667371153831482,90.49998474121094,25.11,0
-0.2109626233577728,-0.9428162574768066,0.158351331949234,0.1328769028186798,1.6660211086273191,90.49999237060548,25.11,0
-0.2081547379493713,-0.9521071910858154,0.1575985103845596,0.2572363615036011,1.6651548147201538,90.49999237060548,25.11,0
-0.2063528001308441,-0.958069622516632,0.1571153998374939,0.3979468941688537,1.664598822593689,90.49999237060548,25.11,0
-0.2107941955327987,-0.9618959426879884,0.1568053662776947,0.3843521475791931,1.6642420291900637,90.49999237060548,25.11,0
-0.2136444300413131,-0.9643514752388,0.1566064059734344,0.1140997856855392,1.6640130281448364,90.49999237060548,25.11,0
-0.2098757624626159,-0.9659273028373718,0.1564787179231643,-0.3316083550453186,1.66386616230011,90.49999237060548,25.11,0
-0.2074572443962097,-0.9613407850265504,0.1563967764377594,-0.7322806715965271,1.6637718677520752,90.49999237060548,25.11,0
-0.2059051841497421,-0.958397388458252,0.1563441902399063,-0.8281931281089783,1.6637113094329834,90.49999237060548,25.11,0
-0.2049091607332229,-0.9565085172653198,0.1563104391098022,-0.5529821515083313,1.6655086278915403,90.75435638427734,25.11,0
-0.2042699754238128,-0.9552963376045228,0.1562887877225875,-0.1291698366403579,1.6666619777679443,90.91759490966795,25.11,0
-0.2038597762584686,-0.9545184373855592,0.1562748849391937,0.2144600003957748,1.6674021482467651,91.02235412597656,25.11,0
-0.2035965323448181,-0.9540192484855652,0.1562659740447998,0.388408362865448,1.667877197265625,91.0895767211914,25.11,0
-0.2034275978803634,-0.9536988735198976,0.1562602519989013,0.4068914651870727,1.6681820154190063,91.13272094726562,25.11,0
-0.2033191919326782,-0.959091067314148,0.1618543565273285,0.3578490614891052,1.6683776378631592,91.16040802001952,25.11,0
-0.2032496184110641,-0.9569537043571472,0.165444329380989,0.2977158725261688,1.6685031652450562,91.1781768798828,25.11,0
-0.2032049745321273,-0.9555820226669312,0.1677481681108474,0.2662909924983978,1.6685837507247925,91.1895751953125,25.11,0
-0.2087741047143936,-0.9547017812728882,0.1748244166374206,0.3285235464572906,1.668176531791687,91.19689178466795,25.11,0
-0.2123480439186096,-0.9541369080543518,0.1793655455112457,0.3863736987113952,1.667915105819702,91.20158386230467,25.11,0
-0.2090438157320022,-0.953774392604828,0.1822797805070877,0.1619705855846405,1.6677473783493042,91.20459747314452,25.11,0
-0.2069233506917953,-0.9479439854621888,0.1841499656438827,-0.2901399433612823,1.6676397323608398,91.20653533935548,25.11,0
-0.205562561750412,-0.9386045932769777,0.1797523647546768,-0.5444526672363281,1.66757071018219,91.20777893066406,25.11,0
-0.2102870643138885,-0.9326111078262328,0.176930233836174,-0.4568756520748138,1.667526364326477,91.20857238769533,25.11,0
-0.2133189737796783,-0.928764820098877,0.1751191616058349,-0.2537881731986999,1.6674978733062744,91.2090835571289,25.11,0
-0.2152646780014038,-0.9262964725494384,0.1739569157361984,-0.0410590805113315,1.6674796342849731,91.20941162109376,25.11,0
-0.2109155505895614,-0.9303102493286132,0.1732110530138015,0.1097885146737098,1.6651725769042969,91.20962524414062,25.11,0
-0.2137223035097122,-0.9384838342666626,0.1727323979139328,-0.0334387384355068,1.6636919975280762,91.2097625732422,25.11,0
-0.2155235111713409,-0.9437291622161864,0.1724252253770828,-0.4370378255844116,1.6627418994903564,91.20984649658205,25.11,0
-0.2110816538333892,-0.9414975047111512,0.1722280979156494,-0.7175399661064148,1.6621321439743042,91.20989990234376,25.11,0
-0.208231121301651,-0.9400653839111328,0.1721016019582748,-0.725586473941803,1.6617408990859983,91.2099380493164,25.11,0
-0.2064018100500106,-0.9391463398933412,0.1776181906461715,-0.6483510136604309,1.661489725112915,91.2099609375,25.11,0
-0.1996300965547561,-0.9441543221473694,0.1811584234237671,-0.534299373626709,1.6613285541534424,91.20997619628906,25.11,0
-0.2008821666240692,-0.9417703747749328,0.1834303438663482,-0.3178045451641083,1.661225199699402,91.2099838256836,25.11,0
-0.201685681939125,-0.9402405023574828,0.1848883330821991,-0.0893062576651573,1.6625360250473022,91.20999145507812,25.11,0
-0.2022013217210769,-0.9392586946487428,0.1858239769935608,0.1110694408416748,1.6633771657943726,91.20999145507812,25.11,0
-0.2025322318077087,-0.938628613948822,0.1920222043991089,0.3614665865898132,1.6639169454574585,91.20999145507812,25.11,0
-0.2027445882558822,-0.9382242560386658,0.190402090549469,0.5651479959487915,1.664263367652893,91.20999145507812,25.11,0
-0.208478644490242,-0.9435625672340392,0.1893623918294906,0.5668862462043762,1.6644856929779053,91.20999145507812,25.11,0
-0.2121584415435791,-0.9469884037971495,0.1886951774358749,0.4533593654632568,1.6646283864974976,91.20999145507812,25.11,0
-0.2145199179649353,-0.9491868615150452,0.1938647776842117,0.4091649353504181,1.6647199392318726,91.20999145507812,25.11,0
-0.2216331511735916,-0.9505977034568788,0.1971823275089264,0.4381247162818908,1.664778709411621,91.20999145507812,25.11,0
-0.2206002473831176,-0.9403075575828552,0.1993113309144973,0.410135954618454,1.6616032123565674,91.40345001220705,25.11,0
-0.2143396139144897,-0.9337039589881896,0.1950798332691192,0.2202107459306717,1.6595653295516968,91.52760314941406,25.11,0
-0.2159196734428405,-0.9238683581352234,0.1923643052577972,-0.0628882199525833,1.6582576036453247,91.6072769165039,25.11,0
-0.2169336527585983,-0.9175564646720886,0.1794260889291763,-0.208739086985588,1.6574183702468872,91.65840911865234,25.11,0
-0.2175843715667724,-0.9191036224365234,0.1711230725049972,-0.0730529427528381,1.6568797826766968,91.69122314453124,25.11,0
-0.2180019617080688,-0.9312920570373536,0.1657946854829788,0.1501604914665222,1.656534194946289,91.7122802734375,25.11,0
-0.2126721739768982,-0.9391138553619384,0.1623752266168594,0.1823461800813675,1.656312346458435,91.72579193115234,25.11,0
-0.2092518210411071,-0.944133460521698,0.1601808220148086,0.0310374684631824,1.6561700105667114,91.73446655273438,25.11,0
-0.2070568352937698,-0.9473547339439392,0.1643703430891037,-0.1054720878601074,1.655160427093506,91.74002838134766,25.11,0
-0.2112459987401962,-0.9438241720199584,0.1726567149162292,-0.1679980307817459,1.6545125246047974,91.74359893798828,25.11,0
-0.208336591720581,-0.9415584802627563,0.1779744327068328,-0.2152887433767318,1.6540967226028442,91.7458953857422,25.11,0
-0.2064695060253143,-0.9513000249862672,0.1813870370388031,-0.2277243137359619,1.6538299322128296,91.74736785888672,25.11,0
-0.210869088768959,-0.9575515985488892,0.1891748309135437,-0.2142092883586883,1.653658747673035,91.7483139038086,25.11,0
-0.2136924862861633,-0.9559657573699952,0.194172590970993,-0.2592747509479522,1.6535488367080688,91.74891662597656,25.11,0
-0.215504378080368,-0.9549480080604552,0.1917820870876312,-0.3132732212543487,1.6534783840179443,91.74930572509766,25.11,0
-0.2166671454906463,-0.9542949199676514,0.1902479976415634,-0.2583619356155395,1.653433084487915,91.7495574951172,25.11,0
-0.2230111211538314,-0.94827800989151,0.1892635077238083,-0.1407237946987152,1.652026891708374,91.74971771240234,25.11,0
-0.2214845418930053,-0.9500144720077516,0.1886317133903503,-0.0867258533835411,1.6511244773864746,91.74981689453124,25.11,0
-0.2205048650503158,-0.9511288404464722,0.1826284974813461,-0.0699859634041786,1.650545358657837,91.74988555908205,25.11,0
-0.2198761701583862,-0.9518439769744872,0.1787759810686111,0.0231559704989194,1.6501736640930176,91.74992370605467,25.11,0
-0.2194727063179016,-0.946705162525177,0.1763036549091339,0.1689109206199646,1.6499351263046265,91.7499542236328,25.11,0
-0.2136160135269165,-0.9434073567390442,0.1691192835569381,0.2087094187736511,1.6497820615768433,91.74996948242188,25.11,0
-0.2154553085565567,-0.94688880443573,0.1645087599754333,0.0909467786550521,1.6496838331222534,91.7499771118164,25.11,0
-0.2110378891229629,-0.9435251951217652,0.1671477705240249,-0.0383651331067085,1.6496208906173706,91.74998474121094,25.11,0
-0.2082030326128006,-0.9413666129112244,0.1688413321971893,-0.0532811395823955,1.6486622095108032,91.74999237060548,25.11,0
-0.2063837945461273,-0.9455791711807252,0.1699281632900238,-0.037775345146656,1.6480469703674316,91.74999237060548,25.11,0
-0.2052163034677505,-0.9482825398445128,0.170625627040863,-0.0887284055352211,1.6476521492004397,91.74999237060548,25.11,0
-0.2044670730829239,-0.9500173926353456,0.1710732281208038,-0.110679417848587,1.647398829460144,91.74999237060548,25.11,0
-0.2039862722158432,-0.9511306881904602,0.1713604629039764,0.0543624646961689,1.6472362279891968,91.74999237060548,25.11,0
-0.2036777138710022,-0.9518451690673828,0.1715448051691055,0.375231385231018,1.6471319198608398,91.74999237060548,25.11,0
-0.2034797072410583,-0.95230370759964,0.1716631054878235,0.6241375207901001,1.6470649242401123,91.74999237060548,25.11,0
-0.2033526301383972,-0.9525979161262512,0.1717390120029449,0.5904120206832886,1.647022008895874,91.74999237060548,25.11,0
-0.2032710760831833,-0.9471889734268188,0.1717877238988876,0.3573969900608063,1.6456172466278076,91.94345092773438,25.09,0
-0.2032187432050705,-0.94931560754776,0.1718189865350723,0.2150265127420425,1.6447157859802246,92.0676040649414,25.09,0
-0.2031851559877395,-0.950680375099182,0.1718390583992004,0.2669643759727478,1.644137263298035,92.14727783203124,25.09,0
-0.2031636089086532,-0.9515562057495116,0.1718519330024719,0.3325382769107818,1.6437660455703735,92.19841003417967,25.09,0
-0.2031497806310653,-0.9521182179450988,0.1718602031469345,0.2814728617668152,1.6435277462005615,92.2312240600586,25.09,0
-0.2031408995389938,-0.9524788856506348,0.1662677228450775,0.1770505011081695,1.643374800682068,92.25228118896484,25.09,0
-0.2031352072954177,-0.9471125602722168,0.1626787930727005,0.0777950659394264,1.6432766914367676,92.26579284667967,25.09,0
-0.2031315565109253,-0.943668782711029,0.1603756248950958,0.0140986386686563,1.6432137489318848,92.27446746826172,25.09,0
-0.2031292021274566,-0.947056531906128,0.1588975936174392,0.0269605722278356,1.6450097560882568,92.280029296875,25.09,0
-0.2031276971101761,-0.9436328411102296,0.1635468453168869,0.0853706821799278,1.6461623907089231,92.28359985351562,25.09,0
-0.2031267285346985,-0.941435694694519,0.1609326899051666,0.1264375001192093,1.646902084350586,92.28589630126952,25.09,0
-0.2031261026859283,-0.9400256872177124,0.1648528575897216,0.1707047075033188,1.6473767757415771,92.28736877441406,25.09,0
-0.2031257003545761,-0.9391208291053772,0.1617708206176757,0.2528514862060547,1.6476813554763794,92.28831481933594,25.09,0
-0.2031254470348358,-0.9385401606559752,0.1597929447889328,0.2948208153247833,1.647876858711243,92.2889175415039,25.09,0
-0.2087230682373047,-0.9437652826309204,0.1585236638784408,0.2429376691579818,1.64800226688385,92.289306640625,25.09,0
-0.2067175209522247,-0.9471184611320496,0.1577091068029403,0.1236602365970611,1.6480827331542969,92.28955841064452,25.09,0
-0.2054304778575897,-0.9492703676223756,0.1571863740682602,-0.0926056057214737,1.6458390951156616,92.28971862792967,25.09,0
-0.2046045213937759,-0.9506513476371764,0.1568509042263031,-0.3890259265899658,1.6443991661071775,92.2898178100586,25.09,0
-0.2040744721889495,-0.951537549495697,0.1566356271505355,-0.6150771379470825,1.6434751749038696,92.28988647460938,25.09,0
-0.2037343233823776,-0.952106237411499,0.1564974784851074,-0.6813271641731262,1.642882227897644,92.28992462158205,25.09,0
-0.2035160213708877,-0.9524711966514589,0.156408816576004,-0.6772691011428833,1.642501711845398,92.28995513916016,25.09,0
-0.2033759355545044,-0.952705442905426,0.1563519239425659,-0.6065959334373474,1.6422574520111084,92.28997039794922,25.09,0
-0.2032860368490219,-0.9528557658195496,0.156315416097641,-0.3892783522605896,1.6421006917953491,92.28997802734376,25.09,0
-0.2088261246681213,-0.952952206134796,0.156291976571083,-0.1495043039321899,1.6420000791549685,92.28998565673828,25.09,0
-0.2123814225196838,-0.9530141353607178,0.1562769412994384,-0.0923606753349304,1.6428537368774414,92.2899932861328,25.09,0
-0.209065243601799,-0.9530538320541382,0.150669515132904,-0.1595838814973831,1.6434016227722168,92.2899932861328,25.09,0
-0.212534874677658,-0.953079342842102,0.1470709890127182,-0.1704806834459304,1.643753170967102,92.2899932861328,25.09,0
-0.2147614955902099,-0.9530956745147704,0.1447616666555404,-0.077161505818367,1.6439788341522217,92.2899932861328,25.09,0
-0.2105926275253296,-0.953106164932251,0.1432796716690063,0.0687071904540062,1.6441235542297363,92.2899932861328,25.09,0
-0.2079172879457473,-0.9531129002571106,0.1423286199569702,0.2017256468534469,1.644216537475586,92.2899932861328,25.09,0
-0.2062004208564758,-0.9531172513961792,0.1473160535097122,0.279924064874649,1.644276142120361,92.2899932861328,25.09,0
-0.2050986289978027,-0.9531200528144836,0.1449189335107803,0.322942167520523,1.6443144083023071,92.2899932861328,25.09,0
-0.2043915688991546,-0.9531218409538268,0.1489783674478531,0.3147229552268982,1.6425025463104248,92.4619598388672,25.11,0
-0.2039378136396408,-0.9531229734420776,0.1459857076406479,0.244961991906166,1.6413397789001465,92.57231903076172,25.11,0
-0.2036466151475906,-0.9531236886978148,0.14406518638134,0.2360191643238067,1.640593647956848,92.64313507080078,25.11,0
-0.2034597396850586,-0.9531241655349731,0.1484304815530777,0.2768536508083343,1.6401147842407229,92.68858337402344,25.11,0
-0.2033398151397705,-0.953124463558197,0.145634114742279,0.1203475296497345,1.6398074626922607,92.7177505493164,25.11,0
-0.2032628506422042,-0.9531246423721312,0.1438395678997039,-0.2595300078392029,1.6396102905273438,92.73646545410156,25.11,0
-0.2032134681940078,-0.9531247615814208,0.1426879316568374,-0.5463044047355652,1.6394836902618408,92.74848175048828,25.11,0
-0.2031817734241485,-0.9531248211860656,0.141948863863945,-0.5297154784202576,1.6394025087356567,92.75618743896484,25.11,0
-0.2031614333391189,-0.9475271105766296,0.141474574804306,-0.2862022519111633,1.639350414276123,92.7611312866211,25.11,0
-0.2087461501359939,-0.9495325684547424,0.1411702036857605,-0.0475302599370479,1.6393169164657593,92.7643051147461,25.11,0
-0.2123301029205322,-0.9508196115493774,0.1409748792648315,-0.0233370345085859,1.63929545879364,92.76634216308594,25.11,0
-0.2146300822496414,-0.95164555311203,0.1408495306968689,-0.1869399845600128,1.6392816305160522,92.76765441894533,25.11,0
-0.2161060720682144,-0.9521755576133728,0.1407690942287445,-0.2847658097743988,1.6392728090286257,92.76849365234376,25.11,0
-0.2170532792806625,-0.952515721321106,0.140717476606369,-0.2508152425289154,1.639267086982727,92.76903533935548,25.11,0
-0.2176611423492431,-0.9527339935302734,0.1406843513250351,-0.2433580309152603,1.6392635107040403,92.76937866210938,25.11,0
-0.2180512398481369,-0.9528740644454956,0.1406630873680114,-0.30305877327919,1.6392611265182495,92.76959991455078,25.11,0
-0.2127037942409515,-0.9529639482498168,0.1406494379043579,-0.3055455088615417,1.639719009399414,92.76974487304688,25.11,0
-0.2092721164226532,-0.9530216455459596,0.1406406760215759,-0.1459254622459411,1.6400127410888672,92.76983642578124,25.11,0
-0.2126676440238952,-0.953058660030365,0.1406350582838058,0.1678814589977264,1.6402013301849363,92.7698974609375,25.11,0
-0.2092489153146743,-0.9530824422836304,0.1406314522027969,0.4516639113426208,1.6403223276138306,92.76993560791016,25.11,0
-0.2070549726486206,-0.9530977010726928,0.1406291425228119,0.4833109974861145,1.640399932861328,92.76995849609376,25.11,0
-0.2112448066473007,-0.953107476234436,0.1406276524066925,0.3746475279331207,1.6404497623443604,92.7699737548828,25.11,0
-0.2139336019754409,-0.9531137347221376,0.1406266987323761,0.3908953964710235,1.64048171043396,92.76998138427734,25.11,0
-0.2156591117382049,-0.9531177878379822,0.1406260877847671,0.4514783918857574,1.6405022144317627,92.76998901367188,25.11,0
-0.2111686766147613,-0.9531203508377076,0.1406257003545761,0.3327237665653229,1.6391382217407229,92.76998901367188,25.11,0
-0.2082869708538055,-0.9531220197677612,0.1406254470348358,0.113210842013359,1.6382629871368408,92.76998901367188,25.11,0
-0.2120354324579239,-0.9531230926513672,0.1406252831220626,-0.0563205294311046,1.6377012729644775,92.76998901367188,25.11,0
-0.2088432013988495,-0.9531237483024596,0.1406251788139343,-0.2331849485635757,1.637340784072876,92.76998901367188,25.11,0
-0.2123923897743225,-0.953124225139618,0.1406251192092895,-0.3968423902988434,1.637109398841858,92.76998901367188,25.11,0
-0.2146700471639633,-0.9531245231628418,0.1406250745058059,-0.423051655292511,1.6369609832763672,92.76998901367188,25.11,0
-0.216131716966629,-0.953124701976776,0.1406250447034835,-0.2929856479167938,1.636865735054016,92.76998901367188,25.11,0
-0.2170697301626205,-0.9531248211860656,0.1406250298023224,0.0018551842076703,1.6368045806884766,92.76998901367188,25.11,0
-0.2176716923713684,-0.9531248807907104,0.1406250149011612,0.4490125179290771,1.6372243165969849,92.93120574951172,25.11,0
-0.2124602347612381,-0.9531249403953552,0.1406250149011612,0.7574677467346191,1.63749361038208,93.03466796875,25.11,0
-0.2091158181428909,-0.9531249403953552,0.1406250149011612,0.6544802784919739,1.6376664638519287,93.10106658935548,25.11,0
-0.2069695591926574,-0.9475271701812744,0.1406250149011612,0.355521410703659,1.637777328491211,93.1436767578125,25.11,0
-0.2111899852752685,-0.9495326280593872,0.1406250149011612,0.2138228714466095,1.6378484964370728,93.1710205078125,25.11,0
-0.2138984203338623,-0.9508196115493774,0.1406250149011612,0.2088707238435745,1.6378941535949707,93.18856811523438,25.11,0
-0.2100387662649154,-0.95164555311203,0.1406250149011612,0.184197261929512,1.6379234790802002,93.1998291015625,25.11,0
-0.2075618505477905,-0.9521755576133728,0.1406250149011612,0.1826935708522796,1.6379423141479492,93.2070541381836,25.11,0
-0.2115700840950012,-0.952515721321106,0.1406250149011612,0.1924763023853302,1.6379543542861938,93.2116928100586,25.11,0
-0.2085445672273636,-0.9527339935302734,0.1406250149011612,0.0160429384559392,1.6379621028900146,93.21466827392578,25.11,0
-0.2122007459402084,-0.9528740644454956,0.146222785115242,-0.2870583534240722,1.6379671096801758,93.2165756225586,25.11,0
-0.2089492976665496,-0.9529639482498168,0.1442173421382904,-0.3705114424228668,1.6379703283309937,93.21780395507812,25.11,0
-0.2068627029657364,-0.9530216455459596,0.1429303586483001,-0.2055297344923019,1.637972354888916,93.21858978271484,25.11,0
-0.2111214101314544,-0.953058660030365,0.1421044468879699,-0.0996539741754531,1.637973666191101,93.2190933227539,25.11,0
-0.2138544172048568,-0.9530824422836304,0.141574427485466,-0.1141082420945167,1.637974500656128,93.21942138671876,25.11,0
-0.2100105285644531,-0.9530977010726928,0.1412342935800552,-0.0947235524654388,1.6379750967025757,93.2196273803711,25.11,0
-0.2075437307357788,-0.953107476234436,0.1410160064697265,-0.0392926707863807,1.637057542800903,93.21976470947266,25.11,0
-0.21155846118927,-0.9531137347221376,0.1408759206533432,0.0356880128383636,1.636468768119812,93.2198486328125,25.11,0
-0.2141348868608474,-0.9531177878379822,0.1407860219478607,0.1590403914451599,1.636090874671936,93.21990203857422,25.11,0
-0.2101905047893524,-0.9531203508377076,0.1407283395528793,0.2167053818702697,1.6358484029769895,93.21994018554688,25.11,0
-0.2076592296361923,-0.9531220197677612,0.1406913101673126,0.0996607020497322,1.635692834854126,93.21996307373048,25.11,0
-0.2060348093509674,-0.9531230926513672,0.1406675577163696,-0.0435207672417163,1.6355929374694824,93.21997833251952,25.11,0
-0.2049923539161682,-0.9531237483024596,0.1462500840425491,0.0043140570633113,1.635528802871704,93.21998596191406,25.11,0
-0.2099211364984512,-0.953124225139618,0.1442348510026931,0.2177230566740036,1.635487675666809,93.2199935913086,25.11,0
-0.2130841463804245,-0.9531245231628418,0.1429415941238403,0.3725895285606384,1.6350020170211792,93.2199935913086,25.11,0
-0.2151139825582504,-0.953124701976776,0.1421116590499878,0.3250883221626282,1.634690284729004,93.2199935913086,25.11,0
-0.2164166122674942,-0.9531248211860656,0.1415790468454361,0.1799623668193817,1.6344902515411377,93.2199935913086,25.11,0
-0.2116547971963882,-0.9531248807907104,0.1412372589111328,0.072498582303524,1.6343618631362915,93.2199935913086,25.11,0
-0.2085989266633987,-0.9531249403953552,0.1466156840324401,-0.0036306392867118,1.634279489517212,93.2199935913086,25.11,0
-0.2122356295585632,-0.9531249403953552,0.1500672549009323,-0.0632337182760238,1.634226679801941,93.2199935913086,25.11,0
-0.2145694494247436,-0.9531249403953552,0.1522822678089141,-0.1480570286512375,1.6341928243637085,93.2199935913086,25.11,0
-0.2104693949222564,-0.9531249403953552,0.1537037342786789,-0.4353591501712799,1.6341710090637207,93.2199935913086,25.11,0
-0.2134359776973724,-0.9531249403953552,0.149018183350563,-0.8633483052253723,1.6341570615768433,93.36329650878906,25.09,0
-0.2153397649526596,-0.9531249403953552,0.1460112631320953,-1.0090343952178955,1.634148120880127,93.45526123046876,25.09,0
-0.2109637260437011,-0.9531249403953552,0.1440815925598144,-0.7120265364646912,1.6341423988342283,93.5142822265625,25.09,0
-0.2137532234191894,-0.9531249403953552,0.1484410166740417,-0.3172172307968139,1.6341387033462524,93.55215454101562,25.09,0
-0.2155433595180511,-0.9531249403953552,0.1512386500835418,-0.0960944890975952,1.6341363191604614,93.5764617919922,25.09,0
-0.2166921645402908,-0.9531249403953552,0.1530340015888214,0.0565570890903472,1.6341347694396973,93.5920639038086,25.09,0
-0.2174293994903564,-0.9531249403953552,0.1541861593723297,0.2512496411800384,1.6341338157653809,93.6020736694336,25.09,0
-0.2123047411441803,-0.9475271701812744,0.1549255400896072,0.3941049575805664,1.634133219718933,93.6084976196289,25.09,0
-0.2090160250663757,-0.9495326280593872,0.1554000377655029,0.3639737069606781,1.633673906326294,93.61261749267578,25.09,0
-0.2125032991170883,-0.9508196115493774,0.1557045429944992,0.1905864626169204,1.6333791017532349,93.61526489257812,25.09,0
-0.2147412300109863,-0.95164555311203,0.1558999568223953,0.0363256074488163,1.6331899166107178,93.61695861816406,25.09,0
-0.2105796337127685,-0.9521755576133728,0.1560253649950027,0.0125639578327536,1.6330684423446655,93.61804962158205,25.09,0
-0.2135067284107208,-0.952515721321106,0.1505080610513687,0.0582188852131366,1.6329905986785889,93.6187515258789,25.09,0
-0.2153851687908172,-0.9527339935302734,0.1525651514530182,0.0875175893306732,1.6329405307769775,93.61920166015624,25.09,0
-0.2165906429290771,-0.9528740644454956,0.1538852751255035,0.1708061695098877,1.6329084634780884,93.61949157714844,25.09,0
-0.2173642516136169,-0.9529639482498168,0.1491346806287765,0.3568112850189209,1.632887840270996,93.6196746826172,25.09,0
-0.2122629284858703,-0.9530216455459596,0.1516837924718856,0.5120044350624084,1.6337928771972656,93.61978912353516,25.09,0
-0.2089892029762268,-0.953058660030365,0.1533196717500686,0.4217219352722168,1.634373664855957,93.61986541748048,25.09,0
-0.2068883031606674,-0.9530824422836304,0.1543694883584976,0.0449346005916595,1.6347464323043823,93.61991119384766,25.09,0
-0.2111378461122512,-0.9530977010726928,0.1550431996583938,-0.3903248906135559,1.6349855661392212,93.61994171142578,25.09,0
-0.2082671821117401,-0.953107476234436,0.1554755419492721,-0.6338236331939697,1.6351391077041626,93.61996459960938,25.09,0
-0.2120227366685867,-0.9531137347221376,0.1557530015707016,-0.6360363364219666,1.6352375745773315,93.61997985839844,25.09,0
-0.2088350504636764,-0.9531177878379822,0.1559310555458068,-0.4869881868362427,1.6353007555007937,93.61998748779295,25.09,0
-0.2067893743515014,-0.9531203508377076,0.1560453176498413,-0.2731126546859741,1.6353412866592407,93.6199951171875,25.09,0
-0.2110743522644043,-0.9531220197677612,0.1561186462640762,-0.0534603968262672,1.6349080801010132,93.6199951171875,25.09,0
-0.2082264423370361,-0.9475253224372864,0.1561657041311264,0.1340732425451278,1.6346300840377808,93.6199951171875,25.09,0
-0.2063988149166107,-0.9439336657524108,0.1561959087848663,0.2544215619564056,1.6344516277313232,93.6199951171875,25.09,0
-0.2108237147331237,-0.9472265243530272,0.1562152802944183,0.2958284020423889,1.6343371868133545,93.6199951171875,25.09,0
-0.2136633694171905,-0.9493396878242492,0.1562277227640152,0.3116532266139984,1.6342636346817017,93.6199951171875,25.09,0
-0.2098879218101501,-0.950695812702179,0.1562357097864151,0.3074783682823181,1.6342164278030396,93.6199951171875,25.09,0
-0.2074650526046753,-0.9515661001205444,0.1562408357858657,0.143583282828331,1.6341861486434937,93.6199951171875,25.09,0
-0.2059101909399032,-0.9521245956420898,0.1562441140413284,-0.1658019721508026,1.6341667175292969,93.6199951171875,25.09,0
-0.2105101495981216,-0.9468852281570436,0.1562462300062179,-0.2998612523078918,1.633695363998413,93.75613403320312,25.07,0
-0.2134621441364288,-0.9491207003593444,0.1562475860118866,-0.0957041382789611,1.6333928108215332,93.84349822998048,25.07,0
-0.215356558561325,-0.9449574947357178,0.1562484502792358,0.128459095954895,1.6331987380981443,93.89956665039062,25.07,0
-0.2109745144844055,-0.9478835463523864,0.1562490016222,0.0537770502269268,1.633074164390564,93.935546875,25.07,0
-0.2081623673439026,-0.9497613310813904,0.1562493592500686,-0.1446177661418914,1.6329941749572754,93.9586410522461,25.07,0
-0.2063576877117157,-0.9453685879707336,0.1562495827674865,-0.1286331117153167,1.6329429149627686,93.97345733642578,25.07,0
-0.2051995545625686,-0.9425495862960817,0.1562497317790985,0.0500059723854064,1.6329100131988523,93.98296356201172,25.07,0
-0.2044563293457031,-0.9463382959365844,0.1562498211860656,0.1252379119396209,1.632888913154602,93.98906707763672,25.07,0
-0.2039793729782104,-0.9487696886062622,0.1562498807907104,0.0767879039049148,1.634252429008484,93.99298095703124,25.07,0
-0.2036732882261276,-0.9447322487831116,0.156249925494194,0.0027045754250139,1.6351275444030762,93.99549865722656,25.07,0
-0.2034768611192703,-0.9421412348747252,0.1562499552965164,-0.0914113149046897,1.63568913936615,93.99710845947266,25.07,0
-0.2033507972955703,-0.940478503704071,0.1562499701976776,-0.1195663064718246,1.636049509048462,93.9981460571289,25.07,0
-0.2032698988914489,-0.939411461353302,0.1562499850988388,0.0737373903393745,1.6362807750701904,93.99880981445312,25.07,0
-0.2088157683610916,-0.9443244338035583,0.1562499850988388,0.3088484406471252,1.6364291906356812,93.99923706054688,25.07,0
-0.2123747766017913,-0.9474772810935974,0.1618477702140808,0.248357206583023,1.6365244388580322,93.99951171875,25.07,0
-0.2090609669685363,-0.9495006203651428,0.1598423272371292,0.0124957598745822,1.6365855932235718,93.99968719482422,25.07,0
-0.2125321328639984,-0.9507991075515748,0.1585553437471389,0.0044364840723574,1.6361658573150637,93.9998016357422,25.07,0
-0.2147597372531891,-0.9516323804855348,0.1577294319868087,0.1855584233999252,1.6358964443206787,93.99987030029295,25.07,0
-0.2161892801523208,-0.9521670937538148,0.1571994125843048,0.1764019280672073,1.63572359085083,93.99991607666016,25.07,0
-0.2115088999271392,-0.9525102972984314,0.156859278678894,-0.0623416006565094,1.635612726211548,93.99994659423828,25.07,0
-0.2085053026676178,-0.9471327662467957,0.1566410064697265,-0.2907875180244446,1.635541558265686,93.99996948242188,25.07,0
-0.2065777629613876,-0.9492795467376708,0.1565009206533432,-0.4158955216407776,1.635495901107788,93.9999771118164,25.07,0
-0.2109385579824447,-0.9506571888923644,0.1564110219478607,-0.3994531035423279,1.6354665756225586,93.99998474121094,25.07,0
-0.2081392854452133,-0.951541304588318,0.1563533395528793,-0.1703641861677169,1.6354477405548096,93.99999237060548,25.07,0
-0.206342875957489,-0.9521086812019348,0.1563163101673126,0.1271200776100158,1.6363534927368164,93.99999237060548,25.07,0
-0.2107878178358078,-0.9524728059768676,0.1562925577163696,0.221298798918724,1.636934757232666,93.99999237060548,25.07,0
-0.208042562007904,-0.9527064561843872,0.1562773138284683,0.0811130478978157,1.6373077630996704,93.99999237060548,25.07,0
-0.2118785828351974,-0.952856421470642,0.1618653088808059,-0.0984144955873489,1.6375471353530884,93.99999237060548,25.07,0
-0.208742544054985,-0.9473548531532288,0.1598535776138305,-0.177799180150032,1.6377007961273191,93.99999237060548,25.07,0
-0.2067300230264663,-0.943824291229248,0.158562570810318,-0.1606747657060623,1.6377993822097778,93.99999237060548,25.07,0
-0.2110362648963928,-0.9471563696861268,0.1577340811491012,-0.0959466695785522,1.6378626823425293,93.99999237060548,25.07,0
-0.213799774646759,-0.9492946863174438,0.1572023928165435,-0.0400775969028472,1.637903332710266,93.99999237060548,25.07,0
-0.2099754512310028,-0.9506669044494628,0.1568611860275268,-0.0149717675521969,1.6365522146224976,94.11105346679688,25.11,0
-0.2131190001964569,-0.9515475630760192,0.1566422283649444,0.0369654595851898,1.6356852054595947,94.1823272705078,25.11,0
-0.2151363492012024,-0.9521126747131348,0.1565017104148864,0.1455298811197281,1.6351287364959717,94.22806549072266,25.11,0
-0.2164309620857238,-0.952475368976593,0.1564115285873413,0.2259480059146881,1.634771704673767,94.25741577148438,25.11,0
-0.2172617763280868,-0.9527081251144408,0.1563536524772644,0.2130693644285202,1.6345425844192505,94.27625274658205,25.11,0
-0.2121971696615219,-0.952857494354248,0.1563165187835693,0.1618136912584304,1.6343954801559448,94.28834533691406,25.11,0
-0.2145447731018066,-0.9529533386230468,0.1562926918268203,0.1611639261245727,1.6343010663986206,94.29610443115234,25.11,0
-0.2160513252019882,-0.9530148506164552,0.1562774032354354,0.2538939118385315,1.6342405080795288,94.30107879638672,25.11,0
-0.2170181423425674,-0.9530543088912964,0.1562675833702087,0.3743064403533935,1.6364970207214355,94.30427551269533,25.11,0
-0.2120408117771148,-0.953079640865326,0.1562612801790237,0.4157545268535614,1.6379450559616089,94.30632781982422,25.11,0
-0.2144444286823272,-0.9530959129333496,0.1562572419643402,0.3850323259830475,1.6388744115829468,94.3076400756836,25.11,0
-0.2159869372844696,-0.9475085735321044,0.1562546491622924,0.3760643005371094,1.6394708156585691,94.30848693847656,25.11,0
-0.2169768214225769,-0.949520707130432,0.1562529802322387,0.3631439805030823,1.6398534774780271,94.30902862548828,25.11,0
-0.2176120728254318,-0.9452142119407654,0.1562519073486328,0.2903661131858825,1.640099048614502,94.3093719482422,25.11,0
-0.2124219685792923,-0.9424505233764648,0.1562512218952179,0.1791751086711883,1.640256643295288,94.3095932006836,25.11,0
-0.2146890312433242,-0.946274757385254,0.1562507897615432,0.0791585147380828,1.6403578519821167,94.30973815917967,25.11,0
-0.2161439061164856,-0.943131148815155,0.1562505066394806,0.0113910464569926,1.6417999267578125,94.30982971191406,25.11,0
-0.2114797830581665,-0.9411137700080872,0.1562503278255462,-0.0715065449476242,1.6427253484725952,94.30989074707033,25.11,0
-0.2140843868255615,-0.9454168677330016,0.1618479788303375,-0.2429304420948028,1.6433192491531372,94.30992889404295,25.11,0
-0.2157558798789978,-0.9481783509254456,0.1654402315616607,-0.4460873901844024,1.643700361251831,94.30995178222656,25.11,0
-0.2112307697534561,-0.9499505162239076,0.1677455306053161,-0.5119754672050476,1.6439448595046997,94.30996704101562,25.11,0
-0.2139245867729187,-0.951087772846222,0.1692249476909637,-0.4360336661338806,1.644101858139038,94.30997467041016,25.11,0
-0.2100555598735809,-0.9518176317214966,0.1701743453741073,-0.3228122293949127,1.6442025899887085,94.30998229980467,25.11,0
-0.2075726389884948,-0.9522860050201416,0.1651858389377594,-0.1641713976860046,1.644267201423645,94.30998992919922,25.11,0
-0.2115770131349563,-0.952586591243744,0.1619845032691955,0.0379472859203815,1.642931580543518,94.30998992919922,25.11,0
-0.2141467928886413,-0.9527794718742372,0.1599300801753997,0.113916777074337,1.642074465751648,94.30998992919922,25.11,0
-0.2101981490850448,-0.9473055005073548,0.1586116701364517,-0.0236243177205324,1.6415244340896606,94.30998992919922,25.11,0
-0.2076641470193863,-0.9493903517723083,0.1633633524179458,-0.1871243417263031,1.6411714553833008,94.30998992919922,25.11,0
-0.2116357386112213,-0.9507282972335817,0.1608149409294128,-0.1523288190364837,1.6409448385238647,94.30998992919922,25.11,0
-0.2141844779253006,-0.9515869617462158,0.1647772938013076,-0.0225217770785093,1.6407994031906128,94.30998992919922,25.11,0
-0.2158201038837433,-0.9521379470825196,0.1673201024532318,-0.0574440844357013,1.640706181526184,94.30998992919922,25.11,0
-0.2112719863653183,-0.952491581439972,0.16895192861557,-0.2159930765628814,1.6406463384628296,94.30998992919922,25.11,0
-0.2139510363340377,-0.9527184963226318,0.1699991375207901,-0.2532543540000915,1.6415257453918457,94.44971466064452,25.09,0
-0.2156703025102615,-0.952864110469818,0.1706711798906326,-0.1410286128520965,1.642090082168579,94.53938293457033,25.09,0
-0.2167736291885376,-0.952957570552826,0.1711024641990661,-0.0188525263220071,1.6424522399902344,94.596923828125,25.09,0
-0.2174816727638244,-0.95301753282547,0.1713792383670807,0.0523879006505012,1.6426846981048584,94.63385009765624,25.09,0
-0.2179360538721084,-0.9530560374259948,0.1715568453073501,0.0551149919629097,1.6428338289260864,94.65754699707033,25.09,0
-0.2182276546955108,-0.9530807733535768,0.1660730540752411,-0.0792727842926979,1.6429295539855957,94.6727523803711,25.09,0
-0.2184147834777832,-0.9530966281890868,0.1681516468524933,-0.2980704307556152,1.6429909467697144,94.68251037597656,25.09,0
-0.2185348719358444,-0.9531068205833436,0.1694855690002441,-0.3775783777236938,1.6430304050445557,94.68877410888672,25.09,0
-0.2130141705274582,-0.9475155472755432,0.1703415960073471,-0.1670739948749542,1.644432783126831,94.69279479980467,25.09,0
-0.2150690704584121,-0.9495251774787904,0.1708909422159195,0.1722224056720733,1.6453328132629397,94.69537353515624,25.09,0
-0.2163877934217453,-0.9508148431777954,0.1712434887886047,0.3792155981063843,1.645910382270813,94.69702911376952,25.09,0
-0.2172340750694275,-0.9516424536705016,0.1714697331190109,0.358001172542572,1.6462810039520264,94.69808959960938,25.09,0
-0.2121793925762176,-0.9521735906600952,0.1716149300336837,0.2010839432477951,1.6465188264846802,94.6987762451172,25.09,0
-0.2145333588123321,-0.9525144696235656,0.1717081069946289,0.0609751604497432,1.6466715335845947,94.69921112060548,25.09,0
-0.216044008731842,-0.9471354484558104,0.1717678904533386,0.0176348946988582,1.6467695236206057,94.69949340820312,25.09,0
-0.2170134484767913,-0.9436835050582886,0.1718062609434127,0.0005693343700841,1.6468323469161987,94.69967651367188,25.09,0
-0.2176355868577957,-0.9414682388305664,0.1718308925628662,-0.0139649370685219,1.6468727588653564,94.69979095458984,25.09,0
-0.2124370634555816,-0.9400466084480286,0.1718466877937317,0.0985153838992118,1.646898627281189,94.69986724853516,25.09,0
-0.2091009467840194,-0.9447320699691772,0.1718568354845047,0.3534101247787475,1.6469151973724363,94.69991302490234,25.09,0
-0.2125577926635742,-0.9421411156654358,0.1718633472919464,0.527734637260437,1.646925926208496,94.69994354248048,25.09,0
-0.2091784179210662,-0.9404783844947816,0.1718675196170807,0.4891378879547119,1.6469327211380005,94.69996643066406,25.09,0
-0.2126075029373169,-0.9450091123580932,0.1718702018260955,0.3533088862895965,1.646937131881714,94.6999740600586,25.09,0
-0.2148080915212631,-0.9479166865348816,0.1718719154596328,0.2912196815013885,1.646939992904663,94.69998168945312,25.09,0
-0.2106225341558456,-0.9497826099395752,0.1718730181455612,0.3588516414165497,1.6469417810440063,94.69998931884766,25.09,0
-0.213534265756607,-0.945382297039032,0.1718737334012985,0.4488274455070495,1.647861123085022,94.69998931884766,25.09,0
-0.2154028415679931,-0.9425584077835084,0.1774719655513763,0.4205869138240814,1.6484510898590088,94.69998931884766,25.09,0
-0.2110042124986648,-0.9407461881637572,0.1810645908117294,0.248413011431694,1.648829698562622,94.69998931884766,25.09,0
-0.2081814259290695,-0.9395832419395448,0.1833701282739639,0.0304444395005702,1.6490726470947266,94.69998931884766,25.09,0
-0.2119676917791366,-0.9444347023963928,0.1848496794700622,-0.1595912873744964,1.649228572845459,94.69998931884766,25.09,0
-0.208799734711647,-0.9475480914115906,0.1857991814613342,-0.3782747983932495,1.6493287086486816,94.69998931884766,25.09,0
-0.2067667245864868,-0.9439482688903807,0.186408519744873,-0.7299852967262268,1.6493929624557495,94.69998931884766,25.09,0
-0.2110598236322403,-0.9416381120681764,0.186799556016922,-1.0846655368804932,1.649434208869934,94.69998931884766,25.09,0
-0.2138148844242096,-0.9401556253433228,0.1870504915714264,-1.0973243713378906,1.6476246118545532,94.87195587158205,25.09,0
-0.2155829221010208,-0.939204216003418,0.1816137582063675,-0.7077822089195251,1.6464632749557495,94.98231506347656,25.09,0
-0.2167175561189651,-0.9385936856269836,0.1781247705221176,-0.3503191769123077,1.645717978477478,95.05313873291016,25.09,0
-0.2174457013607025,-0.9382018446922302,0.1758857369422912,-0.3036313354969024,1.6452397108078003,95.0985870361328,25.09,0
-0.2235107570886612,-0.9379504323005676,0.1744488626718521,-0.2844175100326538,1.644932746887207,95.12775421142578,25.09,0
-0.2218051850795745,-0.9377890825271606,0.1735267639160156,-0.0786281079053878,1.6447358131408691,95.14646911621094,25.09,0
-0.2151128649711609,-0.937685489654541,0.1729350090026855,0.0570182837545871,1.644609451293945,95.15848541259766,25.09,0
-0.2108181267976761,-0.9376190304756165,0.1725552529096603,-0.0135650048032403,1.6445282697677612,95.16619110107422,25.09,0
-0.2136597782373428,-0.937576413154602,0.1723115444183349,0.0127902152016758,1.6453940868377686,95.17113494873048,25.09,0
-0.2098856121301651,-0.93754905462265,0.1777529269456863,0.2339102923870086,1.6459497213363647,95.17430877685548,25.09,0
-0.2130613476037979,-0.9375314712524414,0.181244894862175,0.3722298443317413,1.6463062763214111,95.17634582519533,25.09,0
-0.2095015794038772,-0.9375202059745787,0.1834858357906341,0.3535180985927582,1.6465351581573486,95.17765808105467,25.09,0
-0.207217127084732,-0.9431107640266418,0.1849239468574524,0.3952486217021942,1.6466820240020752,95.17849731445312,25.09,0
-0.2113488614559173,-0.9466984272003174,0.1858468353748321,0.5008455514907837,1.6467761993408203,95.17903900146484,25.09,0
-0.2140003740787506,-0.9434030055999756,0.1864390969276428,0.4432214200496673,1.6468366384506226,95.17938232421876,25.09,0
-0.2101041823625564,-0.9412882328033448,0.1868191808462143,0.2199476361274719,1.646875500679016,95.17960357666016,25.09,0
-0.2132016122341156,-0.939931094646454,0.1870630830526352,0.0623330697417259,1.6473597288131714,95.17974853515624,25.09,0
-0.2151893675327301,-0.9446579217910768,0.1872196048498153,0.0507495030760765,1.6476703882217407,95.17984008789062,25.09,0
-0.2164649963378906,-0.9476913213729858,0.1817222833633422,0.0755590125918388,1.6478698253631592,95.17990112304688,25.09,0
-0.211685836315155,-0.9440401792526244,0.1781944185495376,0.1093932092189788,1.6479977369308472,95.17993927001952,25.09,0
-0.2142166197299957,-0.941697120666504,0.1759304404258728,0.1669318079948425,1.6480798721313477,95.17996215820312,25.09,0
-0.2158407419919967,-0.9401934742927552,0.180075317621231,0.1465355604887008,1.648132562637329,95.1799774169922,25.09,0
-0.2168830037117004,-0.9448263049125672,0.1827352643013,-0.006274024490267,1.6481664180755615,95.17998504638672,25.09,0
-0.2119541019201278,-0.9422016143798828,0.1788444966077804,-0.136581614613533,1.6481881141662598,95.17999267578124,25.09,0
-0.2143887877464294,-0.946115016937256,0.1819453984498977,-0.1413888484239578,1.6472837924957275,95.17999267578124,25.09,0
-0.2159512192010879,-0.9430286288261414,0.1839353740215301,-0.0620746202766895,1.6467034816741943,95.17999267578124,25.09,0
-0.2169539034366607,-0.946645736694336,0.1852124333381652,0.0389807485044002,1.6463310718536377,95.17999267578124,25.09,0
-0.2175973653793335,-0.9489669799804688,0.1860319674015045,0.1468231678009033,1.6460920572280884,95.17999267578124,25.09,0
-0.2180103063583374,-0.9504566192626952,0.1865579038858413,0.2840991616249084,1.6459386348724363,95.17999267578124,25.09,0
-0.2182753086090088,-0.9458147883415222,0.1812976449728012,0.4510116577148437,1.6458402872085571,95.17999267578124,25.09,0
-0.2184453755617141,-0.9484336972236632,0.1779219061136245,0.4864749908447265,1.6457771062850952,95.17999267578124,25.09,0
-0.2185545116662979,-0.9445165991783142,0.1813533306121826,0.1760537773370742,1.645736575126648,95.17999267578124,25.09,0
-0.2130267769098281,-0.9420028328895568,0.1835554242134094,-0.3491710424423218,1.646628737449646,95.3018035888672,25.07,0
-0.2150771617889404,-0.9459874629974364,0.1849686056375503,-0.6754823923110962,1.6472012996673584,95.37997436523438,25.07,0
-0.2163929790258407,-0.9429467916488647,0.1802777200937271,-0.6699357032775879,1.647568702697754,95.43013763427734,25.07,0
-0.2172373980283737,-0.940995454788208,0.177267387509346,-0.5803943276405334,1.6478044986724854,95.46233367919922,25.07,0
-0.2177792936563491,-0.945340931415558,0.1753355264663696,-0.540844738483429,1.6479558944702148,95.48299407958984,25.07,0
-0.2125292867422104,-0.9425318837165833,0.1740957647562027,-0.4115693867206573,1.6480530500411987,95.49625396728516,25.07,0
-0.2091601341962814,-0.9407292008399964,0.1788979321718216,-0.1781397312879562,1.6481153964996338,95.5047607421875,25.07,0
-0.2125957757234573,-0.9395723342895508,0.176381915807724,-0.0534160397946834,1.6481553316116333,95.51021575927734,25.07,0
-0.2148005664348602,-0.9388298988342284,0.1803650557994842,-0.113095998764038,1.647721767425537,95.5137176513672,25.07,0
-0.2162154763936996,-0.9383534789085388,0.1829212009906768,-0.2015512287616729,1.6474435329437256,95.5159683227539,25.07,0
-0.2171234935522079,-0.943645477294922,0.1789638102054596,-0.2117432206869125,1.6472649574279783,95.51741027832033,25.07,0
-0.2177062034606933,-0.9414438009262084,0.1820219606161117,-0.1108065769076347,1.6471502780914309,95.5183334350586,25.07,0
-0.2180801481008529,-0.9400309324264526,0.1839845031499862,0.14384526014328,1.6470767259597778,95.51892852783205,25.07,0
-0.2183201313018798,-0.9447219967842102,0.1796461790800094,0.5078904032707214,1.6470295190811155,95.5193099975586,25.07,0
-0.2184741348028183,-0.9421346783638,0.1768620908260345,0.7952522039413452,1.6469992399215698,95.5195541381836,25.07,0
-0.2185729593038559,-0.940474271774292,0.175075426697731,0.8686046600341797,1.646979808807373,95.51971435546876,25.07,0
-0.2186363786458969,-0.9394087195396424,0.1795266270637512,0.7759575843811035,1.644213080406189,95.51981353759766,25.07,0
-0.2186770886182785,-0.938724935054779,0.1767853796482086,0.6663459539413452,1.64243745803833,95.51988220214844,25.07,0
-0.2187032103538513,-0.938286066055298,0.1806239783763885,0.5709255337715149,1.6412980556488037,95.5199203491211,25.07,0
-0.2187199741601944,-0.9436022043228148,0.1774895936250686,0.4129606187343597,1.6405668258666992,95.51995086669922,25.07,0
-0.2187307327985763,-0.9414160251617432,0.1754781156778335,0.2435189038515091,1.6400974988937378,95.51996612548828,25.07,0
-0.2187376320362091,-0.9456108808517456,0.1741872727870941,0.2028498947620391,1.6397963762283323,95.5199737548828,25.07,0
-0.2187420576810836,-0.9427050948143004,0.1733588874340057,0.1660031378269195,1.6396031379699707,95.51998138427734,25.07,0
-0.2187449038028717,-0.9408403038978576,0.1784250438213348,-0.0582672245800495,1.639479160308838,95.51998901367188,25.07,0
-0.2187467366456985,-0.945241391658783,0.1760784387588501,-0.2523470818996429,1.6398588418960571,95.51998901367188,25.07,0
-0.2243456840515136,-0.9480657577514648,0.1745725274085998,-0.1619418263435363,1.640102505683899,95.51998901367188,25.07,0
-0.2167432159185409,-0.9442805051803588,0.1792038977146148,0.0250477846711874,1.6402589082717896,95.51998901367188,25.07,0
-0.2174621671438217,-0.9474490880966188,0.1765782684087753,0.0805605947971344,1.6403592824935913,95.51998901367188,25.07,0
-0.2179235368967056,-0.9494825005531312,0.1804910600185394,0.0624468810856342,1.6404236555099487,95.51998901367188,25.07,0
-0.2182196229696273,-0.945189654827118,0.1830020695924759,0.0149967828765511,1.6404650211334229,95.51998901367188,25.07,0
-0.2184096276760101,-0.942434787750244,0.1790157109498977,-0.1050183475017547,1.6404914855957031,95.51998901367188,25.07,0
-0.2129337936639785,-0.946264624595642,0.1764574944972992,-0.2644363939762115,1.6405085325241089,95.51998901367188,25.07,0
-0.2150174975395202,-0.9431246519088744,0.1748157739639282,-0.420480340719223,1.6382241249084473,95.63105010986328,25.09,0
-0.2163546979427337,-0.9467073678970336,0.1737622171640396,-0.5958544611930847,1.6367580890655518,95.70232391357422,25.09,0
-0.217212826013565,-0.9434087872505188,0.1730861067771911,-0.7657207250595093,1.635817289352417,95.74806213378906,25.09,0
-0.2177635282278061,-0.9412919282913208,0.1726522147655487,-0.8604007363319397,1.6352134943008425,95.77742004394533,25.09,0
-0.2181169390678405,-0.9455311894416808,0.1723737716674804,-0.8602571487426758,1.6348260641098022,95.79625701904295,25.09,0
-0.2183437347412109,-0.9426539540290833,0.1721950769424438,-0.7562703490257263,1.634577393531799,95.808349609375,25.09,0
-0.2184892892837524,-0.946405291557312,0.1720804125070572,-0.5068262219429016,1.6344178915023804,95.81610870361328,25.09,0
-0.2185826897621154,-0.9488126635551452,0.1776046007871627,-0.1210450902581214,1.6343154907226562,95.82108306884766,25.09,0
-0.2186426371335983,-0.9503576159477234,0.1755519211292266,0.2340043187141418,1.6342498064041138,95.82427978515624,25.09,0
-0.2186810970306396,-0.9457512497901917,0.1742346435785293,0.3758727610111236,1.6342076063156128,95.82633209228516,25.09,0
-0.2187057882547378,-0.9427951574325562,0.1733892858028412,0.4024294018745422,1.6341805458068848,95.82764434814452,25.09,0
-0.2187216281890869,-0.9408981204032898,0.1784445494413375,0.5412794947624207,1.6341631412506104,95.8284912109375,25.09,0
-0.2187317907810211,-0.9396806955337524,0.1816887259483337,0.7306976318359375,1.6341519355773926,95.82903289794922,25.09,0
-0.218738317489624,-0.9444972276687622,0.1837706565856933,0.7053696513175964,1.6341447830200195,95.82937622070312,25.09,0
-0.2187425047159195,-0.9475882053375244,0.1795089542865753,0.4347527623176574,1.6341402530670166,95.82959747314452,25.09,0
-0.2187451869249344,-0.9439740180969238,0.1823718100786209,0.1142008304595947,1.6341372728347778,95.82974243164062,25.09,0
-0.2187469154596328,-0.941654622554779,0.1786112487316131,-0.1488321721553802,1.6359714269638062,95.829833984375,25.09,0
-0.2187480181455612,-0.9457639455795288,0.1761979311704635,-0.3283793032169342,1.6371484994888306,95.82989501953124,25.09,0
-0.2187487334012985,-0.9428033232688904,0.1746492087841034,-0.3719508349895477,1.637903928756714,95.8299331665039,25.09,0
-0.2131514102220535,-0.94090336561203,0.1736553311347961,-0.3246784508228302,1.6383886337280271,95.8299560546875,25.09,0
-0.2207549214363098,-0.9452818632125854,0.1786152869462967,-0.3409152328968048,1.6386997699737549,95.82997131347656,25.09,0
-0.2200366407632827,-0.942493975162506,0.1817983090877533,-0.3943259716033935,1.638899326324463,95.8299789428711,25.09,0
-0.2195756882429123,-0.946302592754364,0.1838409900665283,-0.2638034522533417,1.63902747631073,95.82998657226562,25.09,0
-0.2192798852920532,-0.9487468004226683,0.1851518601179123,0.0779038369655609,1.63910973072052,95.82999420166016,25.09,0
-0.2190900444984436,-0.944717526435852,0.1859931051731109,0.3258525133132934,1.6391624212265017,95.82999420166016,25.09,0
-0.2189682275056839,-0.9421318173408508,0.1865329593420028,0.2234436869621276,1.639196276664734,95.82999420166016,25.09,0
-0.2188900411128997,-0.940472424030304,0.1868794113397598,-0.1038044169545173,1.639217972755432,95.82999420166016,25.09,0
-0.2132420986890792,-0.9394075274467468,0.187101736664772,-0.3209785521030426,1.6392319202423096,95.82999420166016,25.09,0
-0.2152153402566909,-0.9443219304084778,0.1872444152832031,-0.2848022282123565,1.639240860939026,95.82999420166016,25.09,0
-0.2164816558361053,-0.9474756717681884,0.1873359829187393,-0.12544846534729,1.6392465829849243,95.82999420166016,25.09,0
-0.217294305562973,-0.9439018368721008,0.1873947381973266,-0.0052715237252414,1.6392502784729004,95.82999420166016,25.09,0
-0.2178158164024353,-0.9416083097457886,0.1874324530363083,0.0897639989852905,1.6392526626586914,95.82999420166016,25.09,0
-0.2181504964828491,-0.9457342624664308,0.1818588823080063,0.2259864211082458,1.6401723623275757,95.93746948242188,25.11,0
-0.218365266919136,-0.9427842497825624,0.1838798522949218,0.3599796295166015,1.6407625675201416,96.0064468383789,25.11,0
-0.2185031026601791,-0.9408911466598512,0.1851768046617508,0.4280558824539184,1.641141414642334,96.05071258544922,25.11,0
-0.2185915559530258,-0.9396762251853944,0.1860091090202331,0.4251697957515716,1.641384482383728,96.07911682128906,25.11,0
-0.2186483144760131,-0.9388965964317322,0.1865432262420654,0.3588313162326813,1.64154052734375,96.09734344482422,25.11,0
-0.2186847478151321,-0.9383962750434875,0.1868859976530075,0.2732681930065155,1.6416406631469729,96.10903930664062,25.11,0
-0.2187081277370453,-0.9380751848220824,0.1871059685945511,0.1825329512357711,1.6417049169540403,96.11654663085938,25.11,0
-0.2187231332063675,-0.937869131565094,0.1872471272945404,0.0275747459381818,1.641746163368225,96.12136840820312,25.11,0
-0.2187327593564987,-0.9377368688583374,0.181739941239357,-0.1399374455213546,1.6408543586730957,96.12445831298828,25.11,0
-0.2187389433383941,-0.943249762058258,0.183803528547287,-0.1292121261358261,1.6402820348739624,96.1264419555664,25.11,0
-0.2131451368331909,-0.9411898851394652,0.1851278245449066,0.0890427157282829,1.6399147510528564,96.12771606445312,25.11,0
-0.2095553427934646,-0.9454657435417176,0.1859776675701141,0.3580788373947143,1.6396790742874146,96.12853240966795,25.11,0
-0.2128493934869766,-0.9426119327545166,0.1809252798557281,0.552226185798645,1.6395277976989746,96.12905883789062,25.11,0
-0.2093655616044998,-0.940780520439148,0.17768295109272,0.6302452683448792,1.6394307613372805,96.12939453125,25.11,0
-0.2071298360824585,-0.9396052360534668,0.1811999827623367,0.5692536234855652,1.6393685340881348,96.12960815429688,25.11,0
-0.2168906182050705,-0.938850998878479,0.1834570169448852,0.3975573778152466,1.6393285989761353,96.12974548339844,25.11,0
-0.2175567597150802,-0.9383670091629028,0.1849054396152496,0.1763127744197845,1.6374669075012207,96.1298370361328,25.11,0
-0.2179842442274093,-0.9436541795730592,0.1858349591493606,-0.06956397742033,1.6362721920013428,96.12989807128906,25.11,0
-0.2182585746049881,-0.9414494037628174,0.1864314675331115,-0.3527436554431915,1.635505437850952,96.12993621826172,25.11,0
-0.2184346318244934,-0.9400345087051392,0.1868142783641815,-0.6562796831130981,1.635013461112976,96.12995910644533,25.11,0
-0.2185476124286651,-0.9391264915466307,0.1814621686935424,-0.847489058971405,1.634697675704956,96.12997436523438,25.11,0
-0.2186201214790344,-0.9441415667533876,0.183625265955925,-0.7624068260192871,1.6344950199127195,96.1299819946289,25.11,0
-0.2130688726902008,-0.941762149333954,0.1850134134292602,-0.4570256173610687,1.6343649625778198,96.12998962402344,25.11,0
-0.2151041775941848,-0.9458329677581788,0.185904249548912,-0.1893980503082275,1.6342815160751345,96.12998962402344,25.11,0
-0.2164103239774704,-0.9428476095199584,0.186475932598114,-0.1251273453235626,1.635146141052246,96.12998962402344,25.11,0
-0.2172485291957855,-0.940931797027588,0.1868428140878677,-0.1877768039703369,1.635701060295105,96.12998962402344,25.11,0
-0.2177864462137222,-0.939702332019806,0.1814804822206497,-0.25664222240448,1.6360571384429932,96.12998962402344,25.11,0
-0.2181316465139389,-0.938913345336914,0.1780392527580261,-0.2900883555412292,1.636285662651062,96.12998962402344,25.11,0
-0.2183531820774078,-0.9384070038795472,0.1814286410808563,-0.2327354848384857,1.6364322900772097,96.12998962402344,25.11,0
-0.2184953391551971,-0.9380820393562316,0.183603748679161,-0.0275486651808023,1.6365264654159546,96.12998962402344,25.11,0
-0.218586578965187,-0.9434713125228882,0.1849996149539947,0.2331011444330215,1.6365869045257568,96.12998962402344,25.11,0
-0.2186451256275177,-0.9469298124313354,0.1802976280450821,0.28572878241539,1.6366256475448608,96.12998962402344,25.11,0
-0.2186826914548874,-0.943551540374756,0.1828779280185699,0.0579741410911083,1.6380276679992676,96.25180053710938,25.09,0
-0.218706801533699,-0.9469813108444214,0.1845338195562362,-0.1598372012376785,1.638927340507507,96.32997131347656,25.09,0
-0.2187222838401794,-0.9435845613479614,0.1855964809656143,-0.0882440134882927,1.6395047903060913,96.38013458251952,25.09,0
-0.2187322080135345,-0.9414047002792358,0.1806806623935699,0.1726549118757248,1.6398752927780151,96.4123306274414,25.09,0
-0.2187385857105255,-0.945603609085083,0.1775259673595428,0.3830757141113281,1.640113115310669,96.43299102783205,25.09,0
-0.2187426686286926,-0.942700445652008,0.1755014657974243,0.4536253213882446,1.640265703201294,96.44625091552734,25.09,0
-0.2187452912330627,-0.9408373236656188,0.1742022633552551,0.3090234994888305,1.6403635740280151,96.45475769042967,25.09,0
-0.2187469750642776,-0.94523948431015,0.1733684986829757,0.0012718306388705,1.6404263973236084,96.46022033691406,25.09,0
-0.2187480628490448,-0.9480645060539246,0.1728334426879882,-0.1245739609003067,1.6386306285858154,96.4637222290039,25.09,0
-0.2187487632036209,-0.944279670715332,0.1724900752305984,0.0490283258259296,1.637478232383728,96.46597290039062,25.09,0
-0.2187492102384567,-0.9474485516548156,0.1722697168588638,0.1604362875223159,1.636738657951355,96.46741485595705,25.09,0
-0.2187494933605194,-0.9438844323158264,0.1721283048391342,0.0169769618660211,1.636264085769653,96.46833801269533,25.09,0
-0.2131519019603729,-0.9415971636772156,0.1776353269815445,-0.1539036482572555,1.635959506034851,96.46893310546876,25.09,0
-0.215157464146614,-0.9457271099090576,0.1755716502666473,-0.2456521093845367,1.6357641220092771,96.46931457519533,25.09,0
-0.2164445221424102,-0.9483774304389954,0.1798450648784637,-0.3224438726902008,1.63563871383667,96.46955871582033,25.09,0
-0.217270478606224,-0.9444805383682252,0.1825875043869018,-0.2785774171352386,1.6355582475662231,96.46971893310548,25.09,0
-0.2178005278110504,-0.9475774765014648,0.1787496656179428,-0.0318893529474735,1.6373426914215088,96.46981811523438,25.09,0
-0.2181406766176223,-0.9439671635627748,0.1762867718935012,0.2231504023075103,1.6384878158569336,96.46988677978516,25.09,0
-0.2127611935138702,-0.9416502714157104,0.174706220626831,0.243517205119133,1.6392227411270142,96.4699249267578,25.09,0
-0.2149067223072052,-0.9401634335517884,0.173691913485527,0.0595457851886749,1.639694333076477,96.46995544433594,25.09,0
-0.2162836045026779,-0.9392092227935792,0.1730409860610962,-0.1301679909229278,1.6399970054626465,96.469970703125,25.09,0
-0.2171672135591507,-0.9385969042778016,0.172623261809349,-0.2125070542097091,1.6401911973953247,96.46997833251952,25.09,0
-0.2177342623472213,-0.9382039308547974,0.1723551899194717,-0.1686179786920547,1.6403157711029053,96.46998596191406,25.09,0
-0.2180981636047363,-0.9379517436027528,0.1721831560134887,-0.0473055280745029,1.6403957605361938,96.4699935913086,25.09,0
-0.2183316946029663,-0.9377899169921876,0.1720727533102035,0.0126329427585005,1.6395288705825806,96.4699935913086,25.09,0
-0.2184815555810928,-0.937686026096344,0.172001913189888,-0.027718661352992,1.638972520828247,96.4699935913086,25.09,0
-0.2185777276754379,-0.9376193881034852,0.1719564497470855,0.0216200910508632,1.6386154890060425,96.4699935913086,25.09,0
-0.2186394482851028,-0.9375765919685364,0.171927273273468,0.2359942197799682,1.638386368751526,96.4699935913086,25.09,0
-0.2186790555715561,-0.9375491738319396,0.1719085425138473,0.3592368960380554,1.6382393836975098,96.4699935913086,25.09,0
-0.2187044769525528,-0.9375315308570862,0.1718965321779251,0.2090421020984649,1.638145089149475,96.4699935913086,25.09,0
-0.2187207788228988,-0.9375202059745787,0.1718888133764267,-0.0270647201687097,1.6380845308303833,96.4699935913086,25.09,0
-0.2187312543392181,-0.9431107640266418,0.1718838661909103,-0.0746897831559181,1.6380456686019895,96.4699935913086,25.09,0
-0.2187379747629165,-0.9466984272003174,0.171880692243576,0.0487979389727115,1.6366435289382937,96.58464050292967,25.09,0
-0.2131445109844207,-0.9490007758140564,0.1718786507844925,0.0707240402698516,1.6357437372207642,96.65821075439452,25.09,0
-0.2151527255773544,-0.9448805451393129,0.1718773394823074,-0.137324720621109,1.6351662874221802,96.70542907714844,25.09,0
-0.2164414823055267,-0.9422364234924316,0.1718765050172805,-0.3460725545883178,1.6347957849502563,96.73572540283205,25.09,0
-0.2172685265541076,-0.940539538860321,0.1718759685754776,-0.2686629295349121,1.6345579624176023,96.7551727294922,25.09,0
-0.2122015058994293,-0.9394506216049194,0.1774733960628509,0.0783678889274597,1.6344053745269775,96.76764678955078,25.09,0
-0.2145475596189499,-0.9443495869636536,0.1754677295684814,0.4766184985637665,1.6343075037002563,96.7756576538086,25.09,0
-0.2160531133413314,-0.9418956637382508,0.1797783821821212,0.7214450836181641,1.634244680404663,96.78079986572266,25.09,0
-0.2114215195178985,-0.9459186792373656,0.1825447082519531,0.7245099544525146,1.6346635818481443,96.78409576416016,25.09,0
-0.2140469998121261,-0.948500394821167,0.1787222027778625,0.5867563486099243,1.6349323987960815,96.78620910644533,25.09,0
-0.2157318890094757,-0.9445593953132628,0.1762691438198089,0.4732759892940521,1.6351048946380615,96.78756713867188,25.09,0
-0.2168131470680236,-0.9420303106307985,0.1746949106454849,0.389703094959259,1.6352156400680542,96.78843688964844,25.09,0
-0.2175070345401764,-0.9404072761535645,0.1680868864059448,0.2787496149539947,1.6352866888046265,96.78899383544922,25.09,0
-0.2123545557260513,-0.9393657445907592,0.1638462394475937,0.1430597007274627,1.6353323459625244,96.7893524169922,25.09,0
-0.2090480029582977,-0.938697338104248,0.1667226105928421,0.023738544434309,1.6353615522384644,96.78958129882812,25.09,0
-0.2125238180160522,-0.9438661336898804,0.1685684919357299,-0.013426573947072,1.6353803873062134,96.78973388671876,25.09,0
-0.2147543877363205,-0.9415854215621948,0.1753508448600769,0.005713899154216,1.6326377391815186,96.78983306884766,25.09,0
-0.2161858528852462,-0.9457195401191713,0.1797033697366714,-0.1288884580135345,1.6308777332305908,96.7898941040039,25.09,0
-0.2171044796705246,-0.9483726024627686,0.182496577501297,-0.4624661803245544,1.6297482252120972,96.78993225097656,25.09,0
-0.2176939994096756,-0.9500752091407776,0.1842890977859497,-0.7159454822540283,1.6290234327316284,96.78995513916016,25.09,0
-0.2180723249912262,-0.9511678218841552,0.1854394227266311,-0.7209806442260742,1.6285582780838013,96.78997039794922,25.09,0
-0.2183151096105575,-0.951869010925293,0.1805798709392547,-0.6453952193260193,1.628259778022766,96.78997802734376,25.09,0
-0.2128731310367584,-0.9523189663887024,0.1774612814188003,-0.6004714369773865,1.628068208694458,96.78998565673828,25.09,0
-0.2093807905912399,-0.9526077508926392,0.1754599511623382,-0.5107381343841553,1.6279453039169312,96.7899932861328,25.09,0
-0.2071396112442016,-0.947195291519165,0.1741756200790405,-0.4065789878368377,1.6287845373153689,96.7899932861328,25.09,0
-0.2057013511657714,-0.943721890449524,0.1733514070510864,-0.3182401955127716,1.629323124885559,96.7899932861328,25.09,0
-0.2047783583402633,-0.9414928555488586,0.1728224754333496,-0.1325767189264297,1.6296688318252563,96.7899932861328,25.09,0
-0.2041860371828079,-0.9456601738929749,0.1724830418825149,0.0940486714243888,1.6298906803131104,96.7899932861328,25.09,0
-0.2094036936759948,-0.9483345150947572,0.1722652018070221,0.0997633561491966,1.630033016204834,96.7899932861328,25.09,0
-0.2127520740032196,-0.9500507712364196,0.1721254140138626,-0.1079412475228309,1.63012433052063,96.7899932861328,25.09,0
-0.2149008810520172,-0.9455543756484984,0.1720356941223144,-0.2304863780736923,1.6301829814910889,96.7899932861328,25.09,0
-0.2162798643112182,-0.948266625404358,0.1719781309366226,-0.1407477408647537,1.630220651626587,96.7899932861328,25.09,0
-0.2171648144721985,-0.9500072002410888,0.1719411760568618,0.0601443797349929,1.630704045295715,96.88672637939452,25.07,0
-0.2121349424123764,-0.9455264210700988,0.1719174683094024,0.2893774807453155,1.6310142278671265,96.94879913330078,25.07,0
-0.2089070677757263,-0.9426509141921996,0.1719022542238235,0.4579815566539764,1.6312133073806765,96.98863983154295,25.07,0
-0.2124333679676056,-0.9464033246040344,0.1718924939632415,0.4766175448894501,1.6313410997390747,97.0142059326172,25.07,0
-0.2146963477134704,-0.9432136416435242,0.1718862205743789,0.3739346265792846,1.6314231157302856,97.03060913085938,25.07,0
-0.2105508297681808,-0.9467644691467284,0.1718821972608566,0.1719007790088653,1.6314756870269775,97.0411376953125,25.07,0
-0.2078904658555984,-0.9490431547164916,0.1718796193599701,-0.1368817090988159,1.6315094232559204,97.0478973388672,25.07,0
-0.2117809802293777,-0.9505054950714112,0.1718779653310775,-0.3672837018966675,1.6315311193466189,97.05223083496094,25.07,0
-0.2086799144744873,-0.9458461999893188,0.1718769073486328,-0.2715272903442383,1.628331422805786,97.05501556396484,25.07,0
-0.2122876048088073,-0.9428561329841614,0.1718762218952179,0.0371213667094707,1.626278042793274,97.05680084228516,25.07,0
-0.2090050280094146,-0.9409372806549072,0.1718757897615432,0.2136988639831543,1.6249603033065796,97.05794525146484,25.07,0
-0.2124962359666824,-0.9453036189079284,0.1718755066394806,0.1586350798606872,1.624114751815796,97.05867767333984,25.07,0
-0.2147367000579834,-0.9425079226493835,0.1718753278255462,0.0050733173266053,1.6235721111297607,97.05915069580078,25.07,0
-0.2161744982004165,-0.9407138228416444,0.1718752086162567,-0.1507949829101562,1.6232237815856934,97.05945587158205,25.07,0
-0.2170971930027008,-0.939562439918518,0.1718751341104507,-0.1935010850429535,1.6230002641677856,97.05964660644533,25.07,0
-0.2176893204450607,-0.9388235807418824,0.1718750894069671,-0.0023702858015894,1.622856855392456,97.0597686767578,25.07,0
-0.218069314956665,-0.9439471960067748,0.1718750596046447,0.3388235569000244,1.624600887298584,97.05985260009766,25.07,0
-0.2127154022455215,-0.9416374564170836,0.1718750447034835,0.5864427089691162,1.6257201433181765,97.05990600585938,25.07,0
-0.2092795670032501,-0.9401552081108092,0.1718750298023224,0.6020474433898926,1.6264383792877195,97.0599365234375,25.07,0
-0.2070746421813964,-0.9392039775848388,0.1718750149011612,0.4830889403820038,1.6268993616104126,97.0599594116211,25.07,0
-0.2056596577167511,-0.94419127702713,0.1718750149011612,0.3852527737617492,1.627195119857788,97.05997467041016,25.07,0
-0.21034936606884,-0.9473918676376344,0.177472785115242,0.2758936583995819,1.627384901046753,97.05998229980467,25.07,0
-0.2133589535951614,-0.9494457840919496,0.1754673421382904,0.0767405480146408,1.6275067329406738,97.05998992919922,25.07,0
-0.2152903378009796,-0.9451661109924316,0.1741803586483001,-0.0940553545951843,1.6275849342346191,97.05998992919922,25.07,0
-0.2165297865867614,-0.948017418384552,0.1733544468879699,-0.121263101696968,1.624881148338318,97.05998992919922,25.07,0
-0.2173251956701278,-0.9498472213745116,0.172824427485466,-0.0993151292204856,1.6231460571289062,97.05998992919922,25.07,0
-0.2178356498479843,-0.9454237222671508,0.1724842935800552,-0.1353862434625625,1.622032642364502,97.05998992919922,25.07,0
-0.2181632220745086,-0.942584991455078,0.1722660064697265,-0.1692823320627212,1.6213181018829346,97.05998992919922,25.07,0
-0.2183734327554702,-0.9407632350921632,0.1721259206533432,-0.1587917208671569,1.6208595037460327,97.05998992919922,25.07,0
-0.2129105627536773,-0.9395941495895386,0.1720360219478607,-0.1198162660002708,1.6205651760101318,97.05998992919922,25.07,0
-0.2150025814771652,-0.9388439059257508,0.1719783395528793,0.0055080554448068,1.6203763484954834,97.05998992919922,25.07,0
-0.2163451164960861,-0.9383624196052552,0.1719413101673126,0.3044711053371429,1.6202551126480105,97.05998992919922,25.07,0
-0.2116089165210724,-0.9380534291267396,0.1719175577163696,0.6718745827674866,1.6201773881912231,97.14239501953124,25.09,0
-0.2141672670841217,-0.9434529542922974,0.1719023138284683,0.7679325342178345,1.6201274394989014,97.19527435302734,25.09,0
-0.2158090621232986,-0.9413202404975892,0.1718925237655639,0.4283285439014435,1.6200953722000122,97.22920989990234,25.09,0
-0.216862678527832,-0.9399515986442566,0.1718862503767013,-0.0833809450268745,1.6200748682022097,97.25099182128906,25.09,0
-0.2175388187170028,-0.944671094417572,0.171882227063179,-0.4189318120479584,1.6200616359710691,97.26496887207033,25.09,0
-0.2179727405309677,-0.9421020150184632,0.1718796342611313,-0.4873834550380707,1.6200531721115112,97.27393341064452,25.09,0
-0.2126534283161163,-0.946051061153412,0.1718779802322387,-0.3772610127925873,1.6200478076934814,97.2796859741211,25.09,0
-0.2148375660181045,-0.948585331439972,0.1718769073486328,-0.2886778712272644,1.6200443506240845,97.28337860107422,25.09,0
-0.2162392288446426,-0.9446139335632324,0.1718762218952179,-0.4073765277862549,1.620042085647583,97.28575134277344,25.09,0
-0.2171387374401092,-0.9420652985572816,0.1718757897615432,-0.5838626027107239,1.6200406551361084,97.28727722167967,25.09,0
-0.2177159786224365,-0.9460275173187256,0.1718755066394806,-0.5251575708389282,1.620039701461792,97.28825378417967,25.09,0
-0.2180864214897155,-0.9429724812507628,0.1718753278255462,-0.2546166479587555,1.6200391054153442,97.28887939453124,25.09,0
-0.2183241546154022,-0.9466096758842468,0.1718752086162567,-0.0057649714872241,1.6200387477874756,97.2892837524414,25.09,0
-0.2184767127037048,-0.9433460831642152,0.1718751341104507,0.1109427884221077,1.6200385093688965,97.28954315185548,25.09,0
-0.2185746133327484,-0.9468494653701782,0.1718750894069671,0.0855269953608512,1.620038390159607,97.28970336914062,25.09,0
-0.2186374515295028,-0.9434999227523804,0.1718750596046447,-0.0382606610655784,1.6200382709503174,97.28981018066406,25.09,0
-0.2186777740716934,-0.9469481706619264,0.1718750447034835,-0.1248656064271926,1.6204971075057983,97.28987884521484,25.09,0
-0.2187036424875259,-0.9435632824897766,0.1718750298023224,-0.1661133766174316,1.6207915544509888,97.28992462158205,25.09,0
-0.218720257282257,-0.9469888210296632,0.1718750149011612,-0.3179739415645599,1.6209805011749268,97.28995513916016,25.09,0
-0.2187309116125106,-0.949187159538269,0.1718750149011612,-0.487080842256546,1.6211017370224,97.28997039794922,25.09,0
-0.2187377512454986,-0.9505979418754578,0.1718750149011612,-0.3663190901279449,1.6211795806884766,97.28997802734376,25.09,0
-0.2187421321868896,-0.9515032768249512,0.1718750149011612,-0.0057976823300123,1.6212295293807983,97.28998565673828,25.09,0
-0.2187449485063552,-0.9520842432975768,0.1718750149011612,0.1646604388952255,1.6212615966796875,97.2899932861328,25.09,0
-0.2187467515468597,-0.9468593001365662,0.1718750149011612,0.0734264180064201,1.6212822198867798,97.2899932861328,25.09,0
-0.2187479138374328,-0.9491040110588074,0.1718750149011612,0.0793640315532684,1.6203771829605105,97.2899932861328,25.09,0
-0.2187486588954925,-0.9449467658996582,0.1718750149011612,0.2766335308551788,1.6197963953018188,97.2899932861328,25.09,0
-0.2187491357326507,-0.9478766918182372,0.1718750149011612,0.3709865808486938,1.6194236278533936,97.2899932861328,25.09,0
-0.2187494486570358,-0.9441591501235962,0.1718750149011612,0.3383899629116058,1.619184494018555,97.2899932861328,25.09,0
-0.2131518721580505,-0.9417734742164612,0.1718750149011612,0.4715220630168915,1.6190309524536133,97.2899932861328,25.09,0
-0.2151574492454528,-0.9458402395248412,0.1718750149011612,0.7432525157928467,1.6189324855804443,97.2899932861328,25.09,0
-0.216444507241249,-0.9484500885009766,0.1718750149011612,0.8531470894813538,1.6188693046569824,97.2899932861328,25.09,0
-0.2172704637050628,-0.9445271492004396,0.1718750149011612,0.7660378217697144,1.6188287734985352,97.2899932861328,25.09,0
-0.2178005129098892,-0.947607398033142,0.1718750149011612,0.6277368664741516,1.620638728141785,97.3759765625,25.11,0
-0.2181406766176223,-0.9439863562583924,0.1718750149011612,0.3813499212265014,1.6218003034591677,97.43115997314452,25.11,0
-0.2183589786291122,-0.947260320186615,0.1718750149011612,-0.0382950752973556,1.6225457191467283,97.46656799316406,25.11,0
-0.2184990644454956,-0.9493613839149476,0.1718750149011612,-0.4437369108200073,1.6230241060256958,97.48929595947266,25.11,0
-0.2185889631509781,-0.9507097005844116,0.1718750149011612,-0.6036140322685242,1.623331069946289,97.50387573242188,25.11,0
-0.2186466604471206,-0.9459772109985352,0.1718750149011612,-0.5342503190040588,1.6235281229019165,97.51323699951172,25.11,0
-0.2186836898326873,-0.9485379457473756,0.1718750149011612,-0.4324154853820801,1.6236544847488403,97.5192413330078,25.11,0
-0.2187074422836303,-0.9501813054084778,0.1718750149011612,-0.4172198176383972,1.6237356662750244,97.5230941772461,25.11,0
-0.2187226861715316,-0.9512358903884888,0.1718750149011612,-0.4468764364719391,1.622869849205017,97.52556610107422,25.11,0
-0.218732476234436,-0.9519127011299132,0.1718750149011612,-0.4408303201198578,1.622314214706421,97.52715301513672,25.11,0
-0.2187387496232986,-0.9523470401763916,0.1718750149011612,-0.3473858833312988,1.6219576597213743,97.5281753540039,25.11,0
-0.2187427729368209,-0.9470279812812804,0.1718750149011612,-0.187106505036354,1.6217288970947266,97.5288314819336,25.11,0
-0.2187453657388687,-0.9492123126983644,0.1718750149011612,-0.1594825088977813,1.62158203125,97.5292510986328,25.11,0
-0.2187470197677612,-0.9506140351295472,0.1718750149011612,-0.4355262219905853,1.6214878559112549,97.5295181274414,25.11,0
-0.2187480926513672,-0.9459158182144164,0.1718750149011612,-0.7846388220787048,1.6214274168014526,97.52969360351562,25.11,0
-0.2187487781047821,-0.948498547077179,0.1718750149011612,-0.7793943285942078,1.621388554573059,97.52980041503906,25.11,0
-0.2187492102384567,-0.950156033039093,0.1718750149011612,-0.3282068073749542,1.6222814321517944,97.52986907958984,25.11,0
-0.2187494933605194,-0.945621907711029,0.1718750149011612,0.2085370868444442,1.622854471206665,97.52991485595705,25.11,0
-0.2187496721744537,-0.9427121877670288,0.1718750149011612,0.4526763260364532,1.6232222318649292,97.52994537353516,25.11,0
-0.2187497913837433,-0.9464426636695862,0.1718750149011612,0.419474333524704,1.6234582662582395,97.52996826171876,25.11,0
-0.2131520956754684,-0.9432389140129088,0.1718750149011612,0.380254328250885,1.6236096620559692,97.52997589111328,25.11,0
-0.2095598131418228,-0.9411829113960266,0.1718750149011612,0.3909109532833099,1.6237068176269531,97.5299835205078,25.11,0
-0.212852269411087,-0.9454612731933594,0.1718750149011612,0.29385507106781,1.6237691640853882,97.52999114990234,25.11,0
-0.2149651795625686,-0.9426090717315674,0.1718750149011612,0.1312580555677414,1.6238092184066772,97.52999114990234,25.11,0
-0.216321125626564,-0.9463765025138856,0.1718750149011612,0.0734861344099044,1.6229170560836792,97.52999114990234,25.11,0
-0.2171912938356399,-0.9487941861152648,0.1718750149011612,0.057906899601221,1.6223446130752563,97.52999114990234,25.11,0
-0.2177497148513794,-0.9447479844093324,0.1718750149011612,-0.0810636803507804,1.6219772100448608,97.52999114990234,25.11,0
-0.2181080728769302,-0.9421513676643372,0.1718750149011612,-0.195325031876564,1.6217414140701294,97.52999114990234,25.11,0
-0.2183380424976349,-0.9460827708244324,0.1718750149011612,-0.017871094867587,1.6215901374816897,97.52999114990234,25.11,0
-0.2128878533840179,-0.9430079460144044,0.1718750149011612,0.3826147019863128,1.6214929819107056,97.52999114990234,25.11,0
-0.2149880081415176,-0.946632444858551,0.1718750149011612,0.6467885375022888,1.6214306354522705,97.52999114990234,25.11,0
-0.2163357734680175,-0.948958456516266,0.1718750149011612,0.6300262212753296,1.621390700340271,97.52999114990234,25.11,0
-0.217200681567192,-0.9448533654212952,0.1718750149011612,0.5297046899795532,1.620906114578247,97.61956024169922,25.07,0
-0.2177557349205017,-0.9422189593315125,0.1718750149011612,0.4366635382175445,1.620595097541809,97.67704010009766,25.07,0
-0.2181119322776794,-0.9405283331871032,0.1718750149011612,0.2336520552635193,1.620395541191101,97.71392822265624,25.07,0
-0.2183405309915542,-0.9394434094429016,0.1718750149011612,-0.0148540316149592,1.6202675104141235,97.73760223388672,25.07,0
-0.2184872329235077,-0.9387471675872804,0.1718750149011612,-0.1062620058655738,1.6201852560043335,97.75279235839844,25.07,0
-0.2185813784599304,-0.938300371170044,0.1718750149011612,-0.1505920737981796,1.620132565498352,97.76254272460938,25.07,0
-0.2186417877674102,-0.9380136132240297,0.1718750149011612,-0.3904125094413757,1.6200987100601196,97.768798828125,25.07,0
-0.2186805605888366,-0.937829613685608,0.1718750149011612,-0.6517927646636963,1.6200770139694214,97.77281188964844,25.07,0
-0.2131076604127884,-0.937711536884308,0.1718750149011612,-0.5221777558326721,1.6209808588027954,97.77538299560548,25.07,0
-0.2095312923192978,-0.9376357793807985,0.1718750149011612,-0.0914884805679321,1.6215609312057495,97.77703857421876,25.07,0
-0.207236185669899,-0.9375871419906616,0.1718750149011612,0.1490773409605026,1.6219332218170166,97.7780990600586,25.07,0
-0.2113610953092575,-0.94315367937088,0.1718750149011612,0.0777563825249672,1.6221721172332764,97.77877807617188,25.07,0
-0.2140082269906997,-0.9411281943321228,0.1718750149011612,-0.003839063225314,1.622325420379639,97.77921295166016,25.07,0
-0.2157070040702819,-0.9454261660575868,0.1718750149011612,0.026196913793683,1.622423768043518,97.7794952392578,25.07,0
-0.2167971730232238,-0.9481843113899232,0.1718750149011612,0.0777154564857482,1.62248694896698,97.77967834472656,25.07,0
-0.217496782541275,-0.9443565607070924,0.1718750149011612,0.1501854211091995,1.6225274801254272,97.77979278564452,25.07,0
-0.2179457545280456,-0.9419001340866088,0.1718750149011612,0.2504311203956604,1.6207174062728882,97.77986907958984,25.07,0
-0.2238316535949707,-0.9459215402603148,0.1718750149011612,0.31118044257164,1.6195558309555054,97.77991485595705,25.07,0
-0.2220111191272735,-0.9429044723510742,0.1718750149011612,0.3250878453254699,1.6188104152679443,97.77994537353516,25.07,0
-0.2208427935838699,-0.9465660452842712,0.1718750149011612,0.2910219132900238,1.618332028388977,97.77996826171876,25.07,0
-0.2200930416584015,-0.9489158391952516,0.1718750149011612,0.1545179337263107,1.6180249452590942,97.77997589111328,25.07,0
