acc_x,acc_y,acc_z,bvp,eda,hr,temp,label
0.0,0.0,0.0,0.0,0.0,0.0,25.07,0
-0.0520833283662796,-0.1432291567325592,0.0546874962747097,-17.878332138061523,0.0587241612374782,11.499999046325684,25.07,0
-0.1219512224197387,-0.3353658616542816,0.1322408467531204,-23.515609741210938,0.1375004798173904,26.92682838439941,25.07,0
-0.1926910281181335,-0.487541526556015,0.2046823054552078,-5.873421669006348,0.2060223221778869,40.345516204833984,25.07,0
-0.2496377378702163,-0.614576518535614,0.2628704607486725,27.50644302368164,0.2560127079486847,50.13516998291016,25.07,0
-0.2662341892719269,-0.7060742378234863,0.285797119140625,74.106201171875,0.2898583114147186,56.763179779052734,25.07,0
-0.2715707719326019,-0.7605568766593933,0.2730749249458313,128.69651794433594,0.3120658695697784,61.11210632324219,25.07,0
-0.3308203220367431,-0.8181599378585815,0.2369387298822403,175.10353088378906,0.3264486193656921,63.92869567871094,25.07,0
-0.3354461789131164,-0.8496760129928589,0.2080706357955932,203.2016143798828,0.3407560288906097,65.7430648803711,25.07,0
-0.3216354846954345,-0.8643380999565125,0.1895158886909485,219.1489105224609,0.3499520123004913,66.90923309326172,25.07,0
-0.3183633685111999,-0.8849464058876038,0.1831973642110824,232.47341918945312,0.355857253074646,67.65809631347656,25.07,0
-0.3162629604339599,-0.9317585825920104,0.1791414320468902,243.38368225097656,0.3596478998661041,68.13880157470703,25.07,0
-0.298122227191925,-0.945010542869568,0.1821358352899551,243.03128051757807,0.3620807826519012,68.44731903076172,25.07,0
-0.3312615156173706,-0.9479175806045532,0.1672645062208175,220.0489654541016,0.3636421263217926,68.64531707763672,25.07,0
-0.3525287806987762,-0.9385876655578612,0.1689162403345108,167.45388793945312,0.3646441400051117,68.77238464355469,25.07,0
-0.360579252243042,-0.9158069491386414,0.1811717599630355,88.53215789794922,0.3652871549129486,68.85392761230469,25.07,0
-0.3489522933959961,-0.9179808497428894,0.1890366673469543,0.2389075458049774,0.3643226623535156,68.90625762939453,25.07,0
-0.341490775346756,-0.9081804156303406,0.1996816843748092,-73.54022979736328,0.3637036979198456,68.9398422241211,25.07,0
-0.3367023766040802,-0.9074888229370116,0.2009152770042419,-119.8091049194336,0.3633064925670624,68.96139526367188,25.07,0
-0.3448250293731689,-0.9070450067520142,0.2017069309949875,-145.0379180908203,0.3630515933036804,68.97522735595703,25.07,0
-0.3556354343891144,-0.9067602157592772,0.1966171860694885,-161.9842529296875,0.3628880083560943,68.98410034179688,25.07,0
-0.3569751679897308,-0.9065774083137512,0.1933508813381195,-175.55711364746094,0.3627830445766449,68.98979949951172,25.07,0
-0.3578349351882934,-0.9064601063728333,0.1912547647953033,-185.54278564453125,0.3627156615257263,68.99345397949219,25.07,0
-0.3583866655826568,-0.9007870554924012,0.1843118220567703,-194.17221069335935,0.3626724183559418,68.99579620361328,25.07,0
-0.358740746974945,-0.8971464037895203,0.1798562407493591,-205.6284942626953,0.3598904013633728,68.99729919433594,25.09,0
-0.3589679598808288,-0.8948100805282593,0.1713991314172744,-222.3704071044922,0.3581050634384155,68.9982681274414,25.09,0
-0.3647115528583526,-0.8877129554748535,0.1659718453884124,-241.99203491210935,0.3569593429565429,68.99888610839844,25.09,0
-0.3683974742889404,-0.8775606751441956,0.1624889224767685,-254.48016357421875,0.3562240898609161,68.99928283691406,25.09,0
-0.3707628846168518,-0.8766433000564575,0.1546560078859329,-246.34765625,0.3557522296905517,68.99954223632812,25.09,0
-0.3778786361217499,-0.876054584980011,0.1496292948722839,-211.5258636474609,0.3554494082927704,68.99970245361328,25.09,0
-0.3824451267719269,-0.8756767511367798,0.146403431892395,-154.37451171875,0.3552550971508026,68.99980926513672,25.09,0
-0.3909733891487121,-0.8586409687995911,0.1331377178430557,-81.16654205322266,0.3551304042339325,68.9998779296875,25.09,0
-0.3964463472366333,-0.8421106338500977,0.1246245428919792,2.564180374145508,0.3536735773086548,68.99992370605469,25.09,0
-0.4055563509464264,-0.8371001482009888,0.1191612780094146,85.31659698486328,0.3527386784553528,68.16520690917969,25.09,0
-0.4114026427268982,-0.8450802564620972,0.1156552731990814,151.76026916503906,0.3521386981010437,67.6295394897461,25.09,0
-0.4207522273063659,-0.8669947981834412,0.1134053170680999,195.0018615722656,0.351753681898117,67.28577423095703,25.09,0
-0.4267522394657135,-0.8978515863418579,0.1063636541366577,220.03623962402344,0.3515065908432007,67.06517028808594,25.09,0
-0.4250049293041229,-0.9344470500946044,0.1018447205424308,235.26353454589844,0.3513480424880981,66.92359924316406,25.09,0
-0.4182858467102051,-0.963529646396637,0.0989447236061096,246.45782470703125,0.3512462675571441,66.83274841308594,25.09,0
-0.4139739274978637,-0.9821931719779968,0.0970836728811264,256.80865478515625,0.3511809706687927,66.77444458007812,25.09,0
-0.4056090116500854,-0.960583746433258,0.0958893597126007,266.8690185546875,0.3520569205284118,66.73702239990234,25.09,0
-0.4002408683300018,-0.9355204701423644,0.0951229184865951,275.0125732421875,0.3526190519332886,66.7130126953125,25.09,0
-0.3967958986759186,-0.9194363355636596,0.0946310609579086,280.6649475097656,0.3529798090457916,66.69760131835938,25.09,0
-0.4001829028129577,-0.8979188799858093,0.0887176394462585,286.14093017578125,0.3532113134860992,66.68771362304688,25.09,0
-0.3967587053775787,-0.878512442111969,0.0905205234885215,292.352783203125,0.3533598780632019,66.68136596679688,25.09,0
-0.3721701502799988,-0.8548629879951477,0.0916775092482566,292.7530212402344,0.3534552156925201,66.67729187011719,25.09,0
-0.3451950848102569,-0.8564794659614563,0.0924199968576431,276.40106201171875,0.3535163998603821,66.6746826171875,25.09,0
-0.3334818184375763,-0.8687123656272888,0.0872987061738967,238.84454345703125,0.353555679321289,66.67300415039062,25.09,0
-0.320367157459259,-0.8877582550048828,0.0784143805503845,184.98605346679688,0.3540397882461548,66.67192840576172,25.09,0
-0.3119509220123291,-0.90557861328125,0.0671151578426361,119.94580841064452,0.3543504774570465,66.67123413085938,25.09,0
-0.3009520769119262,-0.922612488269806,0.0542661920189857,43.94296646118164,0.3545498549938202,66.67079162597656,25.09,0
-0.2938936650753021,-1.0287059545516968,0.018031595274806,-39.29207229614258,0.3546777963638305,66.6705093383789,25.09,0
-0.2893639802932739,-1.1079862117767334,0.0003760904364753,-115.38523864746094,0.3547599017620086,66.67032623291016,25.09,0
-0.2976526319980621,-1.1084837913513184,-0.0221497435122728,-168.3983154296875,0.3548125922679901,66.67021179199219,25.09,0
-0.2917762696743011,-1.1591830253601074,-0.036605529487133,-194.5947113037109,0.3548464179039001,66.67013549804688,25.09,0
-0.2936029136180877,-1.1693278551101685,-0.0290890969336032,-201.19212341308597,0.3548681139945984,66.67008972167969,25.09,0
-0.2611885070800781,-1.0470893383026123,0.0093211624771356,-195.6777801513672,0.3535052537918091,66.67005920410156,25.11,0
-0.201202392578125,-0.929459273815155,0.0451662056148052,-183.00341796875,0.3526306450366974,66.67003631591797,25.11,0
-0.1347178816795349,-0.926742136478424,0.0905605852603912,-167.98403930664062,0.3520693778991699,66.6700210571289,25.11,0
-0.0920519530773162,-0.9697806239128112,0.1196920871734619,-153.09698486328125,0.3517091870307922,66.67001342773438,25.11,0
-0.0478780977427959,-1.0141935348510742,0.1271914541721344,-137.09469604492188,0.3514780402183532,66.67000579833984,25.11,0
-0.0139320828020572,-0.9867175221443176,0.1543952226638794,-119.25894927978516,0.3513297140598297,66.67000579833984,25.11,0
-0.0201363582164049,-0.9634872078895568,0.177450805902481,-101.98773193359376,0.3512345254421234,66.67000579833984,25.11,0
-0.0577045530080795,-0.9485793113708496,0.169855460524559,-87.52568817138672,0.3511734306812286,66.67000579833984,25.11,0
-0.0874114334583282,-0.944610059261322,0.1425901055335998,-75.08494567871094,0.3525110185146332,66.67000579833984,25.11,0
-0.1288666874170303,-0.93646502494812,0.0915061235427856,-62.816436767578125,0.3533693850040436,66.67000579833984,25.11,0
-0.1834591627120971,-0.908846914768219,0.0475278124213218,-50.78742218017578,0.3539202511310577,66.1612777709961,25.11,0
-0.2128956913948059,-0.8575365543365479,0.0193050652742385,-40.48844146728516,0.3542737662792206,65.83480834960938,25.11,0
-0.2205908149480819,-0.802217423915863,0.0123888794332742,-32.47835922241211,0.3545006215572357,65.62529754638672,25.11,0
-0.2199313342571258,-0.783510148525238,0.0135482437908649,-25.87984275817871,0.3546462059020996,65.4908447265625,25.11,0
-0.230703666806221,-0.7882981896400452,0.0142922578379511,-19.868337631225582,0.354739636182785,65.4045639038086,25.11,0
-0.2432145029306411,-0.8417508602142334,-0.0076213753782212,-14.688529014587402,0.3547995984554291,65.34918975830078,25.11,0
-0.2400476783514022,-0.9264336824417114,-0.0272820573300123,-10.859282493591309,0.3530020117759704,65.31365203857422,25.11,0
-0.2268198430538177,-1.1207226514816284,-0.0566924735903739,-8.050800323486328,0.3518484234809875,65.29084777832031,25.11,0
-0.223928764462471,-1.2677972316741943,-0.0699686110019683,-5.499719619750977,0.3511081039905548,65.27621459960938,25.11,0
-0.2332689762115478,-1.2054435014724731,-0.0281085036695003,-3.1460678577423096,0.3506330251693725,65.2668228149414,25.11,0
-0.1720896959304809,-0.991897463798523,0.0211460031569004,-1.4815789461135864,0.3503281474113464,65.26079559326172,25.11,0
-0.0936439409852027,-0.9780069589614868,0.0527547113597393,-0.6211951375007629,0.3501324951648712,65.25692749023438,25.11,0
0.0070779994130134,-1.142623782157898,0.0674415826797485,-0.1872753351926803,0.3500069379806518,65.25444793701172,25.11,0
0.0941066443920135,-1.1642987728118896,0.0768667757511138,0.1413455009460449,0.3499263525009155,65.25285339355469,25.11,0
0.1387610733509063,-1.094241976737976,0.0829153209924697,0.4095566272735595,0.3498746454715729,65.2518310546875,25.11,0
0.1338310688734054,-1.0548813343048096,0.1091880276799202,0.5530185103416443,0.349841445684433,65.25117492675781,25.11,0
0.1138739511370658,-1.0128285884857178,0.1148527860641479,0.5877628326416016,0.3498201370239258,65.2507553100586,25.11,0
0.0954688414931297,-0.9354615807533264,0.0904992297291755,0.5527385473251343,0.3498064577579498,65.25048828125,25.11,0
0.0780597329139709,-0.8914096355438232,0.0804682970046997,0.4227847158908844,0.3497976958751678,65.25031280517578,25.11,0
0.0500942431390285,-0.8855307698249817,0.0572376959025859,0.2677363157272339,0.3497920632362366,65.25019836425781,25.11,0
-0.0014390459982678,-0.8537691831588745,0.0255363080650568,0.2792950272560119,0.3497884571552276,65.25012969970703,25.11,0
-0.0401079207658767,-0.8389841914176941,0.0107899587601423,0.4586763679981231,0.3497861325740814,65.25008392333984,25.11,0
-0.0705211535096168,-0.8518871068954468,-0.0042711752466857,0.6132013201713562,0.349784642457962,65.25005340576172,25.11,0
-0.1012341603636741,-0.8489719033241272,-0.0139365429058671,0.6586279273033142,0.3497836887836456,65.25003051757812,25.11,0
-0.1321395486593246,-0.9142743945121764,-0.0369325429201126,0.6770323514938354,0.3497830927371979,65.2500228881836,25.11,0
-0.1519728451967239,-1.0457462072372437,-0.0684833750128746,0.778407633304596,0.3497827053070068,65.25001525878906,25.11,0
-0.1647007167339325,-1.1357150077819824,-0.0887308865785598,1.0333409309387207,0.3497824370861053,65.25000762939453,25.11,0
-0.1840642839670181,-1.243831753730774,-0.1129201203584671,1.4083144664764404,0.3497822880744934,65.25000762939453,25.11,0
-0.2132840305566787,-1.2852259874343872,-0.1004545018076896,1.6955243349075315,0.3497821688652038,65.25000762939453,25.11,0
-0.2488289028406143,-1.2110304832458496,-0.0364770404994487,1.7437012195587158,0.3497821092605591,65.25000762939453,25.11,0
-0.2548462450504303,-1.1186338663101196,0.0213733315467834,1.6492282152175903,0.3502413630485534,65.25000762939453,25.11,0
-0.1971323043107986,-1.0873279571533203,0.0752916932106018,1.6351743936538696,0.3505360782146454,65.25000762939453,25.11,0
-0.0537371039390563,-1.0840309858322144,0.0875022932887077,1.7300502061843872,0.3507252037525177,65.25000762939453,25.11,0
0.0550790093839168,-1.042730689048767,0.0897405818104744,1.7479450702667236,0.3508465886116028,64.80218505859375,25.11,0
0.0969220548868179,-0.99383544921875,0.1023725345730781,1.5552221536636353,0.3509244620800018,64.5147933959961,25.11,0
0.0957856401801109,-0.9400662183761596,0.1048812195658683,1.2524149417877195,0.350974440574646,64.33036804199219,25.11,0
0.0278830602765083,-0.8719735741615295,0.0785022750496864,1.1154118776321411,0.3510065376758575,64.2120132446289,25.11,0
-0.049279548227787,-0.8618622422218323,0.0335849225521087,1.228115439414978,0.3510271310806274,64.13605499267578,25.11,0
-0.1043958440423011,-0.8553733825683594,0.0047595468349754,1.1893823146820068,0.3510403335094452,64.08731079101562,25.11,0
-0.1621574163436889,-0.8400136828422546,0.0030544032342731,0.5232445001602173,0.3510487973690033,64.0560302734375,25.11,0
-0.2160187810659408,-0.8357544541358948,0.0187534634023904,-0.7031587362289429,0.3510542511940002,64.03595733642578,25.11,0
-0.2785727679729461,-0.8274233937263489,0.0400237664580345,-2.002501964569092,0.3510577380657196,64.02307891845703,25.11,0
-0.341107428073883,-0.8164792060852051,0.0592715963721275,-2.986814022064209,0.3510599732398987,64.01480865478516,25.11,0
-0.4036296606063843,-0.8206514120101929,0.0716237425804138,-3.482350826263428,0.3510614037513733,64.00950622558594,25.11,0
-0.4717417061328888,-0.8737088441848755,0.0795506387948989,-3.5567426681518555,0.3510623276233673,64.006103515625,25.11,0
-0.5378432273864746,-0.9357469081878662,0.0790398940443992,-3.479092836380005,0.351062923669815,64.00391387939453,25.11,0
-0.5802633762359619,-1.0651237964630127,0.0675165802240371,-3.321784496307373,0.3510633111000061,64.00251007080078,25.11,0
-0.5794972777366638,-1.1313570737838743,0.060121577233076,-2.8589928150177,0.3510635495185852,64.0016098022461,25.11,0
-0.5678101181983948,-1.2130461931228638,0.0609736666083335,-2.1894121170043945,0.3510636985301971,64.00102996826172,25.11,0
-0.5211255550384521,-1.0863407850265503,0.0615204870700836,-1.809869766235352,0.3510638177394867,64.00066375732422,25.11,0
-0.4911660552024841,-0.9826374650001526,0.0450780801475048,-1.8851505517959597,0.3510638773441314,64.00042724609375,25.11,0
-0.4719397723674774,-0.9888577461242676,0.000939643708989,-2.026608228683472,0.3510639071464538,64.00027465820312,25.11,0
-0.4987858831882477,-1.082413911819458,-0.0721680521965026,-1.9382590055465696,0.3510639369487762,64.00017547607422,25.11,0
-0.5048186182975769,-1.1592462062835691,-0.1358776986598968,-1.7418410778045654,0.3510639667510986,64.00011444091797,25.11,0
-0.4135279357433319,-1.1525750160217283,-0.1879584193229675,-1.665947437286377,0.3506046831607818,64.00007629394531,25.09,0
-0.3213561773300171,-1.1370983123779297,-0.2213808298110962,-1.803537130355835,0.3503099381923675,64.00004577636719,25.09,0
-0.2342167645692825,-1.099177360534668,-0.2148405462503433,-2.096041202545166,0.3501207828521728,64.00003051757812,25.09,0
-0.2118823528289795,-1.02446186542511,-0.2106433659791946,-2.35898756980896,0.3499993979930877,64.0000228881836,25.09,0
-0.2087449580430984,-0.9653182625770568,-0.2023520767688751,-2.3880109786987305,0.3499215245246887,64.00001525878906,25.09,0
-0.2123293429613113,-0.960949957370758,-0.213824525475502,-2.1880993843078613,0.3498715460300445,64.00000762939453,25.09,0
-0.1978362649679184,-0.935755491256714,-0.2155891209840774,-2.0418946743011475,0.349839448928833,64.00000762939453,25.09,0
-0.182937666773796,-0.9475760459899902,-0.2055259793996811,-2.202431917190552,0.3498188555240631,64.00000762939453,25.09,0
-0.1677788347005844,-0.977552890777588,-0.1934702545404434,-2.4989144802093506,0.3493467271327972,64.00000762939453,25.09,0
-0.1636485457420349,-0.9855947494506836,-0.1801358163356781,-2.377495765686035,0.3490437269210815,64.00000762939453,25.09,0
-0.1777912825345993,-1.0075488090515137,-0.1603829860687255,-1.5293225049972534,0.3488492965698242,64.00000762939453,25.09,0
-0.2092583775520324,-1.032833218574524,-0.1477067619562149,-0.2111773192882537,0.3487245142459869,64.00000762939453,25.09,0
-0.2630387842655182,-0.9818860292434692,-0.1227785721421241,1.207944393157959,0.3486444354057312,63.75997161865234,25.09,0
-0.3143452703952789,-0.8540289402008057,-0.0396078005433082,2.591555118560791,0.3485930562019348,63.60593032836914,25.09,0
-0.3640641570091247,-0.7495865225791931,0.047353059053421,3.8771426677703857,0.3485600650310516,63.50707626342773,25.09,0
-0.4575463831424713,-0.884081244468689,0.1199528574943542,4.967269420623779,0.3485389053821563,63.44363784790039,25.09,0
-0.4727557003498077,-1.0431632995605469,0.1385543644428253,5.813735485076904,0.3489842414855957,63.40292739868164,25.09,0
-0.3705606758594513,-1.0836774110794067,0.122502863407135,6.253054141998291,0.3492700457572937,63.376800537109375,25.09,0
-0.2210111916065216,-1.09848153591156,0.1513863503932953,6.065666198730469,0.3494534492492676,63.36003494262695,25.09,0
-0.1362344920635223,-1.0743952989578247,0.1923132091760635,5.339955806732178,0.3495711386203766,63.34927368164063,25.09,0
-0.1546007543802261,-1.0421448945999146,0.2353710383176803,4.408502101898193,0.3496466875076294,63.34236907958984,25.09,0
-0.1943760365247726,-1.0270462036132812,0.2462097555398941,3.420247793197632,0.3496951460838318,63.33794021606445,25.09,0
-0.2702814936637878,-1.0173567533493042,0.2363720834255218,2.2952301502227783,0.3497262597084045,63.3350944519043,25.09,0
-0.3525798916816711,-0.994345247745514,0.2132655084133148,1.0251246690750122,0.3497462272644043,63.33327102661133,25.09,0
-0.4109920263290405,-0.962784469127655,0.1816437244415283,-0.2879340350627899,0.3493001163005829,63.33209991455078,25.09,0
-0.4316842555999756,-0.9089439511299132,0.1389595866203308,-1.538993000984192,0.3490138351917267,63.33134841918945,25.09,0
-0.4337677955627441,-0.8967832922935486,0.1115673631429672,-2.538892269134521,0.3488301038742065,63.330867767333984,25.09,0
-0.4351048767566681,-0.8945770263671875,0.093988612294197,-2.97636342048645,0.3487122058868408,63.33055877685547,25.09,0
-0.4359629452228546,-0.9099544882774352,0.0771098062396049,-2.759129047393799,0.3486365377902984,63.330360412597656,25.09,0
-0.436513602733612,-0.919822871685028,0.0606801845133304,-2.196976661682129,0.3485879898071289,63.33023071289063,25.09,0
-0.4256714284420013,-0.9205580353736876,0.0333432778716087,-1.5460309982299805,0.3485568165779114,63.33015060424805,25.09,0
-0.4187135696411133,-0.9546164870262146,0.0046044732443988,-0.5980704426765442,0.3485368192195892,63.33009719848633,25.09,0
-0.425443947315216,-1.066037654876709,-0.0250339861959218,0.9202503561973572,0.3499011397361755,63.33006286621094,25.09,0
-0.4353609085083008,-1.1655302047729492,-0.0552497915923595,2.804595470428467,0.3507766723632812,63.330039978027344,25.09,0
-0.4305294752120971,-1.139814376831055,-0.063445009291172,4.393612384796143,0.3513385355472564,63.33002471923828,25.09,0
-0.4162333905696869,-0.9441826939582824,-0.0631064549088478,5.076590061187744,0.3516991138458252,63.33001708984375,25.09,0
-0.4126567542552948,-0.8298330903053284,-0.0852802842855453,4.751797199249268,0.3519304990768432,63.33001327514648,25.09,0
-0.4383503496646881,-0.8796011209487915,-0.1442923694849014,3.744449615478516,0.3520790040493011,63.33000946044922,25.09,0
-0.4772301316261291,-0.9563215970993042,-0.210151806473732,2.406554698944092,0.3521742820739746,63.33000564575195,25.09,0
-0.4741920530796051,-1.005556344985962,-0.252416580915451,1.0105844736099243,0.3522354364395141,63.33000564575195,25.09,0
-0.3938735425472259,-1.0147613286972046,-0.2627463638782501,-0.2184483408927917,0.3508975505828857,63.33000564575195,25.09,0
-0.3087431192398071,-0.9982774257659912,-0.2525821030139923,-1.2507859468460083,0.3500389754772186,63.33000564575195,25.09,0
-0.2261224389076233,-0.9485145807266236,-0.2180704027414322,-2.146148204803467,0.3494879901409149,63.33000564575195,25.09,0
-0.2122856527566909,-0.9221774339675904,-0.1903250068426132,-2.8282175064086914,0.3491343855857849,63.33000564575195,25.09,0
-0.2146015614271164,-0.8996779918670654,-0.1725196093320846,-3.2730956077575684,0.348907470703125,63.33000564575195,25.09,0
-0.2440766394138336,-0.8908368945121765,-0.1722886711359024,-3.680400133132935,0.3487618565559387,63.0577278137207,25.09,0
-0.2629920542240143,-0.9019565582275392,-0.1721404641866684,-4.145991802215576,0.3486683964729309,62.88299560546875,25.09,0
-0.2527397871017456,-0.9650702476501464,-0.1608498096466064,-4.534346103668213,0.3486084342002868,62.7708625793457,25.09,0
-0.2461604624986648,-0.960790753364563,-0.1480063498020172,-4.765656471252441,0.3494881689548492,62.69890213012695,25.09,0
-0.2531337738037109,-0.9636422395706176,-0.1397641450166702,-4.87110710144043,0.3500527143478393,62.6527214050293,25.09,0
-0.2855977118015289,-1.0046565532684326,-0.1232792288064956,-4.902953624725342,0.3504150211811065,62.623085021972656,25.09,0
-0.3232245445251465,-1.0757594108581543,-0.1182979345321655,-5.048780918121338,0.350647509098053,62.60406494140625,25.09,0
-0.3529690504074096,-1.1381824016571045,-0.0927101299166679,-5.432553291320801,0.3507967293262481,62.59186172485352,25.09,0
-0.3888506889343261,-1.060688614845276,-0.0091160526499152,-5.668088436126709,0.3508924841880798,62.58403015136719,25.09,0
-0.4118774533271789,-0.966175377368927,0.0669209063053131,-5.106308937072754,0.3509539365768432,62.57900238037109,25.09,0
-0.4210569262504577,-0.9335111379623412,0.0933259576559066,-3.574288845062256,0.3509933650493622,62.57577896118164,25.09,0
-0.4157522320747375,-0.9853201508522034,0.0990756452083587,-1.387381076812744,0.3501004576683044,62.573707580566406,25.09,0
-0.378761351108551,-1.0297636985778809,0.1307543367147445,1.0764926671981812,0.3495274484157562,62.57238006591797,25.09,0
-0.3382293879985809,-1.0023072957992554,0.1678772270679474,3.356267213821411,0.3491597175598144,62.57152557373047,25.09,0
-0.3178160786628723,-0.956698477268219,0.1917005628347396,4.941102981567383,0.3489237129688263,62.57098007202149,25.09,0
-0.3439004123210907,-0.8882449865341187,0.184597909450531,5.693048477172852,0.348772257566452,62.57062911987305,25.09,0
-0.377433180809021,-0.8499132394790649,0.1632465124130249,5.838841915130615,0.3486750721931457,62.570404052734375,25.09,0
-0.4157458841800689,-0.8477051854133606,0.1159577667713165,5.559815883636475,0.3486126959323883,62.57025909423828,25.09,0
-0.4291372299194336,-0.851885974407196,0.0800127908587455,4.965174198150635,0.3485726714134216,62.57016754150391,25.09,0
-0.4377310276031494,-0.8545689582824707,0.0681409239768982,4.250388145446777,0.3476291298866272,62.570106506347656,25.09,0
-0.4432460367679596,-0.839497447013855,0.0829133465886116,3.6018028259277344,0.3470236361026764,62.570068359375,25.09,0
-0.4579808115959167,-0.8130320906639099,0.0979912057518959,3.146169900894165,0.3466350734233856,62.570045471191406,25.09,0
-0.4842300415039062,-0.790450394153595,0.0964717641472816,2.975578546524048,0.3463857173919678,62.57003021240234,25.09,0
-0.5178686380386353,-0.7983498573303223,0.084301121532917,2.95566725730896,0.3462256789207458,62.57001876831055,25.09,0
-0.5394559502601624,-0.8202126026153564,0.0652951523661613,2.860490083694458,0.3461229801177978,62.570011138916016,25.09,0
-0.5421139001846313,-0.8566339015960693,0.0419026687741279,2.7779152393341064,0.3460570573806762,62.57000732421875,25.09,0
-0.5494173765182495,-0.9415825605392456,0.0156951714307069,2.93271279335022,0.3460147678852081,62.57000350952149,25.09,0
-0.5485065579414368,-1.074466586112976,-0.0011232905089855,3.182521343231201,0.3478236794471741,62.57000350952149,25.09,0
-0.5199331641197205,-1.0197994709014893,0.0048769111745059,3.142209768295288,0.3489845395088196,62.57000350952149,25.09,0
-0.479205310344696,-0.8671640157699585,0.0031297209206968,2.582536220550537,0.3497295081615448,62.57000350952149,25.09,0
-0.4922529458999634,-0.8475801944732666,-0.0371759459376335,1.4853594303131104,0.3502075970172882,62.57000350952149,25.09,0
-0.5118216872215271,-0.9357723593711852,-0.0910306721925735,0.0934000015258789,0.3505144119262695,62.57000350952149,25.09,0
-0.552368700504303,-0.9923690557479858,-0.1423848569393158,-1.2405362129211426,0.350711315870285,62.57000350952149,25.09,0
-0.5056183338165283,-1.0007007122039795,-0.1529499292373657,-2.3975160121917725,0.3508376777172088,62.50193405151367,25.09,0
-0.4252366721630096,-0.9724608063697816,-0.1317411065101623,-3.36928391456604,0.3509187698364258,62.458251953125,25.09,0
-0.3344679474830627,-0.8983603119850159,-0.0845438614487648,-3.9929087162017822,0.3495936691761017,62.43021774291992,25.09,0
-0.2930111289024353,-0.8284158110618591,-0.0542553849518299,-4.206821441650391,0.3487432897090912,62.412227630615234,25.09,0
-0.3111887276172638,-0.7779316306114197,-0.0460135303437709,-4.182882308959961,0.3481975495815277,62.40068054199219,25.09,0
-0.3620384633541107,-0.7679249048233032,-0.0631154850125312,-4.08512020111084,0.3478473424911499,62.39327239990234,25.09,0
-0.4002686738967895,-0.7671009302139282,-0.0796883031725883,-3.99730396270752,0.3476226031780243,62.388519287109375,25.09,0
-0.391215980052948,-0.788963258266449,-0.0791282355785369,-3.976774454116821,0.3474783599376678,62.38546752929688,25.09,0
-0.3574176132678985,-0.819786548614502,-0.0675732716917991,-3.909861087799072,0.3473857939243316,62.38351058959961,25.09,0
-0.3133366703987121,-0.901142716407776,-0.0433646366000175,-3.5838963985443115,0.347326397895813,62.38225173950195,25.09,0
-0.2794502675533294,-0.9645479321479796,-0.0110356044024229,-3.016453504562378,0.3482061326503753,62.381446838378906,25.09,0
-0.2688995003700256,-1.0052378177642822,0.0097113084048032,-2.412268877029419,0.3487707078456878,62.38092803955078,25.09,0
-0.3069108128547668,-1.1600990295410156,0.0174277070909738,-1.974381804466248,0.3491330146789551,62.38059616088867,25.09,0
-0.3536953628063202,-1.237088918685913,0.0335751958191394,-1.7291967868804932,0.3493655025959015,62.3803825378418,25.09,0
-0.4061101078987121,-1.2249211072921753,0.0495355017483234,-1.403470158576965,0.3495147228240967,62.38024520874024,25.09,0
-0.4173557758331299,-1.1387436389923096,0.0989623293280601,-0.6713815331459045,0.3496104776859283,62.380157470703125,25.09,0
-0.4189748167991638,-1.077842116355896,0.1418771743774414,0.3680603206157684,0.3496719300746918,62.38010025024414,25.09,0
-0.3416450023651123,-1.105932354927063,0.1414285749197006,1.2393211126327517,0.3497113585472107,62.38006591796875,25.09,0
-0.2528347373008728,-1.1295567750930786,0.1355429142713546,1.7447075843811035,0.3492777347564697,62.38004302978516,25.09,0
-0.1566570103168487,-1.161510944366455,0.1485591530799865,2.162182331085205,0.3489994704723358,62.380027770996094,25.09,0
-0.1229245513677597,-1.092452883720398,0.1849011033773422,2.6772913932800293,0.3488208949565887,62.3800163269043,25.09,0
-0.1236680969595909,-0.9977554082870485,0.2138210535049438,2.9720330238342285,0.3487062752246856,62.38001251220703,25.09,0
-0.1521341353654861,-0.8642129898071289,0.2099891155958175,2.7026114463806152,0.3486327230930328,62.380008697509766,25.09,0
-0.1815975457429886,-0.761719822883606,0.1907366663217544,1.9779956340789795,0.3485855460166931,62.3800048828125,25.09,0
-0.234092116355896,-0.701543390750885,0.1615882366895675,1.133225917816162,0.3485552668571472,62.3800048828125,25.09,0
-0.3125623166561126,-0.6909144520759583,0.1372846812009811,0.3904770314693451,0.3485358357429504,62.3800048828125,25.09,0
-0.3797132968902588,-0.6896911859512329,0.127285823225975,-0.0718461275100708,0.34852334856987,62.3800048828125,25.09,0
-0.4172091484069824,-0.6777106523513794,0.1320646852254867,-0.0783498883247375,0.3485153317451477,62.3800048828125,25.09,0
-0.4356740415096283,-0.6812177896499634,0.1351314783096313,0.333055168390274,0.348510205745697,62.3800048828125,25.09,0
-0.4307304322719574,-0.7618373036384583,0.1426973491907119,0.8263561129570007,0.348506897687912,62.3800048828125,25.09,0
-0.4331556856632232,-0.891943097114563,0.1531504690647125,1.0569463968276978,0.3485047817230224,62.3800048828125,25.09,0
-0.4347120821475982,-0.9866330623626708,0.1598586738109588,0.9792237281799316,0.348503440618515,62.3800048828125,25.09,0
-0.4357108771800995,-1.0865840911865234,0.1529680639505386,0.915015459060669,0.3485025763511657,62.3800048828125,25.09,0
-0.4531451761722564,-1.1339335441589355,0.165339395403862,1.1711640357971191,0.3485020101070404,62.28327560424805,25.09,0
-0.4755290448665619,-0.9795930981636048,0.2012674659490585,1.54691743850708,0.3475838005542755,62.22119903564453,25.09,0
-0.4619048535823822,-0.981306254863739,0.1795418411493301,1.5695172548294067,0.346994549036026,62.18136215209961,25.09,0
-0.436368316411972,-1.1055567264556885,0.1376107186079025,1.2365106344223022,0.3466163873672485,62.15579605102539,25.09,0
-0.442371517419815,-1.1629023551940918,0.0995061844587326,0.9296592473983764,0.3463737070560455,62.13938903808594,25.09,0
-0.4350284934043884,-1.1661168336868286,0.086248442530632,0.6288449764251709,0.3462179601192474,62.12886047363281,25.09,0
-0.3575450778007507,-1.0618220567703247,0.1057292520999908,0.0345512293279171,0.3461180329322815,62.12210464477539,25.09,0
-0.2798318266868591,-0.9165228009223938,0.1406220197677612,-0.6871769428253174,0.3460538983345032,62.117767333984375,25.09,0
-0.2411554753780365,-0.8232781291007996,0.1574164032936096,-1.057193636894226,0.3460127413272857,62.11498641967773,25.09,0
-0.2667151987552643,-0.7970256805419922,0.1514007598161697,-0.9972952604293824,0.3464452624320984,62.11320114135742,25.09,0
-0.3167046010494232,-0.7857761383056641,0.1307469457387924,-0.8334657549858093,0.346722811460495,62.11205291748047,25.09,0
-0.3487849235534668,-0.7561657428741455,0.1006991863250732,-0.8787975907325745,0.3469009399414062,62.1113166809082,25.09,0
-0.3301877975463867,-0.7427612543106079,0.0982095897197723,-1.266146540641785,0.3470152616500854,62.11084365844727,25.09,0
-0.3070576786994934,-0.7397568225860596,0.107807457447052,-1.91239070892334,0.3470886051654815,62.11054229736328,25.09,0
-0.2866163253784179,-0.7658176422119141,0.1307601332664489,-2.5456502437591557,0.3471356928348541,62.110347747802734,25.09,0
-0.2734982371330261,-0.8105308413505554,0.1454898416996002,-2.9126312732696533,0.3471659123897552,62.11022186279297,25.09,0
-0.2706775963306427,-0.8840073943138123,0.1325514316558838,-2.972592353820801,0.3471852838993072,62.11014175415039,25.09,0
-0.2912585735321045,-0.9479537010192872,0.1074549779295921,-2.760291814804077,0.347656637430191,62.11009216308594,25.09,0
-0.3156617879867553,-1.056164026260376,0.0745561942458152,-2.229966163635254,0.3479591310024261,62.11005783081055,25.09,0
-0.3593112528324127,-1.1256072521209717,0.036650326102972,-1.4525593519210815,0.3481532633304596,62.11003875732422,25.09,0
-0.4041162729263305,-1.1589763164520264,0.0123245194554328,-0.7207970023155212,0.3482778370380401,62.11002349853516,25.09,0
-0.4608584344387054,-1.1020218133926392,0.019104715436697,-0.2619417905807495,0.3483577966690063,62.11001586914063,25.09,0
-0.480478972196579,-0.9759073257446288,0.0514447279274463,0.0683508366346359,0.3484090864658355,62.11001205444336,25.09,0
-0.4482881128787994,-0.9397565126419068,0.0666009113192558,0.581250011920929,0.348442018032074,62.110008239746094,25.09,0
-0.3772498965263366,-0.9837303161621094,0.0427406318485736,1.3510559797286987,0.3484631478786468,62.11000442504883,25.09,0
-0.337259441614151,-1.0343412160873413,0.016232930123806,2.174669981002808,0.347558856010437,62.11000442504883,25.09,0
-0.3227913975715637,-1.0108426809310913,0.0272106826305389,2.749791622161865,0.3469785451889038,62.11000442504883,25.09,0
-0.3247022032737732,-0.9173938035964966,0.0398533456027507,2.7713615894317627,0.3466061353683471,62.11000442504883,25.09,0
-0.3203306794166565,-0.8406304121017456,0.047966681420803,2.093766927719116,0.3463671207427978,62.11000442504883,25.09,0
-0.3231230676174164,-0.7745747566223145,0.0419778041541576,0.9316629767417908,0.3462137579917907,62.11000442504883,25.09,0
-0.3305128216743469,-0.7545751333236694,0.0269389376044273,-0.2583479583263397,0.3461153209209442,62.11000442504883,25.09,0
-0.3464506864547729,-0.7921204566955566,0.0060923108831048,-1.1975746154785156,0.3460521697998047,62.11000442504883,25.09,0
-0.3790698051452636,-0.7546393871307373,-0.0016880796756595,-1.9113761186599727,0.3460116386413574,62.11000442504883,25.09,0
-0.4000028669834137,-0.7025973200798035,-0.0010833123233169,-2.426774024963379,0.3473623991012573,62.03477096557617,25.09,0
-0.4134365022182464,-0.7083841562271118,0.0216958913952112,-2.531824350357056,0.3482292294502258,61.98648834228516,25.09,0
-0.4444485306739807,-0.7344889044761658,0.0419120453298091,-1.9794541597366333,0.3487855195999145,61.95550537109375,25.09,0
-0.4867413640022278,-0.8408058285713196,0.0380922853946685,-0.7902345657348633,0.3491425216197967,61.93561935424805,25.09,0
-0.4802958071231842,-1.0321849584579468,0.0244454368948936,0.7682698369026184,0.3493716120719909,61.92285919189453,25.09,0
-0.4761594235897064,-1.1326099634170532,0.0212854482233524,2.305814504623413,0.3495186269283294,61.914669036865234,25.09,0
-0.4511138498783111,-1.0739059448242188,0.0752352923154831,3.374921560287476,0.3496129810810089,61.9094123840332,25.09,0
-0.4182476997375488,-0.9690597653388976,0.1322482973337173,3.763659238815308,0.3496735394001007,61.90604019165039,25.09,0
-0.3859605491161346,-0.99693763256073,0.1464448571205139,3.726522445678711,0.348794549703598,61.90387725830078,25.09,0
-0.3820338547229767,-1.1211857795715332,0.1219687536358833,3.5701348781585693,0.3482304513454437,61.902488708496094,25.09,0
-0.3739161491394043,-1.172932267189026,0.0894680768251419,3.1509251594543457,0.3478684425354004,61.90159606933594,25.09,0
-0.3295222520828247,-1.1333690881729126,0.0798065587878227,2.326601266860962,0.3476361334323883,61.901023864746094,25.09,0
-0.2730439305305481,-1.0799908638000488,0.0903996750712394,1.5181567668914795,0.347487062215805,61.900657653808594,25.09,0
-0.225603848695755,-1.02334463596344,0.1195888295769691,1.16414213180542,0.3473913967609405,61.900421142578125,25.09,0
-0.2231484055519104,-0.953405737876892,0.1439185142517089,1.0265202522277832,0.3473300039768219,61.900272369384766,25.09,0
-0.2327681928873062,-0.902925193309784,0.1483363658189773,0.6265184283256531,0.3472906053066253,61.900177001953125,25.09,0
-0.2445393949747085,-0.8369430303573608,0.1231826096773147,-0.1066622361540794,0.3468063771724701,61.90011596679688,25.09,0
-0.2520934641361236,-0.7834039330482483,0.1070403829216957,-0.9211027026176452,0.3464956283569336,61.90007400512695,25.09,0
-0.2457456886768341,-0.7714367508888245,0.0966812297701835,-1.5763189792633057,0.3462962210178375,61.900047302246094,25.09,0
-0.22487872838974,-0.7973434925079346,0.0900333225727081,-1.9788862466812132,0.3461682498455047,61.90003204345703,25.09,0
-0.2002919614315033,-0.8251644968986511,0.0801693052053451,-2.1154232025146484,0.3460861146450043,61.900020599365234,25.09,0
-0.1789158284664154,-0.8822028636932373,0.0402524955570697,-1.930768966674805,0.3460334241390228,61.9000129699707,25.09,0
-0.1651978492736816,-0.9467957019805908,-0.002157136099413,-1.4038548469543457,0.3459995985031128,61.90000915527344,25.09,0
-0.1843833178281784,-0.982649862766266,-0.0461665205657482,-0.7647753357887268,0.3459779024124145,61.90000534057617,25.09,0
-0.219086542725563,-1.1064189672470093,-0.0856047570705413,-0.268669068813324,0.3455046713352203,61.90000534057617,25.09,0
-0.2581503987312317,-1.202640175819397,-0.1221094951033592,0.0891116857528686,0.3452009856700897,61.90000534057617,25.09,0
-0.3224037587642669,-1.3147693872451782,-0.1679272353649139,0.3581230938434601,0.3450061082839966,61.90000534057617,25.09,0
-0.3748334050178528,-1.2411853075027466,-0.1637437790632248,0.4698553681373596,0.3448810279369354,61.90000534057617,25.09,0
-0.3748930990695953,-1.0260300636291504,-0.1106791049242019,0.5021503567695618,0.3448007702827453,61.90000534057617,25.09,0
-0.3021603226661682,-1.0055090188980105,-0.0654297024011612,0.5945269465446472,0.3447492718696594,61.90000534057617,25.09,0
-0.2498868405818939,-1.0315243005752563,-0.0363912433385849,0.6000702977180481,0.3447162210941314,61.90000534057617,25.09,0
-0.2387318313121795,-1.081805944442749,-0.0345493555068969,0.3564299643039703,0.3446950018405914,61.90000534057617,25.09,0
-0.2315731942653656,-1.0524983406066897,-0.0389651097357273,0.0818506330251693,0.3460585176944732,61.90000534057617,25.09,0
-0.2381747364997863,-0.9385282397270204,-0.0473966635763645,-0.029872216284275,0.3469335436820984,61.60981369018555,25.09,0
-0.253606766462326,-0.8597910404205322,-0.0416119992733001,-0.130230113863945,0.3474951088428497,61.423587799072266,25.09,0
-0.2635101675987243,-0.8036642670631409,-0.0323019586503505,-0.3271893262863159,0.3478554785251617,61.3040771484375,25.09,0
-0.2586700618267059,-0.7956342101097107,-0.0263273119926452,-0.4714992940425873,0.3480867445468902,61.22738265991211,25.09,0
-0.2499661743640899,-0.7960787415504456,-0.022493127733469,-0.5533614158630371,0.348235160112381,61.178165435791016,25.09,0
-0.2555760741233825,-0.785168468952179,-0.0256303437054157,-0.8208503127098083,0.348330408334732,61.14657974243164,25.09,0
-0.2759695053100586,-0.8005579710006714,-0.0220458544790744,-1.314941167831421,0.3483915328979492,61.12630844116211,25.09,0
-0.3002523779869079,-0.838422954082489,-0.0197455342859029,-1.7108368873596191,0.3484307527542114,61.11330032348633,25.09,0
-0.3606179356575012,-0.8739180564880371,0.0097195506095886,-1.6782939434051514,0.3484559059143066,61.10495376586914,25.09,0
-0.4161503911018371,-0.9302834272384644,0.0454218685626983,-1.2454135417938232,0.3484720587730407,61.0995979309082,25.09,0
-0.4293968379497528,-1.1175953149795532,0.0571380108594894,-0.7060877680778503,0.3484824299812317,61.09616088867188,25.09,0
-0.3819198906421661,-1.1650302410125732,0.0590589828789234,-0.3062408864498138,0.3484890758991241,61.09395217895508,25.09,0
-0.3234630525112152,-1.0891135931015017,0.0770850777626037,-0.0317292921245098,0.3484933376312256,61.09253692626953,25.09,0
-0.2187755107879638,-0.9284391403198242,0.1110442876815795,0.302069753408432,0.3484960794448852,61.09162902832031,25.09,0
-0.1627886295318603,-0.95407634973526,0.1272395700216293,0.8566274642944336,0.3484978377819061,61.09104537963867,25.09,0
-0.1492505669593811,-1.1328643560409546,0.1152416765689849,1.5277773141860962,0.3475811183452606,61.09067153930664,25.09,0
-0.1125737428665161,-1.096460223197937,0.1019443497061729,1.951317548751831,0.3469928205013275,61.090431213378906,25.09,0
-0.0834388956427574,-1.0395115613937378,0.1158019825816154,1.907854676246643,0.3466152846813202,61.09027862548828,25.09,0
-0.0871329233050346,-0.9693785309791564,0.1582816690206527,1.6399301290512085,0.3463729918003082,61.090179443359375,25.09,0
-0.1006990894675254,-0.9355667233467102,0.1799449026584625,1.528895378112793,0.3462175130844116,61.09011459350586,25.09,0
-0.0814162045717239,-0.947454869747162,0.1602604687213897,1.5543692111968994,0.3461177349090576,61.09007263183594,25.09,0
-0.0634437799453735,-0.9047040343284608,0.1532259136438369,1.4632395505905151,0.3460537195205688,61.09004592895508,25.09,0
-0.0463123396039009,-0.8772690296173096,0.1543093174695968,1.275784969329834,0.3460126221179962,61.090030670166016,25.09,0
-0.0353183671832084,-0.8652606010437012,0.1494068056344986,1.0910011529922483,0.3469040989875793,61.09001922607422,25.09,0
-0.0506541654467582,-0.8463587164878845,0.1294673383235931,0.7502977848052979,0.3474762141704559,61.09001159667969,25.09,0
-0.0996802151203155,-0.856619656085968,0.0886824578046798,0.2343001961708068,0.3478433489799499,61.09000778198242,25.09,0
-0.1535334140062332,-0.8911934494972229,0.0457157492637634,-0.1434108167886734,0.348078966140747,61.09000396728516,25.09,0
-0.1880933046340942,-0.924576461315155,0.0125444130972027,-0.2962396144866943,0.3482301533222198,61.09000396728516,25.09,0
-0.2046740651130676,-1.0411618947982788,-0.0199385900050401,-0.4731330275535583,0.3483271896839142,61.09000396728516,25.09,0
-0.2153146564960479,-1.1327730417251587,-0.0351865366101264,-0.704878032207489,0.3483894467353821,61.09000396728516,25.09,0
-0.2165453881025314,-1.2083570957183838,-0.0673628896474838,-0.8607637882232666,0.348429411649704,61.09000396728516,25.09,0
-0.2285307496786117,-1.2008849382400513,-0.0656207203865051,-1.0288711786270142,0.3470779061317444,61.09000396728516,25.09,0
-0.2586133778095245,-1.1569052934646606,-0.0421116016805172,-1.2657256126403809,0.3462105989456177,61.09000396728516,25.09,0
-0.3059075474739074,-1.0671061277389526,-0.0102314772084355,-1.4356379508972168,0.3456540107727051,60.81772613525391,25.09,0
-0.347453773021698,-1.009478211402893,0.0102273495867848,-1.4658613204956057,0.3452968299388885,60.64299392700195,25.09,0
-0.3125402331352234,-0.9948869943618774,0.0177588742226362,-1.370614528656006,0.3450676202774048,60.530860900878906,25.09,0
-0.1501903682947158,-1.013512134552002,0.0337877199053764,-1.0013891458511353,0.3449205160140991,60.45890045166016,25.09,0
-0.0180146973580122,-1.0142691135406494,0.0664652064442634,-0.3022892475128174,0.3448261022567749,60.4127197265625,25.09,0
0.0500147230923175,-0.9363860487937928,0.1154246106743812,0.3362293541431427,0.3447655141353607,60.383087158203125,25.09,0
0.060085441917181,-0.8696118593215942,0.1356483846902847,0.4343097507953644,0.3461037874221802,60.36406707763672,25.09,0
-0.0118205929175019,-0.8379555344581604,0.1094424203038215,0.0028566932305693,0.3469626009464264,60.351863861083984,25.09,0
-0.0915523916482925,-0.8232381343841553,0.0702338442206382,-0.578544020652771,0.347513735294342,60.344032287597656,25.09,0
-0.1483174413442611,-0.8137933611869812,0.0450720377266407,-1.0770436525344849,0.3478674292564392,60.33900451660156,25.09,0
-0.1847459822893142,-0.8413189053535461,0.0345224142074584,-1.4900989532470703,0.3480944037437439,60.33578109741211,25.09,0
-0.2193192690610885,-0.8757765293121338,0.033350046724081,-1.8483210802078247,0.3482400774955749,60.33370971679688,25.09,0
-0.2694953083992004,-0.8810961246490479,0.0493910126388073,-2.1211981773376465,0.3483335673809051,60.33238220214844,25.09,0
-0.3240864872932434,-0.92929208278656,0.0540874078869819,-2.1816728115081787,0.3483935594558716,60.33152770996094,25.09,0
-0.3591199517250061,-0.960221529006958,0.0571012832224369,-1.8514765501022337,0.3470548987388611,60.33098220825195,25.09,0
-0.4095912873744964,-0.9744724631309508,0.0478398650884628,-1.1487627029418943,0.3461958467960357,60.33063125610352,25.09,0
-0.4531764388084411,-1.0284000635147097,0.0362986475229263,-0.3287962079048157,0.3456445336341858,60.33040618896485,25.09,0
-0.5091357827186584,-1.0742032527923584,0.0344899296760559,0.4052005112171173,0.3452907502651214,60.33026123046875,25.09,0
-0.5506449937820435,-1.1371837854385376,0.0221336521208286,1.023123025894165,0.345063716173172,60.330169677734375,25.09,0
-0.5660876631736755,-1.160807728767395,0.0142041034996509,1.5737208127975464,0.3449180126190185,60.330108642578125,25.09,0
-0.536813497543335,-1.075208306312561,-0.018873494118452,2.0022969245910645,0.3448244929313659,60.33007049560547,25.09,0
-0.4956358969211578,-1.0314710140228271,-0.0624918900430202,2.0552127361297607,0.3447645008563995,60.33004760742188,25.09,0
-0.4356238543987274,-1.076174020767212,-0.09608144313097,1.5732800960540771,0.3451852798461914,60.33003234863281,25.09,0
-0.3859160244464874,-1.1216552257537842,-0.1288328319787979,0.8806678652763367,0.3454553186893463,60.330020904541016,25.09,0
-0.3316253125667572,-1.1228535175323486,-0.1610463410615921,0.4111111760139465,0.3456286191940307,60.33001327514648,25.09,0
-0.2631980180740356,-1.1572091579437256,-0.220903530716896,0.027377488091588,0.3457398116588592,60.33000946044922,25.09,0
-0.1912964284420013,-1.156865477561951,-0.2649142146110534,-0.5950511693954468,0.3458111882209778,60.33000564575195,25.09,0
-0.1395563632249832,-1.0502872467041016,-0.2875599563121795,-1.2058619260787964,0.3458569943904876,60.33000564575195,25.09,0
-0.100754790008068,-0.9706959128379822,-0.2964949011802673,-1.314821720123291,0.3458863794803619,60.33000564575195,25.09,0
-0.0814519450068473,-0.8916299343109131,-0.2966310679912567,-1.0444011688232422,0.3459052443504333,60.33000564575195,25.09,0
-0.0858578160405159,-0.9192587733268738,-0.3023162186145782,-0.9389297366142272,0.3449991345405578,60.33000564575195,25.09,0
-0.0998807996511459,-0.94258713722229,-0.2947690784931183,-1.1506850719451904,0.3444176316261291,60.33000564575195,25.09,0
-0.142466589808464,-0.9127757549285888,-0.2619369029998779,-1.3797245025634766,0.3440444767475128,60.33000564575195,25.09,0
-0.1586001515388488,-0.8936445116996765,-0.2240737676620483,-1.408483862876892,0.3438049852848053,60.59869766235352,25.09,0
-0.1633559614419937,-0.9597360491752625,-0.1885798424482345,-1.2549762725830078,0.3436512947082519,60.7711296081543,25.09,0
-0.1720057427883148,-1.0973119735717771,-0.1658018827438354,-0.9343442320823668,0.343552678823471,60.88178634643555,25.09,0
-0.188752219080925,-1.1800024509429932,-0.1455865204334259,-0.4634704887866974,0.3434893786907196,60.95279693603516,25.09,0
-0.2386835664510727,-1.0819286108016968,-0.0822335034608841,0.0536637268960475,0.3434487581253052,60.99836730957031,25.09,0
-0.2819221913814544,-0.9630126953125,-0.0079905334860086,0.5180860161781311,0.3447998464107513,61.02761459350586,25.09,0
-0.3992346227169037,-0.948274791240692,0.1012298539280891,0.9701762795448304,0.3456668853759765,61.046382904052734,25.09,0
-0.4521279036998749,-1.033979058265686,0.1321367919445037,1.5325775146484375,0.3462232947349548,61.05842590332031,25.09,0
-0.446887344121933,-1.0609902143478394,0.1295799762010574,2.244586706161499,0.3465803861618042,61.06615447998047,25.09,0
-0.3091776669025421,-1.0447378158569336,0.1447324901819229,2.844816207885742,0.3468095362186432,61.07111358642578,25.09,0
-0.181619107723236,-1.0175145864486694,0.1712498217821121,2.982811212539673,0.3469565808773041,61.07429885864258,25.09,0
-0.1389437913894653,-0.9944465160369872,0.2162559926509857,2.6199638843536377,0.3470509648323059,61.07634353637695,25.09,0
-0.2123171687126159,-1.0132293701171875,0.2339428067207336,2.046764612197876,0.3471115231513977,61.07765579223633,25.09,0
-0.309783935546875,-1.0364787578582764,0.2229020893573761,1.5356154441833496,0.3471503853797912,61.078495025634766,25.09,0
-0.3891258239746094,-1.0290077924728394,0.187827929854393,1.1072771549224854,0.3471753299236297,61.07903671264648,25.09,0
-0.4288473427295685,-1.0018222332000732,0.1597215682268142,0.5493708252906799,0.3471913337707519,61.079383850097656,25.09,0
-0.4263494610786438,-0.9283983111381532,0.1360867619514465,-0.1776666045188903,0.3472016155719757,61.07960510253906,25.09,0
-0.4135509133338928,-0.8476924300193787,0.1153215244412422,-0.7373843193054199,0.3472082018852234,61.07974624633789,25.09,0
-0.4053375422954559,-0.823888897895813,0.0963978171348571,-0.8672941327095032,0.3472124338150024,61.079837799072266,25.09,0
-0.4168599843978882,-0.8645909428596497,0.0674603432416915,-0.7070476412773132,0.3472151458263397,61.07989501953125,25.09,0
-0.4354499876499176,-0.9131022691726683,0.032096616923809,-0.5182288289070129,0.3472168743610382,61.07993316650391,25.09,0
-0.4473799765110016,-1.0114073753356934,-0.0129888877272605,-0.4472118616104126,0.3462997674942016,61.0799560546875,25.09,0
-0.4438404142856598,-1.0688961744308472,-0.0419221669435501,-0.5341925621032715,0.3457112312316894,61.07997131347656,25.09,0
-0.4359711408615112,-1.105789065361023,-0.0660876557230949,-0.61150723695755,0.3453335464000702,61.07998275756836,25.09,0
-0.4197255373001098,-1.0902804136276243,-0.0704001262784004,-0.3315263390541076,0.345091164112091,61.07999038696289,25.09,0
-0.4093000590801239,-0.9851657152175904,-0.0787653923034668,0.4034484624862671,0.3449356257915497,61.07999420166016,25.09,0
-0.4026095867156982,-0.9345024824142456,-0.1345137059688568,1.2441182136535645,0.3448358178138733,61.07999801635742,25.09,0
-0.3983160257339477,-0.9971519112586976,-0.2150719612836837,1.722707986831665,0.3447717428207397,61.07999801635742,25.09,0
-0.406756192445755,-1.0765410661697388,-0.2835629284381866,1.710990071296692,0.3447306454181671,61.07999801635742,25.09,0
-0.3729881942272186,-1.116292953491211,-0.3163209557533264,1.3882036209106443,0.346081405878067,61.07999801635742,25.09,0
-0.3065356314182281,-1.1138145923614502,-0.3261476159095764,0.8514608144760132,0.3469482362270355,61.07999801635742,25.09,0
-0.2135102450847625,-1.0618441104888916,-0.3100627064704895,0.0878489091992378,0.3475045263767242,61.07999801635742,25.09,0
-0.1706052273511886,-0.9893079996109008,-0.2661536931991577,-0.8213546872138977,0.3478615283966064,61.07999801635742,25.09,0
-0.1654623597860336,-0.9315629601478576,-0.2323776334524154,-1.6448616981506348,0.3480906188488006,61.23046875,25.09,0
-0.1789552867412567,-0.922494411468506,-0.2218976616859436,-2.130350351333618,0.3482376337051391,61.327030181884766,25.09,0
-0.1932120472192764,-0.9446635842323304,-0.2207699865102768,-2.223371744155884,0.3483319878578186,61.38899612426758,25.09,0
-0.2191545367240905,-0.981281578540802,-0.1976552158594131,-2.182755470275879,0.3483925461769104,61.42876434326172,25.09,0
-0.2358029335737228,-1.0159764289855957,-0.1604303866624832,-2.2784979343414307,0.3465953469276428,61.45428466796875,25.09,0
-0.229693591594696,-1.049437165260315,-0.1309438645839691,-2.408008813858032,0.345441997051239,61.47066116333008,25.09,0
-0.2257729619741439,-1.0765081644058228,-0.0952277854084968,-2.380061626434326,0.3447018563747406,61.48117065429688,25.09,0
-0.234452486038208,-1.127467393875122,-0.077905036509037,-2.3370485305786133,0.3442268669605255,61.4879150390625,25.09,0
-0.2512180507183075,-1.2273433208465576,-0.0779838413000106,-2.5100696086883545,0.3439220488071441,61.49224472045898,25.09,0
-0.3067594170570373,-1.1458958387374878,-0.0108611192554235,-2.8790500164031982,0.3437264263629913,61.49502182006836,25.09,0
-0.3591960072517395,-1.0320520401000977,0.0602032504975795,-3.3379600048065186,0.3436008989810943,61.49680709838867,25.09,0
-0.3984445631504059,-0.931004762649536,0.0890149474143982,-3.657540082931519,0.3435203433036804,61.49795150756836,25.09,0
-0.4236320257186889,-0.9501250386238098,0.0851135402917862,-3.2643380165100098,0.3434686362743377,61.49868392944336,25.09,0
-0.4006114602088928,-1.0127753019332886,0.0938053950667381,-1.7867627143859863,0.3434354662895202,61.4991569519043,25.09,0
-0.3298604488372803,-1.024991750717163,0.1329699754714965,0.2792236506938934,0.343414157629013,61.49945831298828,25.09,0
-0.2676631808280945,-1.010440468788147,0.1692990958690643,2.0815374851226807,0.3434004783630371,61.49965286254883,25.09,0
-0.2669329941272735,-0.950722336769104,0.1870152503252029,3.3528010845184326,0.3433917164802551,61.499778747558594,25.09,0
-0.288855493068695,-0.901203155517578,0.1759933680295944,4.243858814239502,0.3433860838413238,61.49985885620117,25.09,0
-0.3365107476711273,-0.86942458152771,0.1241379603743553,4.8228535652160645,0.3433824777603149,61.499908447265625,25.09,0
-0.3782886862754822,-0.8602264523506165,0.0684690475463867,5.180088996887207,0.3433801531791687,61.499942779541016,25.09,0
-0.4106971323490143,-0.8487258553504944,0.0271461699157953,5.452332973480225,0.3433786630630493,61.499961853027344,25.09,0
-0.4314950108528137,-0.8245521187782288,0.0174208488315343,5.465827465057373,0.3433777093887329,61.499977111816406,25.09,0
-0.4336463510990143,-0.7978432774543762,0.0111796976998448,4.969344139099121,0.3433771133422851,61.49998474121094,25.09,0
-0.4294291734695434,-0.7863008379936218,0.0071744862943887,4.184995174407959,0.3433767259120941,61.4999885559082,25.09,0
-0.4435161650180816,-0.8236757516860962,-0.0065913759171962,3.531176805496216,0.3433764576911926,61.49999237060547,25.09,0
-0.4581541419029236,-0.8532586097717285,-0.0154255144298076,3.0399422645568848,0.3433763086795807,61.499996185302734,25.09,0
-0.4731457233428955,-0.9506120085716248,-0.0378880761563777,2.520489454269409,0.3433761894702911,61.499996185302734,25.09,0
-0.4883642494678497,-1.0522722005844116,-0.0523032583296299,1.9757626056671145,0.3433761298656463,61.499996185302734,25.09,0
-0.5037283897399902,-1.190282940864563,-0.061554092913866,1.5115458965301514,0.344753235578537,61.499996185302734,25.09,0
-0.4800015687942505,-1.1445037126541138,-0.050697423517704,1.1491519212722778,0.3456369638442993,61.499996185302734,25.09,0
-0.4311884045600891,-0.9919742345809937,-0.0549257844686508,0.8592671155929565,0.3462041020393371,61.499996185302734,25.09,0
-0.3606785237789154,-0.8549051880836487,-0.0912259519100189,0.5478456020355225,0.3465680480003357,61.499996185302734,25.09,0
-0.3434182107448578,-0.8565065264701843,-0.1201190799474716,0.0148136438801884,0.346801608800888,61.499996185302734,25.09,0
-0.393917053937912,-1.0254673957824707,-0.1498565822839737,-0.8288161158561707,0.3469515144824981,61.775856018066406,25.09,0
-0.4319220781326294,-1.0331368446350098,-0.1913314908742904,-1.8072834014892576,0.3470477163791656,61.95288848876953,25.09,0
-0.4003337621688843,-1.0324608087539673,-0.2291432470083236,-2.718230724334717,0.3471094369888305,62.066497802734375,25.09,0
-0.3072911202907562,-0.9928426146507264,-0.2086264640092849,-3.496283531188965,0.3457719087600708,62.139404296875,25.09,0
-0.241983950138092,-0.93383127450943,-0.173068881034851,-4.013505935668945,0.3449135720729828,62.18619155883789,25.09,0
-0.2392579913139343,-0.8623745441436768,-0.1446522921323776,-4.134057521820068,0.344362735748291,62.216217041015625,25.09,0
-0.2710952758789062,-0.8333110809326172,-0.1432094871997833,-3.971388101577759,0.3440092206001282,62.2354850769043,25.09,0
-0.3083199262619018,-0.8314531445503235,-0.153479129076004,-3.777431726455689,0.343782365322113,62.24785232543945,25.09,0
-0.3378063440322876,-0.8694452047348022,-0.1656673699617386,-3.6028056144714355,0.3436367809772491,62.25578689575195,25.09,0
-0.339935690164566,-0.9106196761131288,-0.1622935235500335,-3.408341407775879,0.3435433506965637,62.26087951660156,25.09,0
-0.3133133351802826,-0.9986186027526855,-0.1433350592851638,-3.262049913406372,0.3434833884239197,62.2641487121582,25.09,0
-0.2514464259147644,-1.0550912618637085,-0.1031797379255294,-3.229072332382202,0.3452809751033783,62.2662467956543,25.09,0
-0.2005482614040374,-1.08013653755188,-0.0830081403255462,-3.2222394943237305,0.3464345633983612,62.26759338378906,25.09,0
-0.1958736181259155,-1.2025669813156128,-0.058867622166872,-3.074551582336426,0.3471748828887939,62.26845550537109,25.09,0
-0.2432536780834198,-1.2251579761505127,-0.0209845285862684,-2.653759479522705,0.3476499617099762,62.26900863647461,25.09,0
-0.3352349996566772,-1.1948734521865845,0.0033266614191234,-1.9323148727416992,0.3479548394680023,62.26936340332031,25.09,0
-0.4054588675498962,-1.0746785402297974,0.0469170548021793,-0.9785204529762268,0.3481504917144775,62.26959228515625,25.09,0
-0.4505244791507721,-0.9751533269882202,0.0916841849684715,0.1745388209819793,0.3482760488986969,62.26973724365234,25.09,0
-0.4010761678218841,-0.9840548634529114,0.1092175990343093,1.4913005828857422,0.3483566343784332,62.269832611083984,25.09,0
-0.3077675700187683,-1.0065606832504272,0.1148717626929283,2.726823329925537,0.3479494154453277,62.26989364624024,25.09,0
-0.1751164197921753,-1.037796974182129,0.1464891582727432,3.609275102615357,0.3476881086826324,62.26993179321289,25.09,0
-0.1179774105548858,-0.968278169631958,0.2115615755319595,4.164834022521973,0.3475204110145569,62.26995468139648,25.09,0
-0.1148955300450325,-0.8900783658027649,0.2477235347032547,4.492699146270752,0.3474127948284149,62.26996994018555,25.09,0
-0.1800910532474517,-0.8231009244918823,0.2429413199424743,4.495314598083496,0.3473437130451202,62.269981384277344,25.09,0
-0.2555164396762848,-0.7857164144515991,0.223079040646553,4.077831745147705,0.3472993969917297,62.26998901367188,25.09,0
-0.3487023115158081,-0.7729207277297974,0.1823437064886093,3.297607183456421,0.3472709655761719,62.26999282836914,25.09,0
-0.4029058516025543,-0.7591114044189453,0.1617998927831649,2.298925876617432,0.3472526967525482,62.269996643066406,25.09,0
-0.4264950156211853,-0.7446516156196594,0.1598116010427475,1.3141024112701416,0.347699910402298,62.269996643066406,25.09,0
-0.4248398542404175,-0.7185788154602051,0.1809267252683639,0.5746220946311951,0.3479869067668915,62.269996643066406,25.09,0
-0.412582129240036,-0.7130423784255981,0.2000749707221985,0.0140843726694583,0.3481710851192474,62.269996643066406,25.09,0
-0.4047158360481262,-0.7710649371147156,0.2179609835147857,-0.5677561163902283,0.348289281129837,62.269996643066406,25.09,0
-0.4164610207080841,-0.8530826568603516,0.218243658542633,-1.0737031698226929,0.3483651280403137,62.269996643066406,25.09,0
-0.4184006154537201,-0.9057168960571288,0.2072295099496841,-1.22642719745636,0.3484137952327728,62.269996643066406,25.09,0
-0.4308408796787262,-1.0122655630111694,0.1833679378032684,-1.0306655168533323,0.3484450280666351,62.55302047729492,25.09,0
-0.4556176662445068,-1.1030335426330566,0.1680549532175064,-0.6936649680137634,0.348465085029602,62.734649658203125,25.09,0
-0.5051046013832092,-1.0213388204574585,0.1694235205650329,-0.2911034822463989,0.3484779596328735,62.8512077331543,25.09,0
-0.4808847308158874,-0.946520745754242,0.1255195885896682,0.0782971382141113,0.3484862148761749,62.92601013183594,25.09,0
-0.4373529553413391,-0.9712778925895692,0.0805512443184852,0.154141291975975,0.3484915196895599,62.97401428222656,25.09,0
-0.4374056458473205,-1.054338812828064,0.0740842521190643,-0.1017052307724952,0.3484949171543121,63.00481796264648,25.09,0
-0.4486350119113922,-1.0908492803573608,0.0811296552419662,-0.4199435412883758,0.3484970927238464,63.02458953857422,25.09,0
-0.4166569411754608,-1.0471062660217283,0.0856509879231453,-0.7567258477210999,0.3484984934329986,63.03727722167969,25.09,0
-0.3625486195087433,-0.957459032535553,0.1053458452224731,-1.2988678216934204,0.3484993875026703,63.04541778564453,25.09,0
-0.3334227800369262,-0.8831352591514587,0.1291804164648056,-1.836659789085388,0.3484999537467956,63.05064392089844,25.09,0
-0.3483181297779083,-0.841036319732666,0.1612693965435028,-1.902342796325684,0.3471231758594513,63.05399703979492,25.09,0
-0.3746704459190368,-0.8364107608795166,0.1762644797563552,-1.5969845056533811,0.3462396562099457,63.056148529052734,25.09,0
-0.3859840631484985,-0.8446378707885742,0.1690941452980041,-1.5156656503677368,0.3456726670265198,63.05752944946289,25.09,0
-0.3540600538253784,-0.8387219905853271,0.1644926369190216,-1.925632119178772,0.3453088104724884,63.05841445922852,25.09,0
-0.316779762506485,-0.8349255323410034,0.1727351993322372,-2.5720605850219727,0.3450753092765808,63.05898284912109,25.09,0
-0.2704643011093139,-0.8380869626998901,0.2004158943891525,-3.1266214847564697,0.3449254333972931,63.059349060058594,25.09,0
-0.2463394850492477,-0.8457135558128357,0.218179777264595,-3.414438009262085,0.344829261302948,63.0595817565918,25.09,0
-0.2644442021846771,-0.8785967230796814,0.2071885168552398,-3.359109401702881,0.3447675406932831,63.05973052978516,25.09,0
-0.2984538674354553,-0.9332858920097352,0.1665483117103576,-2.997588396072388,0.3456461429595947,63.0598258972168,25.09,0
-0.3258771002292633,-1.0075666904449463,0.118076667189598,-2.457483530044556,0.3462100028991699,63.05988693237305,25.09,0
-0.3658668398857116,-1.10001802444458,0.0757748112082481,-1.895920753479004,0.3465718328952789,63.05992889404297,25.09,0
-0.413921058177948,-1.1761412620544434,0.0486279129981994,-1.5498723983764648,0.3468040525913238,63.05995559692383,25.09,0
-0.4895416796207428,-1.146623969078064,0.0703910142183303,-1.6215696334838867,0.3469530642032623,63.05997085571289,25.09,0
-0.4820929169654846,-1.0381170511245728,0.1123461946845054,-1.914778470993042,0.3470486998558044,63.05998229980469,25.09,0
-0.4269327521324157,-1.018863558769226,0.1224772930145263,-1.8700755834579468,0.3471100628376007,63.05998992919922,25.09,0
-0.3579474687576294,-1.0456922054290771,0.0785988792777061,-1.0353083610534668,0.3471494615077972,63.05999374389648,25.09,0
-0.3248722553253174,-1.0629092454910278,0.0392446890473365,0.5715873837471008,0.3462565243244171,63.05999755859375,25.09,0
-0.326037585735321,-1.02357816696167,0.013989433646202,2.441123008728028,0.3456834852695465,63.05999755859375,25.09,0
-0.3547742962837219,-0.9311645030975342,-0.0134134842082858,3.812847137451172,0.3453157544136047,63.05999755859375,25.09,0
-0.3732158541679382,-0.8494676351547241,-0.0254013240337371,4.12351131439209,0.3450797498226166,63.05999755859375,25.09,0
-0.4074416756629944,-0.7690504193305969,-0.0330944322049617,3.3878252506256104,0.3449282944202423,63.05999755859375,25.09,0
-0.4406014084815979,-0.7118455171585083,-0.0380314253270626,2.09171199798584,0.344831109046936,63.05999755859375,25.09,0
-0.4786747395992279,-0.6751346588134766,-0.046797476708889,0.8622751832008362,0.3447687327861786,63.05999755859375,25.09,0
-0.5199013352394104,-0.6291846632957458,-0.046825248748064,0.2201790362596511,0.3447287082672119,63.3107795715332,25.09,0
-0.5575537085533142,-0.5940988063812256,-0.0524408482015132,0.3813308179378509,0.3451623022556305,63.47171401977539,25.09,0
-0.6153035163879395,-0.5659849643707275,-0.0616423897445201,1.072291135787964,0.3454405665397644,63.57499313354492,25.09,0
-0.6691573262214661,-0.5759320259094238,-0.0619496367871761,1.748577117919922,0.3456191420555115,63.64127349853516,25.09,0
-0.7037175893783569,-0.6270976662635803,-0.0509512610733509,2.110927104949951,0.3457337319850921,63.68380737304688,25.09,0
-0.7258963584899902,-0.7383016347885132,-0.0326975882053375,2.350627422332764,0.345807284116745,63.71110153198242,25.09,0
-0.7401294708251953,-0.8208615183830261,-0.0153856556862592,2.755233764648437,0.3458544611930847,63.72861862182617,25.09,0
-0.7492634654045105,-0.8290615081787109,0.0349085666239261,3.172520160675049,0.3458847403526306,63.73986053466797,25.09,0
-0.7271362543106079,-0.7783460021018982,0.1007711514830589,3.0963833332061768,0.3459041714668274,63.74707412719727,25.09,0
-0.6905451416969299,-0.8073752522468567,0.1598312854766845,2.391911745071411,0.3449984490871429,63.75170516967773,25.09,0
-0.6782586574554443,-0.9547533392906188,0.1977326869964599,1.5600693225860596,0.3444171845912933,63.754676818847656,25.09,0
-0.6703739166259766,-1.0605276823043823,0.2164578437805175,1.0441535711288452,0.3440441787242889,63.75658416748047,25.09,0
-0.6037384271621704,-1.1060165166854858,0.2172790318727493,0.7309814691543579,0.3438048064708709,63.757808685302734,25.09,0
-0.5105956196784973,-1.1128175258636477,0.2234037965536117,0.4081980288028717,0.3436511754989624,63.75859451293945,25.09,0
-0.3724530637264251,-1.0444109439849854,0.2665187418460846,0.1222375631332397,0.3435525894165039,63.75909805297852,25.09,0
-0.3173877894878387,-0.9557293057441713,0.31098073720932,-0.1651701182126999,0.3434893190860748,63.759422302246094,25.09,0
-0.3044411540031433,-0.90441632270813,0.3283183574676513,-0.5753141045570374,0.3434487283229828,63.75962829589844,25.09,0
-0.3353171646595001,-0.8658888339996338,0.2890646755695343,-0.9388329982757568,0.3443408906459808,63.759761810302734,25.09,0
-0.366327166557312,-0.8299685716629028,0.2414828091859817,-1.0144851207733154,0.3449134230613708,63.75984573364258,25.09,0
-0.3862276077270508,-0.7789281010627747,0.1941541880369186,-0.9519745111465454,0.3452808558940887,63.7598991394043,25.09,0
-0.3934007883071899,-0.7405754923820496,0.1637814044952392,-1.0694921016693115,0.3455166518688202,63.75993347167969,25.09,0
-0.3980041146278381,-0.7159630060195923,0.149887666106224,-1.2882111072540283,0.3456679582595825,63.75995635986328,25.09,0
-0.4009582698345184,-0.7393525838851929,0.1353736966848373,-1.2351133823394775,0.3457650542259216,63.75997161865234,25.09,0
-0.4084518551826477,-0.7823514938354492,0.1260594725608825,-0.7388860583305359,0.3458273708820343,63.75998306274414,25.09,0
-0.4244563579559326,-0.8491301536560059,0.1144843623042106,-0.0729260891675949,0.3458673655986786,63.759986877441406,25.09,0
-0.4347271025180816,-0.9423648118972778,0.0958605706691742,0.340118408203125,0.3449748158454895,63.75999069213867,25.09,0
-0.4581116139888763,-1.0189907550811768,0.0727133452892303,0.4547184109687805,0.3444020450115204,63.75999450683594,25.09,0
-0.5011073350906372,-1.1521315574645996,0.0410654656589031,0.617826521396637,0.3440344631671905,63.75999450683594,25.09,0
-0.5622861385345459,-1.198389172554016,0.0431467741727829,1.138078689575195,0.3437985777854919,63.75999450683594,25.09,0
-0.5903516411781311,-1.082532525062561,0.1004601866006851,2.095314741134644,0.3436471819877624,63.75999450683594,25.09,0
-0.4852114021778106,-1.0137802362442017,0.1484361737966537,3.354477405548096,0.3435500264167785,63.75999450683594,25.09,0
-0.3953473567962646,-0.992050051689148,0.1680288612842559,4.313003540039063,0.3434876799583435,63.75999450683594,25.09,0
-0.3208844661712646,-1.0116914510726929,0.1414178907871246,4.197285175323486,0.3434476852416992,63.75999450683594,25.09,0
-0.2730984687805176,-1.0186984539031982,0.1131449565291404,3.0589988231658936,0.3443402349948883,63.98569869995117,25.09,0
-0.2872143685817718,-0.9560218453407288,0.0782076939940452,1.7624651193618774,0.3449130058288574,64.13053894042969,25.09,0
-0.352250874042511,-0.8710173964500427,0.050189197063446,0.7835387587547302,0.3452805876731872,64.22349548339844,25.09,0
-0.4051831066608429,-0.8052709102630615,0.0378063134849071,-0.1277032494544983,0.3455164730548858,64.28314971923828,25.09,0
-0.4391519725322723,-0.757480800151825,0.0466530136764049,-1.0994040966033936,0.3456678390502929,64.32142639160156,25.09,0
-0.4609512388706207,-0.732409656047821,0.0523303151130676,-1.9164448976516724,0.3457649946212768,64.34599304199219,25.09,0
-0.4749407470226288,-0.7163204550743103,0.055973682552576,-2.641398906707764,0.3458273410797119,64.36175537109375,25.09,0
-0.4951139688491821,-0.6780064105987549,0.0527140125632286,-3.626106023788452,0.3458673357963562,64.37187194824219,25.09,0
-0.519255518913269,-0.6478208899497986,0.0506221428513526,-4.877820014953613,0.3463519513607025,64.37836456298828,25.09,0
-0.5627370476722717,-0.6228517889976501,0.0548774749040603,-5.956956386566162,0.3466629385948181,64.38253021240234,25.09,0
-0.6074343323707581,-0.6068280935287476,0.0632060766220092,-6.48468542098999,0.3468625247478485,64.38520812988281,25.09,0
-0.6697050929069519,-0.6805115938186646,0.0853442177176475,-6.518832683563232,0.3469905853271484,64.38692474365234,25.09,0
-0.7320579886436462,-0.8341551423072815,0.0995512008666992,-6.447599411010742,0.3470727801322937,64.38802337646484,25.09,0
-0.7440836429595947,-0.899168074131012,0.1254617422819137,-6.48070240020752,0.3471255302429199,64.38873291015625,25.09,0
-0.6790299415588379,-0.8233363628387451,0.1700785160064697,-6.254748344421387,0.3471593856811523,64.3891830444336,25.09,0
-0.6260866522789001,-0.8026608228683472,0.2099065482616424,-4.970485210418701,0.347181111574173,64.38947296142578,25.09,0
-0.6256973743438721,-0.9293368458747864,0.2242703288793563,-2.1508243083953857,0.345817893743515,64.38966369628906,25.09,0
-0.5974586606025696,-1.0218257904052734,0.2278904020786285,1.6147578954696655,0.3449430763721466,64.38978576660156,25.09,0
-0.5513477921485901,-1.041995406150818,0.2358113378286361,4.883944988250732,0.3443816602230072,64.38986206054688,25.09,0
-0.482572078704834,-1.0045591592788696,0.2632856369018554,6.637993812561035,0.3440213799476623,64.38990783691406,25.09,0
-0.4440335631370544,-0.941350281238556,0.2809170484542846,7.093699455261231,0.3437901735305786,64.38993835449219,25.09,0
-0.413703978061676,-0.8783953785896301,0.2866341173648834,6.891749858856201,0.3436417877674103,64.38996124267578,25.09,0
-0.4054357707500458,-0.8212012052536011,0.2903029918670654,6.224763870239258,0.3435465693473816,64.38997650146484,25.09,0
-0.4057274758815765,-0.7788994908332825,0.2814619243144989,5.083797931671143,0.3434854745864868,64.38998413085938,25.09,0
-0.4115124344825744,-0.7461549043655396,0.2645926773548126,3.6959805488586426,0.3452823162078857,64.3899917602539,25.09,0
-0.4096271395683288,-0.7307391166687012,0.2481691986322403,2.282303094863892,0.3464354276657104,64.3899917602539,25.09,0
-0.4140150249004364,-0.7264439463615417,0.2320317775011062,0.9165167212486268,0.3471754193305969,64.3899917602539,25.09,0
-0.4168309271335602,-0.7348830699920654,0.2216757088899612,-0.2394073009490966,0.3476503193378448,64.3899917602539,25.09,0
-0.4186379909515381,-0.745896577835083,0.215029776096344,-1.009873390197754,0.3479550778865814,64.3899917602539,25.09,0
-0.4309932291507721,-0.7641599774360657,0.2051670253276825,-1.4756535291671753,0.3481506705284118,64.3899917602539,25.09,0
-0.4669109880924225,-0.7814781665802002,0.1932399123907089,-1.792477250099182,0.3482761681079864,64.3899917602539,25.09,0
-0.5347431302070618,-0.8317763805389404,0.1687924414873123,-1.8668237924575808,0.3483567237854004,64.3899917602539,25.09,0
-0.606262743473053,-0.9480215311050416,0.1251145899295807,-1.481043577194214,0.3470312654972076,64.3899917602539,25.09,0
-0.6409643888473511,-1.0226209163665771,0.1026824414730072,-0.692503035068512,0.3461806774139404,64.60852813720703,25.09,0
-0.6352450251579285,-0.9697346091270448,0.1498622894287109,0.164629265666008,0.3456348180770874,64.748779296875,25.09,0
-0.6035857796669006,-0.8966107964515686,0.2025307118892669,0.9869632124900818,0.3452845215797424,64.83878326416016,25.09,0
-0.5216931700706482,-0.9504441022872924,0.2251347154378891,2.0556585788726807,0.345059722661972,64.89653778076172,25.09,0
-0.4299547970294952,-1.0017845630645752,0.1948584765195846,3.3146979808807373,0.3449154496192932,64.93360137939453,25.09,0
-0.348691314458847,-1.0235363245010376,0.1642333716154098,4.000869274139404,0.3448228538036346,64.95738983154297,25.09,0
-0.2741499841213226,-0.9815176129341124,0.1389821767807006,3.438093423843384,0.3447634279727936,64.97265625,25.09,0
-0.2375091910362243,-0.9209657907485962,0.122777409851551,1.790791630744934,0.3461024463176727,64.98245239257812,25.11,0
-0.2307885736227035,-0.8261293768882751,0.1235736683011055,-0.1978214830160141,0.3469617366790771,64.98873901367188,25.11,0
-0.2600623071193695,-0.7652688026428223,0.1184868887066841,-1.8250911235809328,0.347513198852539,64.9927749633789,25.11,0
-0.2900440692901611,-0.7374075651168823,0.1152224838733673,-2.790562629699707,0.3478670716285705,64.995361328125,25.11,0
-0.3428712785243988,-0.7419189214706421,0.1019320264458656,-3.263261079788208,0.3480941653251648,64.99702453613281,25.11,0
-0.3991638422012329,-0.756009578704834,0.0990007519721984,-3.670506477355957,0.348239928483963,64.99809265136719,25.11,0
-0.4856691360473633,-0.7482588291168213,0.1251084953546524,-4.275780200958252,0.3483334481716156,64.998779296875,25.11,0
-0.55237877368927,-0.7768715023994446,0.1530584990978241,-4.922155380249023,0.3483934700489044,64.99921417236328,25.11,0
-0.6007869839668274,-0.8008312582969666,0.1709952056407928,-5.229484558105469,0.3470548391342163,64.99949645996094,25.11,0
-0.6542436480522156,-0.9057716131210328,0.1825059503316879,-5.100696563720703,0.346195787191391,64.99967956542969,25.11,0
-0.6885491013526917,-1.0290939807891846,0.1842951029539108,-4.77085018157959,0.3456445038318634,64.99979400634766,25.11,0
-0.710564374923706,-1.1754084825515747,0.1630521863698959,-4.322723865509033,0.3452907204627991,64.99987030029297,25.11,0
-0.6967036128044128,-1.1629470586776731,0.1718108057975769,-3.605232954025269,0.3450636863708496,64.99991607666016,25.11,0
-0.6766130328178406,-1.0150057077407837,0.1830293536186218,-2.6109848022460938,0.3449179828166961,64.99994659423828,25.11,0
-0.6189378499984741,-0.8864787817001343,0.1510443538427353,-1.3746434450149536,0.3448244929313659,64.99996948242188,25.11,0
-0.5763274431228638,-0.8487797975540161,0.1025293469429016,0.1961882710456848,0.3447645008563995,64.9999771118164,25.11,0
-0.5657758712768555,-0.914151132106781,0.032210785895586,1.9852590560913088,0.3461031317710876,64.99998474121094,25.11,0
-0.5198200941085815,-1.0232759714126587,-0.0129156168550252,3.799740791320801,0.3469621837139129,64.99999237060547,25.11,0
-0.4511438906192779,-1.0765126943588257,-0.0418751463294029,5.666355609893799,0.3475134670734405,64.99999237060547,25.11,0
-0.3343003690242767,-1.0882859230041504,-0.0604597032070159,7.158012866973877,0.3478672504425049,64.99999237060547,25.11,0
-0.2369258254766464,-1.0678523778915403,-0.0611906535923481,7.302027702331543,0.3480942845344543,64.99999237060547,25.11,0
-0.196827545762062,-1.015554904937744,-0.0448664128780365,5.968583106994629,0.3482399880886078,64.99999237060547,25.11,0
-0.1934858858585357,-0.998786687850952,-0.0511837787926197,4.245872020721436,0.3483335077762604,64.99999237060547,25.11,0
-0.1969391703605651,-0.9992213845252992,-0.0664334520697593,2.8752243518829346,0.3483934998512268,64.99999237060547,25.11,0
-0.2103508412837982,-1.0106959342956543,-0.0930131375789642,1.666024684906006,0.3465959429740906,64.99999237060547,25.11,0
-0.2189576774835586,-1.0236573219299316,-0.1100704446434974,0.5962586998939514,0.34544238448143,64.99999237060547,25.11,0
-0.2300788313150406,-1.0151818990707395,-0.1210168451070785,0.1175339370965957,0.3447020947933197,65.17912292480469,25.11,0
-0.2372157424688339,-1.0041451454162598,-0.128041610121727,0.3405371308326721,0.3442270159721374,65.29408264160156,25.11,0
-0.2306002527475357,-1.030648946762085,-0.1325497031211853,0.8884787559509277,0.3439221382141113,65.36785125732422,25.11,0
-0.2319525778293609,-1.070048689842224,-0.152236059308052,1.3619236946105957,0.3437264859676361,65.41519165039062,25.11,0
-0.2496137470006942,-1.0225621461868286,-0.1592718511819839,1.6370928287506104,0.3436009287834167,65.44557189941406,25.11,0
-0.3001320958137512,-0.8465458750724792,-0.0910159572958946,1.7814373970031738,0.3435203433036804,65.46507263183594,25.11,0
-0.3437474071979522,-0.6832087635993958,-0.0080288304015994,1.795252799987793,0.3439275622367859,65.47758483886719,25.11,0
-0.444508284330368,-0.7239305377006531,0.073216401040554,1.675145983695984,0.3441888988018036,65.4856185913086,25.11,0
-0.5147686004638672,-0.9012033343315125,0.0805727168917656,1.7055455446243286,0.3443565964698791,65.49076843261719,25.11,0
-0.5038798451423645,-0.964586853981018,0.0573047064244747,2.0868945121765137,0.3444642126560211,65.49407196044922,25.11,0
-0.3401544094085693,-1.01645827293396,0.0311770867556333,2.3853609561920166,0.3445332944393158,65.4961929321289,25.11,0
-0.1959004253149032,-1.0497463941574097,0.0479965321719646,2.100416898727417,0.3445776104927063,65.49755859375,25.11,0
-0.1369131654500961,-1.054315447807312,0.1147680282592773,1.4661517143249512,0.3446060419082641,65.4984359741211,25.11,0
-0.1662318259477615,-1.0572476387023926,0.1800092309713363,0.8334144949913025,0.3446243107318878,65.49899291992188,25.11,0
-0.2186335027217865,-1.0423359870910645,0.2218772768974304,-0.0491223521530628,0.3450953066349029,65.49935150146484,25.11,0
-0.2914462983608246,-1.0103754997253418,0.2375502288341522,-1.4251458644866943,0.3453975617885589,65.49958038330078,25.11,0
-0.3493689298629761,-0.9730717539787292,0.2364126741886139,-2.888575792312622,0.3455915451049804,65.4997329711914,25.11,0
-0.3865403234958648,-0.9155457019805908,0.2076937854290008,-3.885042190551758,0.3457160294055938,65.49983215332031,25.11,0
-0.3936014771461487,-0.895422101020813,0.1612747907638549,-4.234328269958496,0.3457958996295929,65.49989318847656,25.11,0
-0.3869373500347137,-0.8881057500839233,0.1258879750967025,-3.999910116195679,0.3458471596240997,65.49993133544922,25.11,0
-0.3770629167556762,-0.9113993644714355,0.0919832065701484,-3.3407485485076904,0.3458800613880157,65.49995422363281,25.11,0
-0.370726078748703,-0.9599345326423644,0.0590295270085334,-2.523653030395508,0.3459011912345886,65.49996948242188,25.11,0
-0.3666594624519348,-1.052657127380371,0.0266862045973539,-1.6481958627700806,0.3449965119361877,65.4999771118164,25.11,0
-0.3584519624710083,-1.0897700786590576,0.0059301205910742,-0.4773399829864502,0.3444159626960754,65.49998474121094,25.11,0
-0.3531848788261413,-1.1751625537872314,-0.0017921641701832,1.1732743978500366,0.3440434038639068,65.49999237060547,25.11,0
-0.3721958696842193,-1.056431531906128,0.0156432148069143,3.020710229873657,0.3438042998313904,65.49999237060547,25.11,0
-0.3955915570259094,-0.9354545474052428,-0.0011566346511244,4.521554946899414,0.3436508476734161,65.49999237060547,25.11,0
-0.4106055796146393,-0.9529806971549988,-0.0679155588150024,5.280503749847412,0.3435523808002472,65.49999237060547,25.11,0
-0.44822958111763,-0.9698257446289062,-0.1387464553117752,5.172845840454102,0.3434891998767853,65.49999237060547,25.11,0
-0.4667767286300659,-1.025418043136597,-0.1953971982002258,4.315590858459473,0.3434486389160156,65.49999237060547,25.11,0
-0.4338970184326172,-1.0331051349639893,-0.22055684030056,2.9987826347351074,0.3447997570037842,65.49999237060547,25.11,0
-0.3904056251049042,-1.026842713356018,-0.22550730407238,1.5626059770584106,0.3456668257713318,65.49999237060547,25.11,0
-0.3177131414413452,-0.9892372488975524,-0.2062931209802627,0.275527685880661,0.3462232649326324,65.49999237060547,25.11,0
-0.2710632979869842,-0.9371153712272644,-0.1827670186758041,-0.7044958472251892,0.3465803563594818,65.66120910644531,25.11,0
-0.2411261200904846,-0.9092642664909364,-0.1732670962810516,-1.3047579526901243,0.3468095064163208,65.7646713256836,25.11,0
-0.2219141572713852,-0.9361732602119446,-0.1783661395311355,-1.6505632400512695,0.3469565808773041,65.83106231689453,25.11,0
-0.2151827961206436,-0.9702352285385132,-0.1816384196281433,-2.076687812805176,0.3470509648323059,65.87367248535156,25.11,0
-0.2052652239799499,-1.0144853591918943,-0.1781405955553054,-2.7657289505004883,0.3471115231513977,65.90101623535156,25.11,0
-0.1877051442861557,-1.065273642539978,-0.1702981293201446,-3.4981045722961426,0.3457732498645782,65.91856384277344,25.07,0
-0.1764360964298248,-1.1146599054336548,-0.159667506814003,-3.9645185470581055,0.3449144065380096,65.92982482910156,25.07,0
-0.1692042797803878,-1.185537576675415,-0.1752364784479141,-4.188601970672607,0.344363272190094,65.93704986572266,25.07,0
-0.1701610833406448,-1.2702072858810425,-0.2020210772752761,-4.325240612030029,0.3440095782279968,65.94168853759766,25.07,0
-0.2211550772190094,-1.1510124206542969,-0.1800254732370376,-4.452335834503174,0.3437826037406921,65.94466400146484,25.07,0
-0.3154556155204773,-0.9513689279556274,-0.0819433480501174,-4.720191955566406,0.3436369299888611,65.94657135009766,25.07,0
-0.3927655816078186,-0.8008581399917603,-0.0022065544035285,-5.28617000579834,0.3435434401035309,65.94779968261719,25.07,0
-0.4759653210639953,-0.8889955282211304,0.0321706086397171,-5.928822994232178,0.3434834480285644,65.9485855102539,25.07,0
-0.4957714676856994,-1.0295236110687256,0.0206452440470457,-6.004478931427002,0.3443631827831268,65.94908905029297,25.07,0
-0.396526426076889,-1.0637286901474,-0.0035443946253508,-5.114395618438721,0.3449277281761169,65.94941711425781,25.07,0
-0.2376745194196701,-1.0576907396316528,0.0481053814291954,-3.475583791732788,0.3452900350093841,65.94962310791016,25.07,0
-0.130134716629982,-1.0146315097808838,0.1204356551170349,-1.3598637580871582,0.3455225229263305,65.94976043701172,25.07,0
-0.1394907087087631,-0.9646074771881104,0.1948419362306594,1.2804456949234009,0.3456717431545257,65.94984436035156,25.07,0
-0.1734837293624878,-0.9381027221679688,0.2257982790470123,4.217997550964356,0.3457674980163574,65.94989776611328,25.07,0
-0.2400806844234466,-0.9154956936836244,0.206479862332344,6.5903801918029785,0.3458289504051208,65.94993591308594,25.07,0
-0.3108076453208923,-0.8785967230796814,0.188484638929367,7.686511993408203,0.3458683788776397,65.94995880126953,25.07,0
-0.3785872459411621,-0.8493192791938782,0.1825341135263443,7.565954208374023,0.3445165455341339,65.9499740600586,25.07,0
-0.4388776123523712,-0.8137373924255371,0.1843131780624389,6.618021011352539,0.3436489999294281,65.94998168945312,25.07,0
-0.477568507194519,-0.7965007424354553,0.1854548752307891,5.182116985321045,0.3430922627449035,65.94998931884766,25.07,0
-0.5079958438873291,-0.8302214741706848,0.1749920099973678,3.687424421310425,0.3427349925041199,65.94998931884766,25.07,0
-0.4995335042476654,-0.885448157787323,0.1570819914340973,2.55267071723938,0.3425056934356689,65.94998931884766,25.07,0
-0.4829072952270508,-0.9488783478736876,0.1399905979633331,1.903267741203308,0.3423585593700409,65.94998931884766,25.07,0
-0.4666397869586944,-1.045561909675598,0.1234245523810386,1.5653349161148071,0.3422641456127167,65.94998931884766,25.07,0
-0.4617980122566223,-1.1020101308822632,0.1239889711141586,1.384294867515564,0.3422035574913025,65.94998931884766,25.07,0
-0.4586908519268036,-1.1102464199066162,0.1075578555464744,1.4472424983978271,0.3435418009757995,65.94998931884766,25.07,0
-0.4510990679264068,-1.093140959739685,0.097013309597969,1.8136531114578247,0.3444006145000458,65.94998931884766,25.07,0
-0.4518248736858368,-0.9702081084251404,0.0790508836507797,2.13835883140564,0.3449517488479614,65.94998931884766,25.07,0
-0.4522906541824341,-0.913707971572876,0.011545886285603,1.891749143600464,0.3453054428100586,65.94998931884766,25.07,0
-0.4525895714759826,-0.9110360741615297,-0.0485682561993598,0.9381573796272278,0.3455324172973633,66.09687805175781,25.07,0
-0.4919658005237579,-0.9429080486297609,-0.1095371544361114,-0.3580748736858368,0.3456780910491943,66.19114685058594,25.07,0
-0.5004419088363647,-0.9801549911499025,-0.1598590314388275,-1.6341614723205566,0.3457715809345245,66.25164031982422,25.07,0
-0.4722947180271148,-0.98166686296463,-0.1865549385547638,-2.757599353790283,0.3458315730094909,66.29045867919922,25.07,0
-0.4038515090942383,-0.9490504264831544,-0.1812957376241684,-3.6003646850585938,0.3449518382549286,66.31537628173828,25.11,0
-0.343135267496109,-0.911325752735138,-0.166725143790245,-3.951326370239258,0.3443872928619385,66.33135986328125,25.11,0
-0.3209643959999084,-0.8871162533760071,-0.1573745757341385,-3.81113076210022,0.3440249860286712,66.34162139892578,25.11,0
-0.3179319500923157,-0.916362166404724,-0.1625694632530212,-3.502624273300171,0.3437924981117248,66.34820556640625,25.11,0
-0.3215836882591247,-0.9519238471984864,-0.1715010106563568,-3.315390110015869,0.3436432778835296,66.35243225097656,25.11,0
-0.3015360534191131,-0.9635497331619264,-0.1660372167825698,-3.2812159061431885,0.343547523021698,66.35514068603516,25.11,0
-0.2718773186206817,-0.9766083359718324,-0.1569330990314483,-3.316606044769287,0.3434860706329345,66.35688018798828,25.11,0
-0.2416485100984573,-0.984988570213318,-0.1231017261743545,-3.335734844207764,0.3434466421604156,66.35800170898438,25.11,0
-0.2278471738100052,-1.0015621185302734,-0.1013906970620155,-3.2226204872131348,0.3438802659511566,66.35871887207031,25.11,0
-0.2245880365371704,-1.023393630981445,-0.0818600356578826,-2.9780664443969727,0.3441585302352905,66.35917663574219,25.11,0
-0.2672787010669708,-1.076588153839111,-0.0805219337344169,-2.8748645782470703,0.3443371057510376,66.3594741821289,25.11,0
-0.3226639926433563,-1.1890941858291626,-0.0852609872817993,-3.113154411315918,0.3444517254829407,66.35966491699219,25.11,0
-0.4141848385334015,-1.1829252243041992,-0.0491178184747695,-3.416543245315552,0.3445252776145935,66.35978698730469,25.11,0
-0.4953087270259857,-1.0726087093353271,0.0300545301288366,-3.313887119293213,0.3445724546909332,66.35986328125,25.11,0
-0.5249782800674438,-0.940238356590271,0.0920583382248878,-2.8001861572265625,0.3446027338504791,66.35990905761719,25.11,0
-0.465649664402008,-0.9000728726387024,0.1038599386811256,-2.287811040878296,0.3446221649646759,66.35993957519531,25.11,0
-0.3939893245697021,-0.935872495174408,0.1058357506990432,-1.9410854578018188,0.3437167704105377,66.3599624633789,25.11,0
-0.3256107270717621,-0.9588466882705688,0.1574836820363998,-1.3853973150253296,0.3431357443332672,66.35997772216797,25.11,0
-0.3153159320354461,-0.9567968249320984,0.2130194455385208,-0.1868833750486374,0.3427628874778747,66.3599853515625,25.11,0
-0.3255026638507843,-0.9274924993515016,0.2486591041088104,1.556714415550232,0.3425236046314239,66.35999298095703,25.11,0
-0.3656265437602997,-0.8639044761657715,0.2547372579574585,3.1951284408569336,0.3423700630664825,66.35999298095703,25.11,0
-0.3969735205173492,-0.8119018077850342,0.2530401051044464,4.042361736297607,0.3422715067863464,66.35999298095703,25.11,0
-0.4282857477664947,-0.772931694984436,0.2351576387882232,3.86955189704895,0.3422082662582397,66.35999298095703,25.11,0
-0.4595756828784942,-0.7311295866966248,0.2292794734239578,3.0672154426574707,0.3421676754951477,66.35999298095703,25.11,0
-0.4852535426616668,-0.6931078433990479,0.2255072146654129,2.2836289405822754,0.3430595099925995,66.35999298095703,25.11,0
-0.5017321109771729,-0.6463165879249573,0.2286841720342636,1.909740924835205,0.3436318337917328,66.35999298095703,25.11,0
-0.5123071074485779,-0.6162886619567871,0.2307229489088058,2.006563425064087,0.3439991176128387,66.35999298095703,25.11,0
-0.5190935134887695,-0.6250073313713074,0.2320313304662704,2.6025021076202397,0.344234824180603,66.35999298095703,25.11,0
-0.5290464162826538,-0.686580240726471,0.2328709661960601,3.6799609661102295,0.3443860709667206,66.35999298095703,25.11,0
-0.5354336500167847,-0.7652785778045654,0.2334097921848297,5.030605792999268,0.3444831371307373,66.51045989990234,25.11,0
-0.5227392911911011,-0.894151508808136,0.2281578034162521,6.388185024261475,0.3445454239845276,66.60702514648438,25.11,0
-0.508994996547699,-0.9936480522155762,0.2247873842716217,7.467190265655518,0.3445853888988495,66.66899108886719,25.11,0
-0.5057724714279175,-1.0574991703033447,0.2338199913501739,7.769133567810059,0.3455292582511902,66.7087631225586,25.09,0
-0.4869111180305481,-0.958530843257904,0.2340188324451446,6.820061206817627,0.3461349904537201,66.73428344726562,25.09,0
-0.458013653755188,-0.9006164073944092,0.2005597800016403,4.788718700408936,0.3465237021446228,66.75066375732422,25.09,0
-0.4114800691604614,-0.9642102122306824,0.145501047372818,2.39959979057312,0.3467731475830078,66.76117706298828,25.09,0
-0.3984107971191406,-1.010618805885315,0.1157652959227562,0.164216011762619,0.3469332456588745,66.7679214477539,25.09,0
-0.4068170189857483,-1.0292056798934937,0.1022803783416748,-1.839954137802124,0.3470359742641449,66.77224731445312,25.09,0
-0.3786250054836273,-1.0131447315216064,0.10482207685709,-3.534528970718384,0.3471018970012665,66.7750244140625,25.09,0
-0.3437396585941314,-0.9748488664627076,0.1120509728789329,-4.686495780944824,0.347144216299057,66.77680969238281,25.09,0
-0.3157545030117035,-0.9054906368255616,0.1390811502933502,-5.157068729400635,0.3462531566619873,66.7779541015625,25.09,0
-0.3089907765388489,-0.8721760511398315,0.1564275622367859,-5.072136878967285,0.3456813097000122,66.7786865234375,25.09,0
-0.332639068365097,-0.8787855505943298,0.1563639491796493,-4.6952009201049805,0.3453143537044525,66.77915954589844,25.09,0
-0.3422174155712127,-0.8550382256507874,0.1563231199979782,-4.274176120758057,0.3450788557529449,66.77945709228516,25.09,0
-0.3315709233283996,-0.8342007994651794,0.1674924790859222,-4.025482177734375,0.3449277281761169,66.77964782714844,25.09,0
-0.2911519706249237,-0.8208285570144653,0.1858558803796768,-4.037848472595215,0.3448307514190674,66.77976989746094,25.09,0
-0.2540178596973419,-0.8234425783157349,0.19764044880867,-4.124601364135742,0.3447684943675995,66.77985382080078,25.09,0
-0.2189917862415313,-0.8699023127555847,0.199605330824852,-4.036971092224121,0.3447285592556,66.7799072265625,25.09,0
-0.2301007062196731,-0.9500974416732788,0.1784751862287521,-3.808771371841431,0.3447029292583465,66.77993774414062,25.09,0
-0.2428275495767593,-1.012757658958435,0.1537195146083831,-3.5870919227600098,0.3446864783763885,66.77996063232422,25.09,0
-0.2677882313728332,-1.1257404088974,0.0986483395099639,-3.358849048614502,0.3446759283542633,66.77997589111328,25.09,0
-0.2950021028518677,-1.2318328619003296,0.0465135015547275,-3.069072723388672,0.3446691632270813,66.77998352050781,25.09,0
-0.3460530638694763,-1.344699144363403,-0.0149325057864189,-2.729060173034668,0.3446648120880127,66.77999114990234,25.09,0
-0.4347923696041107,-1.2156102657318115,0.0016127261333167,-2.2529141902923584,0.3446620106697082,66.77999114990234,25.09,0
-0.4861423671245575,-1.015215277671814,0.0514149256050586,-1.4027997255325315,0.344660222530365,66.77999114990234,25.09,0
-0.4183359146118164,-0.925797700881958,0.0889728814363479,-0.036835316568613,0.3446590602397918,66.77999114990234,25.09,0
-0.3356372117996216,-0.9243923425674438,0.1018798723816871,1.5921028852462769,0.3437404632568359,66.77999114990234,25.09,0
-0.3105548024177551,-0.9458816051483154,0.0877717360854148,2.927650213241577,0.3431509733200073,66.77999114990234,25.09,0
-0.3056538999080658,-0.9260855317115784,0.0731201693415641,3.627094268798828,0.3427726626396179,66.77999114990234,25.09,0
-0.3137043416500091,-0.8797948956489563,0.0581198632717132,3.81084656715393,0.3425298929214477,66.77999114990234,25.09,0
-0.3412617444992065,-0.8053060173988342,0.0540913045406341,3.6887357234954834,0.3423740863800049,66.77999114990234,25.09,0
-0.3701420426368713,-0.7407100200653076,0.0571037828922271,3.316600799560547,0.3422740995883941,66.77999114990234,25.09,0
-0.3998713195323944,-0.6936582326889038,0.0646347925066948,2.7410240173339844,0.3422099351882934,66.93404388427734,25.09,0
-0.4301454126834869,-0.6746586561203003,0.0750655382871627,2.08146333694458,0.3421687483787536,67.03290557861328,25.09,0
-0.4607691168785095,-0.6456725001335144,0.0873571634292602,1.400249719619751,0.3426012694835663,67.09635162353516,25.09,0
-0.4860194325447082,-0.5990819931030273,0.0896474421024322,0.7732095122337341,0.3428788185119629,67.13706970214844,25.09,0
-0.5078213810920715,-0.585976243019104,0.0911172181367874,0.3636460900306701,0.3430569469928741,67.16320037841797,25.09,0
-0.5442037582397461,-0.6335434317588806,0.0920604318380355,0.1688807606697082,0.3431712687015533,67.17996978759766,25.09,0
-0.5563563108444214,-0.7312425971031189,0.0926657319068908,0.1334559768438339,0.3432446122169494,67.19072723388672,25.09,0
-0.5473617911338806,-0.872309148311615,0.0818586274981498,0.5298837423324585,0.343291699886322,67.1976318359375,25.09,0
-0.5359918475151062,-1.0076197385787964,0.0805210247635841,1.6476889848709106,0.3433219194412231,67.20206451416016,25.09,0
-0.5342930555343628,-1.0552698373794556,0.0964559540152549,2.974069833755493,0.3433412909507751,67.20491027832031,25.09,0
-0.4940184354782104,-0.9571001529693604,0.123475395143032,3.5458240509033203,0.3433537185192108,67.20673370361328,25.09,0
-0.445781409740448,-1.0172514915466309,0.1128260493278503,3.1209936141967773,0.3433617055416107,67.20790100097656,25.09,0
-0.4316189885139465,-1.095037579536438,0.117187462747097,2.1855854988098145,0.3433668315410614,67.20865631103516,25.09,0
-0.433725893497467,-1.1225651502609253,0.12558414041996,1.0550731420516968,0.343370109796524,67.20913696289062,25.09,0
-0.4070891141891479,-1.1234374046325684,0.1309726387262344,-0.1719852089881897,0.3433722257614136,67.20944213867188,25.09,0
-0.3340174257755279,-1.056823968887329,0.1680173128843307,-1.1170740127563477,0.343373566865921,67.20964050292969,25.09,0
-0.2815264463424682,-0.9916841387748718,0.2029860019683838,-1.4620494842529297,0.3433744311332702,67.20977020263672,25.09,0
-0.2534385323524475,-0.944283366203308,0.2198291271924972,-1.4147417545318604,0.3433749973773956,67.20985412597656,25.09,0
-0.2522066533565521,-0.9138643145561218,0.2082469761371612,-1.287652850151062,0.3438342809677124,67.20990753173828,25.09,0
-0.2570138871669769,-0.8943430781364441,0.1840208917856216,-1.1021997928619385,0.3441290259361267,67.2099380493164,25.09,0
-0.2489033341407776,-0.881815493106842,0.1572784334421157,-0.8685442805290222,0.3443181812763214,67.2099609375,25.09,0
-0.2325028926134109,-0.8569827079772949,0.1289211213588714,-0.7400930523872375,0.3444395661354065,67.20997619628906,25.09,0
-0.2219780385494232,-0.8298509120941162,0.1107230260968208,-0.7006514072418213,0.3445174694061279,67.2099838256836,25.09,0
-0.2320171147584915,-0.8348303437232971,0.0822512134909629,-0.5678627490997314,0.3445674479007721,67.20999145507812,25.09,0
-0.2552529573440552,-0.8548191785812378,0.0527840927243232,-0.2891875505447387,0.3445995450019836,67.20999145507812,25.09,0
-0.2813599109649658,-0.9012335538864136,0.0002871486067306,0.0651963651180267,0.3446201384067535,67.20999145507812,25.09,0
-0.2701249718666076,-0.9981929063796996,-0.0613912418484687,0.464583158493042,0.343715488910675,67.20999145507812,25.09,0
-0.2685128152370453,-1.1163935661315918,-0.1177662089467048,0.788955569267273,0.3431349396705627,67.20999145507812,25.09,0
-0.2898693382740021,-1.2482256889343262,-0.1819332838058471,0.8430683612823486,0.3427623808383941,67.20999145507812,25.09,0
-0.3371613621711731,-1.3608168363571167,-0.223112016916275,0.5876062512397766,0.3425232768058777,67.20999145507812,25.09,0
-0.412292867898941,-1.1811715364456177,-0.1655715405941009,0.2015456855297088,0.3423698246479034,67.20999145507812,25.09,0
-0.4101279675960541,-0.9875166416168212,-0.0838631838560104,-0.1106921434402465,0.3422713577747345,67.20999145507812,25.09,0
-0.3583586812019348,-0.9192178249359132,-0.0146341435611248,-0.2859903872013092,0.3422081768512726,67.20999145507812,25.09,0
-0.3139405846595764,-0.9817453026771544,0.0074019720777869,-0.4056518673896789,0.3421676158905029,67.32105255126953,25.09,0
-0.2742400765419006,-1.0498607158660889,0.0103479344397783,-0.4537830948829651,0.3439776599407196,67.39232635498047,25.11,0
-0.2431647926568985,-1.037595510482788,-0.0101526137441396,-0.3736111223697662,0.3451392650604248,67.43806457519531,25.11,0
-0.2400157898664474,-0.973746657371521,-0.0233086850494146,-0.3902302980422973,0.3458847105503082,67.46741485595703,25.11,0
-0.249190479516983,-0.9159788489341736,-0.0205559469759464,-0.8272220492362976,0.3463630974292755,67.48625183105469,25.11,0
-0.2718715965747833,-0.8509178757667542,-0.0019960748031735,-1.519654393196106,0.3466700911521911,67.49834442138672,25.11,0
-0.2752314805984497,-0.8035677075386047,0.0099145825952291,-1.9389395713806152,0.3468671143054962,67.506103515625,25.11,0
-0.2605943381786346,-0.7899744510650635,0.0007648339960724,-1.8282595872879028,0.3469935357570648,67.51107788085938,25.11,0
-0.2623966038227081,-0.781251072883606,-0.0274980440735816,-1.3774785995483398,0.3470746576786041,67.51427459716797,25.11,0
-0.269150972366333,-0.7644573450088501,-0.0456355325877666,-0.9556379914283752,0.3466677963733673,67.51632690429688,25.11,0
-0.2902788519859314,-0.7536801099777222,-0.0516773574054241,-0.8640537261962891,0.3464066982269287,67.51763916015625,25.11,0
-0.3150330781936645,-0.7691550254821777,-0.0443591028451919,-1.0847210884094238,0.3462391495704651,67.51848602294922,25.11,0
-0.3477122187614441,-0.8126725554466248,-0.0228693448007106,-1.1833418607711792,0.3461316227912903,67.51902770996094,25.11,0
-0.3686838150024414,-0.9917395114898682,-0.0090784542262554,-0.6698362827301025,0.3460626304149627,67.51937103271484,25.11,0
-0.3765444159507751,-1.1626321077346802,-0.0114238038659095,0.4693641066551208,0.3460183441638946,67.51959228515625,25.11,0
-0.3759911060333252,-1.1547478437423706,-0.0017333653522655,1.6661721467971802,0.3459899127483368,67.51973724365234,25.11,0
-0.3644405007362366,-1.0041460990905762,0.0156809501349926,2.2335903644561768,0.3459716737270355,67.51982879638672,25.11,0
-0.3066480159759521,-0.9690740704536438,0.0212586801499128,2.0997488498687744,0.3445828258991241,67.51988983154297,25.11,0
-0.2751578986644745,-1.086511254310608,0.0304359197616577,1.8490585088729856,0.3436915278434753,67.51992797851562,25.11,0
-0.2773404419422149,-1.195462346076965,0.0475208945572376,1.9246299266815183,0.3431195616722107,67.51995086669922,25.11,0
-0.2675455212593078,-1.1534253358840942,0.0528872720897197,2.220324993133545,0.3427524864673614,67.51996612548828,25.11,0
-0.2668574750423431,-1.0984596014022827,0.0787222012877464,2.496066808700561,0.3425169289112091,67.51997375488281,25.11,0
-0.277611494064331,-1.0184035301208496,0.1176926717162132,2.665857076644897,0.3423657715320587,67.51998138427734,25.11,0
-0.2957083284854889,-0.97822368144989,0.1371039003133773,2.559864044189453,0.3422687649726867,67.51998901367188,25.11,0
-0.2905285358428955,-0.946840763092041,0.1327675879001617,2.0046136379241943,0.3422065079212188,67.51998901367188,25.11,0
-0.2480200082063675,-0.9043099284172058,0.1299847960472107,1.1574729681015017,0.3435437083244324,67.51998901367188,25.11,0
-0.2039471566677093,-0.8658205270767212,0.1393945068120956,0.4633586406707763,0.3444018363952636,67.51998901367188,25.11,0
-0.14767487347126,-0.8299247026443481,0.1678242087364196,0.060906883329153,0.3449525535106659,67.51998901367188,25.11,0
-0.117160327732563,-0.7956932783126831,0.1748732030391693,-0.3764922320842743,0.3453059494495392,67.51998901367188,25.11,0
-0.1367622762918472,-0.7961166501045227,0.1234191060066223,-1.0154473781585691,0.3455327451229095,67.51998901367188,25.11,0
-0.1885260939598083,-0.8355727791786194,0.0456166304647922,-1.4935609102249146,0.345678299665451,67.51998901367188,25.11,0
-0.238538458943367,-0.8888822793960571,-0.0211058408021926,-1.549606442451477,0.3457717001438141,67.51998901367188,25.11,0
-0.2818290591239929,-0.9902665615081788,-0.0863155797123909,-1.3670361042022705,0.3458316326141357,67.51998901367188,25.11,0
-0.3096104860305786,-1.0721224546432495,-0.1337612122297287,-1.1173176765441897,0.3449518978595733,67.63821411132812,25.09,0
-0.3386345505714416,-1.2254128456115725,-0.1642090827226638,-0.8101771473884583,0.3443873226642608,67.7140884399414,25.09,0
-0.3852494060993194,-1.3013947010040283,-0.1445643603801727,-0.6524803638458252,0.3440250158309936,67.76277923583984,25.09,0
-0.4207619130611419,-1.2829821109771729,-0.0871753096580505,-0.7805644869804382,0.3437924981117248,67.79402923583984,25.09,0
-0.3931718170642853,-1.09763503074646,-0.0111619001254439,-0.8520137667655945,0.3436432778835296,67.81407928466797,25.09,0
-0.3138905465602875,-1.0178743600845337,0.0320213548839092,-0.4464612603187561,0.343547523021698,67.82695007324219,25.09,0
-0.1622524708509445,-1.0450574159622192,0.0429405607283115,0.4085065424442291,0.3434860706329345,67.835205078125,25.09,0
-0.0537443198263645,-1.0625019073486328,0.0387523286044597,1.3548414707183838,0.3434466421604156,67.84050750732422,25.09,0
0.0102921826764941,-1.0345124006271362,0.0528578869998455,1.940649390220642,0.3443395495414734,67.84391021728516,25.09,0
-0.0269817151129245,-0.9045948386192322,0.0619100220501422,1.8472697734832764,0.3449125587940216,67.8460922241211,25.09,0
-0.0900863781571388,-0.8044278621673584,0.0509258359670639,1.199801683425903,0.3452802896499634,67.84748840332031,25.09,0
-0.1697677373886108,-0.7681353688240051,0.0046923980116844,0.426036387681961,0.3455162942409515,67.848388671875,25.09,0
-0.2320981919765472,-0.7560404539108276,-0.0249775610864162,-0.1708337366580963,0.3456677496433258,67.84896850585938,25.09,0
-0.2776960730552673,-0.7482786178588867,-0.0272247102111578,-0.5717834830284119,0.3457649350166321,67.84933471679688,25.09,0
-0.3405448198318481,-0.7265042066574097,0.0161153953522443,-0.9938884377479552,0.3458273112773895,67.84957122802734,25.09,0
-0.4088664054870605,-0.7069329023361206,0.0607219003140926,-1.6946802139282229,0.3458673357963562,67.84972381591797,25.09,0
-0.4639067947864532,-0.6943731307983398,0.1173366606235504,-2.549238920211792,0.3449747860431671,67.84982299804688,25.09,0
-0.4936307668685913,-0.7310951948165894,0.1648643016815185,-3.126306295394897,0.344402015209198,67.84988403320312,25.09,0
-0.5350970029830933,-0.7938457131385803,0.2009625881910324,-3.2279417514801025,0.3440344333648681,67.84992218017578,25.09,0
-0.5561099052429199,-0.9068864583969116,0.2073350697755813,-2.942073106765747,0.3437985479831695,67.8499526977539,25.09,0
-0.5528014302253723,-1.0298094749450684,0.2002290040254593,-2.357370615005493,0.3436471819877624,67.84996795654297,25.09,0
-0.5170915722846985,-1.1142921447753906,0.1788754165172577,-1.6704580783843994,0.3435500264167785,67.8499755859375,25.09,0
-0.5053706169128418,-1.19089937210083,0.1651719212532043,-1.2260546684265137,0.3434876799583435,67.84998321533203,25.09,0
-0.509044349193573,-1.1504970788955688,0.1507800221443176,-1.0304265022277832,0.3434476852416992,67.84999084472656,25.09,0
-0.4946085810661316,-1.0685914754867554,0.1079574897885322,-0.6935116052627563,0.3438809216022491,67.84999084472656,25.09,0
-0.4741489887237549,-1.03842031955719,0.0692809000611305,-0.1369543224573135,0.3441589474678039,67.84999084472656,25.09,0
-0.5002036094665527,-1.0974270105361938,0.0108738495036959,0.266785591840744,0.3443373739719391,67.84999084472656,25.09,0
-0.5169239640235901,-1.168880820274353,-0.0489995367825031,0.3754144310951233,0.3444518744945526,67.84999084472656,25.09,0
-0.4884697198867798,-1.169953465461731,-0.0930206030607223,0.3304837644100189,0.3445253670215606,67.84999084472656,25.09,0
-0.3806450366973877,-1.142652988433838,-0.1212707906961441,-0.045860007405281,0.344572514295578,67.84999084472656,25.09,0
-0.2946560382843017,-1.1251331567764282,-0.1338023543357849,-1.0432991981506348,0.3446027934551239,67.84999084472656,25.09,0
-0.2506687939167022,-1.0803033113479614,-0.1418443918228149,-2.3676700592041016,0.3446222245693207,67.84999084472656,25.09,0
-0.2280381023883819,-1.0515340566635132,-0.1526030898094177,-3.314304828643799,0.3437168300151825,67.84999084472656,25.11,0
-0.2135150134563446,-1.0274738073349,-0.1651051789522171,-3.556377649307251,0.343135803937912,67.99687957763672,25.11,0
-0.1985971629619598,-0.9896422624588012,-0.1787260621786117,-3.425120115280152,0.3427629172801971,68.09114837646484,25.11,0
-0.1834259778261184,-0.9597663283348083,-0.1818693876266479,-3.480607032775879,0.3425236344337463,68.15164184570312,25.11,0
-0.1736899763345718,-0.9853758811950684,-0.1782888174057006,-4.032106399536133,0.3423700630664825,68.19046020507812,25.11,0
-0.1842352896928787,-0.9626262187957764,-0.1647954732179641,-4.948491096496582,0.3422715067863464,68.21537780761719,25.11,0
-0.2021982222795486,-0.9200379252433776,-0.1449406743049621,-5.712120056152344,0.3422082662582397,68.23136138916016,25.11,0
-0.2137257903814315,-0.9430871605873108,-0.1321990042924881,-5.682700157165527,0.3421676754951477,68.24162292480469,25.11,0
-0.2323190718889236,-0.957878828048706,-0.1240221336483955,-4.513813018798828,0.3430595099925995,68.24820709228516,25.11,0
-0.2722400426864624,-0.9057957530021667,-0.1131769120693206,-2.3414061069488525,0.3436318337917328,68.25243377685547,25.11,0
-0.3258478939533233,-0.782807469367981,-0.0502393282949924,0.4964974224567413,0.3439991176128387,68.25514221191406,25.11,0
-0.3882392048835754,-0.7206739783287048,0.0181392598897218,3.9047818183898926,0.344234824180603,68.25688171386719,25.11,0
-0.5234405398368835,-0.9382979273796082,0.0788140296936035,7.808075904846191,0.3443860709667206,68.25800323486328,25.11,0
-0.5878138542175293,-1.0835541486740112,0.106556050479412,11.495235443115234,0.3444831371307373,68.25872039794922,25.11,0
-0.4947783648967743,-1.1095980405807495,0.0739793106913566,13.693060874938965,0.3445454239845276,68.2591781616211,25.11,0
-0.2727380692958832,-1.154300332069397,0.103453405201435,13.591651916503906,0.3445853888988495,68.25947570800781,25.11,0
-0.1302454024553299,-1.149401068687439,0.161552608013153,11.423602104187012,0.343693196773529,68.2596664428711,25.11,0
-0.0947795510292053,-1.146256923675537,0.2268262058496475,7.929300308227539,0.3431206345558166,68.2597885131836,25.11,0
-0.116801805794239,-1.1442391872406006,0.274312824010849,3.827501773834229,0.3427532017230987,68.2598648071289,25.11,0
-0.2316943556070327,-1.1149555444717407,0.2879936695098877,-0.198417991399765,0.3425174057483673,68.2599105834961,25.11,0
-0.316621333360672,-1.0401852130889893,0.2799799144268036,-3.591684103012085,0.3423660695552826,68.25994110107422,25.11,0
-0.3599270284175873,-0.9754086136817932,0.2580438256263733,-6.052309989929199,0.3422689437866211,68.25996398925781,25.11,0
-0.3821203708648681,-0.9114475846290588,0.2103798687458038,-7.495260238647461,0.3422066271305084,68.25997924804688,25.11,0
-0.3963627815246582,-0.8815966248512268,0.1629985570907592,-8.045092582702637,0.3421666324138641,68.2599868774414,25.11,0
-0.4222960472106933,-0.9016244411468506,0.1046030893921852,-7.828313827514648,0.3435181081295013,68.25999450683594,25.11,0
-0.4333407580852508,-0.9368682503700256,0.0335415974259376,-6.6215901374816895,0.344385415315628,68.25999450683594,25.11,0
-0.4348308444023132,-0.9706812500953674,-0.0232571251690387,-3.9627492427825928,0.3449420034885406,68.25999450683594,25.11,0
-0.4189937710762024,-1.065151572227478,-0.0597072802484035,0.3695697486400604,0.3452991843223572,68.25999450683594,25.11,0
-0.397634893655777,-1.1201794147491455,-0.0775011181831359,5.937046527862549,0.3455283939838409,68.25999450683594,25.11,0
-0.3727324604988098,-1.0883197784423828,-0.0665290802717208,11.419445037841797,0.3456754982471466,68.25999450683594,25.11,0
-0.3567515015602112,-0.9335275292396544,-0.0818789526820182,15.034462928771973,0.3457699120044708,68.25999450683594,25.11,0
-0.3632891774177551,-0.9013640284538268,-0.1253162622451782,15.709970474243164,0.345830500125885,68.25999450683594,25.11,0
-0.4290601909160614,-0.9702877402305604,-0.2091695815324783,13.839876174926758,0.3458693623542785,68.25999450683594,25.09,0
-0.4936593472957611,-1.0201168060302734,-0.2797751426696777,10.715914726257324,0.345894306898117,68.25999450683594,25.09,0
-0.4567465186119079,-1.0520942211151123,-0.3306834995746612,7.349757194519043,0.3459103107452392,68.44987487792969,25.09,0
-0.3602869212627411,-1.039028882980347,-0.3353646695613861,4.039544105529785,0.345920592546463,68.57172393798828,25.09,0
-0.270395815372467,-1.0138509273529053,-0.3159776926040649,0.9479446411132812,0.3459271788597107,68.6499252319336,25.09,0
-0.2295022159814834,-0.9585087299346924,-0.2699495851993561,-1.5053833723068235,0.3459314107894897,68.70011138916016,25.09,0
-0.2256501466035843,-0.9006022214889526,-0.2348136305809021,-3.1442742347717285,0.345934122800827,68.73231506347656,25.09,0
-0.2343736588954925,-0.874636709690094,-0.2234609425067901,-4.335740566253662,0.3459358811378479,68.75298309326172,25.09,0
-0.2399719208478927,-0.9083535075187684,-0.2273709923028946,-5.437117099761963,0.3454777002334595,68.76624298095703,25.09,0
-0.243564561009407,-0.9691754579544068,-0.229880228638649,-6.462766647338867,0.3451836705207824,68.7747573852539,25.09,0
-0.2290767878293991,-1.0417940616607666,-0.2146971970796585,-7.34308910369873,0.3449949920177459,68.78022003173828,25.09,0
-0.214181587100029,-1.0660054683685305,-0.1881602704524994,-8.015506744384766,0.3448739051818847,68.78372192382812,25.09,0
-0.1934271603822708,-1.0759451389312744,-0.154337078332901,-8.439860343933105,0.34479621052742,68.78597259521484,25.09,0
-0.2024992555379867,-1.1830837726593018,-0.1382290720939636,-8.701437950134277,0.3447463512420654,68.78741455078125,25.09,0
-0.241907849907875,-1.1958614587783811,-0.1166963353753089,-8.897964477539062,0.344714343547821,68.78833770751953,25.09,0
-0.3343713283538818,-1.0641170740127563,-0.0357045717537403,-9.020501136779783,0.3446938097476959,68.78893280029297,25.09,0
-0.4161001443862915,-0.9459844827651978,0.0330646038055419,-9.152876853942873,0.3442217111587524,68.78931427001953,25.09,0
-0.4853423237800598,-0.99892258644104,0.0436100587248802,-9.409791946411133,0.3439187407493591,68.78955841064453,25.09,0
-0.4793980121612549,-1.0776773691177368,0.0391819737851619,-9.588994979858398,0.3437243103981018,68.78971862792969,25.09,0
-0.4196055233478546,-1.100228786468506,0.0531336069107055,-9.14869785308838,0.3435995280742645,68.7898178100586,25.09,0
-0.2972675561904907,-1.086712121963501,0.1068691611289978,-7.576413631439209,0.3435194492340088,68.78988647460938,25.09,0
-0.218758076429367,-1.0612446069717407,0.1581468731164932,-4.528926849365234,0.3434680700302124,68.78992462158203,25.09,0
-0.2411462813615799,-1.0169122219085691,0.1966517269611358,0.0026468036230653,0.3434350788593292,68.78995513916016,25.09,0
-0.3170892596244812,-0.9716688990592957,0.1821774989366531,5.28241491317749,0.3434139192104339,68.78997039794922,25.09,0
-0.3826184272766113,-0.9370365142822266,0.1504976749420166,9.903072357177734,0.342941403388977,68.78997802734375,25.09,0
-0.4414645731449127,-0.8868225812911987,0.0965807437896728,12.76803207397461,0.3426381647586822,68.78998565673828,25.09,0
-0.4904242157936096,-0.8490003943443298,0.0619799606502056,13.793354034423828,0.3424435555934906,68.78999328613281,25.09,0
-0.521843671798706,-0.819130539894104,0.0453729443252086,13.401651382446287,0.3423186838626861,68.78999328613281,25.09,0
-0.5364090800285339,-0.7999618053436279,0.0403132922947406,11.957282066345217,0.3422385454177856,68.78999328613281,25.09,0
-0.5457563400268555,-0.7876603603363037,0.0370662994682788,9.955595970153809,0.3421871066093445,68.78999328613281,25.09,0
-0.5461571216583252,-0.7965593338012695,0.0237870179116725,7.997504711151123,0.3421541154384613,68.78999328613281,25.09,0
-0.546414315700531,-0.8246613144874573,0.0096673648804426,6.289510250091553,0.3421329259872436,68.78999328613281,25.09,0
-0.5521771311759949,-0.9098688364028932,-0.0217849146574735,4.691856861114502,0.3434964716434479,68.78999328613281,25.11,0
-0.550277590751648,-1.0317233800888062,-0.0531647242605686,3.2904045581817627,0.3443715274333954,68.78999328613281,25.11,0
-0.5434607863426208,-1.0763360261917114,-0.0733024775981903,2.473432302474976,0.3449330925941467,68.78999328613281,25.11,0
-0.5222928524017334,-0.9762169718742372,-0.0750301852822303,2.475785255432129,0.3452934622764587,68.94046020507812,25.11,0
-0.497512936592102,-0.8503908514976501,-0.0817366987466812,2.9286997318267822,0.3455247282981872,69.03702545166016,25.11,0
-0.5151972770690918,-0.8480117321014404,-0.1420183032751083,2.8861746788024902,0.345673143863678,69.09899139404297,25.11,0
-0.5713282823562622,-0.9584404230117798,-0.2142902016639709,1.583487629890442,0.345768392086029,69.13876342773438,25.11,0
-0.6017521023750305,-1.029307246208191,-0.2662679255008697,-0.7070276141166687,0.3458295166492462,69.1642837524414,25.11,0
-0.5429075360298157,-1.0635899305343628,-0.2772331535816192,-3.0188536643981934,0.3449505269527435,69.1806640625,25.11,0
-0.4659600555896759,-1.0631994009017944,-0.2618789076805115,-4.720987796783447,0.3443864583969116,69.19117736816406,25.11,0
-0.3829929530620575,-1.0069711208343506,-0.2128410041332245,-5.755998134613037,0.3440244495868683,69.19792175292969,25.11,0
-0.3689338564872741,-0.9317026138305664,-0.1813713014125824,-6.126437187194824,0.3437921404838562,69.2022476196289,25.11,0
-0.3823026418685913,-0.8889973759651184,-0.1667736321687698,-5.894845962524414,0.3436430692672729,69.20502471923828,25.11,0
-0.4244686067104339,-0.889580488204956,-0.1686012297868728,-5.481113433837891,0.3435474038124084,69.2068099975586,25.11,0
-0.4459305107593536,-0.8955524563789368,-0.1697740852832794,-5.40906286239624,0.3434860110282898,69.20795440673828,25.11,0
-0.4261168837547302,-0.9049826860427856,-0.1481356620788574,-5.706752300262451,0.3434466123580932,69.20868682861328,25.11,0
-0.3910105526447296,-0.9782077670097352,-0.0950649380683898,-5.90854024887085,0.3434213101863861,69.20915985107422,25.11,0
-0.3628835678100586,-1.030797243118286,-0.0442138835787773,-5.715604305267334,0.3434050679206848,69.20945739746094,25.11,0
-0.3224421739578247,-1.0365571975708008,-0.0227761510759592,-5.2872700691223145,0.3433946669101715,69.20964813232422,25.11,0
-0.2852936685085296,-1.0682425498962402,-0.0258119720965623,-4.836843490600586,0.3433879911899566,69.20977020263672,25.11,0
-0.3118338584899902,-1.0997718572616575,-0.0053690895438194,-4.382987022399902,0.3433836996555328,69.20985412597656,25.11,0
-0.4016368985176086,-1.0640277862548828,0.0693254992365837,-3.962755680084229,0.3433809578418731,69.20990753173828,25.11,0
-0.4760606586933136,-1.0019049644470217,0.1284557282924652,-3.6500842571258554,0.3433791995048523,69.2099380493164,25.11,0
-0.5294193029403687,-0.8948647975921631,0.1719998866319656,-3.248805522918701,0.3433780670166015,69.2099609375,25.11,0
-0.5468685030937195,-0.8429659008979797,0.1887484639883041,-2.324928998947144,0.3424594700336456,69.20997619628906,25.11,0
-0.496490865945816,-0.8544423580169678,0.1715078651905059,-0.7396648526191711,0.341869980096817,69.2099838256836,25.11,0
-0.4249769747257232,-0.873002827167511,0.1548460721969604,1.1267369985580444,0.3414916694164276,69.20999145507812,25.11,0
-0.3790834844112396,-0.896109402179718,0.1497512608766555,2.869037628173828,0.3412488996982574,69.20999145507812,25.11,0
-0.3664250075817108,-0.9053401350975036,0.1632750332355499,4.474376201629639,0.3410930931568146,69.20999145507812,25.11,0
-0.3806926012039184,-0.9056661128997804,0.1663560420274734,5.812691688537598,0.3409931063652038,69.20999145507812,25.11,0
-0.4234353899955749,-0.9058752655982972,0.1571377068758011,6.277462482452393,0.3409289419651031,69.20999145507812,25.11,0
-0.4620607793331146,-0.8836184144020081,0.1512219011783599,5.601264953613281,0.3408877551555633,69.20999145507812,25.11,0
-0.4924461245536804,-0.85813969373703,0.1418277025222778,4.389901161193848,0.3422381281852722,69.20999145507812,25.11,0
-0.5287389755249023,-0.8641800284385681,0.1246035024523735,3.376067638397217,0.3431047201156616,69.20999145507812,25.11,0
-0.5632252097129822,-0.8512630462646484,0.1135499998927116,2.7039523124694824,0.343660831451416,69.20999145507812,25.11,0
-0.5909542441368103,-0.8541691899299622,0.1008587256073951,2.161567449569702,0.3440177142620086,69.20999145507812,25.11,0
-0.591955840587616,-0.8672297596931458,0.1095075160264968,1.673775553703308,0.3442467451095581,69.34971618652344,25.11,0
-0.5814030766487122,-0.8924046158790588,0.1206555888056755,1.317747950553894,0.3443937301635742,69.43938446044922,25.11,0
-0.5578376054763794,-0.8917670845985413,0.1446031033992767,1.1107653379440308,0.3444880545139313,69.4969253540039,25.11,0
-0.5259212851524353,-0.8745645880699158,0.1599712371826172,1.0030138492584229,0.3445485830307007,69.53385162353516,25.11,0
-0.4942436814308166,-0.874720573425293,0.1810291707515716,1.0126818418502808,0.3436695635318756,69.55754852294922,25.11,0
-0.4683170616626739,-0.86922287940979,0.1945429444313049,1.1299461126327517,0.3431054651737213,69.57275390625,25.11,0
-0.4404833018779754,-0.8489014506340027,0.2032153010368347,1.090557098388672,0.342743456363678,69.58251190185547,25.11,0
-0.4114256501197815,-0.8526536822319031,0.19198739528656,0.5063977241516113,0.3425111472606659,69.58877563476562,25.11,0
-0.3871803283691406,-0.8718549609184265,0.1903797537088394,-0.620823085308075,0.3423620462417602,69.5927963256836,25.11,0
-0.3772188723087311,-0.8953728079795837,0.194945827126503,-1.781282663345337,0.3422663807868957,69.59537506103516,25.11,0
-0.3820217251777649,-0.8936718702316284,0.1978760808706283,-2.508085966110229,0.3422049880027771,69.59703063964844,25.11,0
-0.3907016813755035,-0.8925803303718567,0.1997565478086471,-2.845533847808838,0.3421655893325805,69.59809112548828,25.11,0
-0.4074675440788269,-0.8918797969818115,0.2121588736772537,-3.0620884895324707,0.3435174524784088,69.5987777709961,25.11,0
-0.4126291275024414,-0.8914302587509155,0.2257157415151596,-3.1938955783843994,0.3443849980831146,69.59921264648438,25.11,0
-0.3935504257678985,-0.8575551509857178,0.2400135397911071,-3.124431133270264,0.3449417352676391,69.59949493408203,25.11,0
-0.375709056854248,-0.8246204853057861,0.2547868192195892,-2.936549663543701,0.3452990055084228,69.59967803955078,25.11,0
-0.3698572516441345,-0.7978871464729309,0.2698652148246765,-2.8697168827056885,0.3455283045768738,69.59979248046875,25.11,0
-0.3828952312469482,-0.7751334309577942,0.2795416712760925,-2.998790979385376,0.3456754386425018,69.59986877441406,25.11,0
-0.4024578034877777,-0.7605314254760742,0.2801536917686462,-3.1461098194122314,0.345769852399826,69.59991455078125,25.11,0
-0.4262074828147888,-0.7623562216758728,0.2749486863613128,-3.1260080337524414,0.3458304405212402,69.59994506835938,25.11,0
-0.4582419991493225,-0.7803205847740173,0.2772061824798584,-2.916066169738769,0.3458693325519562,69.59996795654297,25.11,0
-0.4787998795509338,-0.7974469065666199,0.2842526733875274,-2.5448875427246094,0.345894306898117,69.5999755859375,25.11,0
-0.4807972013950348,-0.7972420454025269,0.2831769287586212,-2.048741102218628,0.3459103107452392,69.59998321533203,25.11,0
-0.4708834290504455,-0.8027083277702332,0.2824865877628326,-1.5010579824447632,0.345920592546463,69.59999084472656,25.11,0
-0.4701191186904907,-0.8118140697479248,0.2876413464546203,-0.9023888111114502,0.3459271788597107,69.59999084472656,25.11,0
-0.4864219427108764,-0.8232553601264954,0.2853516042232513,-0.1456095278263092,0.3459314107894897,69.59999084472656,25.11,0
-0.5080797076225281,-0.8249999284744263,0.2838821709156036,0.766374409198761,0.345934122800827,69.59999084472656,25.11,0
-0.527576208114624,-0.831717312335968,0.2717436254024505,1.5845005512237549,0.3459358811378479,69.59999084472656,25.11,0
-0.5400879383087158,-0.8360280990600586,0.2639538049697876,2.005632162094116,0.3459370136260986,69.59999084472656,25.11,0
-0.5537149906158447,-0.8164034485816956,0.2645525336265564,1.974953770637512,0.3459377288818359,69.59999084472656,25.11,0
-0.5568622946739197,-0.7926139235496521,0.2649367451667785,1.8119630813598635,0.3459381759166717,69.59999084472656,25.11,0
-0.5700775980949402,-0.782944917678833,0.2651833295822143,1.9832234382629397,0.3459384739398956,69.59999084472656,25.11,0
-0.6121450662612915,-0.7823377251625061,0.2709393501281738,2.6054368019104004,0.3459386527538299,69.59999084472656,25.11,0
-0.6447393298149109,-0.770752489566803,0.2746332287788391,3.2913434505462646,0.3459387719631195,69.73255157470703,25.11,0
-0.6544609069824219,-0.7577199935913086,0.2826015055179596,3.5237295627593994,0.3459388613700866,69.81761932373047,25.11,0
-0.6383085250854492,-0.721367597579956,0.2821173071861267,3.063823699951172,0.3459389209747314,69.87220764160156,25.11,0
-0.6279428601264954,-0.6868431568145752,0.2762088179588318,2.12381911277771,0.3459389507770538,69.90724182128906,25.11,0
-0.6436818838119507,-0.6814807057380676,0.250025987625122,1.1444077491760254,0.3459389805793762,69.92972564697266,25.11,0
-0.6593800783157349,-0.7004305124282837,0.2276255786418914,0.372574895620346,0.3459389805793762,69.94415283203125,25.11,0
-0.6638565063476562,-0.72938472032547,0.2132502794265747,-0.1442385017871856,0.3459389805793762,69.95341491699219,25.11,0
-0.6499358415603638,-0.7927480340003967,0.1928295046091079,-0.275275319814682,0.3459389805793762,69.95935821533203,25.11,0
-0.6354045867919922,-0.8669975996017456,0.1853223890066146,0.0418812744319438,0.3459389805793762,69.96317291259766,25.11,0
-0.6372748613357544,-0.9146467447280884,0.1972980797290802,0.5642633438110352,0.3459389805793762,69.96562194824219,25.11,0
-0.6160839796066284,-0.917236328125,0.2049833983182907,1.0105578899383545,0.3459389805793762,69.96719360351562,25.11,0
-0.5744960308074951,-0.857322633266449,0.2099153846502304,1.2468080520629885,0.3450207710266113,69.96820068359375,25.11,0
-0.5534050464630127,-0.8076779246330261,0.2130804508924484,1.101065993309021,0.3444315195083618,69.9688491821289,25.11,0
-0.5510656237602234,-0.7814165949821472,0.2207093834877014,0.4773159325122833,0.3440533876419067,69.9692611694336,25.11,0
-0.5663576126098633,-0.7645635604858398,0.2144096493721008,-0.3851232230663299,0.3438107073307037,69.96952819824219,25.11,0
-0.5761711597442627,-0.759346067905426,0.2103668451309204,-1.1105506420135498,0.3436549603939056,69.96969604492188,25.11,0
-0.548882246017456,-0.7615955471992493,0.2077724039554596,-1.493688941001892,0.3435550332069397,69.96980285644531,25.11,0
-0.5257720351219177,-0.7966257929801941,0.2061074376106262,-1.4959499835968018,0.3434908986091614,69.9698715209961,25.11,0
-0.510941207408905,-0.8526928424835205,0.2106367349624633,-1.3146896362304688,0.3434497416019439,69.96991729736328,25.11,0
-0.4958258867263794,-0.8886734247207642,0.2135433703660965,-1.298679232597351,0.3448004722595215,69.9699478149414,25.11,0
-0.4917235076427459,-0.9117636680603028,0.2154086828231811,-1.506941795349121,0.3456672728061676,69.969970703125,25.11,0
