acc_x,acc_y,acc_z,bvp,eda,hr,temp,label
0.0,0.0,0.0,0.0,0.0,0.0,34.63,0
-0.0494791641831398,-0.1432291567325592,0.0755208283662796,3.429999828338623,0.230071485042572,10.963332176208496,34.63,0
-0.1116615906357765,-0.3311737775802612,0.1726371943950653,-4.9273176193237305,0.538703978061676,25.670242309570312,34.63,0
-0.1707329750061035,-0.4946532547473907,0.2620950937271118,-22.21455192565918,0.8071611523628235,38.46272277832031,34.63,0
-0.2084905356168747,-0.5925675630569458,0.3326976597309112,-44.81621551513672,1.003015160560608,47.795528411865234,34.63,0
-0.2505231499671936,-0.6917979717254639,0.396967738866806,-72.25385284423828,1.1356165409088137,54.11423110961914,34.63,0
-0.2669964432716369,-0.7124828100204468,0.4280320107936859,-98.7828598022461,1.2226221561431885,58.26020812988281,34.63,0
-0.2665067315101623,-0.7314586639404297,0.4314128160476684,-123.773681640625,1.2789714336395264,60.94535446166992,34.63,0
-0.2606011033058166,-0.7884038090705872,0.4447709918022156,-154.1435546875,1.3391079902648926,62.675048828125,34.63,0
-0.2623999416828155,-0.724301278591156,0.4645461440086365,-206.08206176757807,1.3777602910995483,63.78679656982422,34.63,0
-0.2355726510286331,-0.8062602281570435,0.4436659216880798,-277.00714111328125,1.402580976486206,64.5007095336914,34.63,0
-0.2183519005775451,-0.8140926957130432,0.4358598887920379,-350.0750427246094,1.4185136556625366,64.958984375,34.63,0
-0.2184945195913314,-0.8359123468399048,0.4252523481845855,-414.9117431640625,1.4287394285202026,65.25310516357422,34.63,0
-0.2241837233304977,-0.8387202024459839,0.4128470420837402,-481.5065307617188,1.4353020191192627,65.44186401367188,34.63,0
-0.2166393250226974,-0.8461198806762695,0.4104836285114288,-564.225341796875,1.4395136833190918,65.56300354003906,34.63,0
-0.2117977291345596,-0.8508686423301697,0.4089668989181518,-650.9645385742188,1.4422165155410769,65.6407470703125,34.63,0
-0.2198861986398697,-0.8539161086082458,0.4023957848548889,-724.6456909179688,1.4274253845214844,65.69063568115234,34.63,0
-0.2250769138336181,-0.8558717966079712,0.3981788158416748,-700.267822265625,1.417933225631714,65.72264862060547,34.63,0
-0.2228102535009384,-0.851529061794281,0.4010703861713409,-514.615966796875,1.4118417501449585,65.74319458007812,34.63,0
-0.2269534170627594,-0.8543399572372437,0.4029260277748108,-259.8103332519531,1.4079325199127195,65.75637817382812,34.63,0
-0.2296122610569,-0.8561437726020813,0.4041168689727783,-28.38298988342285,1.405423879623413,65.76483917236328,34.63,0
-0.2313185483217239,-0.8573014140129089,0.404881089925766,149.83331298828125,1.4038139581680298,65.77027130126953,34.63,0
-0.2324135452508926,-0.8580442667007446,0.4053715169429779,265.8251647949219,1.4027807712554932,65.77375793457031,34.63,0
-0.2331162542104721,-0.8529232144355774,0.4056862294673919,318.5050964355469,1.4021177291870115,65.77599334716797,34.63,0
-0.2279694378376007,-0.8440390825271606,0.4002904295921325,333.26348876953125,1.3975608348846436,65.77742767333984,34.63,0
-0.2246665060520172,-0.8383377194404602,0.3968277275562286,336.1676940917969,1.3946363925933838,65.77835083007812,34.63,0
-0.2225468754768371,-0.8346789479255676,0.3946055471897125,337.1465759277344,1.3927596807479858,65.77893829345703,34.63,0
-0.2211866229772567,-0.8323309421539307,0.3931794762611389,324.8846435546875,1.3915553092956543,65.7793197631836,34.63,0
-0.2259114533662796,-0.8364219069480896,0.3922643065452575,299.7189636230469,1.3907824754714966,65.7795639038086,34.63,0
-0.2289435863494873,-0.8390472531318665,0.3916770219802856,275.2073669433594,1.3902864456176758,65.77971649169922,34.63,0
-0.2308894246816635,-0.8463298082351685,0.3968979120254516,258.7821960449219,1.3899681568145752,65.77981567382812,34.63,0
-0.2377359271049499,-0.8454055786132812,0.4002483785152435,243.3906707763672,1.3897638320922852,65.7798843383789,34.63,0
-0.2421296238899231,-0.8448124527931213,0.4023984968662262,218.54168701171875,1.390550971031189,65.51840209960938,34.63,0
-0.2449492514133453,-0.8444318175315857,0.3981805443763733,187.72735595703125,1.3910560607910156,65.35059356689453,34.63,0
-0.2411609441041946,-0.849785327911377,0.3954737186431885,157.30506896972656,1.3913803100585938,65.24290466308594,34.63,0
-0.2443276047706604,-0.8532208800315857,0.3937366306781769,127.86164855957033,1.39158833026886,65.17379760742188,34.63,0
-0.2463597804307937,-0.8554256558418274,0.3814263045787811,93.41817474365234,1.3917218446731567,65.12944793701172,34.63,0
-0.2532616853713989,-0.8568405508995056,0.3735262453556061,54.759254455566406,1.3918075561523438,65.10098266601562,34.63,0
-0.2632887065410614,-0.8633463382720947,0.3684564530849457,20.212745666503903,1.3918625116348269,65.08271789550781,34.63,0
-0.2697234749794006,-0.8787168860435486,0.3708007335662842,-5.378576278686523,1.3918977975845337,65.07099914550781,34.63,0
-0.2682551741600036,-0.8941786289215088,0.372305154800415,-24.330909729003903,1.391002178192139,65.0634765625,34.63,0
-0.2673128843307495,-0.9152966141700744,0.3676728308200836,-40.9752311706543,1.3904274702072144,65.05864715576172,34.63,0
-0.2667081952095032,-0.9344466924667358,0.3591023087501526,-54.56206512451172,1.3900586366653442,65.05554962158203,34.63,0
-0.2719179093837738,-0.9803227782249452,0.331211119890213,-62.58629608154297,1.389822006225586,65.0535659790039,34.63,0
-0.2752611935138702,-1.0265567302703855,0.3021166324615478,-65.77970123291016,1.3896701335906982,65.05229187011719,34.63,0
-0.2718089520931244,-1.0506292581558228,0.2778476774692535,-67.97234344482422,1.3895726203918457,65.05147552490234,34.63,0
-0.2583979666233063,-1.071675419807434,0.2510777115821838,-73.26296997070312,1.3895100355148315,65.05094909667969,34.63,0
-0.2497915625572204,-1.079583764076233,0.2338982969522476,-81.81351470947266,1.389469861984253,65.05061340332031,34.63,0
-0.244268462061882,-1.0510722398757937,0.2172757536172866,-83.8256607055664,1.3889851570129397,65.0503921508789,34.63,0
-0.2351262867450714,-0.9823952317237854,0.2010105848312378,-66.34424591064453,1.3886741399765017,65.05025482177734,34.63,0
-0.2292593568563461,-0.9327245354652404,0.1849747598171234,-31.83177375793457,1.3884745836257937,65.05016326904297,34.63,0
-0.2310920804738998,-0.9120442867279052,0.1690861284732818,1.7483428716659546,1.3883464336395264,65.05010223388672,34.63,0
-0.2434637546539306,-0.904370665550232,0.1476941704750061,22.81089782714844,1.3882641792297363,65.05006408691406,34.63,0
-0.2570009529590606,-0.9162395000457764,0.1227704882621765,34.16017532348633,1.3882114887237549,65.05004119873047,34.63,0
-0.271286129951477,-0.9182584881782532,0.1011781319975853,39.9531364440918,1.3881776332855225,65.0500259399414,34.63,0
-0.2860513031482696,-0.913956344127655,0.0929191708564758,40.67569351196289,1.3881559371948242,65.05001831054688,34.63,0
-0.3067222833633423,-0.8832066059112549,0.0876190438866615,39.00059127807617,1.3904370069503784,65.05001068115234,34.65,0
-0.3255855143070221,-0.857875406742096,0.0786199569702148,38.624210357666016,1.391900897026062,65.05001068115234,34.65,0
-0.3488864004611969,-0.8416193127632141,0.078442633152008,39.092018127441406,1.3928402662277222,65.05001068115234,34.65,0
-0.3470462560653686,-0.8367848992347717,0.0895243883132934,37.30717086791992,1.3934431076049805,65.05001068115234,34.65,0
-0.3346697986125946,-0.8336824178695679,0.1022337973117828,32.94460678100586,1.3938299417495728,65.05001068115234,34.65,0
-0.3211295306682586,-0.8316914439201355,0.1159877330064773,28.84449005126953,1.394078254699707,65.05001068115234,34.65,0
-0.3068423867225647,-0.836011528968811,0.1248142197728157,26.994272232055664,1.3942376375198364,65.05001068115234,34.65,0
-0.3032715022563934,-0.861175000667572,0.1304785460233688,26.65239715576172,1.394339919090271,65.05001068115234,34.65,0
-0.3009799122810364,-0.9277034401893616,0.1285158097743988,25.70215606689453,1.3884379863739014,64.83505249023438,34.65,0
-0.2883137464523315,-0.9871909022331238,0.1216584667563438,21.226747512817383,1.384650468826294,64.69710540771484,34.65,0
-0.2689897716045379,-1.047757625579834,0.1116600483655929,10.960250854492188,1.382219910621643,64.60857391357422,34.65,0
-0.2565887570381164,-1.0978213548660278,0.0996458604931831,-2.57839298248291,1.380660057067871,64.55176544189453,34.65,0
-0.2486305087804794,-1.135547161102295,0.0807403028011322,-12.44896411895752,1.3796590566635132,64.51530456542969,34.65,0
-0.243523359298706,-1.1261707544326782,0.0630100294947624,-14.910564422607422,1.379016637802124,64.49190521240234,34.65,0
-0.234648123383522,-1.0809690952301023,0.0460339859127998,-13.599139213562012,1.3786044120788574,64.47689056396484,34.65,0
-0.2065614014863968,-1.0183746814727783,0.0183464139699935,-14.43418788909912,1.3783398866653442,64.46725463867188,34.65,0
-0.1885369569063186,-0.9894007444381714,0.0005781236104667,-19.763559341430664,1.379088282585144,64.46107482910156,34.65,0
-0.1937632262706756,-0.9876002073287964,0.0003710064629558,-27.740678787231445,1.379568576812744,64.45710754394531,34.65,0
-0.1915193796157837,-0.9640536308288574,0.01143363956362,-34.9306640625,1.3798768520355225,64.45455932617188,34.65,0
-0.1788838505744934,-0.9321494698524476,0.0353263244032859,-39.33341217041016,1.3800746202468872,64.45292663574219,34.65,0
-0.1875684261322021,-0.8724908232688904,0.0450614988803863,-41.39216995239258,1.3802015781402588,64.45187377929688,34.65,0
-0.1987394541501999,-0.8342053294181824,0.0569067485630512,-42.319278717041016,1.3802831172943115,64.45120239257812,34.65,0
-0.2282994836568832,-0.8040381073951721,0.0701061189174652,-42.59181213378906,1.3803354501724243,64.45076751708984,34.65,0
-0.2416716367006302,-0.8070696592330933,0.0841744914650917,-41.82807540893555,1.380368947982788,64.45049285888672,34.65,0
-0.2614486515522003,-0.8202106952667236,0.0932027623057365,-38.22111129760742,1.3780951499938965,64.4503173828125,34.65,0
-0.3021292686462402,-0.8342416286468506,0.1045943647623062,-28.71613883972168,1.3766359090805054,64.45020294189453,34.65,0
-0.3450290858745575,-0.8432458639144897,0.1175026148557663,-12.943442344665527,1.3756994009017944,64.45012664794922,34.65,0
-0.3893530368804931,-0.8714153170585632,0.1369819343090057,4.042782783508301,1.375098466873169,64.45008087158203,34.65,0
-0.4177975952625274,-0.9398728609085084,0.1662759631872177,16.74201774597168,1.3747128248214722,64.4500503540039,34.65,0
-0.430453896522522,-0.989402711391449,0.1794774085283279,24.253955841064453,1.3744653463363647,64.45002746582031,34.65,0
-0.4217826724052429,-1.082763671875,0.1655582338571548,26.43791007995605,1.374306559562683,64.45001983642578,34.65,0
-0.4218157529830932,-1.170666217803955,0.1510279327630996,21.233177185058597,1.3742046356201172,64.45001220703125,34.65,0
-0.4274347424507141,-1.204685926437378,0.1473010033369064,12.085723876953123,1.3686306476593018,64.45000457763672,34.63,0
-0.3918562829494476,-1.1257578134536743,0.1281159520149231,9.64035701751709,1.3650535345077517,64.45000457763672,34.63,0
-0.3522307574748993,-1.0415197610855105,0.1046085432171821,19.295270919799805,1.3627580404281616,64.45000457763672,34.63,0
-0.3156058192253113,-0.9986560940742492,0.0559361949563026,34.93132400512695,1.361284852027893,64.45000457763672,34.63,0
-0.2865042686462402,-0.9823442101478576,0.0247010812163352,47.42329025268555,1.3603395223617554,64.45000457763672,34.63,0
-0.2790241241455078,-0.983071744441986,-0.0345282405614852,50.70016860961914,1.3597328662872314,64.45000457763672,34.63,0
-0.2630282342433929,-0.9499520063400269,-0.0781359821557998,41.35316848754883,1.3593435287475586,64.45000457763672,34.63,0
-0.2415674477815628,-0.900708794593811,-0.0949253737926483,22.41095542907715,1.3590936660766602,64.45000457763672,34.63,0
-0.2333929240703582,-0.8523139953613281,-0.0777109637856483,4.580133438110352,1.3593922853469849,64.25296020507812,34.63,0
-0.244940310716629,-0.8268547654151917,-0.0610659718513488,-4.25454568862915,1.359583854675293,64.12651062011719,34.63,0
-0.2691440880298614,-0.8105165362358093,-0.0615797229111194,-7.000752925872803,1.3597067594528198,64.04536437988281,34.63,0
-0.2622855603694916,-0.828020453453064,-0.0619094185531139,-10.780099868774414,1.3597856760025024,63.9932861328125,34.63,0
-0.2466886192560196,-0.8504490256309509,-0.0565232262015342,-17.200040817260742,1.3598363399505615,63.95986557006836,34.63,0
-0.2310816198587417,-0.8928312659263611,-0.0418711267411708,-22.53089904785156,1.3598688840866089,63.938419342041016,34.63,0
-0.2266637235879898,-0.9312252998352052,-0.0268704798072576,-23.69133186340332,1.3598897457122805,63.92465591430664,34.63,0
-0.246219664812088,-0.9726576805114746,-0.0060483776032924,-21.68461227416992,1.35990309715271,63.91582489013672,34.63,0
-0.2475740015506744,-1.0048444271087646,0.0129118226468563,-20.067218780517575,1.357616662979126,63.91015625,34.63,0
-0.2372475862503051,-1.0646843910217283,0.0306771621108055,-21.0570068359375,1.3561493158340454,63.906517028808594,34.63,0
-0.2362184673547744,-1.131075143814087,0.0476757101714611,-23.83099174499512,1.3552076816558838,63.90418243408203,34.63,0
-0.2411558032035827,-1.1344964504241943,0.069779947400093,-27.069284439086918,1.3546034097671509,63.90268325805664,34.63,0
-0.2443242967128753,-1.0247365236282349,0.1063562706112861,-31.94542694091797,1.3542156219482422,63.9017219543457,34.63,0
-0.2519554495811462,-0.954298973083496,0.1130355298519134,-39.07280731201172,1.3539667129516602,63.90110397338867,34.63,0
-0.2624504566192627,-0.925889492034912,0.1173218935728073,-43.27058029174805,1.353806972503662,63.90070724487305,34.63,0
-0.2691855430603027,-0.9524401426315308,0.1088770851492881,-36.41332244873047,1.353704571723938,63.90045547485352,34.63,0
-0.2511166334152221,-0.9806743860244752,0.0978599190711975,-17.52479362487793,1.3513433933258057,63.90029144287109,34.63,0
-0.205934390425682,-0.982000172138214,0.079594187438488,2.34230637550354,1.3498281240463257,63.90018844604492,34.63,0
-0.1881345808506012,-0.9492643475532532,0.0678722932934761,11.412561416625977,1.34885573387146,63.90011978149414,34.63,0
-0.1935050189495086,-0.9170607924461364,0.0603498555719852,8.778450965881348,1.3482316732406616,63.90007781982422,34.63,0
-0.2137447744607925,-0.8907966613769531,0.0555223859846591,1.621019959449768,1.3478312492370603,63.90005111694336,34.63,0
-0.2155379354953766,-0.8851373791694641,0.0692177191376686,-3.9180076122283936,1.347574234008789,63.90003204345703,34.63,0
-0.2110909074544906,-0.8871033787727356,0.0892021432518959,-5.043650150299072,1.3474093675613403,63.900020599365234,34.63,0
-0.2418237030506134,-0.8827672600746155,0.1076247692108154,-1.8144419193267824,1.3473035097122192,63.9000129699707,34.63,0
-0.2783395648002624,-0.891180157661438,0.1194473505020141,1.5225272178649902,1.3463174104690552,63.90000915527344,34.61,0
-0.3185666799545288,-0.9077745676040648,0.1326321810483932,-0.6601668000221252,1.34568452835083,63.90000534057617,34.61,0
-0.3499799072742462,-0.9240217208862304,0.141093447804451,-9.272619247436523,1.3452783823013306,63.90000534057617,34.61,0
-0.3701390922069549,-0.9680348634719848,0.1465234011411667,-20.89713859558105,1.3450177907943726,63.90000534057617,34.61,0
-0.3774783313274383,-1.0690510272979736,0.1276169270277023,-32.487796783447266,1.3448505401611328,63.90000534057617,34.61,0
-0.3821882307529449,-1.1786595582962036,0.1154838427901268,-41.97524642944336,1.344743251800537,63.90000534057617,34.61,0
-0.374015212059021,-1.1874245405197144,0.0965019837021827,-48.5438117980957,1.3446743488311768,63.90000534057617,34.61,0
-0.3575747013092041,-1.114680528640747,0.0731249675154686,-55.54637908935547,1.3446301221847534,63.90000534057617,34.61,0
-0.335828572511673,-1.028813123703003,0.0413296222686767,-66.83637237548828,1.3432246446609497,63.724456787109375,34.61,0
-0.3274709284305572,-1.00729501247406,-0.0014658995205536,-77.19847869873047,1.3423227071762085,63.61180114746094,34.61,0
-0.3221074938774109,-1.0046814680099487,-0.034527376294136,-74.0177001953125,1.34174382686615,63.53950500488281,34.61,0
-0.3074699938297272,-1.0030043125152588,-0.0837332010269165,-52.02509307861328,1.3413723707199097,63.49311065673828,34.61,0
-0.2868809401988983,-0.9907324314117432,-0.1265062093734741,-20.7939567565918,1.341133952140808,63.46333694458008,34.61,0
-0.2568747401237488,-0.960465967655182,-0.1483576893806457,4.5720953941345215,1.3409810066223145,63.44422912597656,34.61,0
-0.2656073570251465,-0.9354448914527892,-0.1399896144866943,16.433252334594727,1.3408827781677246,63.43196487426758,34.61,0
-0.2880047857761383,-0.9193878173828124,-0.1346194744110107,17.09128189086914,1.3408198356628418,63.424095153808594,34.61,0
-0.296780377626419,-0.9258766174316406,-0.1367709934711456,12.949365615844728,1.338943362236023,63.419044494628906,34.61,0
-0.2856187224388122,-0.9412363171577454,-0.1437494903802871,10.38088607788086,1.337739109992981,63.41580581665039,34.61,0
-0.2560647130012512,-0.951093316078186,-0.1426301151514053,14.565016746520996,1.3369662761688232,63.41372680664063,34.61,0
-0.2482942044734954,-0.9742122888565063,-0.1307162195444107,25.934314727783203,1.336470365524292,63.412391662597656,34.61,0
-0.2489053159952163,-0.989048719406128,-0.1174727901816368,37.368350982666016,1.3361520767211914,63.41153335571289,34.61,0
-0.2492974996566772,-1.0153632164001465,-0.0921805948019027,39.94839477539063,1.335947871208191,63.41098403930664,34.61,0
-0.2439513951539993,-1.0546413660049438,-0.0647539719939231,32.662010192871094,1.3358168601989746,63.4106330871582,34.61,0
-0.2125317007303238,-1.1470211744308472,-0.0359575971961021,24.758129119873047,1.3357326984405518,63.41040802001953,34.61,0
-0.1979661285877227,-1.1671208143234253,0.004913356155157,27.78965950012207,1.3310884237289429,63.41026306152344,34.61,0
-0.1942165642976761,-1.1128462553024292,0.0535330772399902,42.43177032470703,1.3281079530715942,63.4101676940918,34.61,0
-0.1974080801010131,-1.022038221359253,0.1071255132555961,53.59444046020508,1.326195240020752,63.41010665893555,34.61,0
-0.1994562149047851,-0.9805561900138856,0.1359202861785888,46.18766403198242,1.3249677419662476,63.41006851196289,34.61,0
-0.1951728165149688,-0.9875220656394958,0.1376057863235473,25.459716796875,1.324180006980896,63.4100456237793,34.61,0
-0.1700328737497329,-1.0087857246398926,0.1218941211700439,11.42328643798828,1.323674559593201,63.41003036499024,34.61,0
-0.1427039504051208,-1.022431492805481,0.1062135025858879,14.023058891296388,1.323350191116333,63.41001892089844,34.61,0
-0.1307636052370071,-0.9920041561126708,0.1017483621835708,25.267667770385746,1.3231419324874878,63.41001129150391,34.61,0
-0.1398942917585373,-0.9500865340232848,0.1044806614518165,33.93117141723633,1.324385404586792,63.41000747680664,34.63,0
-0.173742726445198,-0.895197331905365,0.1006363183259964,35.56082534790039,1.325183391571045,63.410003662109375,34.63,0
-0.2066602408885955,-0.8655703663825989,0.1093647927045822,29.3017692565918,1.325695514678955,63.410003662109375,34.63,0
-0.2277848124504089,-0.8521552681922913,0.1317595541477203,16.740625381469727,1.3260241746902466,63.410003662109375,34.63,0
-0.2637324333190918,-0.8547418117523193,0.1461312174797058,4.036588668823242,1.326235055923462,63.410003662109375,34.63,0
-0.2979971170425415,-0.8564016819000244,0.1553541272878646,-3.4676849842071533,1.3263704776763916,63.410003662109375,34.63,0
-0.3423773050308227,-0.8742602467536926,0.1668706238269806,-9.100323677062988,1.326457381248474,63.410003662109375,34.63,0
-0.3764557242393493,-0.8913186192512512,0.1854567974805832,-22.119287490844727,1.326513171195984,63.410003662109375,34.63,0
-0.3983252942562103,-0.913461208343506,0.1973843425512313,-47.16532897949219,1.3270078897476196,63.23087310791016,34.63,0
-0.4011643826961517,-0.9388666152954102,0.1882454305887222,-78.04164123535156,1.3273253440856934,63.11591720581055,34.63,0
-0.3973885774612427,-0.9775614142417908,0.1767828315496444,-100.14196014404295,1.3275290727615356,63.04214477539063,34.63,0
-0.3837699294090271,-1.0639690160751345,0.1694267839193344,-100.77537536621094,1.3276598453521729,62.99480438232422,34.63,0
-0.3694324791431427,-1.1250182390213013,0.147912785410881,-82.58829498291016,1.3277437686920166,62.96442413330078,34.63,0
-0.3602315485477447,-1.1306095123291016,0.1285085529088974,-64.2353744506836,1.327797532081604,62.94492721557617,34.63,0
-0.348729133605957,-1.0278398990631104,0.1048604920506477,-59.95585250854492,1.3278321027755735,62.93241500854492,34.63,0
-0.3357497751712799,-0.9674860835075378,0.0784889757633209,-62.6550178527832,1.3278542757034302,62.92438507080078,34.63,0
-0.3330181539058685,-0.9455478191375732,0.0559674799442291,-55.93589019775391,1.324655294418335,62.91923141479492,34.63,0
-0.3368629217147827,-0.9538601636886596,0.0415144823491573,-36.35142135620117,1.322602391242981,62.915924072265625,34.63,0
-0.33933025598526,-0.959194540977478,0.0210438314825296,-14.00280475616455,1.3212848901748655,62.91380310058594,34.63,0
-0.3353158831596374,-0.9514223337173462,0.0023091714829206,1.4785085916519165,1.3204394578933716,62.91244125366211,34.63,0
-0.3327396810054779,-0.9352390170097352,-0.0097136562690138,6.637951850891113,1.319896936416626,62.91156768798828,34.63,0
-0.3590753078460693,-0.9136579632759094,-0.006233665626496,3.1385092735290527,1.319548726081848,62.91100692749024,34.63,0
-0.3815737664699554,-0.894210696220398,-0.0095981815829873,-1.872980237007141,1.31932532787323,62.91064453125,34.63,0
-0.3904142081737518,-0.8873283267021179,-0.0173551104962825,0.0770086124539375,1.3191819190979004,62.9104118347168,34.63,0
-0.3736964166164398,-0.9053027033805848,-0.0167352855205535,9.471592903137209,1.3181716203689575,62.91026306152344,34.63,0
-0.3517723381519317,-0.928033173084259,-0.0163375176489353,17.395679473876953,1.3175233602523804,62.9101676940918,34.63,0
-0.3321049511432647,-0.9538158178329468,-0.0160822533071041,16.422767639160156,1.317107319831848,62.91010665893555,34.63,0
-0.3194835484027862,-0.9815571904182434,-0.010320664383471,10.700403213500977,1.3168402910232544,62.91006851196289,34.63,0
-0.3113838732242584,-1.0049577951431274,-0.0010254342341795,13.258217811584473,1.31666898727417,62.9100456237793,34.63,0
-0.272599309682846,-1.0815504789352417,0.0217330325394868,33.80134582519531,1.3165589570999146,62.91003036499024,34.63,0
-0.2253185212612152,-1.1307032108306885,0.0363381057977676,68.39063262939453,1.3164883852005005,62.91001892089844,34.63,0
-0.1949764341115951,-1.128659963607788,0.0681018978357315,100.09619903564452,1.3164430856704712,62.91001129150391,34.63,0
-0.1699068546295166,-1.0153932571411133,0.133268266916275,112.5255126953125,1.3145779371261597,62.91000747680664,34.63,0
-0.1538186371326446,-0.9203141331672668,0.1750882863998413,104.4878158569336,1.3133809566497805,62.910003662109375,34.63,0
-0.1490919142961502,-0.8872866630554199,0.1907304227352142,89.2375717163086,1.3126128911972046,62.910003662109375,34.63,0
-0.1460585743188858,-0.8884826302528381,0.2007686495780944,79.85926055908203,1.312119960784912,62.910003662109375,34.63,0
-0.1217208579182624,-0.9284345507621764,0.2016128301620483,78.91014099121094,1.3118035793304443,62.910003662109375,34.63,0
-0.1117000877857208,-0.931682288646698,0.1853612512350082,80.5401611328125,1.3116005659103394,62.910003662109375,34.63,0
-0.1276604235172271,-0.9225710034370422,0.1749319285154342,77.70628356933594,1.3114702701568604,62.910003662109375,34.63,0
-0.1602939516305923,-0.8887349963188171,0.185032308101654,67.54026794433594,1.3113867044448853,62.910003662109375,34.63,0
-0.1924318224191665,-0.8614232540130615,0.1915141493082046,52.46827697753906,1.3085788488388062,62.74878692626953,34.63,0
-0.2466427087783813,-0.8662872314453125,0.2012715935707092,36.7378044128418,1.3067768812179563,62.64532470703125,34.63,0
-0.287029892206192,-0.8806042075157166,0.2131311446428299,22.143177032470703,1.3056204319000244,62.57892990112305,34.63,0
-0.3185458481311798,-0.8841942548751831,0.2207419127225875,7.485721588134766,1.3048783540725708,62.53632354736328,34.63,0
-0.3499665260314941,-0.8864980936050415,0.2200282961130142,-8.498198509216309,1.3044021129608154,62.50897979736328,34.63,0
-0.3757282793521881,-0.8823788166046143,0.2251681089401245,-24.315916061401367,1.3040964603424072,62.491432189941406,34.63,0
-0.3810651302337646,-0.8909308314323425,0.2340643256902694,-36.372745513916016,1.3039003610610962,62.48017120361328,34.63,0
-0.373294472694397,-0.930005669593811,0.2229800820350647,-42.422733306884766,1.3037744760513306,62.47294616699219,34.63,0
-0.3627099394798279,-0.9830705523490906,0.2102690786123275,-41.97393035888672,1.3046115636825562,62.46830749511719,34.63,0
-0.3447218537330627,-1.084297776222229,0.1965141147375106,-32.951595306396484,1.305148720741272,62.46533203125,34.63,0
-0.3331781327724457,-1.1548573970794678,0.1876869648694992,-13.157293319702148,1.3054934740066528,62.46342086791992,34.63,0
-0.3033789396286011,-1.1609541177749634,0.1652288883924484,12.059486389160156,1.305714726448059,62.462196350097656,34.63,0
-0.273059993982315,-1.0585088729858398,0.1396210342645645,29.80058479309082,1.305856704711914,62.46141052246094,34.63,0
-0.2480052560567855,-0.9927654266357422,0.1119918376207351,32.61627960205078,1.3059477806091309,62.46090316772461,34.63,0
-0.2207310199737548,-0.9673684239387512,0.0886632353067398,26.591720581054688,1.3060061931610107,62.46057891845703,34.63,0
-0.1920324265956878,-0.9622656106948853,0.0680945068597793,22.220361709594727,1.3060437440872192,62.46037292480469,34.63,0
-0.162419781088829,-0.9533931612968444,0.0325035862624645,22.746870040893555,1.3037728071212769,62.46023941040039,34.63,0
-0.1546116322278976,-0.9253082275390624,0.0096633806824684,25.069499969482425,1.3023154735565186,62.46015167236328,34.63,0
-0.1607963591814041,-0.8960893750190735,0.0006036270642653,26.001148223876957,1.301380276679993,62.46009826660156,34.63,0
-0.1759609133005142,-0.8661428689956665,0.0171806961297988,23.75446128845215,1.3007800579071045,62.46006393432617,34.63,0
-0.1800948828458786,-0.846924901008606,0.0334166809916496,17.791458129882812,1.300394892692566,62.46004104614258,34.63,0
-0.1715522706508636,-0.8401896953582764,0.0382382273674011,10.059737205505373,1.3001477718353271,62.46002578735352,34.63,0
-0.1604723483324051,-0.8526607751846313,0.0525279641151428,3.5180482864379883,1.299989104270935,62.46001434326172,34.63,0
-0.1589596569538116,-0.8662617206573486,0.056100521236658,-1.5828403234481812,1.2998872995376587,62.46001052856445,34.63,0
-0.163586676120758,-0.8973811268806458,0.0751865059137344,-7.281700611114502,1.297067642211914,62.46000671386719,34.65,0
-0.1609582602977752,-0.9341450929641724,0.0874347910284996,-12.977386474609377,1.2952581644058228,62.46000289916992,34.65,0
-0.1592714935541153,-0.9745314121246338,0.0673061683773994,-13.30433750152588,1.2940969467163086,62.46000289916992,34.65,0
-0.1693845689296722,-1.0956112146377563,0.0319976769387722,-1.6056736707687378,1.2933517694473269,62.46000289916992,34.65,0
-0.1926678866147995,-1.1733132600784302,0.0149364927783608,24.7569522857666,1.2928736209869385,62.46000289916992,34.65,0
-0.2244030982255935,-1.1895912885665894,0.0543675757944583,60.19688415527344,1.2925667762756348,62.46000289916992,34.65,0
-0.2279756069183349,-1.1440598964691162,0.102063275873661,90.93292236328124,1.2923698425292969,62.46000289916992,34.65,0
-0.2078771442174911,-1.047667145729065,0.0766938850283622,103.79690551757812,1.292243480682373,62.46000289916992,34.65,0
-0.2061746567487716,-1.0137966871261597,0.0548154935240745,97.76853942871094,1.2917031049728394,62.309532165527344,34.65,0
-0.2162776440382003,-0.9920606017112732,0.05197075009346,83.83642578125,1.291356325149536,62.21297073364258,34.65,0
-0.211565613746643,-0.9949049353599548,0.0725362598896026,72.61708068847656,1.2911337614059448,62.151004791259766,34.65,0
-0.2029439210891723,-0.9911324977874756,0.0857340171933174,65.88646697998047,1.290990948677063,62.111236572265625,34.65,0
-0.2198021113872528,-0.9663204550743104,0.1109969019889831,59.8690071105957,1.2908992767333984,62.085716247558594,34.65,0
-0.2530118227005005,-0.9168108701705932,0.1607958078384399,51.32133865356445,1.2908403873443604,62.06933975219727,34.65,0
-0.2687261402606964,-0.8850384950637817,0.1871561110019683,38.72452163696289,1.2908025979995728,62.05883026123047,34.65,0
-0.2900062203407287,-0.8590510487556458,0.1984748542308807,21.74507522583008,1.290778398513794,62.05208587646485,34.65,0
-0.3092603385448456,-0.8479715585708618,0.2001408040523529,1.7166593074798584,1.292599320411682,62.04775619506836,34.65,0
-0.321616530418396,-0.8520569205284119,0.2012099176645279,-19.096908569335938,1.2937678098678589,62.04497909545898,34.65,0
-0.3463393449783325,-0.8770697712898254,0.2018960118293762,-39.404052734375,1.2945177555084229,62.04319381713867,34.65,0
-0.3678027987480163,-0.8987193703651428,0.2079340815544128,-58.93122100830078,1.2949990034103394,62.04204940795898,34.65,0
-0.3927723467350006,-0.9182106256484984,0.2174067348241806,-76.52481079101562,1.2953078746795654,62.041316986083984,34.65,0
-0.4087963700294494,-0.9922944903373718,0.1898991018533706,-89.044189453125,1.2955060005187988,62.04084396362305,34.65,0
-0.4190796613693237,-1.051032781600952,0.1610507369041443,-91.93383026123048,1.2956331968307495,62.04054260253906,34.65,0
-0.3976900279521942,-1.032749891281128,0.1593308299779892,-81.23847198486328,1.2957148551940918,62.04034805297852,34.65,0
-0.3671700656414032,-0.9762347936630248,0.147031545639038,-57.59402084350586,1.2957671880722046,62.04022216796875,34.65,0
-0.3363885581493377,-0.9175755381584167,0.1279430240392685,-29.77388000488281,1.295800805091858,62.04014205932617,34.65,0
-0.3110369741916656,-0.90232253074646,0.1100953370332717,-10.928141593933104,1.2958223819732666,62.04009246826172,34.65,0
-0.27237668633461,-0.9373162388801576,0.0818483978509903,-7.650750637054443,1.2958362102508545,62.04005813598633,34.65,0
-0.2251756489276886,-0.9597731828689576,0.0637211427092552,-14.59709644317627,1.2958451509475708,62.0400390625,34.65,0
-0.206080287694931,-0.9629892110824584,0.0576858855783939,-21.58415985107422,1.2958508729934692,62.04002380371094,34.65,0
-0.2218148559331894,-0.9314664006233216,0.0818016752600669,-23.180498123168945,1.2958544492721558,62.040016174316406,34.65,0
-0.2375101745128631,-0.905639111995697,0.1028755754232406,-20.48263931274414,1.2958568334579468,62.04001235961914,34.65,0
-0.2475825250148773,-0.8890646696090698,0.1108018159866333,-17.293201446533203,1.300448656082153,62.04000854492188,34.63,0
-0.2652419209480285,-0.8896236419677734,0.0934973284602165,-16.686599731445312,1.303395390510559,62.04000473022461,34.63,0
-0.2821724712848663,-0.8955801725387573,0.0823922976851463,-19.25652503967285,1.305286526679993,62.04000473022461,34.63,0
-0.28743976354599,-0.8994027376174927,0.0752657279372215,-23.01231002807617,1.3065000772476196,62.04000473022461,34.63,0
-0.296417772769928,-0.8962580561637878,0.0650945380330085,-25.49420738220215,1.3072788715362549,62.04000473022461,34.63,0
-0.2965815663337707,-0.8998377323150635,0.0361761525273323,-26.348936080932617,1.3077787160873413,62.04000473022461,34.63,0
-0.3078822493553161,-0.9245260953903198,0.0232157725840806,-27.04791831970215,1.3080995082855225,62.04000473022461,34.63,0
-0.3095366060733795,-0.9515652060508728,0.0093007730320096,-28.058950424194336,1.308305263519287,62.04000473022461,34.63,0
-0.3105982542037964,-1.036090612411499,-0.0220201723277568,-26.76959800720215,1.3139458894729614,61.87520599365234,34.63,0
-0.3392684459686279,-1.1015297174453735,-0.0421201512217521,-17.773895263671875,1.3175657987594604,61.76944732666016,34.63,0
-0.3688628673553467,-1.0483626127243042,-0.0158347394317388,3.1139156818389893,1.3198888301849363,61.70157623291016,34.63,0
-0.3654637634754181,-0.952667474746704,0.0346203707158565,31.95941162109375,1.321379542350769,61.65802001953125,34.63,0
-0.3688801825046539,-0.9080491662025452,0.0502062328159809,55.15321731567383,1.322336196899414,61.630069732666016,34.63,0
-0.3710726499557495,-0.9018068313598632,0.0546105690300464,60.24290466308594,1.3229501247406006,61.61213302612305,34.63,0
-0.3612841069698334,-0.9145941734313964,0.0686325654387474,48.824195861816406,1.323344111442566,61.60062026977539,34.63,0
-0.3158179521560669,-0.9339959025382996,0.1056199446320533,34.367000579833984,1.3235969543457031,61.59323501586914,34.63,0
-0.2698470652103424,-0.9128601551055908,0.1125629991292953,27.969594955444336,1.3242181539535522,61.58849334716797,34.63,0
-0.2515411674976349,-0.8881009221076965,0.1170186474919319,30.16585922241211,1.32461678981781,61.58545303344727,34.63,0
-0.2453912645578384,-0.8722118735313416,0.1422691196203231,34.98590469360352,1.324872612953186,61.58349990844727,34.63,0
-0.2302490621805191,-0.8676129579544067,0.1640712022781372,36.51713180541992,1.325036883354187,61.58224487304688,34.63,0
-0.2149338871240615,-0.8702594041824341,0.1612692028284073,31.595701217651367,1.32514226436615,61.58143997192383,34.63,0
-0.2163010388612747,-0.8775555491447449,0.1594710350036621,20.759950637817383,1.3252098560333252,61.58092498779297,34.63,0
-0.2283739447593689,-0.8878355622291565,0.1639148443937301,7.15692949295044,1.3252532482147217,61.58059310913086,34.63,0
-0.2473171949386596,-0.911225974559784,0.1611688584089279,-7.354983806610107,1.3252811431884766,61.580379486083984,34.63,0
-0.2706694304943084,-0.9374321699142456,0.1538088619709015,-23.58942985534668,1.327135443687439,61.58024597167969,34.63,0
-0.2856555581092834,-1.015825271606445,0.1378901004791259,-40.599700927734375,1.3283253908157349,61.58015823364258,34.63,0
-0.3064683377742767,-1.1109156608581543,0.1332721263170242,-52.09629440307617,1.3290890455245972,61.5801010131836,34.63,0
-0.3198247849941253,-1.1327548027038574,0.1247107982635498,-49.998233795166016,1.3295791149139404,61.5800666809082,34.63,0
-0.3004072904586792,-1.034814476966858,0.1192166358232498,-31.84237289428711,1.3298935890197754,61.58004379272461,34.63,0
-0.2879462838172912,-0.9383752942085266,0.1156907975673675,-4.506472587585449,1.3300954103469849,61.58002853393555,34.63,0
-0.2911450564861297,-0.9100728631019592,0.1246236637234687,20.13680076599121,1.3302249908447266,61.58001708984375,34.63,0
-0.2652089893817901,-0.9758765697479248,0.1247584894299507,34.54348373413086,1.3303080797195437,61.58001327514648,34.63,0
-0.2205758392810821,-1.051692247390747,0.1080516874790191,39.80503845214844,1.3363288640975952,61.58000946044922,34.63,0
-0.1919328421354293,-1.066759705543518,0.0637435764074325,40.82785034179688,1.3401926755905151,61.58000564575195,34.63,0
-0.1959425210952758,-1.059635877609253,0.0465047322213649,40.50976943969727,1.3426722288131714,61.58000564575195,34.63,0
-0.2041134685277938,-1.01587975025177,0.0746262520551681,39.6070442199707,1.3442635536193848,61.58000564575195,34.63,0
-0.1925637871026992,-0.9486151933670044,0.0926730260252952,38.46167755126953,1.3452847003936768,61.58000564575195,34.63,0
-0.1795541048049926,-0.9110464453697203,0.0986566320061683,36.30078506469727,1.3459399938583374,61.58000564575195,34.63,0
-0.1544119119644165,-0.8813391923904419,0.0968987941741943,30.396419525146484,1.3463605642318726,61.58000564575195,34.63,0
-0.1438748687505722,-0.8622748255729675,0.0957707166671752,18.13812828063965,1.3466304540634155,61.58000564575195,34.63,0
-0.1371128112077713,-0.8500403761863708,0.0950467810034751,0.4731184244155884,1.347262620925903,61.42595291137695,34.63,0
-0.1327733099460601,-0.8477867841720581,0.0777888745069503,-18.45474624633789,1.3476682901382446,61.327091217041016,34.63,0
-0.1411840170621872,-0.8575361371040344,0.0499204210937023,-35.79987716674805,1.3479286432266235,61.263648986816406,34.63,0
-0.1633748412132263,-0.8973793387413025,0.009644953534007,-51.01511764526367,1.3480957746505735,61.22293472290039,34.63,0
-0.1832134127616882,-0.9341439604759216,-0.027397071942687,-61.417083740234375,1.34820294380188,61.19680404663086,34.63,0
-0.1959446668624878,-1.0417040586471558,-0.0735596120357513,-60.7374382019043,1.348271727561951,61.18003845214844,34.63,0
-0.2265059500932693,-1.1163276433944702,-0.1031840667128562,-44.23701095581055,1.3483158349990845,61.16927719116211,34.63,0
-0.2573139667510986,-1.13622784614563,-0.1109997928142547,-14.37373161315918,1.3483442068099976,61.16237258911133,34.63,0
-0.2714869976043701,-1.0538365840911863,-0.0768310502171516,18.752098083496094,1.3469852209091189,61.15793991088867,34.63,0
-0.2973757684230804,-1.0177558660507202,-0.0493057444691658,43.98701095581055,1.3461130857467651,61.15509414672852,34.63,0
-0.3363807797431946,-1.011394739151001,-0.026043813675642,57.80965805053711,1.3455533981323242,61.15327072143555,34.63,0
-0.3502164185047149,-1.0353013277053833,0.0056776786223053,65.06807708740234,1.3451942205429075,61.152099609375,34.63,0
-0.3367042243480682,-1.0394476652145386,0.0372302532196044,71.33827209472656,1.344963788986206,61.15134811401367,34.63,0
-0.2832506895065307,-0.9973263740539552,0.0742722004652023,77.5689926147461,1.3448158502578735,61.1508674621582,34.63,0
-0.2433495074510574,-0.9535019993782043,0.1036413684487342,80.88323211669922,1.3447209596633911,61.15055847167969,34.63,0
-0.2289387732744217,-0.9141825437545776,0.12808658182621,77.36398315429688,1.3446600437164309,61.15036010742188,34.63,0
-0.2140930145978927,-0.905742883682251,0.1381763368844986,65.5364761352539,1.3455392122268677,61.15023040771485,34.63,0
-0.1821747720241546,-0.917120099067688,0.1558469086885452,48.55991363525391,1.3461034297943115,61.150150299072266,34.63,0
-0.1784847974777221,-0.9132258296012878,0.1615891009569168,31.19161796569824,1.3464654684066772,61.15009689331055,34.63,0
-0.176116794347763,-0.9107266664505004,0.1652740985155105,14.79000759124756,1.3466978073120115,61.15006256103516,34.63,0
-0.1969882398843765,-0.9203184247016908,0.1732366979122162,-2.667886018753052,1.3468469381332395,61.15003967285156,34.63,0
-0.2383712083101272,-0.9376693964004515,0.172748863697052,-21.68853759765625,1.3469425439834597,61.1500244140625,34.63,0
-0.276123970746994,-0.9544020295143129,0.1724357903003692,-37.35566329956055,1.347003936767578,61.15001678466797,34.63,0
-0.3059492707252502,-1.0099222660064695,0.1722348779439926,-40.43465042114258,1.3470433950424194,61.1500129699707,34.63,0
-0.3250894546508789,-1.067943096160889,0.1777037233114242,-24.71622467041016,1.3512001037597656,61.15000915527344,34.65,0
-0.3373725116252899,-1.0939819812774658,0.1812133193016052,4.147233963012695,1.3538676500320437,61.15000534057617,34.65,0
-0.3340595066547394,-1.060312271118164,0.1722700148820877,29.53435707092285,1.355579495429993,61.15000534057617,34.65,0
-0.3263356387615204,-0.9995205402374268,0.1553351730108261,37.486114501953125,1.356678128242493,61.15000534057617,34.65,0
-0.3269766867160797,-0.9437145590782166,0.1276740431785583,27.732152938842773,1.357383131980896,61.15000534057617,34.65,0
-0.3329858481884002,-0.9134992957115172,0.1155204996466636,9.732522010803224,1.3578355312347412,61.15000534057617,34.65,0
-0.33124440908432,-0.938891053199768,0.0965255051851272,-8.116772651672363,1.358125925064087,61.15000534057617,34.65,0
-0.3189313113689422,-0.9663815498352052,0.0787378326058387,-23.042938232421875,1.3583122491836548,61.15000534057617,34.65,0
-0.3054316937923431,-0.98402339220047,0.0617249570786953,-34.83930587768555,1.3579728603363037,60.99237060546875,34.65,0
-0.2967684268951416,-0.9561604857444764,0.0676003992557525,-41.82915878295898,1.3577550649642944,60.89120864868164,34.65,0
-0.2856110632419586,-0.910290777683258,0.0769686922430992,-41.84737396240234,1.357615351676941,60.826290130615234,34.65,0
-0.2784509062767029,-0.8752564787864685,0.0829807221889495,-36.95093536376953,1.3575257062911987,60.784629821777344,34.65,0
-0.2570626139640808,-0.8527734875679016,0.0980344489216804,-33.66896057128906,1.3574681282043457,60.75789260864258,34.65,0
-0.2377390563488006,-0.8327474594116211,0.102097287774086,-36.89365005493164,1.357431173324585,60.7407341003418,34.65,0
-0.2309360802173614,-0.8254936337471008,0.0991068109869957,-45.90251922607422,1.3574074506759644,60.7297248840332,34.65,0
-0.2321680933237075,-0.8320341110229492,0.09718769043684,-56.86788177490234,1.357392191886902,60.72265625,34.65,0
-0.2441542893648147,-0.8586224913597107,0.0847605615854263,-66.4018783569336,1.3578413724899292,60.71812057495117,34.65,0
-0.2462485581636428,-0.8868809342384338,0.0767855495214462,-71.99360656738281,1.358129620552063,60.7152099609375,34.65,0
-0.2475925385951995,-0.921808898448944,0.0716676414012909,-70.79573822021484,1.3583146333694458,60.71334457397461,34.65,0
-0.2540528178215027,-1.0002014636993408,0.0627854913473129,-59.91339874267578,1.3584333658218384,60.7121467590332,34.65,0
-0.2581986486911773,-1.0617047548294067,0.0570854358375072,-39.56673431396485,1.358509540557861,60.71137619018555,34.65,0
-0.2832503020763397,-1.1067718267440796,0.0646230205893516,-16.008886337280273,1.3585584163665771,60.71088409423828,34.65,0
-0.3105225563049316,-1.0685200691223145,0.1086446270346641,1.9322539567947388,1.358589768409729,60.710567474365234,34.65,0
-0.3112309873104095,-0.9879944920539856,0.1480907052755355,11.242560386657717,1.358609914779663,60.71036529541016,34.65,0
-0.2948923110961914,-0.9251222610473632,0.1510138362646103,17.28544807434082,1.3595410585403442,60.710235595703125,34.65,0
-0.2844070792198181,-0.9127633571624756,0.1528897285461425,26.211275100708008,1.3601386547088623,60.71015167236328,34.65,0
-0.2832760214805603,-0.9496143460273744,0.1484957933425903,37.21649169921875,1.3605221509933472,60.71009826660156,34.65,0
-0.2545613050460815,-0.9620676040649414,0.1456760168075561,43.863426208496094,1.36076819896698,60.71006393432617,34.65,0
-0.2249383181333542,-0.964461624622345,0.1382686793804168,40.87074661254883,1.3609261512756348,60.71004104614258,34.65,0
-0.2115257531404495,-0.9380090832710266,0.1335150748491287,27.650775909423828,1.361027479171753,60.71002578735352,34.65,0
-0.2141138911247253,-0.8930445313453674,0.1472578048706054,7.047105312347412,1.3610925674438477,60.71001434326172,34.65,0
-0.2157748192548751,-0.8641888499259949,0.1560771018266677,-16.00214958190918,1.3611342906951904,60.71001052856445,34.65,0
-0.2000473737716674,-0.8456709384918213,0.1729323714971542,-34.74541473388672,1.3574885129928589,60.71000671386719,34.63,0
-0.195552185177803,-0.8281894326210022,0.183749109506607,-43.2413444519043,1.3551489114761353,60.71000289916992,34.63,0
-0.2150585204362869,-0.8225685954093933,0.1794951260089874,-40.27090835571289,1.3536474704742432,60.71000289916992,34.63,0
-0.2555654346942901,-0.8637436628341675,0.1767651587724685,-29.54435157775879,1.3526839017868042,60.71000289916992,34.63,0
-0.2927559912204742,-0.8957651853561401,0.163817673921585,-15.832275390625,1.3520655632019043,60.71000289916992,34.63,0
-0.3166227638721466,-0.989085853099823,0.1163243055343627,-1.1464828252792358,1.3516687154769895,60.71000289916992,34.63,0
-0.3431346118450165,-1.1161469221115112,0.0802480205893516,15.539895057678224,1.3514140844345093,60.71000289916992,34.63,0
-0.3713439404964447,-1.180894136428833,0.0794874355196952,34.73179244995117,1.3512506484985352,60.71000289916992,34.63,0
-0.3614582121372223,-1.127282977104187,0.0789993330836296,52.86256408691406,1.3488504886627195,60.55595016479492,34.63,0
-0.3439185619354248,-1.0424984693527222,0.0730883255600929,63.07915115356445,1.347310185432434,60.45708847045898,34.63,0
-0.2654893398284912,-0.9489042162895204,0.0692949742078781,60.21697616577149,1.346321702003479,60.393646240234375,34.63,0
-0.2039624154567718,-0.9000363945960999,0.0612628497183322,45.658470153808594,1.3456872701644895,60.35293197631836,34.63,0
-0.1980646252632141,-0.9190557599067688,0.0393149703741073,27.219501495361328,1.3452801704406738,60.32680130004883,34.63,0
-0.2334641963243484,-0.9480546712875366,0.002838987391442,13.19747829437256,1.345018982887268,60.310035705566406,34.63,0
-0.2561815977096557,-0.9498711824417114,-0.0485580712556839,6.176533222198486,1.34485125541687,60.29927444458008,34.63,0
-0.2427714467048645,-0.9286457896232604,-0.0759439691901207,2.8423972129821777,1.344743728637695,60.2923698425293,34.63,0
-0.2341655790805816,-0.9094268083572388,-0.0767253413796424,-0.8628449440002441,1.3428386449813845,60.28793716430664,34.63,0
-0.2510339319705963,-0.9026909470558168,-0.0772267803549766,-5.21107292175293,1.3416160345077517,60.28509140014648,34.63,0
-0.2562612891197204,-0.9095637798309326,-0.0887441262602806,-7.689830780029297,1.3408313989639282,60.28326797485352,34.63,0
-0.2484203577041626,-0.9251699447631836,-0.1017330661416053,-7.539422988891602,1.3403279781341553,60.28209686279297,34.63,0
-0.2377907335758209,-0.946380615234375,-0.1100686192512512,-6.457691669464111,1.340004801750183,60.28134536743164,34.63,0
-0.2309692502021789,-0.971187949180603,-0.1154178977012634,-4.864272594451904,1.3397974967956543,60.28086471557617,34.63,0
-0.2377871572971344,-0.9983034133911132,-0.1076552122831344,-1.3661481142044067,1.3396644592285156,60.280555725097656,34.63,0
-0.2477602809667587,-1.0436934232711792,-0.0914780125021934,3.744807243347168,1.3395789861679075,60.28035736083984,34.63,0
-0.2429649084806442,-1.1176042556762695,-0.0810964182019233,8.819594383239746,1.3335566520690918,60.28022766113281,34.63,0
-0.228691965341568,-1.1706337928771973,-0.0632385611534118,15.039091110229492,1.3296918869018557,60.28014755249024,34.63,0
-0.2195324003696441,-1.154285192489624,-0.0237895455211401,26.295869827270508,1.3272117376327517,60.28009414672852,34.63,0
-0.2192520946264267,-1.0038491487503052,0.0463087558746337,44.11349868774414,1.3256200551986694,60.280059814453125,34.63,0
-0.2302677631378173,-0.9185035228729248,0.0689027160406112,63.56563186645508,1.3245986700057983,60.28003692626953,34.63,0
-0.242934763431549,-0.8861247301101685,0.0834022164344787,74.08922576904297,1.3239431381225586,60.28002166748047,34.63,0
-0.2510637044906616,-0.93811696767807,0.0871093869209289,66.04303741455078,1.3235225677490234,60.28001403808594,34.63,0
-0.2394870817661285,-0.9994714260101318,0.0894884392619133,38.57792282104492,1.323252558708191,60.28001022338867,34.63,0
-0.1928734481334686,-1.0108563899993896,0.0910151749849319,-0.0235860217362642,1.3230793476104736,60.280006408691406,34.63,0
-0.168557271361351,-0.956587016582489,0.09759271889925,-39.73515319824219,1.3229681253433228,60.28000259399414,34.63,0
-0.1641480922698974,-0.9049667716026306,0.1018138080835342,-73.7391128540039,1.3228968381881714,60.28000259399414,34.63,0
-0.1781118661165237,-0.8718398809432983,0.1045226603746414,-97.58146667480467,1.322851061820984,60.28000259399414,34.63,0
-0.1870730072259903,-0.8617764711380005,0.1118588224053382,-108.61885833740234,1.3228217363357544,60.28000259399414,34.63,0
-0.1984215229749679,-0.8777094483375549,0.1221645250916481,-107.07159423828124,1.3228029012680054,60.28000259399414,34.63,0
-0.228095456957817,-0.8879343271255493,0.1343759000301361,-95.68560028076172,1.3227907419204712,60.28000259399414,34.63,0
-0.2695295810699463,-0.9000938534736633,0.1422124654054641,-78.65560913085938,1.3227829933166504,60.28000259399414,34.63,0
-0.3129129409790039,-0.9190926551818848,0.1584370732307434,-61.12047576904297,1.32415509223938,60.38389587402344,34.63,0
-0.3463516533374786,-0.9368827939033508,0.1744468659162521,-48.24452972412109,1.3250356912612915,60.45056915283203,34.63,0
-0.3622129261493683,-0.95389723777771,0.1847210228443145,-43.18072891235352,1.3256007432937622,60.49335479736328,34.63,0
-0.3555984497070312,-0.9872072339057922,0.1801188439130783,-43.52439498901367,1.3259633779525757,60.52081298828125,34.63,0
-0.351353645324707,-1.0365725755691528,0.1659698784351349,-40.16952896118164,1.3261960744857788,60.53843307495117,34.63,0
-0.3542273640632629,-1.1186323165893557,0.1344987899065017,-25.60652732849121,1.326345443725586,60.54974365234375,34.63,0
-0.3560715317726135,-1.1600979566574097,0.1087046787142753,-4.47415828704834,1.3264412879943848,60.55699920654297,34.63,0
-0.334863930940628,-1.0859483480453491,0.0697604045271873,10.584897994995115,1.326502799987793,60.5616569519043,34.63,0
-0.3156563341617584,-1.0663522481918335,0.022377111017704,12.78642749786377,1.3251651525497437,60.56464767456055,34.63,0
-0.3033300042152405,-1.064972162246704,-0.0136285303160548,4.870214939117432,1.3243067264556885,60.56656646728516,34.63,0
-0.2954196631908417,-1.0640864372253418,-0.064723752439022,-6.303915023803711,1.3237558603286743,60.56779479980469,34.63,0
-0.2847455143928528,-1.046724796295166,-0.108709268271923,-13.170310020446776,1.3234022855758667,60.56858444213867,34.63,0
-0.2555043399333954,-1.018789768218994,-0.1481321901082992,-11.497136116027832,1.3231754302978516,60.569091796875,34.63,0
-0.2255434989929199,-0.9728737473487854,-0.1566382348537445,-4.379584312438965,1.32302987575531,60.56941604614258,34.63,0
-0.2175119072198867,-0.9378097653388976,-0.1509013772010803,2.291022062301636,1.3229364156723022,60.56962585449219,34.63,0
-0.2347487807273864,-0.9153077006340028,-0.1528175622224807,7.1557936668396,1.3228764533996582,60.56975936889648,34.63,0
-0.2458104193210601,-0.9120627045631408,-0.1540472656488418,12.484590530395508,1.3182471990585327,60.5698471069336,34.63,0
-0.2305180430412292,-0.9211758375167848,-0.1492386311292648,19.562116622924805,1.3152765035629272,60.56990051269531,34.63,0
-0.2039109617471695,-0.938219666481018,-0.1349571794271469,27.76903915405273,1.3133699893951416,60.5699348449707,34.63,0
-0.1980316042900085,-0.9547551870346068,-0.1201943978667259,35.09575271606445,1.312146544456482,60.5699577331543,34.63,0
-0.2110518962144851,-0.9765622615814208,-0.0995249450206756,38.77658081054688,1.3113614320755005,60.56997299194336,34.63,0
-0.2250053435564041,-1.0073500871658323,-0.0806627050042152,38.8530387878418,1.3108575344085691,60.56998443603516,34.63,0
-0.2227643132209777,-1.0606945753097534,-0.0573624558746814,41.69293212890625,1.3105342388153076,60.56998825073242,34.63,0
-0.2045328319072723,-1.111721396446228,-0.0424096956849098,55.41314697265625,1.3103266954421997,60.56999206542969,34.63,0
-0.1984306871891021,-1.1388696432113647,-0.0160205531865358,77.78520202636719,1.3111116886138916,60.56999588012695,34.63,0
-0.2169057875871658,-1.0611296892166138,0.0512944497168064,92.50414276123048,1.3116154670715332,60.56999588012695,34.63,0
-0.2287620455026626,-0.972056210041046,0.1112866699695587,84.25198364257812,1.311938762664795,60.56999588012695,34.63,0
-0.2251751571893692,-0.93728506565094,0.1441884487867355,55.84503173828125,1.3121463060379028,60.56999588012695,34.63,0
-0.2172755151987075,-0.959753155708313,0.1317162662744522,25.22295570373535,1.312279462814331,60.56999588012695,34.63,0
-0.2066082060337066,-1.0077584981918335,0.118114560842514,7.437991619110107,1.312364935874939,60.56999588012695,34.63,0
-0.1773714423179626,-1.049761176109314,0.1093857735395431,3.372487783432007,1.3124197721481323,60.56999588012695,34.63,0
-0.1530112028121948,-1.054324984550476,0.1093819141387939,3.694028377532959,1.3124549388885498,60.56999588012695,34.63,0
-0.1429759711027145,-1.0068737268447876,0.1093794405460357,-0.1658489108085632,1.3101822137832642,60.666725158691406,34.63,0
-0.1533292680978775,-0.9484333992004396,0.109377846121788,-9.048540115356444,1.3087236881256104,60.72880172729492,34.63,0
-0.1655711978673935,-0.9053320288658142,0.1149746030569076,-18.069988250732425,1.3077876567840576,60.76863861083984,34.63,0
-0.1622318029403686,-0.8888675570487976,0.1353596001863479,-23.19307518005371,1.3071869611740112,60.79420471191406,34.63,0
-0.165686547756195,-0.8894971609115601,0.1596370637416839,-24.67874336242676,1.306801438331604,60.81061172485352,34.63,0
-0.1958924829959869,-0.8899012207984924,0.1696191728115081,-25.75396728515625,1.306554079055786,60.82114028930664,34.63,0
-0.2320702373981475,-0.901356041431427,0.1872206628322601,-29.98356819152832,1.3063952922821045,60.82789611816406,34.63,0
-0.2664825916290283,-0.9087071418762208,0.2041140645742416,-39.70539855957031,1.306293487548828,60.83223342895508,34.63,0
-0.2941642105579376,-0.9358157515525818,0.2149552702903747,-55.47396469116211,1.308064579963684,60.83501434326172,34.63,0
-0.3119286894798279,-0.9588102698326112,0.2163147628307342,-75.22328186035156,1.3092011213302612,60.83679962158203,34.63,0
-0.3121333718299866,-0.990360140800476,0.2115894258022308,-93.20305633544922,1.309930443763733,60.83794784545898,34.63,0
-0.3234602808952331,-1.055389165878296,0.1917636543512344,-102.25154876708984,1.3103985786437988,60.83868408203125,34.63,0
-0.3363269865512848,-1.1307077407836914,0.1734428405761718,-100.69257354736328,1.3106989860534668,60.83915710449219,34.63,0
-0.3557796478271484,-1.1678472757339478,0.1448922753334045,-94.82697296142578,1.3108917474746704,60.83945846557617,34.63,0
-0.3570677042007446,-1.1301058530807495,0.1265701651573181,-90.15996551513672,1.311015486717224,60.83965301513672,34.63,0
-0.3299054503440857,-1.0443099737167358,0.0812254473567009,-83.49280548095703,1.311094880104065,60.83977890014648,34.63,0
-0.3124742805957794,-1.017240047454834,0.0465280413627624,-68.98595428466797,1.3111457824707031,60.83985900878906,34.63,0
-0.3068857192993164,-0.999868094921112,0.0186634697020053,-48.147560119628906,1.31117844581604,60.83990859985352,34.63,0
-0.2865059673786163,-1.005513072013855,-0.021609503775835,-28.343955993652344,1.311199426651001,60.839942932128906,34.63,0
-0.2678296566009521,-1.0035380125045776,-0.0586499311029911,-14.628439903259276,1.3112128973007202,60.839962005615234,34.63,0
-0.239050954580307,-0.9910749197006226,-0.0824203491210937,-6.485804557800293,1.311221480369568,60.8399772644043,34.63,0
-0.2261802107095718,-0.9662835001945496,-0.0864792838692665,0.3052558600902557,1.3112270832061768,60.83998489379883,34.63,0
-0.2235182821750641,-0.9503738284111024,-0.0890840739011764,10.64985179901123,1.3112306594848633,60.839988708496094,34.63,0
-0.2162122279405594,-0.9513594508171082,-0.0907556787133216,26.57445335388184,1.3112329244613647,60.83999252319336,34.63,0
-0.2003280818462371,-0.9631875157356262,-0.0918284133076667,45.19150161743164,1.3103162050247192,60.83999633789063,34.63,0
-0.173341229557991,-0.9707781076431274,-0.0869190618395805,61.068939208984375,1.309727907180786,60.83999633789063,34.63,0
-0.1672181636095047,-0.981247067451477,-0.0781707465648651,71.05037689208984,1.3093503713607788,60.83999633789063,34.63,0
-0.1744842827320099,-0.98796546459198,-0.0613610334694385,76.5566635131836,1.309108018875122,60.83999633789063,34.63,0
-0.179147258400917,-0.9922769069671632,-0.0393779799342155,81.74901580810547,1.308952569961548,60.83999633789063,34.63,0
-0.1709441393613815,-0.9950437545776368,-0.0196727458387613,90.33679962158205,1.3088527917861938,60.83999633789063,34.63,0
-0.1432887613773346,-1.036003828048706,-0.0014292877167463,103.18505859375,1.308788776397705,60.83999633789063,34.63,0
-0.1199433505535125,-1.0678874254226685,0.0326694138348102,116.43519592285156,1.30874764919281,60.83999633789063,34.63,0
-0.1161571592092514,-1.05476176738739,0.0657475441694259,122.04723358154295,1.304589867591858,60.95463943481445,34.63,0
-0.1361185014247894,-0.9623718857765198,0.1093662828207016,112.90190887451172,1.3019216060638428,61.0282096862793,34.63,0
-0.1489285379648208,-0.9086791276931764,0.1429560482501983,88.8263168334961,1.3002092838287354,61.07542419433594,34.63,0
-0.1627470552921295,-0.9190044403076172,0.1645120233297348,57.49801254272461,1.2991104125976562,61.1057243347168,34.63,0
-0.1772127598524093,-0.97601056098938,0.1671498715877533,28.902606964111328,1.2984051704406738,61.12516784667969,34.63,0
-0.1753004640340805,-1.02938711643219,0.1688426882028579,8.473827362060547,1.297952651977539,61.13764572143555,34.63,0
-0.1516821682453155,-1.0300544500350952,0.175526812672615,-4.0235676765441895,1.2976622581481934,61.145652770996094,34.63,0
-0.1365253031253814,-0.9968961477279664,0.1798162907361984,-9.693507194519045,1.2974759340286257,61.15079116821289,34.63,0
-0.1323962807655334,-0.9420303702354432,0.1937645822763443,-7.994109630584717,1.3001105785369873,61.154090881347656,34.63,0
-0.1241487339138984,-0.895625114440918,0.1915202438831329,-0.1288840025663375,1.301801323890686,61.15620803833008,34.63,0
-0.1188559308648109,-0.8714426755905151,0.1844821870326995,9.034944534301758,1.3028863668441772,61.15756607055664,34.63,0
-0.1266548633575439,-0.8559237718582153,0.1799655705690384,14.539591789245604,1.3035826683044434,61.15843963623047,34.63,0
-0.1372575461864471,-0.8459646701812744,0.1770670562982559,14.46450424194336,1.3040294647216797,61.15900039672852,34.63,0
-0.1608550548553466,-0.85076904296875,0.1640114188194275,8.737934112548828,1.3043162822723389,61.15935897827149,34.63,0
-0.1927919089794159,-0.8762432932853699,0.1668286025524139,-2.947687864303589,1.3045003414154053,61.15958786010742,34.63,0
-0.2132871448993683,-0.9037867188453674,0.1798320561647415,-21.06918334960937,1.30461847782135,61.15973663330078,34.63,0
-0.215244248509407,-0.9550491571426392,0.1993724852800369,-44.33113861083984,1.3065303564071655,61.15983200073242,34.63,0
-0.20530466735363,-0.9991419911384584,0.2119123935699463,-67.34161376953125,1.3077572584152222,61.15989303588867,34.63,0
-0.187730461359024,-1.0610249042510986,0.1975686997175216,-81.80030822753906,1.308544635772705,61.15993118286133,34.63,0
-0.1932456642389297,-1.179106593132019,0.1771681904792785,-83.69895935058594,1.3090499639511108,61.15995407104492,34.63,0
-0.2079805582761764,-1.2380913496017456,0.1640763133764267,-79.05989837646484,1.309374213218689,61.159969329833984,34.63,0
-0.2062410116195678,-1.1919777393341064,0.1556746959686279,-77.78453826904297,1.309582233428955,61.15998077392578,34.63,0
-0.2051246762275695,-1.039233684539795,0.1502830237150192,-81.93153381347656,1.309715747833252,61.15998840332031,34.63,0
-0.2044082731008529,-0.9468090534210204,0.1412251889705658,-84.85078430175781,1.309801459312439,61.15999221801758,34.63,0
-0.1983507573604583,-0.9098873734474182,0.1298146247863769,-80.89176177978516,1.3075615167617798,61.15999603271485,34.63,0
-0.1832678467035293,-0.9141820073127748,0.1168942004442215,-70.80976104736328,1.306123971939087,61.15999603271485,34.63,0
-0.1623929440975189,-0.9561225175857544,0.091809295117855,-58.19559860229492,1.305201530456543,61.15999603271485,34.63,0
-0.1489966362714767,-0.983037531375885,0.0701134726405143,-45.16376495361328,1.3046095371246338,61.15999603271485,34.63,0
-0.1571929901838302,-0.966723382472992,0.0729836598038673,-32.100345611572266,1.3042296171188354,61.15999603271485,34.63,0
-0.1680507063865661,-0.911471664905548,0.0972166806459426,-18.52942657470703,1.303985834121704,61.15999603271485,34.63,0
-0.1694207936525344,-0.870416522026062,0.1127680391073226,-3.2463653087615967,1.303829312324524,61.15999603271485,34.63,0
-0.1591044813394546,-0.8552652597427368,0.1059546843171119,14.246049880981444,1.3037289381027222,61.15999603271485,34.63,0
-0.1468862891197204,-0.8567376136779785,0.1015822663903236,31.46174049377441,1.3045823574066162,61.263893127441406,34.63,0
-0.1278498172760009,-0.8744757771492004,0.1155696213245391,44.172096252441406,1.3051300048828125,61.33056640625,34.63,0
-0.1212310716509819,-0.9026524424552916,0.1133503541350364,50.82060623168945,1.3054814338684082,61.37335586547852,34.63,0
-0.1281790882349014,-0.9207346439361572,0.1007306054234504,54.24533081054688,1.3057069778442385,61.40081405639648,34.63,0
-0.1438334733247757,-0.9323387145996094,0.0870342031121254,59.44532012939453,1.305851697921753,61.418434143066406,34.63,0
-0.1594773381948471,-0.9397855401039124,0.072646863758564,69.93678283691406,1.305944561958313,61.42974472045898,34.63,0
-0.1695166677236557,-1.0509222745895386,0.0410227999091148,83.90998077392578,1.3060041666030884,61.4370002746582,34.63,0
-0.1871548742055893,-1.144634485244751,0.0039349738508462,93.6151885986328,1.3060424327850342,61.44165802001953,34.63,0
-0.2040718346834182,-1.2047735452651978,-0.0142680825665593,91.8901138305664,1.3051491975784302,61.44464874267578,34.63,0
-0.2149281799793243,-1.1146185398101809,0.0076368888840079,79.74872589111328,1.3045759201049805,61.44656753540039,34.63,0
-0.216297373175621,-1.011980056762695,0.0272920131683349,64.97822570800781,1.3042080402374268,61.44779586791992,34.63,0
-0.2115782648324966,-0.968503713607788,0.0455033145844936,53.69733047485352,1.3039720058441162,61.44858551025391,34.63,0
-0.202952042222023,-0.9685919284820556,0.0571902804076671,45.8488655090332,1.3038204908370972,61.44909286499024,34.63,0
-0.1974162310361862,-0.9742463231086732,0.0646902993321418,38.44408798217773,1.3037232160568235,61.44941711425781,34.63,0
-0.1714725643396377,-0.9554839134216307,0.0695033818483352,30.360332489013672,1.303660869598389,61.44962692260742,34.63,0
-0.1492256373167038,-0.9322476983070374,0.0669943690299987,22.919204711914062,1.3036208152770996,61.44976043701172,34.63,0
-0.157339945435524,-0.8837494254112244,0.0765797793865203,17.552791595458984,1.3003815412521362,61.44984817504883,34.63,0
-0.1793405562639236,-0.8414304852485657,0.093926690518856,14.13759708404541,1.2983027696609497,61.44990158081055,34.63,0
-0.1934592872858047,-0.825468122959137,0.1050589382648468,10.846071243286133,1.296968698501587,61.44993591308594,34.63,0
-0.1913243234157562,-0.8432133197784424,0.123398520052433,5.280156135559082,1.2961125373840332,61.44995880126953,34.63,0
-0.2011497765779495,-0.8546011447906494,0.1183744892477989,-3.300168752670288,1.2955631017684937,61.449974060058594,34.63,0
-0.2018574178218841,-0.8843002915382385,0.1151503548026084,-13.238173484802246,1.295210599899292,61.44998550415039,34.63,0
-0.2247026413679123,-0.9313483834266664,0.0962879657745361,-23.5351505279541,1.2949843406677246,61.449989318847656,34.63,0
-0.2449611574411392,-0.9671388864517212,0.0841831713914871,-36.70643615722656,1.2948391437530518,61.44999313354492,34.63,0
-0.241168588399887,-1.0236937999725342,0.059621687978506,-54.39130783081055,1.2952052354812622,61.44999694824219,34.65,0
-0.2331369668245315,-1.1159652471542358,0.0326639898121356,-69.83890533447266,1.2954401969909668,61.44999694824219,34.65,0
-0.2279827296733856,-1.1751797199249268,0.0153640937060117,-71.59834289550781,1.2955909967422483,61.44999694824219,34.65,0
-0.2078817039728164,-1.123615860939026,0.0154575649648904,-58.63359451293945,1.2956876754760742,61.44999694824219,34.65,0
-0.194982036948204,-1.0345473289489746,0.0323108732700347,-45.5881462097168,1.2957497835159302,61.44999694824219,34.65,0
-0.1978993117809295,-0.9438016414642334,0.0375285819172859,-47.5377311706543,1.29578959941864,61.44999694824219,34.65,0
-0.199771448969841,-0.9079573750495912,0.0408770069479942,-63.83209609985352,1.2958152294158936,61.44999694824219,34.65,0
-0.1729840189218521,-0.907345712184906,0.02623251080513,-80.26461791992188,1.2958316802978516,61.44999694824219,34.65,0
-0.1390000581741333,-0.996517539024353,0.0056389668025076,-82.71702575683594,1.2940057516098022,61.66853713989258,34.65,0
-0.1227888837456703,-1.0481451749801636,-0.0019790099468082,-66.94400787353516,1.292833924293518,61.808780670166016,34.65,0
-0.1179832592606544,-1.0476901531219482,0.0155233079567551,-39.52870178222656,1.2920819520950315,61.89878082275391,34.65,0
-0.1093015074729919,-1.0418003797531128,0.0379508361220359,-11.789283752441406,1.2915993928909302,61.956539154052734,34.65,0
-0.10373006016016,-0.9932384490966796,0.0299524366855621,8.1295804977417,1.2912896871566772,61.99360656738281,34.65,0
-0.1057524010539054,-0.9676719307899476,0.0192217491567134,18.1466121673584,1.291090965270996,62.017391204833984,34.65,0
-0.1070502251386642,-0.9512648582458496,0.0179331861436367,19.799392700195312,1.2909634113311768,62.032657623291016,34.65,0
-0.1134808659553527,-0.9295401573181152,0.0171062611043453,16.26719093322754,1.290881633758545,62.04245376586914,34.65,0
-0.1120099052786827,-0.9155985116958618,0.0109778139740228,11.041219711303713,1.2912883758544922,62.04874038696289,34.65,0
-0.1110659316182136,-0.9066515564918518,-0.004150619264692,4.903830528259277,1.2915494441986084,62.05277633666992,34.65,0
-0.1216556876897811,-0.9121054410934448,-0.0250547267496585,-4.738252639770508,1.2917169332504272,62.05536651611328,34.65,0
-0.1284515857696533,-0.9268010258674622,-0.0384697802364826,-18.01948547363281,1.291824460029602,62.05702590942383,34.65,0
-0.1328127980232238,-0.9586228728294371,-0.0582743361592292,-27.191062927246094,1.291893482208252,62.05809020996094,34.65,0
-0.1300138086080551,-1.0070332288742063,-0.082179307937622,-22.354204177856445,1.2919377088546753,62.05877304077149,34.65,0
-0.1450109034776687,-1.077284574508667,-0.1031179204583168,-4.13530158996582,1.2919660806655884,62.05921173095703,34.65,0
-0.1714284867048263,-1.09437894821167,-0.088566243648529,13.037882804870604,1.2919843196868896,62.05949401855469,34.65,0
-0.1939795464277267,-1.0437736511230469,-0.0568367168307304,13.991606712341309,1.2878645658493042,62.05967712402344,34.65,0
-0.2196470648050308,-0.988906979560852,-0.0140834357589483,-1.4391217231750488,1.285220742225647,62.059791564941406,34.65,0
-0.2529123425483703,-0.9648922681808472,0.0245487093925476,-18.80059814453125,1.2835241556167605,62.05986785888672,34.65,0
-0.2574667334556579,-0.9830676317214966,0.0493405945599079,-24.72954559326172,1.282435417175293,62.05991744995117,34.65,0
-0.2156073004007339,-0.9779382348060608,0.0652505978941917,-17.815338134765625,1.2817367315292358,62.0599479675293,34.65,0
-0.160755455493927,-0.9466575980186462,0.0810585021972656,-4.038422584533691,1.2812882661819458,62.059967041015625,34.65,0
-0.1367502510547638,-0.8985946178436279,0.1023986488580703,11.11530590057373,1.2810004949569702,62.05997848510742,34.65,0
-0.1325406283140182,-0.8621528148651123,0.1160935312509536,23.329986572265625,1.280815839767456,62.05998611450195,34.65,0
-0.1522302329540252,-0.8499621152877808,0.1136865690350532,29.30214500427246,1.2825334072113037,62.05998992919922,34.63,0
-0.1480725705623626,-0.8589321374893188,0.112141914665699,29.448261260986328,1.2836356163024902,62.05999374389648,34.63,0
-0.145404428243637,-0.8702863454818726,0.1055528745055198,26.976905822753903,1.284342885017395,62.05999755859375,34.63,0
-0.160485491156578,-0.8719750642776489,0.1069221794605255,23.20556259155273,1.2847968339920044,62.05999755859375,34.63,0
-0.175761416554451,-0.8730587959289551,0.1078009232878685,16.49698829650879,1.2850881814956665,62.05999755859375,34.63,0
-0.1967601776123047,-0.8961453437805176,0.1195603981614112,5.693019390106201,1.285275101661682,62.05999755859375,34.63,0
-0.2102359682321548,-0.9613409042358398,0.1215091794729232,-6.148475170135498,1.2853950262069702,62.05999755859375,34.63,0
-0.2132861912250518,-1.0143752098083496,0.1171620190143585,-11.440485954284668,1.28547203540802,62.05999755859375,34.63,0
-0.2040480971336364,-1.0875940322875977,0.1143722608685493,-4.504445552825928,1.2836854457855225,62.231964111328125,34.63,0
-0.2037173956632614,-1.173766016960144,0.1181797310709953,9.254237174987791,1.282538890838623,62.34231948852539,34.63,0
-0.220298483967781,-1.2066751718521118,0.1262209117412567,14.454619407653809,1.2818031311035156,62.41313934326172,34.63,0
-0.2197437286376953,-1.0934478044509888,0.1201857328414917,-0.103040724992752,1.281330943107605,62.458587646484375,34.63,0
-0.2081921696662902,-0.9871983528137208,0.1051171571016311,-30.12035179138184,1.281027913093567,62.487754821777344,34.63,0
-0.2063768208026886,-0.9526002407073976,0.0954470112919807,-58.87397766113281,1.28083336353302,62.506473541259766,34.63,0
-0.1996140629053115,-0.9583860039711,0.0948390439152717,-69.28710174560547,1.2807085514068604,62.51848602294922,34.63,0
-0.1840785592794418,-1.023674488067627,0.0664600133895874,-55.85706329345703,1.2806284427642822,62.52619552612305,34.63,0
-0.1573154479265213,-1.0431817770004272,0.0426502116024494,-28.060909271240234,1.2787410020828247,62.53114318847656,34.63,0
-0.145738199353218,-1.038907170295715,0.0385660007596015,-0.4030985832214355,1.2775297164916992,62.53431701660156,34.63,0
-0.1495041251182556,-0.9857839345932008,0.0527383126318454,19.53862762451172,1.2767523527145386,62.536354064941406,34.63,0
-0.1575186550617218,-0.923703670501709,0.0562355108559131,31.096508026123047,1.276253581047058,62.53765869140625,34.63,0
-0.162661924958229,-0.8950596451759338,0.0584798119962215,34.74481964111328,1.2759335041046145,62.53849792480469,34.63,0
-0.1435714811086654,-0.8710798025131226,0.0599200762808322,32.4574089050293,1.2757279872894287,62.53903579711914,34.63,0
-0.1313203275203704,-0.8444953560829163,0.0608443543314933,28.91158676147461,1.2755961418151855,62.53938293457031,34.63,0
-0.1234582513570785,-0.8498260974884033,0.0670352727174758,26.793716430664062,1.2755115032196045,62.53960418701172,34.63,0
-0.1240105926990509,-0.8532470464706421,0.0710082501173019,23.72570037841797,1.2809654474258425,62.53974533081055,34.63,0
-0.1299628317356109,-0.8778335452079773,0.0623623318970203,16.497602462768555,1.2844654321670532,62.53983688354492,34.63,0
-0.1337826400995254,-0.9048072695732116,0.0456183291971683,6.6356306076049805,1.286711573600769,62.53989410400391,34.63,0
-0.1306362003087997,-0.9277152419090272,0.0236774440854787,0.4536705017089844,1.288153052330017,62.53993225097656,34.63,0
-0.128616988658905,-1.048774003982544,-0.0239895973354578,3.579944133758545,1.2890781164169312,62.53995513916016,34.63,0
-0.1385167241096496,-1.1544513702392578,-0.0657751113176345,14.707443237304688,1.2896716594696045,62.53997039794922,34.63,0
-0.1784564554691314,-1.1886824369430542,-0.0981884226202964,24.517452239990234,1.2900526523590088,62.539981842041016,34.63,0
-0.2208807915449142,-1.065107822418213,-0.0742072239518165,24.038299560546875,1.2902971506118774,62.53998947143555,34.63,0
-0.242508515715599,-0.9578158259391784,-0.0476219244301319,15.587613105773926,1.2890769243240356,62.53999328613281,34.65,0
-0.2899746000766754,-0.9449397325515748,-0.0305610094219446,10.84872055053711,1.2882938385009766,62.53999710083008,34.65,0
-0.326033353805542,-0.9534699320793152,-0.0140145225450396,16.31618881225586,1.2877912521362305,62.53999710083008,34.65,0
-0.3267827033996582,-0.9813352227211,-0.0033959390129894,26.44549560546875,1.287468671798706,62.53999710083008,34.65,0
-0.2656880617141723,-0.9880220293998718,0.0258095525205135,33.006805419921875,1.287261724472046,62.53999710083008,34.65,0
-0.2096877247095108,-0.9811176657676696,0.0557475052773952,34.67742919921875,1.2871289253234863,62.53999710083008,34.65,0
-0.1905432492494583,-0.9431002140045166,0.0861555114388465,35.08318328857422,1.2870436906814575,62.53999710083008,34.65,0
-0.189452975988388,-0.9187027812004088,0.105669617652893,37.13486099243164,1.2869889736175537,62.53999710083008,34.65,0
-0.1943510770797729,-0.9086437225341796,0.1181926503777504,41.8047981262207,1.284658908843994,62.74420547485352,34.65,0
-0.1862988471984863,-0.9189817309379578,0.1206314340233802,48.57414627075195,1.2831635475158691,62.8752555847168,34.65,0
-0.1811313927173614,-0.9256160259246826,0.1165987327694892,55.0893669128418,1.2822039127349854,62.959354400634766,34.65,0
-0.2002063244581222,-0.9242757558822632,0.1196085512638092,58.940860748291016,1.281588077545166,63.01332473754883,34.65,0
-0.2180452793836593,-0.9178178906440736,0.1271378546953201,60.46672821044922,1.2811928987503052,63.04795837402344,34.65,0
-0.2406888455152511,-0.9360647201538086,0.148763045668602,61.89018249511719,1.2809393405914309,63.07018661499024,34.65,0
-0.2440246343612671,-0.9813610911369324,0.1626408547163009,65.22191619873047,1.2807766199111938,63.084449768066406,34.65,0
-0.2405675798654556,-1.0328208208084106,0.160351276397705,71.77375793457031,1.2806721925735474,63.09360504150391,34.65,0
-0.2495445907115936,-1.12742018699646,0.1588819622993469,79.05220031738281,1.2819823026657104,63.09947967529297,34.65,0
-0.2609032988548279,-1.1881287097930908,0.1635368168354034,77.4356689453125,1.282823085784912,63.103248596191406,34.65,0
-0.2737904191017151,-1.1879035234451294,0.15532848238945,56.2319564819336,1.283362627029419,63.10566711425781,34.65,0
-0.2708650827407837,-1.0702056884765625,0.1388653069734573,14.436928749084473,1.2837088108062744,63.10721969604492,34.65,0
-0.2633900046348572,-0.9778806567192078,0.117104634642601,-37.58097076416016,1.283931016921997,63.10821533203125,34.65,0
-0.2585929334163666,-0.9522184133529664,0.0807487890124321,-86.00630187988281,1.2840735912322998,63.10885620117188,34.65,0
-0.2555144429206848,-0.935749888420105,0.0518199242651462,-121.8512954711914,1.2841651439666748,63.1092643737793,34.65,0
-0.2367455214262008,-0.964365780353546,0.0164617225527763,-143.86216735839844,1.2842239141464231,63.10952758789063,34.65,0
-0.2023096233606338,-0.9547408819198608,-0.0174246858805418,-155.21456909179688,1.2851793766021729,63.10969543457031,34.65,0
-0.1802106350660324,-0.9429664015769958,-0.0391710326075553,-158.97105407714844,1.285792589187622,63.109806060791016,34.65,0
-0.1772243380546569,-0.929812490940094,-0.0307354889810085,-157.297607421875,1.2861860990524292,63.1098747253418,34.65,0
-0.180905669927597,-0.9045777320861816,-0.0253220424056053,-152.03565979003906,1.2864385843276978,63.10992050170898,34.65,0
-0.1832681447267532,-0.8715901970863342,-0.0274457782506942,-143.3064727783203,1.2866007089614868,63.10995101928711,34.65,0
-0.179186463356018,-0.8616162538528442,-0.0288086701184511,-129.21746826171875,1.286704659461975,63.10997009277344,34.65,0
-0.1765670776367187,-0.8664110898971558,-0.0240855198353528,-109.32074737548828,1.2867714166641235,63.109981536865234,34.65,0
-0.1636905521154403,-0.8918792009353638,-0.0154566997662186,-87.72113037109375,1.2868142127990725,63.109989166259766,34.65,0
-0.1554271429777145,-0.9250165224075316,-0.0099192205816507,-70.98651123046875,1.2840874195098877,63.10999298095703,34.63,0
-0.1557219326496124,-0.9686732292175292,-0.011963359080255,-61.58708190917969,1.2823375463485718,63.1099967956543,34.63,0
-0.1559111177921295,-1.013482928276062,-0.0132751697674393,-53.5703239440918,1.2812145948410034,63.1099967956543,34.63,0
-0.1616303026676178,-1.0646302700042725,-0.0085192397236824,-36.81808471679688,1.280493974685669,63.1099967956543,34.63,0
-0.1708983182907104,-1.1030515432357788,0.0001306167396251,-9.071721076965332,1.280031442642212,63.1099967956543,34.63,0
-0.182443767786026,-1.110914707183838,0.0112793715670704,17.472198486328125,1.2797346115112305,63.1099967956543,34.63,0
-0.1954507529735565,-1.0431897640228271,0.0576184205710887,28.606056213378903,1.279544234275818,63.1099967956543,34.63,0
-0.1982001066207885,-0.938152313232422,0.0985517054796218,26.891414642333984,1.2794220447540283,63.1099967956543,34.63,0
-0.2055622637271881,-0.8931364417076111,0.1136247813701629,28.78609085083008,1.2788846492767334,63.29270935058594,34.63,0
-0.2214824259281158,-0.909030020236969,0.1009067147970199,43.49396133422852,1.278539776802063,63.40996170043945,34.63,0
-0.2372968345880508,-0.9528162479400636,0.0871472209692001,64.13534545898438,1.2783185243606567,63.48521041870117,34.63,0
-0.219456747174263,-0.9753179550170898,0.0839149430394172,78.78974914550781,1.2781764268875122,63.53350067138672,34.63,0
-0.180019125342369,-0.96176940202713,0.0818406492471695,81.87085723876953,1.278085231781006,63.56448745727539,34.63,0
-0.1603081077337265,-0.9362813830375672,0.0805094912648201,75.48640441894531,1.278026819229126,63.58437347412109,34.63,0
-0.1756475865840912,-0.8975335359573364,0.0740574523806572,65.24152374267578,1.2779892683029177,63.59713745117188,34.63,0
-0.1966871321201324,-0.8726674318313599,0.0643191337585449,54.99481201171875,1.2779651880264282,63.60532760620117,34.63,0
-0.2045913189649582,-0.8735030889511108,0.0636674165725708,44.62869644165039,1.2788679599761963,63.6105842590332,34.63,0
-0.2208593189716339,-0.8908326625823975,0.0744447261095047,32.663360595703125,1.279447317123413,63.613956451416016,34.63,0
-0.2424947321414947,-0.9019538164138794,0.0869587585330009,19.603668212890625,1.279819130897522,63.616119384765625,34.63,0
-0.2731724083423614,-0.914688527584076,0.1117828711867332,7.708203315734863,1.280057668685913,63.61750793457031,34.63,0
-0.2928595840930938,-0.9228609204292296,0.1333113312721252,-1.9282819032669067,1.2802107334136963,63.61840057373047,34.63,0
-0.3222870230674743,-0.9504965543746948,0.1471270620822906,-10.824432373046877,1.280308961868286,63.61897277832031,34.63,0
-0.3299762904644012,-0.9906226396560668,0.1503954231739044,-20.216358184814453,1.2803720235824585,63.61933898925781,34.63,0
-0.3237152695655823,-1.0443620681762695,0.1412973254919052,-27.38639640808105,1.2804125547409058,63.61957550048828,34.63,0
-0.325295090675354,-1.1516200304031372,0.1242631375789642,-29.067916870117188,1.277684211730957,63.619728088378906,34.63,0
-0.326308935880661,-1.226049780845642,0.1021360233426094,-29.54514503479004,1.2759333848953247,63.61982345581055,34.63,0
-0.321361780166626,-1.2066411972045898,0.0655450224876403,-39.03354263305664,1.274809718132019,63.6198844909668,34.63,0
-0.3013936579227447,-1.0990238189697266,0.0308674741536378,-60.950469970703125,1.2740886211395264,63.61992645263672,34.63,0
-0.2829814851284027,-1.029961109161377,-0.0025821288581937,-85.33689880371094,1.2736258506774902,63.61995315551758,34.63,0
-0.2711656093597412,-1.0192272663116455,-0.0352437086403369,-97.50801849365234,1.2733289003372192,63.61996841430664,34.63,0
-0.2691806554794311,-1.040327787399292,-0.0841929018497467,-91.13174438476562,1.2731382846832275,63.61997985839844,34.63,0
-0.2623090445995331,-1.0426733493804932,-0.1268012225627899,-71.96075439453125,1.2730159759521484,63.61998748779297,34.63,0
-0.2467036843299865,-1.0049941539764404,-0.17653588950634,-50.66923522949219,1.273855686187744,63.61999130249024,34.61,0
-0.2198957353830337,-0.9640205502510072,-0.2028549611568451,-34.15741729736328,1.2743946313858032,63.6199951171875,34.61,0
-0.2138874977827072,-0.9265304803848268,-0.1917561590671539,-23.5360050201416,1.27474045753479,63.6199951171875,34.61,0
-0.2268250733613968,-0.9024715423583984,-0.1790358126163482,-16.605152130126953,1.2749624252319336,63.6199951171875,34.61,0
-0.246323212981224,-0.8926296830177307,-0.1708726286888122,-9.742673873901367,1.2751048803329468,63.6199951171875,34.61,0
-0.242042675614357,-0.9143025875091552,-0.1656339615583419,-0.3052116334438324,1.2751963138580322,63.6199951171875,34.61,0
-0.2281001210212707,-0.9282110333442688,-0.1622720807790756,10.612763404846191,1.2752549648284912,63.6199951171875,34.61,0
-0.2023592740297317,-0.9539299607276917,-0.1489190757274627,19.19204330444336,1.2752926349639893,63.6199951171875,34.61,0
-0.2082313746213913,-0.9760326743125916,-0.1235565617680549,23.22170829772949,1.2734802961349487,63.756134033203125,34.61,0
-0.2175975292921066,-1.0014125108718872,-0.0960848107933998,25.531858444213867,1.2723172903060913,63.84350204467773,34.61,0
-0.2124126404523849,-1.0736775398254397,-0.0672594755887985,33.02952194213867,1.271570920944214,63.89957046508789,34.61,0
-0.1978897303342819,-1.1536396741867063,-0.0543588101863861,50.05767440795898,1.2710919380187988,63.93555068969727,34.61,0
-0.1885697543621063,-1.1545748710632324,-0.0180910322815179,71.95879364013672,1.270784616470337,63.958641052246094,34.61,0
-0.1937842816114425,-1.0600128173828125,0.0555635131895542,87.98408508300781,1.2705873250961304,63.97345733642578,34.61,0
-0.1915328949689865,-0.9825350046157836,0.1084285303950309,91.24634552001952,1.2704607248306274,63.98296737670898,34.61,0
-0.1732947528362274,-0.9719986319541932,0.1255609393119812,83.74215698242188,1.2703795433044434,63.989070892333984,34.61,0
-0.1615905612707138,-0.9876281023025512,0.1309577524662017,72.6353988647461,1.2671141624450684,63.99298477172852,34.61,0
-0.1484817117452621,-1.0368425846099854,0.1288233399391174,63.8489875793457,1.2650187015533447,63.99549865722656,34.61,0
-0.128873661160469,-1.0572301149368286,0.1274535953998565,58.64386749267578,1.2636739015579224,63.99711227416992,34.61,0
-0.1050947979092598,-1.031129240989685,0.1265745759010315,54.859283447265625,1.2628109455108645,63.998146057128906,34.61,0
-0.1234215348958969,-0.9695969820022584,0.1428037881851196,50.38490295410156,1.262257099151611,63.998809814453125,34.61,0
-0.1519758999347686,-0.913315773010254,0.1532187759876251,44.19961929321289,1.2619017362594604,63.99923706054688,34.61,0
-0.1870937794446945,-0.882795512676239,0.1655002832412719,35.12150955200195,1.2616736888885498,63.99951171875,34.61,0
-0.2208259552717209,-0.8744049072265625,0.1733818501234054,22.420738220214844,1.2615272998809814,63.99968719482422,34.61,0
-0.2592666447162628,-0.8746181130409241,0.1728420108556747,7.112129211425781,1.2651054859161377,63.99979782104492,34.61,0
-0.3175223171710968,-0.8691571354866028,0.1780933439731598,-10.049171447753906,1.2674016952514648,63.99987030029297,34.61,0
-0.3661029934883117,-0.8656526207923889,0.1814633458852768,-31.315637588500977,1.2688753604888916,63.99991607666016,34.61,0
-0.4084748327732086,-0.8690013885498047,0.1836260259151458,-60.17842864990234,1.269821047782898,63.99994659423828,34.61,0
-0.4356666505336761,-0.8879437446594238,0.1794161349534988,-95.76470947265624,1.270427942276001,63.99996566772461,34.61,0
-0.4363234639167785,-0.9112954139709472,0.1655189245939254,-129.088134765625,1.2708173990249634,63.999977111816406,34.61,0
-0.4255494177341461,-0.9654656052589417,0.134209394454956,-146.62550354003906,1.2710673809051514,63.99998474121094,34.61,0
-0.4130374789237976,-1.039413332939148,0.0973234102129936,-141.43954467773438,1.2712277173995972,63.9999885559082,34.61,0
-0.4050080478191376,-1.11485755443573,0.0568587891757488,-121.26264190673828,1.270412802696228,63.99999237060547,34.63,0
-0.388659656047821,-1.0905022621154783,0.0196953732520341,-101.48946380615234,1.2698898315429688,63.999996185302734,34.63,0
-0.3613748848438263,-1.0300902128219604,-0.009751739911735,-89.66357421875,1.2695541381835938,63.999996185302734,34.63,0
-0.3326695263385772,-0.9745279550552368,-0.0566380769014358,-80.3547592163086,1.2693387269973757,63.999996185302734,34.63,0
-0.3086503148078918,-0.950066864490509,-0.0867270305752754,-64.01651000976562,1.269200563430786,63.999996185302734,34.63,0
-0.2932361662387848,-0.9623579978942872,-0.11723193526268,-37.5890998840332,1.2691118717193604,63.999996185302734,34.63,0
-0.2665509283542633,-0.9646480083465576,-0.136808231472969,-7.735819339752197,1.269054889678955,63.999996185302734,34.63,0
-0.2326325625181198,-0.9493242502212524,-0.1493711620569229,14.449573516845703,1.2690184116363523,63.999996185302734,34.63,0
-0.2052679359912872,-0.933892548084259,-0.1406400054693222,22.940431594848636,1.2662407159805298,64.164794921875,34.63,0
-0.204500213265419,-0.9183916449546814,-0.1238413080573082,21.52157592773437,1.264458179473877,64.27055358886719,34.63,0
-0.2375941723585128,-0.908444046974182,-0.1018653213977813,19.403709411621094,1.2633142471313477,64.33842468261719,34.63,0
-0.2476364225149154,-0.91325581073761,-0.0765668451786041,23.1425895690918,1.262580156326294,64.3819808959961,34.63,0
-0.2372876405715942,-0.9275392293930054,-0.0603317432105541,31.911806106567383,1.2621090412139893,64.4099349975586,34.63,0
-0.2082552909851074,-0.959096610546112,-0.0499129891395568,39.10855484008789,1.2618067264556885,64.42787170410156,34.63,0
-0.1952217817306518,-0.9849461317062378,-0.0432268306612968,39.67511749267578,1.2616126537322998,64.43938446044922,34.63,0
-0.2092487215995788,-1.0015348196029663,-0.0221427176147699,36.71765899658203,1.2614880800247192,64.44676971435547,34.63,0
-0.2182503938674926,-1.0121805667877195,-0.0086121475324034,40.20075988769531,1.2618670463562012,64.45150756835938,34.63,0
-0.2128316015005111,-1.0358057022094729,0.005668768659234,57.96289825439453,1.2621102333068848,64.45455169677734,34.63,0
-0.1981585919857025,-1.090151309967041,0.0148334382101893,87.41062927246094,1.2622662782669067,64.45650482177734,34.63,0
-0.1943400651216507,-1.1250271797180176,0.0263125691562891,116.09608459472656,1.2623664140701294,64.45775604248047,34.63,0
-0.203085109591484,-1.0634418725967407,0.0616680867969989,130.91860961914062,1.2624307870864868,64.45855712890625,34.63,0
-0.2086971700191497,-0.990333378314972,0.0787594467401504,127.0499267578125,1.2624720335006714,64.45907592773438,34.63,0
-0.2122986763715744,-0.960209846496582,0.0785321518778801,109.58131408691406,1.2624984979629517,64.45940399169922,34.63,0
-0.2202076911926269,-0.9856604933738708,0.0615929625928401,88.54753875732422,1.2625155448913574,64.4596176147461,34.63,0
-0.2252832353115081,-1.0131888389587402,0.0395268164575099,71.814208984375,1.2634446620941162,64.45975494384766,34.63,0
-0.2005515545606613,-1.0308549404144287,0.025366036221385,61.22260665893555,1.2640409469604492,64.4598388671875,34.63,0
-0.1790824085474014,-0.9974098205566406,0.0274740103632211,54.70138549804688,1.2644236087799072,64.45989990234375,34.63,0
-0.1709025204181671,-0.9479578137397766,0.0344245620071888,49.91456985473633,1.2646691799163818,64.4599380493164,34.63,0
-0.1768486946821212,-0.8938312530517578,0.0500805750489234,44.39576721191406,1.264826774597168,64.4599609375,34.63,0
-0.1862623840570449,-0.8590959310531616,0.0657254755496978,34.67417526245117,1.264927864074707,64.45997619628906,34.63,0
-0.2034990936517715,-0.8480003476142883,0.0869610235095024,18.110431671142575,1.2649927139282229,64.4599838256836,34.63,0
-0.2313539385795593,-0.8464776277542114,0.1061865463852882,-4.750138282775879,1.265034317970276,64.45999145507812,34.63,0
-0.2604251205921173,-0.8455004096031189,0.12971992790699,-31.006786346435547,1.2650610208511353,64.45999145507812,34.65,0
-0.2902768850326538,-0.8560688495635986,0.1616156250238418,-58.01697540283203,1.2650781869888306,64.45999145507812,34.65,0
-0.3150317966938019,-0.8684488534927368,0.1876822263002395,-84.23176574707031,1.2650891542434692,64.45999145507812,34.65,0
-0.3309180736541748,-0.8987846970558167,0.2156058102846145,-108.04093170166016,1.2650961875915527,64.45999145507812,34.65,0
-0.3299174308776855,-0.9294480681419371,0.2223300188779831,-126.03587341308594,1.2651007175445557,64.45999145507812,34.65,0
-0.323677510023117,-0.9659193754196168,0.2154496759176254,-131.9736785888672,1.2651036977767944,64.45999145507812,34.65,0
-0.319673091173172,-1.0285090208053589,0.1942409425973892,-120.47946166992188,1.2651056051254272,64.45999145507812,34.65,0
-0.3171032667160034,-1.1078598499298096,0.1750326305627823,-95.29415130615234,1.2651067972183228,64.45999145507812,34.65,0
-0.3154541254043579,-1.1811736822128296,0.1515102833509445,-69.831298828125,1.2632715702056885,64.59971618652344,34.65,0
-0.3087980151176452,-1.1666468381881714,0.1252194494009018,-54.38276672363281,1.2620937824249268,64.68938446044922,34.65,0
-0.2989287376403808,-1.090151071548462,0.1027497351169586,-46.02362823486328,1.2613379955291748,64.7469253540039,34.65,0
-0.2758018672466278,-1.0018759965896606,0.0771344155073165,-34.74079895019531,1.260852932929993,64.78385162353516,34.65,0
-0.2609603703022003,-0.9620195031166076,0.0495004281401634,-15.989312171936035,1.2605416774749756,64.80754852294922,34.65,0
-0.2458381801843643,-0.9588329792022704,0.0261687505990266,5.548886299133301,1.2603418827056885,64.82275390625,34.65,0
-0.2305358648300171,-0.9623858332633972,-0.0111952731385827,22.014802932739254,1.2602137327194214,64.83251190185547,34.65,0
-0.215117946267128,-0.9590680599212646,-0.0463689044117927,29.7227840423584,1.2601314783096311,64.83877563476562,34.65,0
-0.1996258348226547,-0.9289500713348388,-0.0633435398340225,31.111825942993164,1.262373685836792,64.8427963256836,34.65,0
-0.1896838843822479,-0.8984264731407166,-0.0574435591697692,31.107589721679688,1.26381254196167,64.84537506103516,34.65,0
-0.1944992691278457,-0.8676426410675049,-0.0424617454409599,32.312198638916016,1.2647359371185305,64.84703063964844,34.65,0
-0.1919917315244674,-0.8534851670265198,-0.0384450517594814,32.98851776123047,1.2653285264968872,64.84809112548828,34.65,0
-0.1847847551107406,-0.8499974608421326,-0.0302695948630571,30.00118064880371,1.2657088041305542,64.8487777709961,34.65,0
-0.1633664071559906,-0.8533570170402527,-0.0194252841174602,24.47642517089844,1.2659528255462646,64.84921264648438,34.65,0
-0.1496213525533676,-0.8611108064651489,-0.0068682548590004,22.568193435668945,1.2661094665527344,64.84949493408203,34.65,0
-0.1519961208105087,-0.899673342704773,0.0123856728896498,29.651592254638672,1.2662099599838257,64.84967803955078,34.65,0
-0.1535201072692871,-0.9636049866676332,0.0303395092487335,46.08429336547852,1.2662744522094729,64.84979248046875,34.65,0
-0.1489003449678421,-1.004632592201233,0.0474590212106704,67.571044921875,1.2663158178329468,64.84986877441406,34.65,0
-0.1291423141956329,-1.058950662612915,0.0528475642204284,85.64476013183594,1.2663424015045166,64.84991455078125,34.65,0
-0.1220605224370956,-1.121797800064087,0.0507078468799591,90.1535186767578,1.2663594484329224,64.84994506835938,34.65,0
-0.1343091577291488,-1.1453361511230469,0.066128022968769,77.30872344970703,1.266370415687561,64.84996795654297,34.65,0
-0.1533651798963546,-1.115659475326538,0.0872193574905395,54.63864135742188,1.2663774490356443,64.8499755859375,34.65,0
-0.1655942350625991,-1.0574302673339844,0.1119501069188118,34.98870086669922,1.2663819789886477,64.84998321533203,34.65,0
-0.1678443700075149,-0.9976710081100464,0.1222231015563011,26.541452407836918,1.266384840011597,64.84999084472656,34.65,0
-0.1692883670330047,-0.9705165028572084,0.1288157254457473,28.984249114990234,1.2636324167251587,64.84999084472656,34.61,0
-0.1646172702312469,-0.9922747611999512,0.133046492934227,36.81781768798828,1.2618660926818848,64.84999084472656,34.61,0
-0.1560218632221222,-0.9950423836708068,0.13016377389431,44.6214485168457,1.2607325315475464,64.84999084472656,34.61,0
-0.1449080407619476,-0.9744274020195008,0.1227160394191742,49.21737289428711,1.2600051164627075,64.84999084472656,34.61,0
-0.1433736085891723,-0.9388067722320556,0.1291320621967315,48.39432144165039,1.2595382928848269,64.84999084472656,34.61,0
-0.1479866802692413,-0.9103497266769408,0.1388472616672516,40.400047302246094,1.2592387199401855,64.84999084472656,34.61,0
-0.1565448492765426,-0.8696965575218201,0.1394841521978378,25.75804328918457,1.25904643535614,64.84999084472656,34.61,0
-0.1620369851589203,-0.8604010343551636,0.1622839719057083,8.128889083862305,1.258923053741455,64.84999084472656,34.61,0
-0.1823548525571823,-0.8600334525108337,0.1769155859947204,-7.684200286865234,1.261139154434204,64.95747375488281,34.61,0
-0.2065892368555069,-0.8541997671127319,0.1695119887590408,-19.56968116760254,1.262561321258545,65.02645111083984,34.61,0
-0.2277392446994781,-0.861651599407196,0.159163013100624,-30.854907989501957,1.2634739875793457,65.07071685791016,34.61,0
-0.2525076568126678,-0.9056181907653807,0.1637171804904937,-47.24701690673828,1.2640597820281982,65.09912109375,34.61,0
-0.2628048062324524,-0.9450289607048036,0.1722375601530075,-68.43901824951172,1.264435648918152,65.11734771728516,34.61,0
-0.2582173943519592,-0.9815160632133484,0.1665098965167999,-84.75083923339844,1.264676809310913,65.12904357910156,34.61,0
-0.2496756762266159,-1.111289143562317,0.1460408866405487,-85.99727630615234,1.2648316621780396,65.13655090332031,34.61,0
-0.2553896307945251,-1.1777766942977903,0.132905051112175,-73.1583023071289,1.2649309635162354,65.14137268066406,34.61,0
-0.2590565383434295,-1.1364779472351074,0.1132796853780746,-58.35929107666016,1.2663718461990356,65.14446258544922,34.61,0
-0.2390186488628387,-1.020410418510437,0.0950874760746955,-52.78863906860352,1.267296552658081,65.14644622802734,34.61,0
-0.2205616980791092,-0.9459249377250672,0.0722172185778617,-56.24272918701172,1.2678899765014648,65.14772033691406,34.61,0
-0.1975215524435043,-0.9485043883323668,0.0519426278769969,-59.04690933227539,1.2682708501815796,65.1485366821289,34.61,0
-0.1659423857927322,-0.9725508689880372,0.0333337895572185,-52.89315032958984,1.2685152292251587,65.14906311035156,34.61,0
-0.1232855916023254,-0.9991780519485474,-0.0065971659496426,-38.34676361083984,1.2686721086502075,65.14939880371094,34.61,0
-0.1238997876644134,-0.9826791882514954,-0.0266247801482677,-22.46278381347656,1.2687727212905884,65.14961242675781,34.61,0
-0.1354894936084747,-0.955297827720642,-0.011488476768136,-11.380879402160645,1.268837332725525,65.14974975585938,34.61,0
-0.1597204208374023,-0.9209327697753906,0.0262140035629272,-5.974457740783691,1.2665834426879885,65.14984130859375,34.61,0
-0.1696726679801941,-0.9044770002365112,0.0392137356102466,-3.307424306869507,1.265136957168579,65.14990234375,34.61,0
-0.1816572248935699,-0.921905517578125,0.030762892216444,-0.4315389990806579,1.2642086744308472,65.14994049072266,34.61,0
-0.2005437612533569,-0.927492380142212,0.0141440788283944,3.929006576538086,1.263612985610962,65.14996337890625,34.61,0
-0.2126640528440475,-0.9254798889160156,0.0090768560767173,10.170208930969238,1.2632306814193726,65.14997863769531,34.61,0
-0.2204421609640121,-0.9129928350448608,0.0170205533504486,18.70024681091309,1.262985348701477,65.14998626708984,34.61,0
-0.2254337072372436,-0.904979407787323,0.0109228109940886,29.551780700683597,1.2628278732299805,65.14999389648438,34.61,0
-0.223039224743843,-0.8998368382453918,-0.0041859177872538,41.38797378540039,1.262726902961731,65.14999389648438,34.61,0
-0.2103070318698883,-0.9189277291297911,-0.0194796044379472,52.2116584777832,1.262662053108215,65.14999389648438,34.61,0
-0.2077340185642242,-0.9479724764823914,-0.0348919853568077,61.554420471191406,1.262620449066162,65.14999389648438,34.61,0
-0.2060828059911728,-1.028187274932861,-0.0727716386318206,70.37313842773438,1.2625937461853027,65.14999389648438,34.61,0
-0.2218164801597595,-1.096457839012146,-0.102678395807743,77.73420715332031,1.2625765800476074,65.14999389648438,34.61,0
-0.2487067580223083,-1.117878794670105,-0.1106752827763557,78.9758529663086,1.2625656127929688,65.14999389648438,34.61,0
-0.2603656351566314,-1.014072299003601,-0.0710250288248062,69.46202087402344,1.2625585794448853,65.14999389648438,34.61,0
-0.2678476274013519,-0.9194663763046264,-0.0455797761678695,50.8641471862793,1.2625540494918823,65.14999389648438,34.61,0
-0.3062357604503631,-0.914731502532959,-0.0180549286305904,31.516754150390625,1.262551188468933,65.14999389648438,34.61,0
-0.3364688456058502,-0.9396818280220032,0.0052067106589674,18.48809051513672,1.2648446559906006,65.2574691772461,34.61,0
-0.3222840428352356,-0.9892801642417908,0.0313302390277385,11.560072898864746,1.266316533088684,65.32644653320312,34.61,0
-0.2628010809421539,-0.9987183809280396,0.0704859122633934,6.82029914855957,1.267261028289795,65.37071228027344,34.61,0
-0.2190305739641189,-0.982384204864502,0.1012115478515625,1.4248331785202026,1.2678672075271606,65.39911651611328,34.61,0
-0.2021367400884628,-0.938315212726593,0.126527264714241,-7.400781631469727,1.2682561874389648,65.41734313964844,34.61,0
-0.185697466135025,-0.8932409882545471,0.1427734345197677,-21.18625259399414,1.2685058116912842,65.42903900146484,34.61,0
-0.1751476824283599,-0.8755104541778564,0.1587970703840255,-35.16322326660156,1.2686660289764404,65.4365463256836,34.61,0
-0.1795729994773864,-0.8697298169136047,0.1410912424325943,-41.03032684326172,1.2687687873840332,65.44136810302734,34.61,0
-0.1880106776952743,-0.8548246026039124,0.1185331121087074,-36.77052688598633,1.2674576044082642,65.4444580078125,34.61,0
-0.1990232765674591,-0.8676503896713257,0.0928610488772392,-28.44084930419922,1.2666162252426147,65.44644165039062,34.61,0
-0.211688295006752,-0.8870767951011658,0.0763861984014511,-22.543624877929688,1.2660762071609497,65.44771575927734,34.61,0
-0.2310115247964859,-0.9275323748588562,0.0826069116592407,-19.70850944519043,1.2657296657562256,65.44853210449219,34.61,0
-0.2434120625257492,-1.0206677913665771,0.0754034593701362,-13.91601848602295,1.2655073404312134,65.44905853271484,34.61,0
-0.262565553188324,-1.1308166980743408,0.0707806944847107,0.9502435326576232,1.265364646911621,65.44939422607422,34.61,0
-0.2860527336597442,-1.1399283409118652,0.0846074000000953,20.06678009033203,1.265273094177246,65.4496078491211,34.61,0
-0.2899298965930938,-1.1121890544891355,0.0878828018903732,27.874366760253903,1.2652143239974976,65.44974517822266,34.61,0
-0.2756247222423553,-1.0160187482833862,0.0955825448036193,14.552785873413086,1.2670127153396606,65.44983673095703,34.61,0
-0.2776400148868561,-0.9710955023765564,0.1005237996578216,-11.977185249328612,1.2681667804718018,65.44989776611328,34.61,0
-0.2733355462551117,-0.9534618854522704,0.0980970337986946,-34.161502838134766,1.2689074277877808,65.44993591308594,34.61,0
-0.2481820881366729,-1.0093189477920532,0.0853441283106803,-41.36552429199219,1.2693827152252195,65.44995880126953,34.61,0
-0.226442277431488,-1.056360363960266,0.0715622752904892,-36.491241455078125,1.2696876525878906,65.4499740600586,34.61,0
-0.218088686466217,-1.0641577243804932,0.0571200996637344,-29.067699432373047,1.269883394241333,65.44998168945312,34.61,0
-0.22392338514328,-1.0299772024154663,0.0590474903583526,-25.22442054748535,1.2700090408325195,65.44998931884766,34.61,0
-0.2164722084999084,-0.9912487864494324,0.0714799240231514,-25.01862907409668,1.270089626312256,65.44998931884766,34.61,0
-0.1948971450328827,-0.9496017694473268,0.0850561186671257,-25.6818962097168,1.2715184688568115,65.44998931884766,34.61,0
-0.1698559671640396,-0.9172773361206056,0.0881707668304443,-24.208778381347656,1.272435426712036,65.44998931884766,34.61,0
-0.1481882035732269,-0.8909355998039246,0.0957673415541648,-18.573823928833008,1.2730238437652588,65.44998931884766,34.61,0
-0.1342830806970596,-0.8740310072898865,0.1006423905491828,-9.11087131500244,1.2734014987945557,65.44998931884766,34.61,0
-0.1253595650196075,-0.8631826043128967,0.0981731414794921,1.7733054161071775,1.2736438512802124,65.44998931884766,34.61,0
-0.1196329742670059,-0.8618184924125671,0.0853929668664932,11.538222312927246,1.2737994194030762,65.44998931884766,34.61,0
-0.1159579753875732,-0.8721386194229126,0.0715936124324798,18.67534828186035,1.2738991975784302,65.44998931884766,34.61,0
-0.1191973462700843,-0.889957070350647,0.0403468832373619,23.312868118286133,1.273963212966919,65.44998931884766,34.61,0
-0.1268739700317382,-0.9629674553871156,-0.013292116113007,28.660627365112305,1.2721682786941528,65.53955841064453,34.61,0
-0.1429959237575531,-1.0602012872695925,-0.0589100830256938,39.977760314941406,1.2710163593292236,65.59703826904297,34.61,0
-0.1869287192821502,-1.1561869382858276,-0.0881850719451904,57.62274932861328,1.2702771425247192,65.63392639160156,34.61,0
-0.220720037817955,-1.1841983795166016,-0.084580972790718,71.24271392822266,1.2698026895523071,65.65760040283203,34.61,0
-0.2256120294332504,-1.0734257698059082,-0.0374858751893043,67.12894439697266,1.2694982290267944,65.67279052734375,34.61,0
-0.2175558805465698,-0.996740460395813,-0.0296540521085262,44.143516540527344,1.2693028450012207,65.68254089355469,34.61,0
-0.2291792333126068,-0.9699193239212036,-0.0246280375868082,17.229948043823242,1.2691775560379028,65.68879699707031,34.61,0
-0.2478339821100235,-1.0086848735809326,-0.0102070830762386,2.4590067863464355,1.269097089767456,65.69281005859375,34.61,0
-0.2542077600955963,-1.039160132408142,0.0102430051192641,2.5883352756500244,1.2708815336227417,65.69538116455078,34.61,0
-0.2247114330530166,-1.008337378501892,0.0289644692093133,8.833361625671387,1.2720266580581665,65.69703674316406,34.61,0
-0.2113801538944244,-0.9661660194396972,0.0633699223399162,11.447437286376951,1.272761583328247,65.6980972290039,34.61,0
-0.2084226757287979,-0.9279073476791382,0.0910471379756927,6.393341064453125,1.27323317527771,65.69877624511719,34.61,0
-0.2009269744157791,-0.9089528918266296,0.1144065558910369,-3.639067888259888,1.2735358476638794,65.69921112060547,34.61,0
-0.1905188858509063,-0.9079845547676086,0.1237995103001594,-11.829169273376465,1.2737300395965576,65.69949340820312,34.61,0
-0.1782418042421341,-0.9017653465270996,0.1186318174004554,-12.735857963562012,1.2738547325134275,65.69967651367188,34.61,0
-0.1815586239099502,-0.8921764492988586,0.1153154894709587,-6.378270626068115,1.2739347219467163,65.69979095458984,34.61,0
-0.189284935593605,-0.8916206359863281,0.1131872609257698,3.4337847232818604,1.2744452953338623,65.69986724853516,34.61,0
-0.2054387927055359,-0.9024595022201538,0.1118214875459671,13.696508407592772,1.2747730016708374,65.69991302490234,34.61,0
-0.2214031815528869,-0.9262085556983948,0.1109450161457061,25.441442489624023,1.274983286857605,65.69994354248047,34.61,0
-0.2204526662826538,-0.9750360250473022,0.1103825494647026,42.28261184692383,1.2751182317733765,65.69996643066406,34.61,0
-0.2254404425621032,-1.0791417360305786,0.104423813521862,62.88865280151367,1.27520489692688,65.6999740600586,34.61,0
-0.2398368567228317,-1.1291574239730835,0.1005998402833938,75.732666015625,1.2752604484558103,65.69998168945312,34.61,0
-0.2490756511688232,-1.077288031578064,0.092548057436943,67.09053802490234,1.2752960920333862,65.69998931884766,34.61,0
-0.2438090294599533,-1.0048167705535889,0.0761853381991386,34.42083740234375,1.27531898021698,65.69998931884766,34.61,0
-0.2404292225837707,-0.9695044755935668,0.0600869134068489,-11.898581504821776,1.2744154930114746,65.69998931884766,34.61,0
-0.2382602542638778,-1.0084185600280762,0.0553536452353,-57.02879333496094,1.2738356590270996,65.69998931884766,34.61,0
-0.2256727814674377,-1.0613802671432495,0.0467183329164981,-89.13985443115234,1.2734636068344116,65.69998931884766,34.61,0
-0.1952037662267685,-1.0841724872589111,0.0355789102613925,-103.98967742919922,1.2732248306274414,65.69998931884766,34.61,0
-0.1756505072116851,-1.0820059776306152,0.0340280458331108,-105.61270141601562,1.273071527481079,65.69998931884766,34.61,0
-0.1742978990077972,-1.0302356481552124,0.0442283377051353,-100.3525161743164,1.2729731798171997,65.69998931884766,34.61,0
-0.184625431895256,-0.9578279852867126,0.050774298608303,-91.22321319580078,1.2729099988937378,65.69998931884766,34.61,0
-0.185655266046524,-0.9001653790473938,0.0549751184880733,-79.52495574951172,1.2728694677352903,65.69998931884766,34.61,0
-0.1695228368043899,-0.8631608486175537,0.0688665136694908,-67.14896392822266,1.2719253301620483,65.80030822753906,34.61,0
-0.1535721868276596,-0.8394134640693665,0.0889767631888389,-54.5924072265625,1.2713193893432615,65.86468505859375,34.61,0
-0.1209448873996734,-0.8185759782791138,0.0962845832109451,-40.87028121948242,1.270930528640747,65.90599822998047,34.61,0
-0.1223976612091064,-0.8163992166519165,0.0897787734866142,-26.819318771362305,1.2706810235977173,65.93251037597656,34.61,0
-0.1401232928037643,-0.8317956328392029,0.080005943775177,-15.627596855163574,1.2705209255218506,65.94952392578125,34.61,0
-0.1738896816968917,-0.8864583373069763,0.0625387579202652,-9.480757713317873,1.2704181671142578,65.96044158935547,34.61,0
-0.1955590099096298,-0.9271354675292968,0.0457315482199192,-5.908658504486084,1.270352125167847,65.96745300292969,34.61,0
-0.2038673609495163,-1.0148152112960815,0.0237501002848148,2.5529043674468994,1.2703098058700562,65.9719467163086,34.61,0
-0.2315902709960937,-1.13265860080719,-0.0015518745640292,21.600418090820312,1.27349591255188,65.9748306274414,34.61,0
-0.2661745548248291,-1.213881492614746,-0.017789227887988,45.62143707275391,1.2755405902862549,65.9766845703125,34.61,0
-0.3107598721981048,-1.1820390224456787,0.010974995791912,60.36322021484375,1.2768527269363403,65.97787475585938,34.61,0
-0.3337743878364563,-1.083235502243042,0.046227540820837,59.24430465698242,1.2776947021484375,65.9786376953125,34.61,0
-0.3373482227325439,-0.9470580220222472,0.0688505917787551,50.76996994018555,1.2782350778579712,65.9791259765625,34.61,0
-0.3340439200401306,-0.9100471138954164,0.0833687707781791,46.05531311035156,1.2785818576812744,65.97943878173828,34.61,0
-0.3263256549835205,-0.9142845273017884,0.0926856994628906,45.71664810180664,1.2788044214248655,65.97964477539062,34.61,0
-0.2933836281299591,-0.9617860913276672,0.0986647680401802,42.7729721069336,1.2789472341537476,65.97977447509766,34.61,0
-0.2554500102996826,-0.9754765033721924,0.108099564909935,32.59381103515625,1.2776620388031006,65.9798583984375,34.61,0
-0.2311064004898071,-0.9562733769416808,0.1141542717814445,16.50309944152832,1.2768373489379885,65.97991180419922,34.61,0
-0.2322774082422256,-0.9103632569313048,0.1348331570625305,-0.3683602809906006,1.2763080596923828,65.97994232177734,34.61,0
-0.2274311184883117,-0.8753030300140381,0.1537014544010162,-12.435062408447266,1.2759684324264526,65.97996520996094,34.61,0
-0.2075277119874954,-0.8695967197418213,0.1714078187942505,-16.96879005432129,1.2757503986358645,65.97998046875,34.61,0
-0.1891570836305618,-0.8715324997901917,0.1827707439661026,-15.478872299194336,1.2756105661392212,65.97998809814453,34.61,0
-0.1885634213685989,-0.861579179763794,0.1956605911254882,-11.67458152770996,1.2755208015441897,65.97999572753906,34.61,0
-0.2049757689237594,-0.8607895374298096,0.1983347684144973,-8.262328147888184,1.2754632234573364,65.97999572753906,34.61,0
-0.2267038077116012,-0.8770760893821716,0.1944531351327896,-5.463502407073975,1.2726715803146362,65.97999572753906,34.61,0
-0.2630387246608734,-0.9099189639091492,0.1975598931312561,-0.6651789546012878,1.270880103111267,65.97999572753906,34.61,0
-0.2863563895225525,-0.947788953781128,0.1939558535814285,9.912439346313477,1.2697304487228394,65.97999572753906,34.61,0
-0.2957225441932678,-1.0224716663360596,0.1860452145338058,24.62162208557129,1.2689926624298096,65.97999572753906,34.61,0
-0.3073309659957886,-1.0871920585632324,0.1865663975477218,31.660802841186523,1.268519163131714,65.97999572753906,34.61,0
-0.3203783631324768,-1.1287258863449097,0.1869008690118789,17.74220848083496,1.268215298652649,65.97999572753906,34.61,0
-0.3287514150142669,-1.1329888105392456,0.1703221946954727,-16.626232147216797,1.2680202722549438,65.97999572753906,34.61,0
-0.3229292333126068,-1.0909423828125,0.154085174202919,-54.50973892211914,1.2678951025009155,65.97999572753906,34.61,0
-0.3023995459079742,-1.0191771984100342,0.1156763210892677,-76.31338500976562,1.2678147554397583,66.09105682373047,34.61,0
-0.2836270034313202,-0.9899157285690308,0.0686366334557533,-75.62073516845703,1.2677632570266724,66.1623306274414,34.61,0
-0.2715798616409302,-0.9823329448699952,0.0328514911234378,-62.16790008544922,1.2677302360534668,66.20806884765625,34.61,0
-0.2526531517505646,-0.9886623024940492,-0.0125044491142034,-49.77294158935547,1.2677090167999268,66.23741912841797,34.61,0
-0.2293115407228469,-0.9759308099746704,-0.0416112802922725,-43.0366439819336,1.267695426940918,66.25625610351562,34.61,0
-0.1975389122962951,-0.9397715926170348,-0.0546925961971282,-37.33796691894531,1.2676867246627808,66.26834869384766,34.61,0
-0.1883446276187896,-0.9109688997268676,-0.0574896559119224,-27.561845779418945,1.267681121826172,66.27610778808594,34.61,0
-0.1880420297384262,-0.8924850225448608,-0.0592846497893333,-12.779478073120115,1.2676775455474854,66.28108215332031,34.61,0
-0.1878478378057479,-0.8750253319740295,-0.0660343468189239,4.094266891479492,1.269511580467224,66.2842788696289,34.61,0
-0.1765276789665222,-0.8750162720680237,-0.0703659132122993,17.710107803344727,1.2706886529922483,66.28633117675781,34.61,0
-0.1692630499601364,-0.8806082010269165,-0.0619501173496246,23.73237991333008,1.2714439630508425,66.28764343261719,34.61,0
-0.1813943535089492,-0.9009901285171508,-0.0565493442118167,22.55286026000977,1.2719286680221558,66.28849029541016,34.61,0
-0.1947772949934005,-0.925265610218048,-0.0530834384262561,18.28857040405273,1.2722398042678833,66.28903198242188,34.61,0
-0.2033656984567642,-0.963235318660736,-0.0396636687219142,15.688132286071776,1.2724393606185913,66.28937530517578,34.61,0
-0.2088772356510162,-0.9876021146774292,-0.0198560841381549,19.91265869140625,1.2725675106048584,66.28959655761719,34.61,0
-0.2012186795473098,-1.0368258953094482,-0.0071447174996137,35.417091369628906,1.2726497650146484,66.28974151611328,34.61,0
-0.2130971848964691,-1.085208296775818,0.012208255007863,59.89070892333984,1.2699482440948486,66.28983306884766,34.61,0
-0.2319156676530838,-1.099463939666748,0.0358234271407127,81.1351318359375,1.2682145833969116,66.2898941040039,34.61,0
-0.2439922839403152,-1.019048094749451,0.0789671540260315,85.03471374511719,1.2671020030975342,66.28993225097656,34.61,0
-0.2461445927619934,-0.93385511636734,0.1066543161869049,66.73323059082031,1.266387939453125,66.28995513916016,34.61,0
-0.2587213814258575,-0.9071720242500304,0.1076290234923362,33.715057373046875,1.2659296989440918,66.28997039794922,34.61,0
-0.26119464635849,-0.9292327761650084,0.0970589816570282,0.3200581967830658,1.26563560962677,66.28997802734375,34.61,0
-0.2515863180160522,-0.976976752281189,0.079080194234848,-21.23631858825684,1.2654469013214111,66.28998565673828,34.61,0
-0.2230291366577148,-1.0356049537658691,0.0563468895852565,-27.22412109375,1.2653257846832275,66.28999328613281,34.61,0
-0.2047027796506881,-1.0564358234405518,0.0417579635977745,-21.293481826782227,1.2670842409133911,66.28999328613281,34.61,0
-0.2041375339031219,-1.008228421211243,0.0379934050142765,-9.351510047912598,1.2682126760482788,66.28999328613281,34.61,0
-0.2037747800350189,-0.9660961031913756,0.0243819802999496,2.367635726928711,1.2689368724822998,66.28999328613281,34.61,0
-0.1979442238807678,-0.939058005809784,0.0156469512730836,7.437827587127685,1.2694015502929688,66.28999328613281,34.61,0
-0.1830069571733474,-0.92170649766922,0.0156390871852636,2.107733249664306,1.2696998119354248,66.28999328613281,34.61,0
-0.1734210699796676,-0.9161691069602966,0.0156340394169092,-11.745275497436523,1.2698911428451538,66.28999328613281,34.61,0
-0.1840627342462539,-0.907017707824707,0.026826350018382,-28.13008689880371,1.2700139284133911,66.28999328613281,34.61,0
-0.2076852619647979,-0.9011449217796326,0.0396067053079605,-42.01253509521485,1.2700927257537842,66.28999328613281,34.61,0
-0.2284426093101501,-0.8973760604858398,0.0534061752259731,-52.45841598510742,1.2710615396499634,66.3329849243164,34.61,0
-0.2529590427875519,-0.917348563671112,0.0734574273228645,-59.99672317504883,1.2716833353042605,66.36058044433594,34.61,0
-0.2686922550201416,-0.9357635378837584,0.0919229462742805,-63.43000411987305,1.2720823287963867,66.37828826904297,34.61,0
-0.2787889242172241,-0.9699723124504088,0.0981752797961235,-62.33731842041016,1.2723383903503418,66.3896484375,34.61,0
-0.2852683961391449,-1.0702943801879885,0.085394337773323,-61.18110656738281,1.2725026607513428,66.39694213867188,34.61,0
-0.2950243353843689,-1.1626641750335691,0.0827900394797325,-67.60784912109375,1.2726081609725952,66.40161895751953,34.61,0
-0.3068828880786896,-1.177159547805786,0.0699232071638107,-84.86588287353516,1.2726757526397705,66.40462493896484,34.61,0
-0.3088952600955963,-1.108093023300171,0.0560682378709316,-105.1769790649414,1.272719144821167,66.40655517578125,34.61,0
-0.2989911437034607,-1.0693678855895996,0.0247858166694641,-112.9844970703125,1.272747039794922,66.40779113769531,34.61,0
-0.2926352322101593,-1.0892984867095947,-0.0120827611535787,-98.43762969970705,1.2727649211883545,66.40858459472656,34.61,0
-0.2829586267471313,-1.1132843494415283,-0.0581339932978153,-66.61445617675781,1.2727763652801514,66.40909576416016,34.61,0
-0.2767487168312073,-1.1174815893173218,-0.1212736666202545,-31.31015968322754,1.2727837562561035,66.409423828125,34.61,0
-0.2671657800674438,-1.10897958278656,-0.1673908531665802,-2.4918630123138428,1.2727885246276855,66.40962982177734,34.61,0
-0.2386249154806137,-1.0755345821380615,-0.1857906579971313,17.90082550048828,1.2727915048599243,66.4097671508789,34.61,0
-0.2259068042039871,-1.0204849243164062,-0.1752074956893921,31.897653579711918,1.2727934122085571,66.40985107421875,34.61,0
-0.2289406061172485,-0.9907549619674684,-0.1628180593252182,41.87596893310547,1.2727947235107422,66.40990447998047,34.61,0
-0.2308875173330307,-0.9772737622261048,-0.1548672318458557,49.751914978027344,1.2737137079238892,66.40994262695312,34.61,0
-0.2209413796663284,-0.9686222672462464,-0.1553626209497451,56.33600234985352,1.2743035554885864,66.40996551513672,34.61,0
-0.2033629715442657,-0.9742658138275146,-0.1556805372238159,61.37812042236328,1.2746820449829102,66.40998077392578,34.61,0
-0.1976799368858337,-0.9834852814674376,-0.15028677880764,64.73925018310547,1.274924874305725,66.40998840332031,34.61,0
-0.1996306777000427,-0.9894018173217772,-0.1356298178434372,66.76725769042969,1.2750808000564575,66.40999603271484,34.61,0
-0.2120780944824218,-0.9987964630126952,-0.1150282844901084,68.50936889648438,1.2751808166503906,66.40999603271484,34.61,0
-0.2032728046178817,-1.027216553688049,-0.0794163048267364,72.31070709228516,1.275244951248169,66.40999603271484,34.61,0
-0.1752309799194336,-1.084639310836792,-0.0565625876188278,79.09226989746094,1.2752861976623535,66.40999603271484,34.61,0
-0.1460397988557815,-1.1326854228973389,-0.0418963879346847,83.25799560546875,1.2739351987838743,66.40999603271484,34.59,0
-0.1385021358728408,-1.1243343353271484,-0.0044955923222005,74.82533264160156,1.2730681896209717,66.40999603271484,34.59,0
-0.1280671209096908,-1.0238128900527954,0.0754838287830352,49.96751403808594,1.2725117206573486,66.40999603271484,34.59,0
-0.1101749762892723,-0.9425106644630432,0.1324077993631363,17.316810607910156,1.272154688835144,66.40999603271484,34.59,0
-0.0818995088338851,-0.935117781162262,0.1577427685260772,-7.860387802124023,1.2719255685806274,66.40999603271484,34.59,0
-0.0861450359225273,-0.9751556515693665,0.1740012913942337,-15.6057767868042,1.2717784643173218,66.40999603271484,34.59,0
-0.1000651195645332,-1.01204514503479,0.173239529132843,-8.596189498901367,1.2716840505599976,66.40999603271484,34.59,0
-0.1034004539251327,-1.0245232582092283,0.1615551263093948,2.003286600112915,1.2716234922409058,66.40999603271484,34.59,0
-0.0943453311920166,-1.0157376527786257,0.1652522981166839,8.260869026184082,1.269748568534851,66.4852294921875,34.59,0
-0.094132050871849,-0.9653173089027404,0.1732227057218551,11.044219017028809,1.2685452699661257,66.53351593017578,34.59,0
-0.116386279463768,-0.9385582208633424,0.1783376485109329,14.134469985961914,1.267773151397705,66.56449890136719,34.59,0
-0.1306677609682083,-0.9269835352897644,0.1872179061174392,18.045040130615234,1.2672775983810425,66.58438110351562,34.59,0
-0.1510283350944519,-0.925153374671936,0.1929167360067367,21.48967170715332,1.266959547996521,66.5971450805664,34.59,0
-0.1752901375293731,-0.9295766353607178,0.2021716982126236,24.02625274658203,1.26675546169281,66.60533142089844,34.59,0
-0.2132510542869568,-0.9268174767494202,0.224904328584671,24.622303009033203,1.2666245698928833,66.61058807373047,34.59,0
-0.248807743191719,-0.9306445717811584,0.2450905889272689,20.143259048461918,1.26654052734375,66.61396026611328,34.59,0
-0.2716259658336639,-0.94429612159729,0.2636427581310272,6.693102836608887,1.270159125328064,66.61612701416016,34.59,0
-0.2862693965435028,-0.9586547017097472,0.2699506878852844,-17.461732864379883,1.2724813222885132,66.61751556396484,34.59,0
-0.2900689244270324,-0.9734669923782348,0.2739987373352051,-47.87717819213867,1.2739715576171875,66.618408203125,34.59,0
-0.2813116908073425,-1.022157073020935,0.2542054653167724,-73.5079345703125,1.274927854537964,66.61898040771484,34.59,0
-0.286887377500534,-1.1317723989486694,0.2247099578380584,-86.54924774169922,1.2755416631698608,66.61934661865234,34.59,0
-0.2960633039474487,-1.2021172046661377,0.2001836597919464,-91.81948852539062,1.2759355306625366,66.61958312988281,34.59,0
-0.3019518852233886,-1.1800872087478638,0.1732485443353653,-97.69867706298828,1.2761882543563845,66.61973571777344,34.59,0
-0.288937509059906,-1.0595918893814087,0.1447675824165344,-100.87689208984376,1.276350498199463,66.61983489990234,34.59,0
-0.2805856168270111,-0.9766671061515808,0.1096968278288841,-91.35910034179688,1.274618148803711,66.6198959350586,34.59,0
-0.2696280777454376,-0.9570374488830566,0.0703971087932586,-69.21910095214844,1.2735064029693604,66.61993408203125,34.59,0
-0.2625961601734161,-0.9612335562705994,0.0451768115162849,-45.08002853393555,1.272792935371399,66.61995697021484,34.59,0
-0.2468879371881485,-0.991915225982666,0.0121985543519258,-27.03100204467773,1.2723350524902344,66.6199722290039,34.59,0
-0.2368073016405105,-1.0116050243377686,-0.0201605409383773,-15.426680564880373,1.2720413208007812,66.61997985839844,34.59,0
-0.2303381413221359,-1.0074474811553955,-0.0633178427815437,-6.944330215454102,1.271852731704712,66.61998748779297,34.59,0
-0.2317843735218048,-0.9935837984085084,-0.0910137146711349,2.583289623260498,1.271731734275818,66.6199951171875,34.59,0
-0.2439080327749252,-0.9790891408920288,-0.1031895577907562,16.618640899658203,1.2716541290283203,66.6199951171875,34.59,0
-0.2516883015632629,-0.969787299633026,-0.1110033169388771,34.37078857421875,1.269768238067627,66.6199951171875,34.59,0
-0.2454856783151626,-0.9694156646728516,-0.1160177364945411,49.79707717895508,1.268557906150818,66.6199951171875,34.59,0
-0.2191140949726104,-0.9691771864891052,-0.1136379241943359,56.96685791015625,1.2677812576293943,66.6199951171875,34.59,0
-0.1965925544500351,-0.9746218919754028,-0.0953173786401748,55.90395736694336,1.2672828435897827,66.6199951171875,34.59,0
-0.187737300992012,-0.9837138056755066,-0.072364754974842,52.94691467285156,1.266963005065918,66.6199951171875,34.59,0
-0.1708589643239975,-1.0007439851760864,-0.035243984311819,57.05723190307617,1.2667577266693115,66.6199951171875,34.59,0
-0.1432340890169143,-1.017270803451538,-0.0058242357335984,74.3190689086914,1.266626000404358,66.6199951171875,34.59,0
-0.086321622133255,-1.1006478071212769,0.0130556635558605,102.50711059570312,1.2665414810180664,66.6199951171875,34.59,0
-0.0497984737157821,-1.0925788879394531,0.064356118440628,131.1794891357422,1.2655689716339111,66.6199951171875,34.59,0
-0.0319577939808368,-1.0426185131072998,0.1252666711807251,148.98507690429688,1.2649449110031128,66.6199951171875,34.59,0
-0.0149108981713652,-0.9881656765937804,0.175551101565361,150.71722412109375,1.2645443677902222,66.6199951171875,34.59,0
-0.0039711813442409,-0.986807644367218,0.2022229880094528,138.27951049804688,1.264287352561951,66.6199951171875,34.59,0
0.0030492988880723,-1.002729415893555,0.2193394601345062,117.75511169433594,1.2641223669052124,66.6199951171875,34.59,0
0.0187501870095729,-1.0241426229476929,0.2303238362073898,95.75984954833984,1.2640165090560913,66.6199951171875,34.59,0
0.0176305659115314,-1.021091103553772,0.2205796539783477,76.39250183105469,1.2639485597610474,66.6199951171875,34.59,0
-0.0110768135637044,-0.9855461716651917,0.2311197221279144,60.22344207763672,1.263905048370361,66.6199951171875,34.59,0
-0.0630862042307853,-0.9403443932533264,0.2490792721509933,45.74502182006836,1.2666313648223877,66.6199951171875,34.59,0
-0.1076583862304687,-0.9169342517852784,0.2606046795845032,31.688777923583984,1.2683809995651243,66.6199951171875,34.59,0
-0.1586533486843109,-0.9131065607070924,0.279196560382843,17.942873001098633,1.269503831863403,66.6199951171875,34.59,0
-0.2025745213031768,-0.9162479043006896,0.2855300009250641,4.822452545166016,1.2702243328094482,66.6199951171875,34.59,0
-0.2531517148017883,-0.9070683121681212,0.2783988714218139,-7.516816139221191,1.2706867456436155,66.6199951171875,34.59,0
-0.3080003261566162,-0.9011773467063904,0.2794203162193298,-19.46584701538086,1.2709834575653076,66.6199951171875,34.59,0
-0.3487967848777771,-0.8973968625068665,0.2744780480861664,-33.31757354736328,1.2711738348007202,66.6199951171875,34.59,0
-0.3805753886699676,-0.9061663150787354,0.2713063657283783,-53.57432556152344,1.2712960243225098,66.6199951171875,34.59,0
-0.3953712880611419,-0.9117940664291382,0.2580754160881042,-82.9319839477539,1.2690794467926023,66.6199951171875,34.59,0
-0.3880731165409088,-0.988176703453064,0.2215956896543502,-116.16324615478516,1.2676570415496826,66.6199951171875,34.59,0
-0.3833895623683929,-1.0819768905639648,0.1981851011514663,-140.1151885986328,1.2667441368103027,66.6199951171875,34.59,0
-0.3859817087650299,-1.1253790855407717,0.155172660946846,-144.0434112548828,1.2661583423614502,66.6199951171875,34.59,0
-0.3652541041374206,-1.1308410167694092,0.1163742020726203,-130.98728942871094,1.265782356262207,66.6199951171875,34.59,0
-0.3463545441627502,-1.0895639657974243,0.0914755910634994,-115.64767456054688,1.2655410766601562,66.6199951171875,34.59,0
-0.3174325823783874,-1.0070970058441162,0.0531059950590133,-109.29660034179688,1.2653862237930298,66.6199951171875,34.59,0
