acc_x,acc_y,acc_z,bvp,eda,hr,temp,label
0.0,0.0,0.0,0.0,0.0,0.0,36.31,0
-0.0364583320915699,-0.1588541567325592,0.0390624962747097,2.183333158493042,0.0516803301870822,13.333332061767578,36.31,0
-0.0895579308271408,-0.3803353905677795,0.1124237775802612,6.555609703063965,0.1210076063871383,31.219512939453125,36.31,0
-0.1506956070661544,-0.5580357313156128,0.1513185203075409,10.26624584197998,0.1813104003667831,46.77740859985352,36.31,0
-0.18996062874794,-0.6823395490646362,0.1690179407596588,12.167073249816896,0.2253045439720153,58.12773513793945,36.31,0
-0.2220344245433807,-0.7829676270484924,0.1590422987937927,12.88835334777832,0.2550904452800751,65.81238555908203,36.31,0
-0.2597386837005615,-0.8378879427909851,0.1524968445301056,12.800089836120604,0.2746342718601227,70.85462188720703,36.31,0
-0.2674198746681213,-0.8678778409957886,0.1370990127325058,11.750250816345217,0.2872918546199798,74.12023162841797,36.31,0
-0.2779580652713775,-0.8871964812278748,0.1495408564805984,9.800308227539062,0.2885691523551941,76.22384643554688,36.31,0
-0.3015153408050537,-0.8940187096595764,0.1575377583503723,7.107607841491699,0.2893901169300079,77.575927734375,36.31,0
-0.3166427314281463,-0.8928031921386719,0.1402870565652847,3.24375581741333,0.2899173200130462,78.44416809082031,36.31,0
-0.303964227437973,-0.9088146686553956,0.1516025960445404,-2.5608115196228027,0.2902557253837585,79.00150299072266,36.31,0
-0.3014245629310608,-0.9358837008476256,0.164462611079216,-10.130208015441896,0.29047292470932,79.35920715332031,36.31,0
-0.3053923547267914,-0.9756465554237366,0.1839111596345901,-18.61711883544922,0.2906123101711273,79.58877563476562,36.31,0
-0.3079386949539184,-0.9955667853355408,0.1907946169376373,-25.263784408569336,0.2907017469406128,79.73609924316406,36.31,0
-0.2983773052692413,-0.991557240486145,0.1896142959594726,-26.29420661926269,0.2907591462135315,79.83064270019531,36.31,0
-0.2810457944869995,-0.9721908569335938,0.1944545954465866,-22.488008499145508,0.2907959818840027,79.89131927490234,36.31,0
-0.2643256485462188,-0.9541648030281068,0.1919630616903305,-16.967975616455078,0.2908196449279785,79.93025207519531,36.31,0
-0.2591933906078338,-0.9258034229278564,0.1791685819625854,-11.046704292297363,0.2908348143100738,79.95523834228516,36.31,0
-0.2670953273773193,-0.9020049571990968,0.1653600484132766,-4.534762859344482,0.2908445596694946,79.97127532958984,36.31,0
-0.2833618819713592,-0.8923302292823792,0.1509007513523101,1.962153434753418,0.290850818157196,79.9815673828125,36.31,0
-0.3105941414833069,-0.9085126519203186,0.1416216045618057,6.855180263519287,0.290854811668396,79.98817443847656,36.31,0
-0.3448635637760162,-0.9300931096076964,0.1356667876243591,8.95629596710205,0.2908573746681213,79.9924087524414,36.31,0
-0.3836490511894226,-0.9439422488212584,0.1262475550174713,8.581452369689941,0.290859043598175,79.99512481689453,36.31,0
-0.3973437845706939,-0.941634237766266,0.125800609588623,6.861295700073242,0.2899418771266937,79.99687194824219,36.31,0
-0.394936740398407,-0.9289575815200806,0.1255137920379638,5.101786613464356,0.2893533110618591,79.99799346923828,36.31,0
-0.3710009157657623,-0.9152246713638306,0.1309275031089782,4.022791385650635,0.2889755964279175,79.99871063232422,36.31,0
-0.3556402921676636,-0.90081387758255,0.1399994790554046,3.251537561416626,0.2887331843376159,79.99917602539062,36.31,0
-0.3457827270030975,-0.908359169960022,0.1458213478326797,2.3338472843170166,0.2885776460170746,79.99947357177734,36.31,0
-0.3506522476673126,-0.9132013320922852,0.1439597159624099,1.3580083847045898,0.2884778082370758,79.99966430664062,36.31,0
-0.3537772297859192,-0.9163087606430054,0.1427650302648544,0.1621416360139846,0.2884137332439422,79.99978637695312,36.31,0
-0.3501848876476288,-0.9350962042808532,0.1419983506202697,-1.586922526359558,0.2883726358413696,79.99986267089844,36.31,0
-0.3478795289993286,-0.9583484530448914,0.1415063440799713,-3.587102174758911,0.2878873348236084,77.49211120605469,36.31,0
-0.3464000821113586,-1.0068570375442505,0.1467883735895156,-4.680825710296631,0.287575900554657,75.88278198242188,36.31,0
-0.3342551290988922,-1.049182653427124,0.1557758450508117,-4.354515552520752,0.2873760163784027,74.85000610351562,36.31,0
-0.3208634257316589,-1.065149188041687,0.1671412587165832,-3.296038150787353,0.287247747182846,74.18722534179688,36.31,0
-0.2842805087566376,-1.097786784172058,0.1912282556295395,-2.3839006423950195,0.2871654331684112,73.76189422607422,36.31,0
-0.2608036994934082,-1.1075360774993896,0.1898925751447677,-2.3215994834899902,0.2871126234531402,73.48893737792969,36.31,0
-0.2961176037788391,-1.0522171258926392,0.1722420901060104,-3.6537444591522217,0.2870787382125854,73.31377410888672,36.31,0
-0.3187800347805023,-0.9943255186080932,0.1721105724573135,-6.396656036376953,0.2870569825172424,73.20136260986328,36.31,0
-0.316530168056488,-0.9739673733711244,0.1720261722803115,-10.224044799804688,0.288420170545578,73.12922668457031,36.31,0
-0.3094885647296905,-1.000087022781372,0.1719720065593719,-15.008916854858398,0.289294958114624,73.08293151855469,36.31,0
-0.2993718981742859,-1.0224469900131226,0.1719372570514679,-19.8386173248291,0.2898563742637634,73.05322265625,36.31,0
-0.2984773516654968,-1.0423940420150757,0.1943060457706451,-21.558748245239254,0.2902166545391083,73.0341567993164,36.31,0
-0.2867077589035034,-1.0384016036987305,0.2142588198184967,-16.106515884399414,0.290447860956192,73.02191925048828,36.31,0
-0.2791546881198883,-1.0302417278289795,0.2046722769737243,-3.206909418106079,0.2905962169170379,73.01406860351562,36.31,0
-0.3022964596748352,-0.9914185404777528,0.1537379771471023,12.81684398651123,0.2906914353370666,73.00902557373047,36.31,0
-0.3395386040210724,-0.9665040373802184,0.1266490519046783,25.518205642700195,0.2907525300979614,73.00579071044922,36.31,0
-0.3690362274646759,-0.9169287085533142,0.1036671698093414,31.12199592590332,0.2903328239917755,73.00371551513672,36.31,0
-0.3823683559894562,-0.8459296822547913,0.0777231678366661,30.44059181213379,0.2900634706020355,73.00238800048828,36.31,0
-0.3909241259098053,-0.789171040058136,0.0666715800762176,25.965744018554688,0.2898906171321869,73.00153350830078,36.31,0
-0.3852191865444183,-0.7303555011749268,0.0539815314114093,19.20694923400879,0.2897796928882599,73.00098419189453,36.31,0
-0.3815580904483795,-0.6926110982894897,0.0346422381699085,11.72762393951416,0.2897084951400757,73.0006332397461,36.31,0
-0.4015997052192688,-0.6795844435691833,0.0054380726069211,5.254761219024658,0.2896628081798553,73.00040435791016,36.31,0
-0.4424501359462738,-0.6768224835395813,-0.046890128403902,0.2087891995906829,0.2896335124969482,73.00025939941406,36.31,0
-0.5022522211074829,-0.6918433308601379,-0.097264677286148,-3.935816764831543,0.2896147072315216,73.00016784667969,36.31,0
-0.5854119658470154,-0.7238739728927612,-0.1743743568658828,-7.050573825836182,0.2886844277381897,73.00010681152344,36.31,0
-0.6499746441841125,-0.7500271201133728,-0.235054463148117,-8.934803009033203,0.2880874276161194,73.00006866455078,36.31,0
-0.7082005739212036,-0.7724084854125977,-0.2683976888656616,-10.344616889953612,0.2877042889595032,73.00004577636719,36.31,0
-0.7959465980529785,-0.8203582167625427,-0.289795458316803,-11.604029655456545,0.2874584197998047,73.00003051757812,36.31,0
-0.8522569537162781,-0.8791184425354004,-0.2867339849472046,-11.326727867126465,0.2873006463050842,73.0000228881836,36.31,0
-0.9387736916542052,-0.916827380657196,-0.2791715264320373,-8.196728706359863,0.2871993780136108,73.00001525878906,36.31,0
-0.9830995798110962,-0.8962446451187134,-0.2911117076873779,-3.522639751434326,0.2871344089508056,73.00000762939453,36.31,0
-0.9163832068443298,-0.8886336088180542,-0.2819809019565582,-0.1612380594015121,0.2870927155017853,73.00000762939453,36.31,0
-0.8231885433197021,-0.906140387058258,-0.2201435267925262,0.6130417585372925,0.2875248789787292,74.16434478759766,36.31,0
-0.7521860003471375,-0.9285707473754884,-0.1524709910154342,-0.2263707220554351,0.2878022193908691,74.91154479980469,36.31,0
-0.6506429314613342,-0.8981830477714539,-0.0530649051070213,-1.101819396018982,0.2879801988601684,75.39105987548828,36.31,0
-0.5798806548118591,-0.8338997960090637,0.0107281962409615,-1.1835668087005615,0.2880944013595581,75.69878387451172,36.31,0
-0.5512627959251404,-0.7422665357589722,0.0236780624836683,-0.3654616773128509,0.2881676852703094,75.8962631225586,36.31,0
-0.5328975319862366,-0.7058526873588562,0.0375863127410411,1.0695252418518066,0.2882147133350372,76.02299499511719,36.31,0
-0.5155139565467834,-0.7104732394218445,0.0521096028387546,2.570794582366944,0.2882449030876159,76.10432434082031,36.31,0
-0.4875648617744446,-0.7190362215042114,0.0390387177467346,3.491231918334961,0.2882642745971679,76.1565170288086,36.31,0
-0.4640309810638428,-0.7133359313011169,0.0194550268352031,3.497955799102783,0.2882767021656036,76.19001007080078,36.31,0
-0.4153416454792022,-0.6984822154045105,0.0012895675608888,2.746347188949585,0.2882846891880035,76.21150207519531,36.31,0
-0.3561067581176758,-0.6777544021606445,-0.0103679792955517,1.7409521341323853,0.2882898151874542,76.22529602050781,36.31,0
-0.3180932104587555,-0.6644524931907654,-0.0122513463720679,1.13157320022583,0.2882930934429168,76.23414611816406,36.31,0
-0.3104916214942932,-0.6951005458831787,-0.0022644342388957,1.191913366317749,0.2882952094078064,76.23982238769531,36.31,0
-0.3224066793918609,-0.7427575588226318,0.0097423642873764,1.205558180809021,0.2882965505123138,76.24346923828125,36.31,0
-0.4028241634368896,-0.8293188214302063,0.0230454113334417,-0.0252565667033195,0.2882974147796631,76.24581146240234,36.31,0
-0.4992136657238006,-0.9464443922042848,0.014789218083024,-2.4344468116760254,0.2882979810237884,76.247314453125,36.31,0
-0.5330820083618164,-1.0775865316390991,0.0262841936200857,-3.937535524368286,0.2873804867267608,76.24827575683594,36.31,0
-0.5044367909431458,-1.2792993783950806,0.0840409770607948,-2.408658504486084,0.2867917120456695,76.24889373779297,36.31,0
-0.4748584032058716,-1.3807581663131714,0.1714859306812286,1.7430663108825684,0.2864138484001159,76.2492904663086,36.31,0
-0.3887034058570862,-1.261142015457153,0.2891785800457001,5.90133810043335,0.2861713767051697,76.24954223632812,36.31,0
-0.2382519245147705,-1.1731836795806885,0.3535113930702209,7.856945037841797,0.2860157489776611,76.24970245361328,36.31,0
-0.1249075010418891,-1.094346046447754,0.3836009502410888,7.191680431365967,0.2859158813953399,76.24980926513672,36.31,0
-0.0857562199234962,-1.0157636404037476,0.3469329476356506,4.615206718444824,0.2858518064022064,76.2498779296875,36.31,0
-0.0886200517416,-0.9485406875610352,0.2954126596450805,1.234972357749939,0.2858106791973114,76.24992370605469,36.31,0
-0.1688267290592193,-0.8886075615882874,0.2287632673978805,-1.876484513282776,0.2876203656196594,76.24995422363281,36.31,0
-0.2874720692634582,-0.8613414764404297,0.1580026447772979,-4.292399883270264,0.2887817025184631,76.24996948242188,36.31,0
-0.3971984684467315,-0.849441409111023,0.1237881034612655,-6.236878871917725,0.2895269691944122,76.2499771118164,36.31,0
-0.4788101017475128,-0.8250113129615784,0.1410156041383743,-7.846573352813721,0.2900052666664123,76.24998474121094,36.31,0
-0.5143904089927673,-0.8037357330322266,0.1744623184204101,-8.739862442016602,0.2903122007846832,76.24999237060547,36.31,0
-0.5484193563461304,-0.8292666673660278,0.2239153683185577,-8.532122611999512,0.2905091643333435,76.24999237060547,36.31,0
-0.5982460379600525,-0.8960309624671936,0.2836403548717499,-7.574814319610596,0.2906355559825897,76.24999237060547,36.31,0
-0.5574508905410767,-0.9052897691726683,0.2883817553520202,-6.845826625823975,0.290716677904129,76.24999237060547,36.31,0
-0.4696953892707824,-0.8776448965072632,0.2522400915622711,-6.904643058776856,0.2898505330085754,83.2539291381836,36.31,0
-0.3853900730609894,-0.8375129103660583,0.2346442341804504,-7.254072189331055,0.2892946898937225,87.7486572265625,36.31,0
-0.348081111907959,-0.7557807564735413,0.2065589129924774,-7.019745826721191,0.2889379858970642,90.63311004638672,36.31,0
-0.4472894072532654,-0.7145253419876099,0.1213620752096176,-6.034628391265869,0.2887090742588043,92.48419189453124,36.31,0
-0.6564977169036865,-0.7384299635887146,0.016307670623064,-5.234055995941162,0.288562148809433,93.67210388183594,36.31,0
-0.8019511103630066,-0.8489327430725098,-0.0735012963414192,-5.522791385650635,0.2884678840637207,94.43444061279295,36.31,0
-0.783339262008667,-0.9478359222412108,-0.0695599988102912,-5.9875264167785645,0.2884073853492737,94.92366027832033,36.31,0
-0.609059751033783,-0.9665241241455078,-0.0166507344692945,-4.465817928314209,0.2883685529232025,95.23761749267578,36.31,0
-0.4076528251171112,-1.017701506614685,0.0173033904284238,-0.2757027149200439,0.2878847122192383,95.43909454345705,36.31,0
-0.339976966381073,-1.1009242534637451,0.0222998689860105,5.035717487335205,0.2875742018222809,95.56838989257812,36.31,0
-0.402904212474823,-1.16552734375,0.0031152227893471,9.490392684936523,0.2873749434947967,95.6513671875,36.31,0
-0.448885053396225,-1.1733992099761963,-0.0035986034199595,11.643380165100098,0.2872470617294311,95.70462036132812,36.31,0
-0.4448062777519226,-1.0944843292236328,0.0032883982639759,10.699952125549316,0.2871649861335754,95.7387924194336,36.31,0
-0.4030043184757232,-0.987863540649414,0.0021103047765791,7.608206272125244,0.2871123254299164,95.7607192993164,36.31,0
-0.3593849241733551,-0.8970493674278259,0.0013542721280828,5.000733852386475,0.2870785295963287,95.77479553222656,36.31,0
-0.3425880372524261,-0.8387700319290161,0.0064668683335185,4.613552570343018,0.2870568335056305,95.78382873535156,36.31,0
-0.3430043160915375,-0.7957719564437866,0.0209433864802122,5.679887294769287,0.2875018417835235,95.78962707519533,36.31,0
-0.3544670045375824,-0.7849715948104858,0.0582224540412426,6.597066879272461,0.2877874374389648,95.79334259033205,36.31,0
-0.3730186522006988,-0.7836382985115051,0.0653526932001113,7.11042594909668,0.2879706919193268,95.79573059082033,36.31,0
-0.3569351732730865,-0.7883804440498352,0.0699284672737121,8.464487075805664,0.288088321685791,95.7972640991211,36.31,0
-0.335418164730072,-0.8194125294685364,0.1008538082242012,12.07769775390625,0.288163810968399,95.79824829101562,36.31,0
-0.3160120248794555,-0.8617182374000549,0.1374932378530502,17.903791427612305,0.288212239742279,95.7988739013672,36.31,0
-0.2867649495601654,-0.9336498379707336,0.1666040867567062,23.627389907836918,0.2882433235645294,95.79927825927734,36.31,0
-0.2791914045810699,-1.1085602045059204,0.1796879768371582,26.261518478393555,0.2882632613182068,95.7995376586914,36.31,0
-0.3079177737236023,-1.232003092765808,0.1880844682455063,24.960498809814453,0.2887353599071502,95.7997055053711,36.31,0
-0.393526017665863,-1.1712772846221924,0.2046684026718139,21.33833694458008,0.2890383303165436,95.79981231689452,36.31,0
-0.4428666830062866,-1.0371447801589966,0.198517695069313,17.057754516601562,0.2892327606678009,95.79988098144533,36.31,0
-0.3569774031639099,-0.945468544960022,0.1833749711513519,12.451366424560549,0.2893575131893158,95.7999267578125,36.31,0
-0.4697918593883514,-0.992993712425232,0.2240372151136398,7.403027534484863,0.2894375920295715,95.79995727539062,36.31,0
-0.6485474109649658,-1.0011014938354492,0.1773608326911926,1.988671064376831,0.2894889712333679,95.79997253417967,36.31,0
-0.7688601613044739,-0.927935779094696,0.0522444546222686,-3.653409719467163,0.2895219326019287,95.79998016357422,36.31,0
-0.6333545446395874,-0.8585911393165588,0.0615163557231426,-8.932904243469238,0.289543092250824,95.79998779296876,36.31,0
-0.5351992845535278,-0.8028942346572876,0.0226843319833278,-12.672073364257812,0.2881795465946197,95.21603393554688,36.31,0
-0.522588849067688,-0.8511177897453308,-0.0134313749149441,-14.29423713684082,0.2873044908046722,94.8412857055664,36.31,0
-0.5144962072372437,-0.9100537300109864,-0.0142172574996948,-14.500508308410645,0.2867429256439209,94.60079193115234,36.31,0
-0.4645206332206726,-0.9254843592643738,0.0020717312581837,-14.081164360046388,0.2863825559616089,94.44645690917967,36.31,0
-0.3876670002937317,-0.9297890663146972,0.0125250667333602,-13.163607597351074,0.2861512899398803,94.347412109375,36.31,0
-0.2543801367282867,-0.910160481929779,0.0640156120061874,-12.413557052612305,0.2860028743743896,94.28385162353516,36.31,0
-0.2136265039443969,-0.8919662237167358,0.1194503754377365,-13.297179222106934,0.2859076261520386,94.2430648803711,36.31,0
-0.2322553545236587,-0.8914856910705566,0.149427443742752,-16.139171600341797,0.2858465015888214,94.21688842773438,36.31,0
-0.3001880347728729,-0.8967751264572144,0.1574694514274597,-19.123754501342773,0.2858072817325592,94.20008850097656,36.31,0
-0.3605766296386719,-0.9001695513725281,0.1626303493976593,-19.74219512939453,0.2857820987701416,94.1893081665039,36.31,0
-0.4217216670513153,-0.9023479223251344,0.1547467708587646,-16.77861785888672,0.2857659459114074,94.18238830566406,36.31,0
-0.4385699331760406,-0.9037458896636964,0.1161008924245834,-11.903227806091309,0.2857555747032165,94.17794799804688,36.31,0
-0.4325888454914093,-0.9326318502426147,0.0801046416163444,-9.079001426696776,0.2857489287853241,94.17510223388672,36.31,0
-0.4175549745559692,-1.0127447843551636,0.0737976431846618,-10.4407377243042,0.2857446670532226,94.17327117919922,36.31,0
-0.4135048687458038,-1.0865477323532104,0.0809457227587699,-13.313698768615724,0.285741925239563,94.1720962524414,36.31,0
-0.4165035188198089,-1.1059212684631348,0.0799351781606674,-13.326704025268556,0.2857401669025421,94.1713409423828,36.31,0
-0.4016345739364624,-1.1911251544952393,0.0512977950274944,-9.394216537475586,0.2861979603767395,94.17086029052734,36.31,0
-0.3808969855308532,-1.2961841821670532,0.0273221954703331,-3.9865994453430176,0.2864917516708374,94.1705551147461,36.31,0
-0.334002137184143,-1.4083871841430664,-0.0384439341723918,0.0999009162187576,0.2866802811622619,94.17035675048828,36.31,0
-0.3095055222511291,-1.39642596244812,-0.119833268225193,1.8052425384521484,0.286801278591156,94.17022705078124,36.31,0
-0.2881872057914734,-1.2432078123092651,-0.1832598149776458,1.824859857559204,0.2868789136409759,94.1701431274414,36.31,0
-0.2017352879047393,-1.144881248474121,-0.1903766691684723,1.6726505756378174,0.2869287431240082,94.17008972167967,36.31,0
-0.1350598633289337,-1.0649875402450562,-0.1893460750579834,2.4455373287200928,0.2869607210159302,94.17005920410156,36.31,0
-0.1426513940095901,-1.0025207996368408,-0.1830869317054748,4.055712699890137,0.2869812548160553,94.17003631591795,36.31,0
-0.1363276541233062,-0.9624332785606384,-0.1622768491506576,5.576260566711426,0.2869944274425506,94.1700210571289,36.31,0
-0.1210738867521286,-0.9479029774665833,-0.1153354868292808,6.2403764724731445,0.2870028614997864,94.17001342773438,36.31,0
-0.1056871265172958,-0.9217849373817444,-0.0964067727327346,5.928557395935059,0.2870082855224609,94.17000579833984,36.31,0
-0.0902150124311447,-0.9106216430664062,-0.0842594131827354,4.861466884613037,0.2870117723941803,94.17000579833984,36.31,0
-0.1194703206419944,-0.942642092704773,-0.0316817425191402,3.435076236724853,0.2870140075683594,94.17000579833984,36.31,0
-0.1550380140542984,-0.968788743019104,0.0300484523177146,2.8492977619171143,0.287015438079834,94.17000579833984,36.31,0
-0.2114499658346176,-0.9855681657791138,0.0472722388803958,5.264205455780029,0.287016361951828,94.17000579833984,36.31,0
-0.2476519048213958,-1.0187273025512695,0.0415321514010429,12.015853881835938,0.2870169579982757,94.17000579833984,36.31,0
-0.2764819860458374,-1.0400069952011108,0.0322507172822952,21.199481964111328,0.2865584194660187,93.6469497680664,36.31,0
-0.3453634679317474,-0.9976853132247924,0.0486855246126651,28.497373580932617,0.2862641513347626,93.311279296875,36.31,0
-0.4231542646884918,-0.9425368309020996,0.0872213095426559,31.876684188842773,0.2860752940177917,93.09586334228516,36.31,0
-0.5066625475883484,-0.9127434492111206,0.111951358616352,33.68349075317383,0.285954087972641,92.95762634277344,36.31,0
-0.4986778795719147,-0.9607970714569092,0.0942350327968597,35.5953369140625,0.2858763039112091,92.86891174316406,36.31,0
-0.4487715661525726,-1.0140262842178345,0.0828657150268554,34.43983459472656,0.2858264148235321,92.81198120117188,36.31,0
-0.3551690578460693,-1.020196795463562,0.0979606434702873,26.869911193847656,0.2857943773269653,92.77544403076172,36.31,0
-0.2671114802360534,-1.0073633193969729,0.135636568069458,15.111929893493652,0.2857738137245178,92.7519989013672,36.31,0
-0.1658190041780471,-0.9823342561721802,0.2269881069660186,4.385007381439209,0.2871377766132355,92.73695373535156,36.31,0
-0.1176086440682411,-0.932685375213623,0.2576233744621277,-2.774772882461548,0.2880130708217621,92.727294921875,36.31,0
-0.1258544325828552,-0.8952258229255676,0.2604900300502777,-7.383838176727295,0.2885747849941253,92.72109985351562,36.31,0
-0.1927216202020645,-0.8991753458976746,0.2511341273784637,-11.713796615600586,0.2889352738857269,92.71712493896484,36.31,0
-0.2692197859287262,-0.9073076844215392,0.2395322620868683,-17.390819549560547,0.2891665995121002,92.71456909179688,36.31,0
-0.3463007807731628,-0.9237220883369446,0.2208913117647171,-24.322811126708984,0.2893150746822357,92.71292877197266,36.31,0
-0.3789736032485962,-0.9398536682128906,0.197733074426651,-31.035551071166992,0.2894103527069092,92.71187591552734,36.31,0
-0.3831478059291839,-0.944608211517334,0.171675905585289,-36.299949645996094,0.2894714772701263,92.7112045288086,36.31,0
-0.3634354770183563,-0.9308660626411438,0.1325628161430359,-40.12974166870117,0.2895107269287109,92.71076965332033,36.31,0
-0.3507852256298065,-0.9276449680328368,0.1074622794985771,-42.938575744628906,0.2895359098911285,92.7104949951172,36.31,0
-0.3482648134231567,-0.9367733597755432,0.1025497540831565,-44.0711784362793,0.2895520627498626,92.71031951904295,36.31,0
-0.3410495817661285,-0.9258381128311156,0.0882016271352768,-42.00360870361328,0.2895624339580536,92.710205078125,36.31,0
-0.3196259438991546,-0.9076249599456788,0.0677982792258262,-36.27019500732422,0.289569079875946,92.71012878417967,36.31,0
-0.2666930556297302,-0.9687078595161438,0.0491068065166473,-28.52459716796875,0.2895733416080475,92.7100830078125,36.31,0
-0.2439193129539489,-1.075080633163452,0.0539050176739692,-21.48318862915039,0.2895760834217071,92.71005249023438,36.31,0
-0.2572933137416839,-1.104160189628601,0.0849731042981147,-17.27610206604004,0.289577841758728,92.71002960205078,36.31,0
-0.3050603866577148,-1.1172239780426023,0.0993130430579185,-16.363941192626953,0.2882018387317657,92.71002197265624,36.31,0
-0.3693011999130249,-1.1591942310333252,0.1197111383080482,-17.08620834350586,0.2873187959194183,92.71001434326172,36.31,0
-0.4665049910545349,-1.15813946723938,0.1048125922679901,-16.865446090698242,0.2867521047592163,92.7100067138672,36.31,0
-0.5120914578437805,-1.1294736862182615,0.0728604644536972,-14.742609977722168,0.2863884270191192,92.7100067138672,36.31,0
-0.4853684902191162,-1.0439043045043943,0.0131710059940814,-11.82904052734375,0.2861550450325012,92.7100067138672,36.31,0
-0.4066437184810638,-0.9665997624397278,-0.0139387026429176,-8.981236457824707,0.286005288362503,92.7100067138672,36.31,0
-0.3281338214874267,-0.9169901609420776,-0.0201406050473451,-5.61317253112793,0.2859091758728027,92.7100067138672,36.31,0
-0.2553595900535583,-0.8963490724563599,0.0038682415615767,-1.2233810424804688,0.2858474850654602,92.7100067138672,36.31,0
-0.203059509396553,-0.8887006044387817,0.0304712858051061,3.4495086669921875,0.2862668335437774,92.2335205078125,36.31,0
-0.1974851936101913,-0.8949878215789795,0.0699346885085105,7.207806587219238,0.2865359485149383,91.92774200439452,36.31,0
-0.2162990272045135,-0.9214136600494384,0.1008578017354011,9.41545867919922,0.286708652973175,91.73150634765624,36.31,0
-0.2227748781442642,-0.943970024585724,0.1095069274306297,10.38796329498291,0.2868194878101349,91.60557556152344,36.31,0
-0.1989418417215347,-0.9808365106582642,0.120655208826065,11.495708465576172,0.2868905961513519,91.5247573852539,36.31,0
-0.1612560749053955,-1.0268863439559937,0.1166139915585517,14.549600601196287,0.2869362533092499,91.47289276123048,36.31,0
-0.1202781870961189,-1.0284496545791626,0.0580428279936313,20.44666290283203,0.286965548992157,91.43961334228516,36.31,0
-0.0715898424386978,-1.0238550901412964,0.0428463220596313,28.65195655822754,0.2869843542575836,91.4182586669922,36.31,0
-0.0403444655239582,-1.0544931888580322,0.0610829479992389,37.819068908691406,0.2869963943958282,91.40454864501952,36.31,0
-0.1042595952749252,-1.135730504989624,0.1007750406861305,45.89810943603516,0.287004142999649,91.395751953125,36.31,0
-0.1900588423013687,-1.2102550268173218,0.1150515899062156,50.03307723999024,0.2870091199874878,91.39010620117188,36.31,0
-0.3010976016521454,-1.1629184484481812,0.1074201315641403,48.014984130859375,0.2870123088359833,91.38648223876952,36.31,0
-0.2939870357513428,-1.0597695112228394,0.1249138042330741,40.23542785644531,0.2870143353939056,91.3841552734375,36.31,0
-0.2446417063474655,-0.9935744404792786,0.1473357826471328,29.48575592041016,0.2870156466960907,91.3826675415039,36.31,0
-0.162594735622406,-0.9790831208229064,0.1617249101400375,18.87210464477539,0.2870164811611175,91.3817138671875,36.31,0
-0.104343943297863,-0.9809789657592772,0.182154580950737,10.129865646362305,0.2870170176029205,91.38109588623048,36.31,0
-0.083755262196064,-0.9598045349121094,0.2120584845542907,3.5093138217926025,0.2860991656780243,91.38069915771484,36.31,0
-0.0705426260828971,-0.9182271361351012,0.2312490940093994,-1.45589017868042,0.2855101227760315,91.38044738769533,36.31,0
-0.0620635189116001,-0.8803495764732361,0.2435645163059234,-5.2978835105896,0.2851321101188659,91.38028717041016,36.31,0
-0.084610991179943,-0.8392486572265625,0.2346745282411575,-8.505046844482422,0.2848895192146301,91.38018035888672,36.31,0
-0.1326673030853271,-0.8296657204627991,0.2233716696500778,-11.54126262664795,0.2847338616847992,91.38011169433594,36.31,0
-0.2250826060771942,-0.8627004027366638,0.2161181420087814,-14.718554496765137,0.2846339643001556,91.38007354736328,36.31,0
-0.3123782873153686,-0.8727046251296997,0.1890721470117569,-17.73918342590332,0.2845698595046997,91.38004302978516,36.31,0
-0.3572040796279907,-0.8623313903808594,0.1549222618341446,-19.136680603027344,0.2845287024974823,91.3800277709961,36.31,0
-0.3635796010494232,-0.8500766754150391,0.1386046111583709,-16.848604202270508,0.2849615812301636,91.38002014160156,36.31,0
-0.3452799618244171,-0.8478100895881653,0.1337306499481201,-10.457789421081545,0.2852393984794616,91.38001251220705,36.31,0
-0.3167429566383362,-0.8855399489402771,0.1306028217077255,-2.619906187057495,0.2854176759719848,91.3800048828125,36.31,0
-0.3040273487567901,-0.9657305479049684,0.100606694817543,2.789749383926392,0.2855320870876312,91.3800048828125,36.31,0
-0.2902694046497345,-1.0563766956329346,0.0757591351866722,3.889689922332764,0.2856054902076721,91.3800048828125,36.31,0
-0.3094292283058166,-1.142536997795105,0.0430200770497322,1.8405678272247317,0.285652607679367,91.3800048828125,36.31,0
-0.3441160023212433,-1.1642431020736694,0.0108144860714674,-0.907471001148224,0.2856828570365906,91.3800048828125,36.31,0
-0.3383871018886566,-1.1837706565856934,0.0069401147775352,-2.577857255935669,0.2857022583484649,91.3800048828125,36.31,0
-0.2451462298631668,-1.2186933755874634,0.0324426405131816,-2.578624963760376,0.2866325676441192,90.92501831054688,36.31,0
-0.0229741595685482,-1.2411047220230105,0.0823953375220298,-1.2141562700271606,0.2872295677661896,90.6330337524414,36.31,0
0.1419941931962967,-1.227498173713684,0.0304854847490787,0.6108637452125549,0.2876127064228058,90.4456558227539,36.31,0
0.1918836385011673,-1.280341863632202,0.0699438005685806,1.9504375457763672,0.2878585755825043,90.32540130615234,36.31,0
0.1231398731470108,-1.174309492111206,0.0952658727765083,2.297790765762329,0.2880163490772247,90.24822998046876,36.31,0
0.0454374365508556,-1.0726773738861084,0.0723317041993141,1.3599474430084229,0.2881176173686981,90.1987075805664,36.31,0
-0.0156230656430125,-1.0018579959869385,0.0296250004321336,-1.3018875122070312,0.2881825864315033,90.16693115234376,36.31,0
-0.0995903760194778,-0.9899967908859252,-0.042563896626234,-5.783013343811035,0.2882242798805237,90.14653778076172,36.31,0
-0.159073531627655,-1.0271672010421753,-0.1000861227512359,-11.248944282531738,0.2882510423660278,90.1334457397461,36.33,0
-0.2028441727161407,-1.0342276096343994,-0.1258050352334976,-15.97115707397461,0.2882682085037231,90.1250457763672,36.33,0
-0.2533247470855713,-1.0331608057022097,-0.1199188530445098,-17.80143928527832,0.2882792353630066,90.11965942382812,36.33,0
-0.2297425270080566,-1.0212806463241575,-0.0937503427267074,-15.278790473937988,0.2882863283157348,90.11619567871094,36.33,0
-0.1530333012342453,-0.9128967523574828,-0.0433702506124973,-8.866413116455078,0.2882908582687378,90.11397552490234,36.33,0
-0.1094035133719444,-0.8265488743782043,0.0057541145943105,-0.5023842453956604,0.2882937788963318,90.112548828125,36.33,0
-0.0590133257210254,-0.8047224283218384,0.0540726296603679,8.268614768981934,0.2882956564426422,90.11163330078124,36.33,0
-0.0658602267503738,-0.8243021368980408,0.0514940246939659,17.157482147216797,0.2882968485355377,90.11104583740234,36.33,0
-0.1206341460347175,-0.8704538941383362,0.0218503512442111,26.30111694335937,0.2873797714710235,90.11067199707033,36.33,0
-0.2061648666858673,-0.9616469740867616,-0.0027710241265594,35.232078552246094,0.2867912352085113,90.11042785644533,36.33,0
-0.244260236620903,-1.0537561178207395,-0.0297671537846326,42.69742202758789,0.2864135503768921,90.11027526855467,36.33,0
-0.2687076330184936,-1.0960731506347656,-0.0862761363387107,47.47391891479492,0.2861711680889129,90.11017608642578,36.33,0
-0.3347765505313873,-1.0784475803375244,-0.0945514813065528,48.84822463989258,0.2860156297683716,90.11011505126952,36.33,0
-0.3827735483646393,-1.0783320665359497,-0.0494821518659591,46.151180267333984,0.2859158217906952,90.11007690429688,36.33,0
-0.430368572473526,-1.1006489992141724,0.0969940200448036,39.0465087890625,0.2858517467975616,90.11004638671876,36.33,0
-0.4609123468399048,-1.0925796031951904,0.230178415775299,29.005800247192383,0.285810649394989,90.11003112792967,36.33,0
-0.4077425003051758,-1.0034345388412476,0.2652685344219208,18.83279037475586,0.2867021262645721,90.11002349853516,36.33,0
-0.3288389444351196,-0.901444137096405,0.2038207203149795,10.07955837249756,0.2872742116451263,90.11001586914062,36.33,0
-0.2614098787307739,-0.8415903449058533,0.164387047290802,2.026087045669556,0.2876413464546203,90.1100082397461,36.33,0
-0.2125400155782699,-0.8199729323387146,0.1334830224514007,-6.663839340209961,0.2878769636154175,90.1100082397461,36.33,0
-0.1923736929893493,-0.8116979002952576,0.1136505901813507,-16.19927978515625,0.2880281507968902,90.1100082397461,36.33,0
-0.201823204755783,-0.8399741053581238,0.1009232774376869,-25.27778434753418,0.2881251871585846,90.1100082397461,36.33,0
-0.247071772813797,-0.8749135136604309,0.1039511710405349,-31.960081100463867,0.2881874442100525,90.1100082397461,36.33,0
-0.2929030358791351,-0.8973355889320374,0.1226876229047775,-35.32408905029297,0.2882274091243744,90.1100082397461,36.33,0
-0.3391082286834717,-0.9005292654037476,0.1682982444763183,-36.17527770996094,0.2882530689239502,89.6048583984375,36.33,0
-0.3687600493431091,-0.8913832306861877,0.1975685209035873,-35.940521240234375,0.2882695198059082,89.28068542480469,36.33,0
-0.3598000109195709,-0.8743182420730591,0.1939613968133926,-35.44593811035156,0.2882800698280334,89.07264709472656,36.33,0
-0.3372566401958465,-0.863366961479187,0.1692554503679275,-34.93508529663086,0.2882868349552154,88.93914031982422,36.33,0
-0.3283873796463012,-0.8675345778465271,0.1589983701705932,-34.74338912963867,0.288291186094284,88.85346221923828,36.33,0
-0.3115000426769256,-0.9485779404640198,0.1804048418998718,-35.46585464477539,0.2882939875125885,88.7984848022461,36.33,0
-0.3118582963943481,-1.034173607826233,0.2053378373384475,-37.326698303222656,0.2882957756519317,88.76319885253906,36.33,0
-0.3456748425960541,-1.1338860988616943,0.2493272721767425,-39.29829788208008,0.2882969379425049,88.74055480957031,36.33,0
-0.4065607786178589,-1.1642892360687256,0.2887527048587799,-39.137691497802734,0.293806254863739,88.72602844238281,36.31,0
-0.4288405478000641,-1.1390180587768557,0.3140536844730377,-34.889583587646484,0.2973417937755584,88.71670532226562,36.31,0
-0.3759651184082031,-1.1339960098266602,0.3023015260696411,-26.613983154296875,0.2996107041835785,88.7107162475586,36.31,0
-0.3140438497066498,-1.1419687271118164,0.2947596609592438,-16.57059669494629,0.3010667562484741,88.70687866210938,36.31,0
-0.2351219058036804,-1.1974650621414185,0.2899197340011596,-7.810986042022705,0.3020011782646179,88.70441436767578,36.31,0
-0.1788765788078308,-1.2554705142974854,0.2700204253196716,-2.5800721645355225,0.3026008307933807,88.70283508300781,36.31,0
-0.1483793407678604,-1.2423150539398191,0.2236635386943817,-1.3798835277557373,0.302985668182373,88.70182037353516,36.31,0
-0.1511990576982498,-1.1666994094848633,0.1435343772172927,-2.61233139038086,0.3032326102256775,88.70116424560547,36.31,0
-0.231377437710762,-1.112575888633728,0.0697210058569908,-3.335176467895508,0.2978825271129608,88.70074462890625,36.31,0
-0.0589203350245952,-1.0050714015960691,0.1231117695569992,-1.205272197723389,0.2944491505622864,88.70047760009766,36.31,0
0.0573504827916622,-0.913690149784088,0.1573748886585235,4.01284646987915,0.2922458052635193,88.70030212402344,36.31,0
0.1319663971662521,-0.8438513875007629,0.1737652122974395,10.800806999206545,0.2908318340778351,88.7001953125,36.31,0
0.0566995665431022,-0.8046306371688843,0.1171102821826934,17.34946632385254,0.2899244129657745,88.70012664794922,36.31,0
-0.0699711963534355,-0.7794610261917114,0.0415679924190044,22.57305335998535,0.2893421053886413,88.70008087158203,36.31,0
-0.201641172170639,-0.7633086442947388,-0.0348995737731456,26.31216812133789,0.288968414068222,88.7000503540039,36.31,0
-0.2693460583686828,-0.7585407495498657,-0.1007653772830963,28.88726234436035,0.2887285947799682,88.70002746582031,36.31,0
-0.3183929324150085,-0.7778720855712891,-0.1598275899887085,30.701026916503903,0.289033979177475,88.70001983642578,36.31,0
-0.3554661571979522,-0.8350600004196167,-0.2201214134693145,32.26624298095703,0.2892299592494964,88.70001220703125,36.31,0
-0.3792576193809509,-0.8885532021522522,-0.2644122838973999,34.2415885925293,0.2893557250499725,88.70000457763672,36.31,0
-0.428112268447876,-0.9396753907203674,-0.2592489719390869,36.99602127075195,0.2894364297389984,88.70000457763672,36.31,0
-0.4762576818466186,-1.050851583480835,-0.1663710623979568,40.09637451171875,0.2894882261753082,88.70000457763672,36.31,0
-0.4791657626628876,-1.1837735176086426,-0.0955718234181404,42.1719856262207,0.2895214557647705,88.70000457763672,36.31,0
-0.5258142352104187,-1.263477444648743,-0.0501369498670101,41.286376953125,0.2895427942276001,88.70000457763672,36.31,0
-0.5613482594490051,-1.191475749015808,0.0014116392703726,35.967552185058594,0.289556473493576,88.70000457763672,36.31,0
-0.4610009491443634,-1.1060848236083984,0.0568836517632007,26.35279655456543,0.2886470556259155,88.32025146484375,36.31,0
-0.2454639077186584,-1.084872484207153,0.131666824221611,14.34300136566162,0.2880634367465973,88.07654571533203,36.31,0
-0.0959490910172462,-1.0656617879867554,0.168462797999382,2.18983006477356,0.2876889109611511,87.92015075683594,36.31,0
9.121853850047046e-07,-0.9973557591438292,0.1808807998895645,-8.790702819824219,0.2874485552310943,87.81978607177734,36.31,0
0.044782780110836,-0.9255319833755492,0.166458860039711,-17.481779098510742,0.2872942984104156,87.75537872314453,36.31,0
-0.0104454131796956,-0.8458529710769653,0.1124214902520179,-21.970109939575195,0.2871953248977661,87.71404266357422,36.31,0
-0.1410498470067978,-0.7947195768356323,0.0553523190319538,-21.11741828918457,0.2871317863464355,87.68751525878906,36.31,0
-0.2472553551197052,-0.7786984443664551,0.0187286101281642,-16.5183162689209,0.2870910167694092,87.67049407958984,36.31,0
-0.3266074955463409,-0.7908080816268921,0.0008233950939029,-11.112812995910645,0.2866059243679046,87.6595687866211,36.33,0
-0.3831289112567901,-0.7985793948173523,-0.005069367121905,-6.565516948699951,0.2862946391105652,87.65255737304688,36.33,0
-0.4249988496303558,-0.803566575050354,0.0079423207789659,-3.1923367977142334,0.2860948741436004,87.64805603027344,36.33,0
-0.4462707936763763,-0.8403536677360535,0.038683570921421,-1.0921101570129397,0.2859666645526886,87.64517211914062,36.33,0
-0.4655196964740753,-0.8863525986671448,0.0752048566937446,0.019244261085987,0.2858843803405761,87.64331817626953,36.33,0
-0.4946658611297607,-0.9494587182998656,0.1322287619113922,0.9868104457855223,0.2858315706253052,87.64212799072266,36.33,0
-0.4965768456459045,-0.9899566173553468,0.1744211912155151,2.0985515117645264,0.2857976853847503,87.64136505126953,36.33,0
-0.4586187899112701,-1.0383368730545044,0.2182911932468414,2.2137129306793213,0.2857759594917297,87.64087677001953,36.33,0
-0.4398572742938995,-1.1309601068496704,0.2744333148002624,-0.112708993256092,0.2862209379673004,87.64056396484375,36.33,0
-0.4446105360984802,-1.1848026514053345,0.310462087392807,-4.69027042388916,0.2865065038204193,87.6403579711914,36.33,0
-0.4532586932182312,-1.1577801704406738,0.2832033038139343,-9.480076789855955,0.2866897583007812,87.64022827148438,36.33,0
-0.4364174604415893,-1.1180475950241089,0.2713079750537872,-12.611220359802246,0.2868073582649231,87.64014434814453,36.33,0
-0.3416431248188019,-1.0477672815322876,0.2636742293834686,-14.10113525390625,0.2868828177452087,87.64009094238281,36.33,0
-0.2640290856361389,-0.9970676302909852,0.2419820129871368,-15.247152328491213,0.2869312465190887,87.64006042480469,36.33,0
-0.2198186367750167,-1.0373026132583618,0.244854524731636,-16.974973678588867,0.2869623303413391,87.6400375366211,36.33,0
-0.2082402408123016,-1.1079052686691284,0.2466979324817657,-18.84329605102539,0.2869822680950165,87.64002227783203,36.33,0
-0.3407542407512665,-1.175605058670044,0.208696499466896,-19.16812896728516,0.2883722186088562,87.6400146484375,36.33,0
-0.3810119032859802,-1.247039794921875,0.1787115931510925,-16.417381286621094,0.2892642021179199,87.64000701904297,36.33,0
-0.1885337680578231,-1.180927038192749,0.1762623339891433,-10.779345512390137,0.2898366153240204,87.64000701904297,36.33,0
-0.0762079209089279,-1.1217063665390017,0.1522994339466095,-3.886704444885254,0.2902039587497711,87.64000701904297,36.33,0
-0.0656991824507713,-1.072506308555603,0.1145303323864936,2.8151135444641118,0.2904396951198578,87.64000701904297,36.33,0
-0.0869441479444503,-1.0073459148406982,0.0679012015461921,8.842756271362305,0.2905910015106201,87.64000701904297,36.33,0
-0.1621534675359726,-0.9319431185722352,0.0155862132087349,14.108155250549316,0.2906880974769592,87.64000701904297,36.33,0
-0.2496028989553451,-0.8779561519622803,-0.0123887630179524,18.26102066040039,0.2907503843307495,87.64000701904297,36.33,0
-0.3169184625148773,-0.8321148753166199,-0.0247437190264463,20.82577896118164,0.2889543175697326,87.3820571899414,36.33,0
-0.3097377419471741,-0.7803055047988892,-0.0102813197299838,21.74084854125977,0.2878016829490661,87.21652221679688,36.33,0
-0.2827384769916534,-0.7358616590499878,0.0045975898392498,21.06702041625977,0.2870619893074035,87.11029052734375,36.33,0
-0.2374230176210403,-0.6905468702316284,0.0365371145308017,18.940038681030277,0.2865872979164123,87.0421142578125,36.33,0
-0.1971466243267059,-0.6838575601577759,0.0682296156883239,16.969608306884766,0.2862826883792877,86.99836730957031,36.33,0
-0.1880928725004196,-0.7187491655349731,0.0941658094525337,17.521465301513672,0.2860871851444244,86.97029113769531,36.33,0
-0.249455988407135,-0.8586938381195068,0.1220057159662246,19.32655906677246,0.2859617173671722,86.9522705078125,36.33,0
-0.3336175084114074,-1.0436644554138184,0.1566650867462158,16.884475708007812,0.2858812212944031,86.94071197509766,36.33,0
-0.5219740867614746,-1.2127479314804075,0.2236896753311157,7.123936176300049,0.2858295440673828,86.93328857421875,36.33,0
-0.6428505182266235,-1.1757137775421145,0.2499088644981384,-6.50200891494751,0.2857964038848877,86.92852783203125,36.33,0
-0.6420531868934631,-1.1463496685028076,0.2331481873989105,-18.5960636138916,0.2857751250267029,86.92546844482422,36.33,0
-0.4176305532455444,-1.1275054216384888,0.2447832524776458,-26.708425521850582,0.2857614755630493,86.92350769042969,36.33,0
-0.1952401846647262,-1.0874234437942505,0.3418143689632416,-30.373964309692383,0.2857527136802673,86.92224884033203,36.33,0
-0.0245339684188365,-1.0281144380569458,0.4264744520187378,-29.21895408630371,0.285747081041336,86.92144012451172,36.33,0
-0.0045489398762583,-0.9284778237342834,0.4136311113834381,-23.956525802612305,0.2857434749603271,86.9209213256836,36.33,0
-0.0756903141736984,-0.858938992023468,0.3662045896053314,-16.921592712402344,0.2857411503791809,86.92059326171875,36.33,0
-0.289277970790863,-0.8423018455505371,0.2909867763519287,-10.386404037475586,0.2871167957782745,86.92037963867188,36.33,0
-0.4991173148155212,-0.8596139550209045,0.2147274315357208,-5.200122833251953,0.2879996299743652,86.92024230957031,36.33,0
-0.6169868111610413,-0.8651261329650879,0.1601908057928085,-1.3058191537857056,0.2885661721229553,86.92015838623047,36.33,0
-0.6086620688438416,-0.8798590898513794,0.1475834399461746,1.5050048828125,0.2889297306537628,86.92009735107422,36.33,0
-0.558537483215332,-0.911704957485199,0.1506883054971695,3.717243432998657,0.2891630530357361,86.92005920410156,36.33,0
-0.4312082827091217,-0.9377395510673524,0.1806696951389312,6.071983337402344,0.2893127799034118,86.92003631591797,36.33,0
-0.2599313259124756,-0.9712404012680054,0.2111055701971054,8.930168151855469,0.2894088625907898,86.9200210571289,36.33,0
-0.183602288365364,-1.0151304006576538,0.1522687226533889,12.111434936523438,0.2894705235958099,86.92001342773438,36.33,0
-0.2241830974817276,-1.020905375480652,0.0529351122677326,15.148944854736328,0.2881329655647278,86.92000579833984,36.33,0
-0.2558232843875885,-1.0078181028366089,-0.0164092611521482,16.965688705444336,0.2872745990753174,86.92000579833984,36.33,0
-0.2929214835166931,-1.038603901863098,-0.0833015888929367,15.939034461975098,0.2867237329483032,86.92000579833984,36.33,0
-0.3111311793327331,-1.091947078704834,-0.1374247819185257,11.249788284301758,0.2863702178001404,86.92000579833984,36.33,0
-0.3396104276180267,-1.1429729461669922,-0.2169401198625564,3.5867345333099365,0.2861433625221252,86.92000579833984,36.33,0
-0.31870236992836,-1.114142894744873,-0.3127506971359253,-5.676636219024658,0.2859977781772613,86.92000579833984,36.33,0
-0.2549048066139221,-1.0956414937973022,-0.3854319453239441,-14.659358978271484,0.2859043478965759,86.92000579833984,36.33,0
-0.1915720999240875,-1.1173549890518188,-0.4656612277030945,-20.843114852905277,0.2858443856239319,86.92000579833984,36.33,0
-0.2348954379558563,-1.1256916522979736,-0.4275833964347839,-22.479236602783203,0.2917734086513519,86.61906433105469,36.33,0
-0.2347089797258377,-1.114248275756836,-0.3639627993106842,-19.978872299194336,0.2955783307552337,86.42594146728516,36.33,0
-0.2121982276439666,-1.0677201747894287,-0.3231347501277923,-15.099808692932127,0.2980200946331024,86.30200958251953,36.33,0
-0.1585677117109298,-1.0378611087799072,-0.2577492594718933,-9.278191566467283,0.299587070941925,86.22247314453125,36.33,0
-0.1633351445198059,-0.9739171266555786,-0.1822019666433334,-2.948428153991699,0.3005926609039306,86.17143249511719,36.33,0
-0.1663946062326431,-0.9160882234573364,-0.122524507343769,3.95463228225708,0.3012380003929138,86.13867950439453,36.33,0
-0.151564672589302,-0.8621836304664612,-0.0786291733384132,10.978403091430664,0.3016521334648132,86.11766052246094,36.33,0
-0.1644387692213058,-0.833188533782959,-0.0672530010342598,17.320133209228516,0.3019179105758667,86.10417175292969,36.33,0
-0.1727006286382675,-0.8201789259910583,-0.0599524267017841,23.292240142822266,0.2956616878509521,86.09551239013672,36.31,0
-0.1891981661319732,-0.8566123247146606,-0.044071789830923,29.98010635375977,0.291646808385849,86.08995819091797,36.31,0
-0.2277742028236389,-0.9527642130851746,-0.0058916388079524,36.96609115600586,0.2890702784061432,86.08638763427734,36.31,0
-0.2581278681755066,-1.020066738128662,0.013012409210205,42.420169830322266,0.2874168157577514,86.08409881591797,36.31,0
-0.2608137726783752,-1.0744532346725464,0.0195461641997098,46.1889762878418,0.2863557338714599,86.08263397216797,36.31,0
-0.2681352198123932,-1.109355330467224,0.0405324734747409,51.054481506347656,0.2856747806072235,86.0816879272461,36.31,0
-0.2560403645038605,-1.1093623638153076,0.0707936063408851,59.42177581787109,0.2852377891540527,86.08108520507812,36.31,0
-0.298658549785614,-1.098171353340149,0.0958112329244613,68.26651763916016,0.2849573493003845,86.08069610595703,36.31,0
-0.3595950901508331,-1.0630006790161133,0.1174638792872428,68.04564666748047,0.285236656665802,86.0804443359375,36.31,0
-0.3707118034362793,-1.0124413967132568,0.1425548493862152,50.25971984863281,0.285415917634964,86.08028411865234,36.31,0
-0.3946391940116882,-0.98559308052063,0.1474612355232238,17.977231979370117,0.2855309545993805,86.08018493652344,36.31,0
-0.4603743851184845,-0.99075448513031,0.1114254593849182,-14.651875495910645,0.2856047749519348,86.08011627197266,36.31,0
-0.4521794617176056,-1.0164579153060913,0.1106908693909645,-35.19369125366211,0.2856521606445312,86.080078125,36.31,0
-0.4133337736129761,-1.0217572450637815,0.1270127743482589,-42.15689468383789,0.2856825590133667,86.08004760742188,36.31,0
-0.3548182249069214,-0.9859736561775208,0.1486827731132507,-41.488067626953125,0.2857020795345306,86.08003234863281,36.31,0
-0.3004729747772217,-0.9406187534332277,0.156991571187973,-39.0239486694336,0.2857145965099334,86.08002471923828,36.31,0
-0.271195113658905,-0.9227080941200256,0.1399325728416443,-37.67906951904297,0.285263329744339,86.08001708984375,36.31,0
-0.2636018097400665,-1.0007784366607666,0.09539844840765,-38.04482650756836,0.2849737405776977,86.08000946044922,36.31,0
-0.2867177426815033,-1.0844662189483645,0.0612212345004081,-39.26833724975586,0.2847878932952881,86.08000946044922,36.31,0
-0.2847588956356048,-1.0709989070892334,-0.106253869831562,-40.17890930175781,0.2846686244010925,86.08000946044922,36.31,0
-0.2890995740890503,-1.039965271949768,-0.2137297540903091,-40.211544036865234,0.2845920920372009,86.08000946044922,36.31,0
-0.2638963162899017,-0.9920607805252076,-0.2379193902015686,-39.12188720703125,0.284542977809906,86.08000946044922,36.31,0
-0.2029401063919067,-0.9613184332847596,-0.2030629366636276,-36.28022766113281,0.2845114469528198,86.08000946044922,36.31,0
-0.13583305478096,-0.952785313129425,-0.1359118819236755,-31.293201446533203,0.2844912111759186,86.08000946044922,36.31,0
0.1199478060007095,-0.913722574710846,0.1031039059162139,-25.16943359375,0.2858553826808929,85.84713745117188,36.31,0
0.1945288628339767,-0.8774588108062744,0.2061105072498321,-19.77427673339844,0.2867308259010315,85.69769287109375,36.31,0
0.0408708043396472,-0.8597846031188965,0.1378676295280456,-15.871319770812988,0.2872926294803619,85.60179138183594,36.31,0
-0.0913247391581535,-0.8708333969116211,0.1052688285708427,-12.449487686157228,0.2876531779766083,85.54024505615234,36.31,0
-0.1649646759033203,-0.8891194462776184,0.0955443456768989,-8.157745361328125,0.2878845334053039,85.50074768066406,36.31,0
-0.2178203165531158,-0.9288432598114014,0.0669126361608505,-2.8455934524536133,0.2880330085754394,85.47540283203125,36.31,0
-0.2741311192512512,-1.027106761932373,0.042940679937601,2.4729526042938232,0.2881282866001129,85.45913696289062,36.31,0
-0.3774414658546448,-1.1685354709625244,0.0611435025930404,6.573943614959717,0.2881894409656524,85.44869995117188,36.31,0
-0.4213489890098572,-1.1249496936798096,0.0448361560702323,8.700580596923828,0.288228690624237,85.44200134277344,36.33,0
-0.3599619269371032,-1.063392162322998,0.0007843920611776,8.958317756652832,0.2882538735866546,85.43769836425781,36.33,0
-0.225405067205429,-1.124648094177246,-0.0386810414493083,8.400038719177246,0.2882700264453888,85.43494415283203,36.33,0
-0.1614453196525573,-1.2143385410308838,-0.0472143627703189,7.941455364227295,0.2882803976535797,85.43317413330078,36.33,0
-0.1595840603113174,-1.2383100986480713,-0.0247016865760087,7.142019748687744,0.2882870733737945,85.43203735351562,36.33,0
-0.2199651300907135,-1.2201069593429563,-0.0102543467655777,4.984585762023926,0.288291335105896,85.43130493164062,36.33,0
-0.2811053097248077,-1.1692408323287964,-0.0121784238144755,1.6296520233154297,0.2882940769195556,85.43083953857422,36.33,0
-0.3427326679229736,-1.0694246292114258,-0.0246087349951267,-1.537220120429993,0.2882958352565765,85.4305419921875,36.33,0
-0.3654882311820984,-0.9997705221176147,-0.0381835661828517,-3.261435031890869,0.287379115819931,85.43035125732422,36.33,0
-0.3185159265995025,-0.9774616360664368,-0.0748839825391769,-2.909828424453736,0.2867908179759979,85.43022918701172,36.33,0
-0.2491873800754547,-0.996731698513031,-0.0984361991286277,-0.3232702314853668,0.2864132821559906,85.43014526367188,36.33,0
-0.1879029870033264,-1.0146958827972412,-0.1135506555438041,3.919670820236206,0.2861709892749786,85.43009185791016,36.33,0
-0.1317808628082275,-0.9870398640632628,-0.1288480162620544,8.408756256103516,0.286015510559082,85.43006134033203,36.33,0
-0.1237537935376167,-0.952498495578766,-0.1610560864210128,11.698006629943848,0.285915732383728,85.43003845214844,36.33,0
-0.2081668823957443,-0.9135385155677797,-0.1705298125743866,12.99919605255127,0.2858517169952392,85.43002319335938,36.33,0
-0.2511427998542785,-0.9781006574630736,-0.1766095161437988,11.949789047241213,0.2858106195926666,85.43001556396484,36.33,0
-0.2339400649070739,-1.0475218296051023,-0.1805111169815063,8.284890174865723,0.2862431704998016,85.43000793457031,36.33,0
-0.1669225841760635,-1.069681167602539,-0.1718193888664245,2.346810340881348,0.2865207493305206,85.43000793457031,36.33,0
-0.0959257557988166,-1.0839017629623413,-0.1494482159614563,-4.394454479217529,0.2866989076137543,85.43000793457031,36.33,0
-0.0839507281780242,-1.0874300003051758,-0.1574827879667282,-10.0855712890625,0.2868132293224334,85.43000793457031,36.33,0
-0.2889812588691711,-1.072900891304016,-0.2018233239650726,-13.995747566223145,0.286886602640152,85.43000793457031,36.33,0
-0.4541447162628174,-1.0187947750091553,-0.1966918855905532,-16.89915657043457,0.2869336903095245,85.43000793457031,36.33,0
-0.4033994376659393,-1.0232568979263306,-0.1430188566446304,-19.88374328613281,0.2869639098644256,85.43000793457031,36.33,0
-0.2476829886436462,-1.076500415802002,-0.0525968559086322,-23.131797790527344,0.2869832813739776,85.43000793457031,36.33,0
0.3392532467842102,-1.0882779359817505,0.4140683114528656,-25.793006896972656,0.2874546349048614,85.22938537597656,36.33,0
0.4024397730827331,-1.0062717199325562,0.4504517614841461,-26.744895935058597,0.2877571284770965,85.10063171386719,36.33,0
0.3758159577846527,-0.9368515610694884,0.3954317271709442,-25.56447410583496,0.28795126080513,85.01800537109375,36.33,0
0.1851992905139923,-0.9370838403701782,0.2313742190599441,-23.108806610107425,0.2880758345127105,84.96498107910156,36.33,0
0.012492530979216,-0.9484284520149232,0.1204937919974327,-20.730403900146484,0.2881557941436767,84.93095397949219,36.33,0
-0.1655140221118927,-1.0004910230636597,0.0997170805931091,-18.71327018737793,0.288207083940506,84.90911865234375,36.33,0
-0.2741506099700928,-1.0115106105804443,0.0919815525412559,-15.899776458740234,0.2882400155067444,84.89510345458984,36.33,0
-0.3102806806564331,-1.001789093017578,0.0870173349976539,-11.324907302856444,0.2882611453533172,84.8861083984375,36.33,0
-0.283086895942688,-0.9787570238113404,0.0838315859436988,-5.841808795928955,0.2878157794475555,84.88034057617188,36.33,0
-0.2488421648740768,-0.9639763832092284,0.0985804796218872,-1.4417579174041748,0.2875299751758575,84.87664031982422,36.33,0
-0.1820836812257766,-0.9544910192489624,0.1360343396663665,0.9986059069633484,0.2873465418815613,84.87425994873047,36.33,0
-0.1336441487073898,-0.9260127544403076,0.1264834254980087,2.1885204315185547,0.2872288525104522,84.87273406982422,36.33,0
-0.1137539967894554,-0.9077370762825012,0.0979631021618843,2.858992099761963,0.2871533036231994,84.87175750732422,36.33,0
-0.1009896397590637,-0.8960087895393372,0.074062630534172,3.074307680130005,0.287104845046997,84.87113189697266,36.33,0
-0.0704071149230003,-0.8828844428062439,0.0419313572347164,2.7216720581054688,0.2870737314224243,84.8707275390625,36.33,0
-0.0955632030963897,-0.8464731574058533,-0.0178730655461549,1.6463003158569336,0.2870537638664245,84.87046813964844,36.33,0
-0.3748023509979248,-0.9126708507537842,-0.084240972995758,-0.0540976300835609,0.2870409488677978,84.87030029296875,36.33,0
-0.6099796891212463,-0.9327616095542908,-0.0764521062374115,-1.1883060932159424,0.2870327234268188,84.87019348144531,36.33,0
-0.52019864320755,-0.9456547498703004,0.0796862468123436,-0.0711493343114852,0.2870274484157562,84.87012481689453,36.33,0
-0.4849734604358673,-0.953928768634796,0.1574957519769668,3.6193149089813232,0.287024050951004,84.87007904052734,36.33,0
-0.585519015789032,-1.0096185207366943,0.1402561217546463,8.387968063354492,0.2870218753814697,84.87004852294922,36.33,0
-0.6780322194099426,-1.1685080528259275,0.1907682418823242,12.100244522094728,0.2870204746723175,84.87003326416016,36.33,0
-0.6926196813583374,-1.2480831146240234,0.2231840193271637,13.27524185180664,0.2870195806026459,84.87002563476562,36.33,0
-0.5620366930961609,-1.2319765090942385,0.1768133044242859,11.933480262756348,0.2870190143585205,84.8700180053711,36.33,0
-0.4334538578987121,-1.210444688796997,0.1302619278430938,9.481751441955566,0.2865597307682037,84.87001037597656,36.33,0
-0.3117523789405823,-1.1070624589920044,0.0779968351125717,7.184692859649658,0.2862649857997894,84.87001037597656,36.33,0
-0.2224558293819427,-1.0071309804916382,0.0500538796186447,5.083622455596924,0.2860758304595947,84.87001037597656,36.33,0
-0.1203682497143745,-0.9206096529960632,0.0713061168789863,3.0904126167297363,0.2859544456005096,84.87001037597656,36.33,0
-0.0212676730006933,-0.8482919335365295,0.1241290047764778,2.1659603118896484,0.2858765423297882,84.87001037597656,36.33,0
0.0479271486401557,-0.8018825650215149,0.1692232489585876,3.0558862686157227,0.285826563835144,84.87001037597656,36.33,0
0.0083657875657081,-0.8000885844230652,0.1589777171611786,4.76983118057251,0.2857944667339325,84.87001037597656,36.33,0
-0.0953912585973739,-0.8101328611373901,0.1188160702586174,5.873324871063232,0.2857738733291626,84.87001037597656,36.33,0
-0.1731721013784408,-0.8333719968795776,0.0818470865488052,6.6173095703125,0.2862195968627929,84.6944580078125,36.33,0
-0.2174896001815796,-0.8930677175521851,0.0469269752502441,8.91828727722168,0.28650563955307,84.58180236816406,36.33,0
-0.2347344756126403,-0.9257792234420776,0.0245172567665576,14.951958656311035,0.2866891920566559,84.50950622558594,36.33,0
-0.2681923508644104,-0.9523693919181824,-0.0066573321819305,24.817670822143555,0.2868070006370544,84.4631118774414,36.33,0
-0.3120547831058502,-1.0366066694259644,-0.099434457719326,33.99706268310547,0.2868825793266296,84.43333435058594,36.33,0
-0.1890632510185241,-1.1242519617080688,-0.1085935086011886,36.004356384277344,0.2869310975074768,84.41422271728516,36.33,0
-0.0317655205726623,-1.1972910165786743,-0.0361024178564548,29.847930908203125,0.2869622409343719,84.40196228027344,36.33,0
0.0411902368068695,-1.176990032196045,0.0552003867924213,20.78833770751953,0.2869822084903717,84.39409637451172,36.33,0
0.0264335237443447,-1.1191798448562622,0.1529776901006698,12.51318359375,0.2865360975265503,84.38904571533203,36.34,0
0.0113657396286726,-1.1548515558242798,0.2269210815429687,4.322275161743164,0.2862498164176941,84.38580322265625,36.34,0
0.0016961030196398,-1.1889392137527466,0.2351892739534378,-3.8181517124176025,0.2860660851001739,84.38372039794922,36.34,0
-0.0716826096177101,-1.1604347229003906,0.1397354006767273,-9.808880805969238,0.2859481871128082,84.38238525390625,36.34,0
-0.1691528111696243,-1.0973600149154663,0.0672830417752265,-13.00135612487793,0.2858725190162658,84.38153076171875,36.34,0
-0.2708880007266998,-1.0065022706985474,0.0263850595802068,-14.541377067565918,0.2858239710330963,84.3809814453125,36.34,0
-0.3081869184970855,-0.942597270011902,0.0337257348001003,-15.028114318847656,0.2857928276062011,84.38063049316406,36.34,0
-0.3153298795223236,-0.9127822518348694,0.0608276538550853,-14.842495918273926,0.285772830247879,84.38040161132812,36.34,0
-0.314316064119339,-0.9048442244529724,0.1118067502975463,-15.296588897705078,0.2871371507644653,84.38025665283203,36.34,0
-0.3304587602615356,-0.9109456539154052,0.1613155305385589,-17.21807098388672,0.288012683391571,84.38016510009766,36.34,0
-0.3296226859092712,-0.9428500533103944,0.1706963181495666,-19.565349578857425,0.2885745465755462,84.3801040649414,36.34,0
-0.334683895111084,-0.9689222574234008,0.1375319361686706,-21.10394096374512,0.288935124874115,84.38006591796875,36.34,0
-0.3379319012165069,-1.002447247505188,0.1106511801481247,-22.21670913696289,0.289166510105133,84.38004302978516,36.34,0
-0.3456140458583832,-1.0127660036087036,0.0934006571769714,-23.622257232666016,0.2893150150775909,84.3800277709961,36.34,0
-0.3561417758464813,-1.008192539215088,0.0991235896944999,-24.323633193969727,0.2894102931022644,84.38002014160156,36.34,0
-0.3684956431388855,-1.0276485681533811,0.1587739735841751,-21.84677124023437,0.2894714474678039,84.38001251220703,36.34,0
-0.4547924995422363,-1.0737210512161257,0.2642274498939514,-14.1812162399292,0.2890514135360718,84.3800048828125,36.34,0
-0.482183963060379,-1.07529878616333,0.3207058906555176,-1.512792706489563,0.2887818515300751,84.3800048828125,36.34,0
-0.4381867349147796,-1.093104600906372,0.351352721452713,13.735650062561035,0.2886088788509369,84.3800048828125,36.34,0
-0.3875607252120971,-1.1325201988220217,0.3934111893177032,28.920164108276367,0.2884978652000427,84.3800048828125,36.34,0
-0.315887451171875,-1.1969993114471436,0.4315974414348602,42.56613540649414,0.2884266078472137,84.3800048828125,36.34,0
-0.3146738708019256,-1.2831604480743408,0.4561031758785248,52.90325164794922,0.288380891084671,84.3800048828125,36.34,0
-0.3082972764968872,-1.3328559398651123,0.4662317633628845,56.81425857543945,0.2883515655994415,84.3800048828125,36.34,0
-0.4217584133148193,-1.2975744009017944,0.4055584371089935,52.03715896606445,0.2883327305316925,84.3800048828125,36.34,0
-0.2482691705226898,-1.2581393718719482,0.428197294473648,39.60663986206055,0.2887799441814422,84.34776306152344,36.34,0
-0.0865537971258163,-1.1208767890930176,0.4595189392566681,23.33578491210937,0.2890669405460357,84.32707214355469,36.34,0
-0.066740795969963,-1.010398507118225,0.4292393922805786,7.495146751403809,0.2892511188983917,84.31378936767578,36.34,0
-0.0876125991344451,-0.939499855041504,0.3538299798965454,-5.0421295166015625,0.2893693149089813,84.30526733398438,36.34,0
-0.162582442164421,-0.905196726322174,0.2438610345125198,-13.510575294494627,0.289445161819458,84.29979705810547,36.34,0
-0.2274870872497558,-0.8663896322250366,0.1620937436819076,-18.726598739624023,0.2894938290119171,84.2962875366211,36.34,0
-0.2467480599880218,-0.7799099683761597,0.1096202060580253,-21.93780517578125,0.2895250618457794,84.29403686523438,36.34,0
-0.2255219966173172,-0.6852278709411621,0.092739038169384,-23.83735656738281,0.2895450890064239,84.29258728027344,36.34,0
-0.2174981087446212,-0.6188685894012451,0.076307900249958,-24.200143814086918,0.2900168895721435,84.29166412353516,36.33,0
-0.206751063466072,-0.5986741185188293,0.0657633394002914,-22.67749786376953,0.2903196513652801,84.29106903076172,36.33,0
-0.2054519951343536,-0.6137033104896545,0.0645942240953445,-20.048784255981445,0.2905139625072479,84.29068756103516,36.33,0
-0.227009430527687,-0.7073148488998413,0.0694417282938957,-17.476930618286133,0.290638655424118,84.29044342041016,36.33,0
-0.257637083530426,-0.9017359018325806,0.0725525766611099,-14.185643196105955,0.290718674659729,84.290283203125,36.33,0
-0.2940854728221893,-1.1216663122177124,0.068951167166233,-7.702742099761963,0.290770024061203,84.2901840209961,36.33,0
-0.4294314384460449,-1.4307382106781006,0.0050644720904529,2.709205150604248,0.2908029854297638,84.29011535644531,36.33,0
-0.544277548789978,-1.6290827989578247,-0.0471298843622207,14.57139778137207,0.2908241152763366,84.29007720947266,36.33,0
-0.662761390209198,-1.4484913349151611,-0.0022563748061656,24.899463653564453,0.2903787493705749,84.29004669189453,36.33,0
-0.5148864984512329,-1.248631477355957,0.1105074733495712,32.541290283203125,0.2900929450988769,84.29003143310547,36.33,0
-0.3192289769649505,-1.1539596319198608,0.1884706020355224,37.39163589477539,0.2899095416069031,84.29002380371094,36.33,0
-0.148885041475296,-1.0988024473190308,0.22170951962471,39.311309814453125,0.289791852235794,84.2900161743164,36.33,0
-0.0283725559711456,-1.0466123819351196,0.226247027516365,38.3722038269043,0.2897163033485412,84.29000854492188,36.33,0
-0.0294034220278263,-0.9851309657096864,0.1395945399999618,34.90706253051758,0.2896678447723388,84.29000854492188,36.33,0
-0.1476182341575622,-0.9232845902442932,0.0224104430526494,29.13300323486328,0.2896367311477661,84.29000854492188,36.33,0
-0.2570683360099792,-0.8668018579483032,-0.069584883749485,21.22518348693848,0.2896167635917663,84.29000854492188,36.33,0
-0.3720893263816833,-0.8025656342506409,-0.1342199593782425,11.690093040466309,0.2896039485931396,84.29000854492188,36.33,0
-0.4515009522438049,-0.7613425254821777,-0.1477101594209671,1.619439959526062,0.2895957231521606,84.29000854492188,36.33,0
-0.4912672042846679,-0.7796700596809387,-0.0947918742895126,-7.569666385650635,0.289590448141098,84.29000854492188,36.33,0
-0.5055913329124451,-0.8362138271331787,-0.0048542190343141,-14.964221954345703,0.2895870506763458,84.29000854492188,36.33,0
-0.4923926591873169,-0.8780981302261353,0.0808514580130577,-20.311494827270508,0.2895848751068115,84.29000854492188,36.33,0
-0.4391402900218963,-0.9161726236343384,0.1750368475914001,-23.43138313293457,0.2895834743976593,84.29000854492188,36.33,0
-0.3993682265281677,-0.9629977345466614,0.2858595848083496,-24.40534782409668,0.2895825803279876,84.29000854492188,36.33,0
-0.1891182512044906,-0.9482651948928832,0.3961636424064636,-24.22788619995117,0.2895820140838623,84.29000854492188,36.33,0
-0.1997340470552444,-1.039570689201355,0.4277660250663757,-23.96711540222168,0.2891223728656769,84.26493072509766,36.33,0
-0.413664311170578,-1.15414297580719,0.4816332757472992,-23.57048225402832,0.2888273894786834,84.24883270263672,36.33,0
-0.5677457451820374,-1.1884844303131104,0.5945709943771362,-22.26266860961914,0.2886380851268768,84.2385025024414,36.33,0
-0.5770619511604309,-1.1601428985595703,0.6838412284851074,-19.57478141784668,0.2885166108608246,84.23187255859375,36.33,0
-0.4374984502792358,-1.0691838264465332,0.7299342155456543,-15.467436790466309,0.2884386479854584,84.22762298583984,36.33,0
-0.3815212547779083,-1.1003758907318115,0.6531563401222229,-10.370349884033203,0.2883886098861694,84.22489166259766,36.33,0
-0.3567938804626465,-1.170773148536682,0.581493616104126,-5.397609710693359,0.2883565127849579,84.22313690185547,36.33,0
-0.3241319358348846,-1.2551344633102417,0.4907223880290985,-1.593770980834961,0.288335919380188,84.22201538085938,36.33,0
-0.2919758260250091,-1.2700883150100708,0.4268728792667389,1.051520824432373,0.2892408967018127,84.2212905883789,36.34,0
-0.2657421231269836,-1.2460981607437134,0.3914957046508789,3.411893367767334,0.2898216545581817,84.2208251953125,36.34,0
-0.2433090656995773,-1.1915183067321775,0.346401572227478,6.334596633911133,0.2901943624019623,84.22052764892578,36.34,0
-0.2457061409950256,-1.1396987438201904,0.3006694316864013,9.847455978393556,0.2904335558414459,84.2203369140625,36.34,0
-0.2640377581119537,-1.0672595500946045,0.2489300817251205,13.108511924743652,0.2905870378017425,84.22021484375,36.34,0
-0.2813997268676758,-1.0207722187042236,0.2157267481088638,15.545196533203123,0.2906855344772339,84.22013854980469,36.34,0
-0.2533572018146515,-0.9405593276023864,0.1776254326105117,17.66063690185547,0.2907487452030182,84.2200927734375,36.34,0
-0.2073722630739212,-0.8107144832611084,0.1363808810710907,19.83503150939941,0.2907893061637878,84.22006225585938,36.34,0
-0.1722640097141266,-0.6938008666038513,0.1099124997854232,21.19460678100586,0.2894382178783417,84.22003936767578,36.34,0
-0.1441357731819152,-0.5851858258247375,0.0929266139864921,20.84186363220215,0.288571149110794,84.22002410888672,36.34,0
-0.1316824704408645,-0.5098851919174194,0.0764282718300819,19.76642417907715,0.2880147099494934,84.22001647949219,36.34,0
-0.1404839754104614,-0.4895504117012024,0.0602428130805492,21.182823181152344,0.287657618522644,84.22000885009766,36.34,0
-0.168523371219635,-0.5212829113006592,0.0554536916315555,28.332632064819336,0.287428468465805,84.22000885009766,36.34,0
-0.2033107578754425,-0.586429238319397,0.0523803122341632,40.007301330566406,0.2872814238071441,84.22000885009766,36.34,0
-0.2984063625335693,-0.8241584897041321,0.0895924121141433,48.54196548461914,0.2871870398521423,84.22000885009766,36.34,0
-0.4210087656974792,-1.1166638135910034,0.1526574194431305,45.25245666503906,0.2871264815330505,84.22000885009766,36.34,0
-0.5556656718254089,-1.377147912979126,0.1091622933745384,28.689329147338867,0.2880058288574219,84.22000885009766,36.34,0
-0.6252874135971069,-1.415562868118286,0.1316296011209488,5.710929870605469,0.2885701358318329,84.22000885009766,36.34,0
-0.6699666380882263,-1.3394553661346436,0.1908300220966339,-14.939369201660156,0.2889322936534881,84.22000885009766,36.34,0
-0.5978792309761047,-1.251429557800293,0.2512125372886657,-28.367088317871094,0.2891646921634674,84.22000885009766,36.34,0
-0.4956399500370025,-1.1893419027328491,0.2675714492797851,-34.397605895996094,0.2893138229846954,84.22000885009766,36.34,0
-0.3852464854717254,-1.1047154664993286,0.250080794095993,-35.59862518310547,0.2894095480442047,84.22000885009766,36.34,0
-0.3032067716121673,-0.9888315200805664,0.2164652049541473,-34.664066314697266,0.2894709706306457,84.22000885009766,36.34,0
-0.256156176328659,-0.897670567035675,0.1780993342399597,-32.828330993652344,0.2895103991031647,84.22000885009766,36.34,0
-0.25395068526268,-0.8167775869369507,0.1254894435405731,-30.141996383666992,0.2899946272373199,84.21642303466797,36.34,0
-0.2749264240264892,-0.7648651599884033,0.0805319026112556,-26.54795837402344,0.2903053760528564,84.21411895751953,36.34,0
-0.3219740986824035,-0.7427462935447693,0.0684740617871284,-22.425146102905277,0.2905047833919525,84.212646484375,36.34,0
-0.3913509845733642,-0.7509427666664124,0.0943226814270019,-18.532625198364254,0.2906327545642853,84.21170043945312,36.34,0
-0.4414708614349365,-0.778593897819519,0.1444974839687347,-15.568894386291504,0.2907148897647857,84.21109008789062,36.34,0
-0.4568415880203247,-0.8187298774719238,0.2046856582164764,-13.627533912658691,0.2907675802707672,84.21070098876953,36.34,0
-0.4499123096466064,-0.855682373046875,0.2321154177188873,-12.499905586242676,0.2908014059066772,84.21044921875,36.34,0
-0.4790521562099457,-0.9129830002784728,0.2721093595027923,-12.804458618164062,0.2908231019973755,84.21028900146484,36.34,0
-0.4865568876266479,-0.9889397025108336,0.336959570646286,-15.683252334594728,0.2899188101291656,84.2101821899414,36.37,0
-0.4801774322986603,-1.0264887809753418,0.3673811554908752,-20.63678932189941,0.2893384993076324,84.21011352539062,36.37,0
-0.4648879170417785,-1.03379225730896,0.3813062012195587,-25.026594161987305,0.2889660894870758,84.21007537841797,36.37,0
-0.4606737494468689,-1.0496747493743896,0.4014380574226379,-26.8083553314209,0.2887271046638489,84.21004486083984,36.37,0
-0.4971537590026855,-1.0822583436965942,0.4199552834033966,-26.346792221069336,0.2885737419128418,84.21002960205078,36.37,0
-0.5373578667640686,-1.125559687614441,0.403849720954895,-24.746530532836918,0.2884753048419952,84.21002197265625,36.37,0
-0.5463652014732361,-1.1421525478363037,0.3767207562923431,-22.26146507263184,0.2884121537208557,84.21001434326172,36.37,0
-0.4513856768608093,-1.1304097175598145,0.3425176441669464,-19.09752655029297,0.2883716225624084,84.21000671386719,36.37,0
-0.3568466305732727,-1.1116783618927002,0.3261658251285553,-15.852599143981934,0.288345605134964,84.21000671386719,36.37,0
-0.3129702508449554,-1.105255365371704,0.3380632698535919,-12.523455619812012,0.2883289158344269,84.21000671386719,36.37,0
-0.3016062378883362,-1.1515134572982788,0.3568938970565796,-8.481072425842285,0.2883181869983673,84.21000671386719,36.37,0
-0.2887156903743744,-1.1811991930007937,0.3353916704654693,-3.751688241958618,0.2883113026618957,84.21000671386719,36.37,0
-0.3196277022361755,-1.1778587102890017,0.2600172758102417,0.6948927640914917,0.2883068919181824,84.21000671386719,36.37,0
-0.3394652605056762,-1.158921718597412,0.2004507631063461,4.046430587768555,0.2883040606975555,84.21000671386719,36.37,0
-0.318609207868576,-1.1187801361083984,0.13423553109169,6.33697509765625,0.2883022427558899,84.21000671386719,36.37,0
-0.2884316742420196,-1.0650306940078735,0.0805468633770942,7.849905967712402,0.2883010804653168,84.21000671386719,36.37,0
-0.2690654695034027,-1.0193418264389038,0.0516903400421142,8.548542022705078,0.289218544960022,84.21000671386719,36.37,0
-0.2454417943954467,-0.9620324969291688,0.0387696586549282,8.348440170288086,0.2898073196411133,84.21000671386719,36.37,0
-0.2302814871072769,-0.9140591025352478,0.0192823614925146,7.5250067710876465,0.2901851534843445,84.21000671386719,36.37,0
-0.2093569189310073,-0.8496859073638916,0.006776534486562,6.967913627624512,0.2904276251792907,84.21000671386719,36.37,0
-0.2015265077352523,-0.7747882604598999,0.0099465642124414,8.426769256591797,0.2905832529067993,84.21000671386719,36.37,0
-0.2020991742610931,-0.7267232537269592,0.0175786819308996,13.730138778686523,0.2906831204891205,84.21000671386719,36.37,0
-0.2192600071430206,-0.7126712203025818,0.044867631047964,22.70085906982422,0.290747195482254,84.21000671386719,36.37,0
-0.2470661699771881,-0.720446765422821,0.0679778829216957,32.45232009887695,0.290788322687149,84.21000671386719,36.37,0
-0.2649105489253998,-0.7478277683258057,0.0828087106347084,39.315704345703125,0.2894375622272491,84.18850708007812,36.37,0
-0.3379375636577606,-0.8997458815574646,0.0811307355761528,40.8290901184082,0.2885707318782806,84.17471313476562,36.37,0
-0.412790983915329,-1.0532159805297852,0.0744561329483985,36.18281555175781,0.2880144417285919,84.16586303710938,36.37,0
-0.5447942018508911,-1.0565420389175415,0.1205527335405349,26.440784454345703,0.2876574695110321,84.1601791381836,36.37,0
-0.623908519744873,-0.9859054684638976,0.144537091255188,14.614421844482422,0.2874283790588379,84.15653228759766,36.37,0
-0.613103985786438,-0.9741616249084472,0.1039511337876319,4.198290824890137,0.2872813642024994,84.15419006347656,36.37,0
-0.5613880753517151,-1.0226027965545654,0.1450786888599395,-2.8623530864715576,0.2871870100498199,84.1526870727539,36.37,0
-0.4778198003768921,-1.1320583820343018,0.6920650005340576,-6.641127109527588,0.2871264517307281,84.15172576904297,36.37,0
-0.793643593788147,-1.067954182624817,0.8751561045646667,-8.105996131896973,0.2870875895023346,84.15110778808594,36.34,0
-0.783605694770813,-0.9596424698829652,0.7967313528060913,-8.171916961669922,0.2870626449584961,84.15071105957031,36.34,0
-0.6987951397895813,-0.8285587430000305,0.4721119105815887,-7.512036323547363,0.2870466411113739,84.15045928955078,36.34,0
-0.6219775080680847,-0.750034511089325,0.2022143006324768,-6.615663051605225,0.2870363891124725,84.15029907226562,36.34,0
-0.5670825839042664,-0.6884466409683228,0.0066184615716338,-6.026091575622559,0.2870298027992248,84.15019226074219,36.34,0
-0.5766363739967346,-0.68250972032547,-0.1412947922945022,-6.862231731414795,0.2870255708694458,84.1501235961914,36.34,0
-0.6219518780708313,-0.7010908722877502,-0.2362170070409774,-10.705535888671877,0.2870228588581085,84.15007781982422,36.34,0
-0.6174461245536804,-0.6850262880325317,-0.2859370708465576,-17.786304473876953,0.28702113032341,84.1500473022461,36.34,0
-0.6145545840263367,-0.6691191792488098,-0.3682245016098022,-25.375524520874023,0.2874789237976074,84.15003204345703,36.34,0
-0.6518833637237549,-0.653313159942627,-0.4658140540122986,-29.38961410522461,0.2877727150917053,84.1500244140625,36.34,0
-0.6646432876586914,-0.6431697607040405,-0.5284413695335388,-28.114355087280277,0.2879612445831299,84.15001678466797,36.34,0
-0.6560385823249817,-0.6254647374153137,-0.5518386960029602,-23.527097702026367,0.2880822420120239,84.15000915527344,36.34,0
-0.6281254291534424,-0.6141027212142944,-0.5388648509979248,-18.863624572753903,0.2881599068641662,84.15000915527344,36.34,0
-0.6046146154403687,-0.6236045360565186,-0.4913545846939087,-16.039257049560547,0.2882097363471985,84.15000915527344,36.34,0
-0.5951244831085205,-0.6464955806732178,-0.4384741187095642,-15.408989906311035,0.2882417142391205,84.15000915527344,36.34,0
-0.6338164806365967,-0.7115656733512878,-0.3597562909126282,-16.46979522705078,0.2882622480392456,84.15000915527344,36.34,0
-0.7146245241165161,-0.7477261424064636,-0.3204352557659149,-17.91722869873047,0.2887347042560577,84.15000915527344,36.34,0
-0.7496891617774963,-0.7541385293006897,-0.3119946122169494,-18.090185165405277,0.2890378832817077,84.15000915527344,36.34,0
-0.7386049628257751,-0.7862425446510315,-0.3233712315559387,-16.27733612060547,0.289232462644577,84.15000915527344,36.34,0
-0.703502893447876,-0.8236383199691772,-0.3362698554992676,-13.23668384552002,0.2893573343753814,84.15000915527344,36.34,0
-0.6417919993400574,-0.8364412784576416,-0.3333519101142883,-10.110283851623535,0.289437472820282,84.15000915527344,36.34,0
-0.5965917110443115,-0.8054730296134949,-0.2922949194908142,-7.319355487823486,0.2894888818264007,84.15000915527344,36.34,0
-0.567584753036499,-0.7576104998588562,-0.2547513544559479,-4.607576847076416,0.2895218729972839,84.15000915527344,36.34,0
-0.5209808945655823,-0.7156995534896851,-0.2026691734790802,-1.95733904838562,0.2895430624485016,84.15000915527344,36.34,0
-0.4798776805400848,-0.6944013237953186,-0.1692458242177963,-0.1598394960165023,0.2881795167922973,84.16433715820312,36.34,0
-0.4311089217662811,-0.7087221741676331,-0.1421988755464553,-0.1921401768922805,0.2873044610023498,84.17353057861328,36.34,0
-0.3886163830757141,-0.7291080355644226,-0.1136461496353149,-1.9002619981765747,0.2867428958415985,84.17942810058594,36.34,0
-0.3557493388652801,-0.7813749313354492,-0.0841271057724952,-3.429928064346313,0.2863825261592865,84.18321990966797,36.34,0
-0.3514504730701446,-0.8820900917053223,-0.031596839427948,-2.208295583724976,0.286151260137558,84.1856460571289,36.34,0
-0.3542895019054413,-0.9803099632263184,0.0189073886722326,3.1434617042541504,0.2860028445720672,84.18721008300781,36.34,0
-0.3505136370658874,-1.0713306665420532,0.0681114196777343,11.736820220947266,0.2859075963497162,84.1882095336914,36.34,0
-0.3256994187831878,-1.1297425031661987,0.0996877327561378,21.5434684753418,0.285846471786499,84.18885040283203,36.34,0
-0.2817862033843994,-1.1728256940841677,0.1199515908956527,31.60209846496582,0.286725103855133,84.18926239013672,36.34,0
-0.214420810341835,-1.194876194000244,0.1497491002082824,42.1484489440918,0.2872889637947082,84.18952941894531,36.34,0
-0.1767873615026474,-1.1754403114318848,0.1800669729709625,52.259033203125,0.2876508235931396,84.189697265625,36.34,0
-0.1918208003044128,-1.0845986604690552,0.199523240327835,58.77250289916992,0.2878830432891845,84.18980407714844,36.34,0
-0.2462505847215652,-0.9871172308921814,0.2064113765954971,58.74652862548828,0.288032054901123,84.18987274169922,36.34,0
-0.3035715818405151,-0.9245592951774596,0.199636235833168,52.3349609375,0.2881276905536651,84.1899185180664,36.34,0
-0.3963346481323242,-0.912402093410492,0.1505061388015747,41.975955963134766,0.2881890535354614,84.18994903564453,36.34,0
-0.4726579785346985,-0.9269914031028748,0.1133795008063316,29.42405891418457,0.2882284522056579,84.18997192382812,36.34,0
-0.5216378569602966,-0.9643428325653076,0.1119448617100715,15.31442165374756,0.2882537245750427,84.18997955322266,36.34,0
-0.5138859152793884,-0.9659217596054076,0.1390130668878555,0.892970860004425,0.2882699370384216,84.18998718261719,36.34,0
-0.4809223115444183,-0.955739438533783,0.1619816571474075,-12.04119110107422,0.2882803380489349,84.18999481201172,36.34,0
-0.4093881845474243,-0.9436072707176208,0.1879171133041381,-22.54487609863281,0.2882870137691498,84.18999481201172,36.34,0
-0.352286159992218,-0.9526148438453674,0.2045609951019287,-30.371057510375977,0.2882913053035736,84.18999481201172,36.34,0
-0.2708591818809509,-0.9919820427894592,0.2208398580551147,-35.31105041503906,0.2882940471172333,84.18999481201172,36.34,0
-0.1626262813806533,-1.0004522800445557,0.2088956087827682,-37.76115798950195,0.2882958054542541,84.18999481201172,36.34,0
-0.1323530524969101,-1.0002902746200562,0.1844371408224105,-38.58831787109375,0.2882969379425049,84.18999481201172,36.34,0
-0.1129254400730133,-1.005784034729004,0.230316624045372,-37.53922653198242,0.2878387570381164,84.18999481201172,36.34,0
-0.0948601439595222,-1.0149073600769043,0.2597594261169433,-33.150848388671875,0.2875447273254394,84.18999481201172,36.34,0
-0.0776691064238548,-1.0711421966552734,0.2506652772426605,-24.939281463623047,0.2873560190200805,84.18999481201172,36.34,0
-0.0666368827223777,-1.112828254699707,0.2112425118684768,-14.739945411682127,0.2872349321842193,84.18999481201172,36.34,0
-0.0987414568662643,-1.055613398551941,0.0907810926437377,-5.350034236907959,0.2871572077274322,84.18999481201172,36.34,0
-0.1473332047462463,-0.9629184007644652,0.0022803356405347,1.693321704864502,0.2871073484420776,84.18999481201172,36.34,0
-0.1841143667697906,-0.897834300994873,-0.0321232564747333,6.643251419067383,0.2870753407478332,84.18999481201172,36.34,0
-0.2357072681188583,-0.8448715209960938,-0.0318104065954685,10.178089141845703,0.2870548069477081,84.18999481201172,36.34,0
-0.3024032711982727,-0.838871955871582,-0.0316096358001232,12.274580955505373,0.2879598438739776,84.18641662597656,36.34,0
-0.3619982302188873,-0.8742061853408813,-0.0314807929098606,12.846152305603027,0.288540631532669,84.18412017822266,36.34,0
-0.4730139374732971,-0.9640549421310424,-0.0202025603502988,12.929929733276367,0.2889133393764496,84.18264770507812,36.34,0
-0.5778440833091736,-1.0105191469192505,-0.0129648400470614,14.255507469177246,0.2891525328159332,84.18170166015625,36.34,0
-0.6059336066246033,-1.001152753829956,-0.0475045107305049,17.270063400268555,0.2893060445785522,84.18109130859375,36.34,0
-0.5176021456718445,-1.0903041362762451,-0.1256478279829025,20.132518768310547,0.2894045412540436,84.18070220947266,36.34,0
-0.4329271912574768,-1.1531141996383667,-0.1590023785829544,20.11012077331543,0.2894677519798279,84.18045043945312,36.34,0
-0.3561965823173523,-1.1654331684112549,-0.1412229984998703,15.879055976867676,0.2895083129405975,84.18029022216797,36.34,0
-0.284564197063446,-1.1621432304382324,-0.1130198910832405,8.434802055358887,0.2899932861328125,84.18018341064453,36.37,0
-0.2273991107940673,-1.115249752998352,-0.0613341145217418,0.2540620267391205,0.2903045117855072,84.18011474609375,36.37,0
-0.2019094079732895,-1.0795583724975586,-0.0113718304783105,-6.181698799133301,0.2905042469501495,84.1800765991211,36.37,0
-0.1855515837669372,-1.0790448188781738,0.0206910856068134,-9.337339401245115,0.290632426738739,84.18004608154297,36.37,0
-0.1526629775762558,-1.1067041158676147,0.0132783474400639,-8.861809730529785,0.290714681148529,84.1800308227539,36.37,0
-0.1427525132894516,-1.0964654684066772,-0.0138698192313313,-5.719242572784424,0.2907674610614776,84.18002319335938,36.37,0
-0.1363925337791443,-1.0395148992538452,-0.0592808201909065,-1.828836798667908,0.2908013164997101,84.18001556396484,36.37,0
-0.1379088461399078,-1.008565068244934,-0.0828252136707305,1.4917941093444824,0.2908230423927307,84.18000793457031,36.37,0
-0.1500774770975113,-1.005496621131897,-0.1091301962733268,4.676061153411865,0.2894598543643951,84.18000793457031,36.37,0
-0.2026688009500503,-1.0091252326965332,-0.1316089928150177,8.564566612243652,0.2885850369930267,84.18000793457031,36.37,0
-0.2364188879728317,-1.0282471179962158,-0.1516323685646057,12.521677017211914,0.2880236208438873,84.18000793457031,36.37,0
-0.2300888746976852,-1.057311773300171,-0.1868733167648315,14.982305526733398,0.2876633405685425,84.18000793457031,36.37,0
-0.1980377584695816,-1.0927571058273315,-0.2150866985321045,15.25733757019043,0.2874321341514587,84.18000793457031,36.37,0
-0.1774692088365554,-1.1155039072036743,-0.2108013331890106,14.11186695098877,0.2872837781906128,84.18000793457031,36.37,0
-0.2034539133310318,-1.0573304891586304,-0.157671257853508,12.860878944396973,0.2871885597705841,84.18000793457031,36.37,0
-0.2481182664632797,-0.9920092225074768,-0.1011843383312225,12.255108833312988,0.2871274650096893,84.18000793457031,36.37,0
-0.3103679418563843,-0.9332964420318604,-0.0537387356162071,11.848447799682615,0.2875471711158752,84.18000793457031,36.37,0
-0.3615117371082306,-0.9180091023445128,-0.0344864279031753,10.04338550567627,0.2878165245056152,84.18000793457031,36.37,0
-0.3943328857421875,-0.9305896162986756,-0.0277291778475046,4.965662956237793,0.2879893779754638,84.18000793457031,36.37,0
-0.3930045068264007,-1.0002386569976809,0.0101938815787434,-3.931900978088379,0.2881003022193908,84.18000793457031,36.37,0
-0.1458499431610107,-1.0393376350402832,0.3424082994461059,-14.822250366210938,0.2881714999675751,84.18000793457031,36.37,0
-0.1775647103786468,-0.9916579723358154,0.4660400152206421,-24.884899139404297,0.2882171869277954,84.18000793457031,36.37,0
-0.3098729252815246,-0.927473247051239,0.3550553917884826,-32.63583755493164,0.2882464826107025,84.18000793457031,36.37,0
-0.4003784954547882,-0.891880989074707,0.2334518879652023,-37.78190612792969,0.2882652878761291,84.18000793457031,36.37,0
-0.4360686540603637,-0.8858332633972168,0.1330226510763168,-39.52235412597656,0.2882773578166961,84.14775848388672,36.37,0
-0.4533747732639313,-0.8763543963432312,0.0573774091899395,-36.87040328979492,0.2882851064205169,84.12706756591797,36.37,0
-0.3917097747325897,-0.8534780740737915,0.0144304195418953,-30.256824493408203,0.2882900834083557,84.11378479003906,36.37,0
-0.3241478502750397,-0.838797390460968,-0.0019349358044564,-21.412582397460938,0.2882932722568512,84.10526275634766,36.37,0
-0.2863882780075073,-0.834973931312561,-0.0068395044654607,-12.100543022155762,0.2882953286170959,84.09979248046875,36.37,0
-0.2285697013139724,-0.8381180167198181,0.0235996730625629,-3.64905309677124,0.288296639919281,84.09628295898438,36.37,0
-0.1858672946691513,-0.8457334637641907,0.0655248835682869,3.032111406326294,0.2882974743843078,84.09403228759766,36.37,0
-0.1584633588790893,-0.8674139976501465,0.142810046672821,7.946648597717285,0.2882980108261108,84.09258270263672,36.37,0
-0.2136481553316116,-0.898120641708374,0.1364294588565826,12.246940612792969,0.2873805165290832,84.09165954589844,36.39,0
-0.2882469892501831,-0.9178263545036316,0.1099436730146408,17.01644515991211,0.2867917120456695,84.091064453125,36.39,0
-0.3976957499980926,-0.9752545356750488,0.0929466187953949,21.59983253479004,0.2864138484001159,84.09068298339844,36.39,0
-0.4735314548015594,-1.056890845298767,0.1044299826025962,23.917818069458008,0.2861713767051697,84.09043884277344,36.39,0
-0.5333939790725708,-1.187649130821228,0.1341904401779174,22.413917541503903,0.2860157489776611,84.09027862548828,36.39,0
-0.5326258540153503,-1.1764001846313477,0.1085067987442016,17.242856979370117,0.2859158813953399,84.09017944335938,36.39,0
-0.4929485321044922,-1.1299967765808103,0.10322006046772,10.15191650390625,0.2858518064022064,84.0901107788086,36.39,0
-0.4394970238208771,-1.1170110702514648,0.1334139853715896,3.394492626190185,0.2858106791973114,84.09007263183594,36.39,0
-0.39959716796875,-1.108677625656128,0.1583884805440902,-2.2102653980255127,0.2857842743396759,84.09004211425781,36.39,0
-0.3795894980430603,-1.0921341180801392,0.1688179075717926,-8.092759132385254,0.2857673466205597,84.09002685546875,36.39,0
-0.3499563932418823,-1.0199419260025024,0.1643153578042984,-15.704744338989258,0.2857564687728882,84.09001922607422,36.39,0
-0.3197440207004547,-0.9512220621109008,0.1446325629949569,-23.656362533569336,0.2857494950294494,84.09001159667969,36.39,0
-0.2555732727050781,-0.8903282880783081,0.1543923765420913,-28.20395278930664,0.2857450246810913,84.09000396728516,36.39,0
-0.1920010894536972,-0.8456524014472961,0.1606556624174118,-26.719350814819336,0.2857421636581421,84.09000396728516,36.39,0
-0.1568018943071365,-0.8337752819061279,0.1534795314073562,-20.048828125,0.285740315914154,84.09000396728516,36.39,0
-0.1454086303710937,-0.8373488187789917,0.1320809721946716,-11.314929008483888,0.2857391238212585,84.09000396728516,36.39,0
-0.1660859584808349,-0.8620331883430481,0.1183486133813858,-3.309689283370972,0.28757444024086,84.09000396728516,36.39,0
-0.252126544713974,-0.8442875742912292,0.0591560043394565,2.726839303970337,0.2887522280216217,84.09000396728516,36.39,0
-0.2793535590171814,-0.8273016810417175,-0.0124170500785112,7.0342278480529785,0.2895080745220184,84.09000396728516,36.39,0
-0.2128596752882003,-0.8723788261413574,-0.0639462918043136,10.823078155517578,0.2899931371212005,84.09000396728516,36.39,0
-0.1645899564027786,-0.9404911994934082,-0.069025918841362,15.196300506591797,0.29030442237854,84.09000396728516,36.39,0
-0.1224176809191703,-0.9953973293304444,-0.0610901862382888,20.23830986022949,0.2905041873455047,84.09000396728516,36.39,0
-0.0729628428816795,-1.0866106748580933,-0.0392041653394699,25.236608505249023,0.2906323671340942,84.09000396728516,36.39,0
-0.0524211265146732,-1.1787327527999878,-0.0195612013339996,29.450931549072266,0.2907146215438843,84.09000396728516,36.39,0
-0.134400799870491,-1.282633662223816,0.0658155903220176,32.148277282714844,0.2907674312591553,84.07209014892578,36.39,0
-0.2094017267227172,-1.1869758367538452,0.1429965943098068,32.18113708496094,0.2908013164997101,84.06059265136719,36.39,0
-0.2295441329479217,-1.0584148168563845,0.1981246918439865,28.73070907592773,0.2908230423927307,84.05321502685547,36.39,0
-0.1808948516845703,-0.987107276916504,0.2111116349697113,22.636493682861328,0.2908369898796081,84.04847717285156,36.39,0
-0.1216856762766838,-0.9805306196212769,0.2082503587007522,15.741291999816896,0.2908459603786468,84.04544067382812,36.39,0
-0.0724930837750434,-0.9931034445762634,0.217609703540802,8.697484970092773,0.2908517122268677,84.04349517822266,36.39,0
-0.1192929595708847,-0.9787808656692504,0.2460070997476577,0.6340084671974182,0.2908554077148437,84.04224395751953,36.39,0
-0.1773152947425842,-0.9527961611747742,0.2474375814199447,-8.67137622833252,0.2908577620983124,84.04144287109375,36.39,0
-0.2481373399496078,-0.9137295484542848,0.203573390841484,-17.00395393371582,0.290400356054306,84.04092407226562,36.39,0
-0.28798907995224,-0.8774632811546326,0.1642283350229263,-20.860971450805664,0.2901068031787872,84.04059600830078,36.39,0
-0.3079658448696136,-0.8317986130714417,0.1333811581134796,-19.026344299316406,0.2899184226989746,84.0403823852539,36.39,0
-0.2927969098091125,-0.808091402053833,0.1303785443305969,-14.280741691589355,0.2897975444793701,84.04024505615234,36.39,0
-0.2662690579891205,-0.8040730357170105,0.1284516453742981,-10.199922561645508,0.2897199690341949,84.0401611328125,36.39,0
-0.2380494475364685,-0.8350809216499329,0.1216172948479652,-7.53093147277832,0.2896701693534851,84.04010009765625,36.39,0
-0.2311352789402008,-0.8661755323410034,0.1116336286067962,-4.990551471710205,0.2896382212638855,84.0400619506836,36.39,0
-0.2434914857149124,-0.8917280435562134,0.1052266806364059,-1.869930624961853,0.2896177172660827,84.0400390625,36.39,0
-0.2850076258182525,-0.9361150860786438,0.1123106181621551,1.3758580684661863,0.2900635004043579,84.04002380371094,36.39,0
-0.3396391868591308,-0.9813934564590454,0.1280522346496582,3.734676599502564,0.2903495728969574,84.0400161743164,36.39,0
-0.4250785410404205,-1.077623724937439,0.2053275853395462,4.514002799987793,0.2905331552028656,84.04000854492188,36.39,0
-0.5078974366188049,-1.167367696762085,0.2773095667362213,4.211632251739502,0.2906509637832641,84.04000854492188,36.39,0
-0.5386547446250916,-1.1689825057983398,0.3011123538017273,3.859955072402954,0.2907265722751617,84.04000854492188,36.39,0
-0.4968175292015075,-1.1028454303741455,0.3331809341907501,3.4228968620300293,0.2907750904560089,84.04000854492188,36.39,0
-0.3860021829605102,-1.0771958827972412,0.3761518001556396,2.0783932209014893,0.290806233882904,84.04000854492188,36.39,0
-0.2029317915439605,-1.1447020769119265,0.3869346976280212,-0.2067143619060516,0.2908262014389038,84.04000854492188,36.39,0
-0.0742521956562995,-1.2104147672653198,0.3546701371669769,-2.489992141723633,0.2912979423999786,84.04000854492188,36.39,0
-0.0476507842540741,-1.218998670578003,0.2835846245288849,-4.166640281677246,0.2916006743907928,84.04000854492188,36.39,0
-0.1593283414840698,-1.1629317998886108,0.2435638010501861,-6.077356815338135,0.2917949557304382,84.04000854492188,36.39,0
-0.326158732175827,-1.1325491666793823,0.2346740663051605,-9.646549224853516,0.2919196486473083,84.04000854492188,36.39,0
-0.2820809781551361,-1.0794646739959717,0.2289691418409347,-14.394698143005373,0.2919996678829193,84.04000854492188,36.39,0
-0.1754255592823028,-1.0174092054367063,0.2309058308601379,-17.645994186401367,0.2920510172843933,84.04000854492188,36.39,0
-0.0957847014069557,-0.9663900136947632,0.2153553664684295,-17.597272872924805,0.2920839786529541,84.04000854492188,36.39,0
-0.1454357206821441,-0.9280510544776917,0.1270071268081665,-15.15851593017578,0.292105108499527,84.04000854492188,36.39,0
-0.1940922141075134,-0.8810562491416931,0.0535169914364814,-12.092363357543944,0.2907415330410003,84.02567291259766,36.39,0
-0.242110475897789,-0.8173110485076904,0.0063552553765475,-9.042744636535645,0.2898664772510528,84.01647186279297,36.39,0
-0.2729258239269256,-0.7540119290351868,-0.0183126609772443,-5.939250946044922,0.2893049120903015,84.01057434082031,36.39,0
-0.2535169124603271,-0.7077924013137817,-0.0005564622115343,-2.8047659397125244,0.2889445424079895,84.00678253173828,36.39,0
-0.2242680788040161,-0.6949247121810913,0.022033991292119,0.489328533411026,0.288713276386261,84.00435638427734,36.39,0
-0.2110956311225891,-0.7034602761268616,0.0365312471985816,4.534296989440918,0.2885648608207702,84.00279235839844,36.39,0
-0.2138378620147705,-0.7313290238380432,0.0402369759976863,9.892291069030762,0.2884696125984192,84.00179290771484,36.39,0
-0.2211954444646835,-0.788398027420044,0.0426150970160961,16.254125595092773,0.288408488035202,84.00115203857422,36.39,0
-0.2483082115650177,-1.0377370119094849,0.0665323361754417,22.009845733642575,0.2888285517692566,84.00074005126953,36.37,0
-0.2769031822681427,-1.3320950269699097,0.0426966249942779,24.768484115600582,0.2890981137752533,84.00047302246094,36.37,0
-0.328840434551239,-1.4314327239990234,0.0162046868354082,22.949079513549805,0.2892711162567138,84.00030517578125,36.37,0
-0.4013551771640777,-1.2992597818374634,0.0439858809113502,17.389251708984375,0.289382129907608,84.00019836425781,36.37,0
-0.4087065458297729,-1.2200366258621216,0.1065964475274086,10.8154935836792,0.289453387260437,84.00012969970703,36.37,0
-0.2846754193305969,-1.208380103111267,0.1859607249498367,5.34651517868042,0.2894991040229797,84.00008392333984,36.37,0
-0.2218727171421051,-1.1337263584136963,0.1641210913658142,1.0020993947982788,0.2895284295082092,84.00005340576172,36.37,0
-0.2095584273338318,-1.0690245628356934,0.1165190190076828,-2.9323203563690186,0.2895472645759582,84.00003051757812,36.37,0
-0.2240469306707382,-0.9827204942703248,0.0523841008543968,-6.001756191253662,0.2900182902812958,84.0000228881836,36.37,0
-0.2389425933361053,-0.9161399602890016,0.0056282258592545,-6.864527702331543,0.2903205454349518,84.00001525878906,36.37,0
-0.2764906287193298,-0.8678146004676819,-0.0187792275100946,-4.96414041519165,0.2905145287513733,84.00000762939453,36.37,0
-0.3173801302909851,-0.853595495223999,-0.0344425253570079,-1.014658808708191,0.2906390130519867,84.00000762939453,36.37,0
-0.354816198348999,-0.8500682711601257,-0.0444943271577358,3.887973785400391,0.2907188832759857,84.00000762939453,36.37,0
-0.4012316167354584,-0.8757935762405396,-0.0397494472563266,8.66427230834961,0.2907701432704925,84.00000762939453,36.37,0
-0.4422139227390289,-0.9034981727600098,-0.0143133597448468,12.288308143615724,0.2908030450344085,84.00000762939453,36.37,0
-0.4909051060676574,-0.9436684846878052,0.0299989320337772,14.535188674926758,0.2908241748809814,84.00000762939453,36.37,0
-0.4941634237766266,-0.9806429743766784,0.0920226573944091,16.467920303344727,0.2894605696201324,84.00000762939453,36.37,0
-0.4906566441059112,-1.009968876838684,0.1486192345619201,19.023042678833008,0.2885855138301849,84.00000762939453,36.37,0
-0.516395092010498,-1.1463418006896973,0.2521129548549652,21.232402801513672,0.2880239486694336,84.00000762939453,36.37,0
-0.5049236416816711,-1.2282602787017822,0.3353225886821747,20.536521911621094,0.2876635491847992,84.00000762939453,36.37,0
-0.4863663911819458,-1.2248531579971311,0.377526193857193,14.737578392028809,0.2874322831630707,84.00000762939453,36.37,0
-0.3904908001422882,-1.18348228931427,0.4661855697631836,3.8474156856536874,0.2872838675975799,84.00000762939453,36.37,0
-0.2729856073856354,-1.1457372903823853,0.5062887072563171,-9.17073917388916,0.2871886193752289,84.00000762939453,36.37,0
0.5357309579849243,-1.1159168481826782,0.3528958261013031,-19.871627807617188,0.2871274948120117,84.00000762939453,36.37,0
0.2486391216516494,-1.1975398063659668,0.3160326182842254,-25.5709228515625,0.2889243364334106,84.00000762939453,36.37,0
0.3610821664333343,-1.1155741214752195,0.5106891393661499,-27.154090881347656,0.2900774478912353,84.00000762939453,36.37,0
0.4108505249023437,-1.1637332439422607,0.5292508006095886,-27.507299423217773,0.2908174395561218,84.00000762939453,36.37,0
0.4483867585659027,-1.1834434270858765,0.4851848483085632,-28.69409942626953,0.2912923395633697,84.00000762939453,36.37,0
0.3549221158027649,-1.1960922479629517,0.3113636970520019,-30.25105094909668,0.2915970981121063,84.00000762939453,36.37,0
0.2613552212715149,-1.1874161958694458,0.1438375562429428,-29.61655807495117,0.2917926609516144,84.00000762939453,36.37,0
0.1173427700996398,-1.1370662450790403,-0.0420399270951747,-24.620098114013672,0.2919181585311889,84.00000762939453,36.37,0
-0.075836069881916,-1.0767656564712524,-0.1557276099920272,-15.789013862609863,0.2919987142086029,84.00000762939453,36.37,0
-0.2445893287658691,-1.032470464706421,-0.2062947303056717,-5.86921501159668,0.291591465473175,84.00000762939453,36.39,0
-0.3864721059799194,-0.987251043319702,-0.1771702766418457,2.660616397857666,0.2913301289081573,84.00000762939453,36.39,0
-0.4551331996917724,-0.9358407258987428,-0.1304910033941269,8.922738075256348,0.2911624014377594,84.00000762939453,36.39,0
-0.415229320526123,-0.8636640906333923,-0.0613505169749259,13.15636157989502,0.2910547852516174,84.00000762939453,36.39,0
-0.3392413556575775,-0.7837586402893066,-0.0001868068356998,16.002229690551758,0.2909857034683227,84.00000762939453,36.39,0
-0.2680855393409729,-0.7324799299240112,0.0390645377337932,18.279949188232425,0.2909413874149322,84.00000762939453,36.39,0
-0.1888351887464523,-0.7051699757575989,0.0642537921667099,20.970481872558597,0.2909129559993744,84.00000762939453,36.39,0
-0.1379768848419189,-0.7100351452827454,0.0860165804624557,24.889646530151367,0.2908946871757507,84.00000762939453,36.39,0
-0.1333278119564056,-0.7915261387825012,0.0943849086761474,29.916126251220703,0.2895058393478393,84.00000762939453,36.39,0
-0.1639309525489807,-0.9445823431015016,0.0941574499011039,34.34199523925781,0.2886145412921905,84.00000762939453,36.39,0
-0.2059613913297653,-1.0931849479675293,0.094011478126049,35.32648849487305,0.2880425751209259,84.00000762939453,36.39,0
-0.3280962705612182,-1.1941473484039309,0.1219066753983497,30.75638008117676,0.2876754999160766,84.00000762939453,36.39,0
-0.4344642758369446,-1.214156985282898,0.1733948588371276,20.98082733154297,0.2874399423599243,84.00000762939453,36.39,0
-0.4523451626300812,-1.2046068906784058,0.2176325470209121,8.502420425415039,0.2872887849807739,84.00000762939453,36.39,0
-0.351864606142044,-1.1984782218933103,0.218032881617546,-3.765185594558716,0.287191778421402,84.00000762939453,36.39,0
-0.2593930959701538,-1.1665563583374023,0.2070942521095276,-13.79812240600586,0.2871295213699341,84.00000762939453,36.39,0
-0.172061339020729,-1.0788973569869995,0.188878908753395,-20.78481674194336,0.2870895564556122,84.00000762939453,36.39,0
-0.1216146126389503,-1.0170451402664185,0.1659938097000122,-24.55195999145508,0.2870639264583587,84.00000762939453,36.39,0
-0.1228274554014206,-0.97735196352005,0.1345141381025314,-24.46527671813965,0.2870474755764007,84.00000762939453,36.39,0
-0.1683879792690277,-0.9518791437149048,0.1087145283818245,-19.58391761779785,0.2870369255542755,84.00000762939453,36.39,0
-0.2368105202913284,-0.9355321526527404,0.0753645002841949,-10.579501152038574,0.2870301604270935,84.00000762939453,36.39,0
-0.3422957062721252,-0.9138460755348206,0.0315712764859199,-0.3693396747112274,0.2870258092880249,84.00000762939453,36.39,0
-0.4267833232879638,-0.8887336254119873,-0.0021304697729647,8.2930908203125,0.2870230078697204,84.00000762939453,36.39,0
-0.5033937096595764,-0.8670201301574707,0.0098283365368843,15.052303314208984,0.2870212197303772,84.00000762939453,36.39,0
-0.5189712047576904,-0.8586834073066711,0.0790783315896987,20.30711555480957,0.2883971929550171,83.98567199707031,36.39,0
-0.5009790658950806,-0.8645289540290833,0.1347145438194275,22.10301971435547,0.2892802357673645,83.97647094726562,36.39,0
-0.4614439010620117,-0.8962691426277161,0.2152008563280105,16.946611404418945,0.2898469269275665,83.97057342529297,36.39,0
-0.4136813879013061,-0.9334315061569214,0.2892434298992157,3.8499293327331534,0.2902105748653412,83.96678161621094,36.39,0
-0.3326501846313476,-0.9852690696716307,0.3479552268981933,-13.597187995910645,0.2904439568519592,83.96435546875,36.39,0
-0.325431227684021,-1.0745131969451904,0.4080241918563843,-28.51962280273437,0.2905937135219574,83.9627914428711,36.39,0
-0.3599829375743866,-1.1541759967803955,0.4633663296699524,-34.69611740112305,0.2906898260116577,83.9617919921875,36.39,0
-0.449329525232315,-1.2220922708511353,0.5156750679016113,-31.903099060058597,0.2907515168190002,83.96115112304688,36.39,0
-0.4562870562076568,-1.209699273109436,0.5156571269035339,-26.6678466796875,0.2898728847503662,83.96073913574219,36.39,0
-0.3935787081718445,-1.1793551445007324,0.5044500827789307,-25.38605690002441,0.289309024810791,83.9604721069336,36.39,0
-0.3309450149536133,-1.1374908685684204,0.4468780755996704,-28.658361434936523,0.2889471650123596,83.9603042602539,36.39,0
-0.2627614438533783,-1.116222620010376,0.3931383490562439,-33.62081527709961,0.2887149453163147,83.96019744873047,36.39,0
-0.2134073674678802,-1.1361604928970337,0.3474557399749756,-37.68674850463867,0.2885659337043762,83.96012878417969,36.39,0
-0.243310272693634,-1.126564383506775,0.2117815464735031,-38.30769729614258,0.2884702980518341,83.9600830078125,36.39,0
-0.0777736827731132,-1.064428448677063,0.2646580040454864,-33.20693588256836,0.2884089350700378,83.96005249023438,36.39,0
-0.0443128980696201,-1.0245531797409058,0.2370155602693557,-22.92962455749512,0.2883695363998413,83.96002960205078,36.39,0
-0.0172419194132089,-0.9821701645851136,0.1912873685359954,-11.082180976867676,0.2888035476207733,83.96002197265625,36.39,0
-0.0558470673859119,-0.949373424053192,0.1507460922002792,-0.9427105188369752,0.2890820801258087,83.96001434326172,36.39,0
-0.1254038214683532,-0.9283263683319092,0.1023379415273666,6.821702003479004,0.2892608344554901,83.96000671386719,36.39,0
-0.1812368929386139,-0.892428457736969,0.0600768253207206,12.789663314819336,0.2893755435943603,83.96000671386719,36.39,0
-0.2282628864049911,-0.8525979518890381,0.0217605251818895,17.02080535888672,0.2894491553306579,83.96000671386719,36.39,0
-0.2472459226846695,-0.8158414363861084,-0.0084264446049928,19.58205795288086,0.2894963920116424,83.96000671386719,36.39,0
-0.2594281435012817,-0.797851026058197,-0.0277987048029899,21.49799919128418,0.2895267009735107,83.96000671386719,36.39,0
-0.2784415483474731,-0.791903555393219,-0.0458284802734851,24.110414505004883,0.2895461618900299,83.96000671386719,36.39,0
-0.2962410151958465,-0.7880868315696716,-0.0518011786043643,28.22306251525879,0.2900175750255584,83.96000671386719,36.39,0
-0.3188592493534088,-0.8192241191864014,-0.0332430154085159,34.10813903808594,0.2903200984001159,83.96000671386719,36.39,0
-0.3389720916748047,-0.8895862102508545,0.0066554183140397,41.04825592041016,0.2905142307281494,83.96000671386719,36.39,0
-0.3742704689502716,-1.0187071561813354,0.0882376804947853,46.40841293334961,0.2906388342380523,83.96000671386719,36.39,0
-0.4305095672607422,-1.1295584440231323,0.1461902558803558,46.31225204467773,0.2907187938690185,83.96000671386719,36.39,0
-0.483393907546997,-1.0887409448623655,0.133000910282135,38.40111923217773,0.2907700836658478,83.96000671386719,36.39,0
-0.4389632046222687,-1.1073287725448608,0.107743427157402,23.758731842041016,0.2908030152320862,83.96000671386719,36.39,0
-0.3656679391860962,-1.147246241569519,0.1475123763084411,6.046932220458984,0.290824145078659,83.96000671386719,36.39,0
-0.0723291784524917,-1.189656376838684,0.6936268210411072,-10.61094570159912,0.2908377051353454,83.94925689697266,36.39,0
-0.2255454957485199,-1.1329060792922974,0.8201806545257568,-22.72687721252441,0.2908464074134826,83.9423599243164,36.39,0
-0.430228590965271,-0.9677382111549376,0.5879202485084534,-27.915565490722656,0.2908519804477691,83.93793487548828,36.39,0
-0.4776158332824707,-0.8281563520431519,0.3157178461551666,-25.86075592041016,0.2908555567264557,83.93508911132812,36.39,0
-0.5136240124702454,-0.7385807037353516,0.1242407113313674,-18.58069229125977,0.2908578515052795,83.93326568603516,36.39,0
-0.5311341881752014,-0.7146828770637512,-0.0266271717846393,-9.004220008850098,0.2908593416213989,83.93209838867188,36.39,0
-0.5311756730079651,-0.7217377424240112,-0.1178477182984352,0.5699340105056763,0.2908602952957153,83.93134307861328,36.39,0
-0.5200067758560181,-0.7206673622131348,-0.1819856017827987,8.630752563476562,0.2908608913421631,83.93086242675781,36.39,0
-0.4848503172397613,-0.6919915676116943,-0.2455366998910904,13.886120796203612,0.2894841432571411,83.93055725097656,36.37,0
-0.4958755671977997,-0.6735891103744507,-0.3087112307548523,15.209481239318848,0.2886006236076355,83.93035888671875,36.37,0
-0.5421353578567505,-0.6729750037193298,-0.3548507690429687,12.537065505981444,0.2880336344242096,83.93022918701172,36.37,0
-0.5662244558334351,-0.6837764382362366,-0.3564715981483459,7.737465381622314,0.2876697778701782,83.93014526367188,36.37,0
-0.5369012951850891,-0.7130993008613586,-0.2903384566307068,3.331805467605591,0.2874362766742706,83.93009185791016,36.37,0
-0.5908544063568115,-0.7599058747291565,-0.1751269549131393,-0.3087380826473236,0.2872864305973053,83.93006134033203,36.37,0
-0.5918917655944824,-0.7899436950683594,-0.0732019692659378,-4.988033771514893,0.2871902585029602,83.93003845214844,36.37,0
-0.5421774983406067,-0.820415735244751,-0.0805634558200836,-11.494695663452148,0.2871285378932953,83.93002319335938,36.37,0
-0.5326648354530334,-0.8791553974151611,-0.1300698369741439,-18.31065559387207,0.2880071401596069,83.93001556396484,36.37,0
-0.5937334895133972,-0.9728288650512696,-0.1954268217086792,-23.6986141204834,0.2885710000991821,83.93000793457031,36.37,0
-0.6609126925468445,-0.9545742869377136,-0.2093802988529205,-27.113304138183597,0.2889328300952911,83.93000793457031,36.37,0
-0.6760355830192566,-0.8868817687034607,-0.223932608962059,-28.98580741882324,0.289165049791336,83.93000793457031,36.37,0
-0.5961762070655823,-0.865831732749939,-0.2164781242609024,-30.29136657714844,0.2893140614032745,83.93000793457031,36.37,0
-0.5393292307853699,-0.8859096765518188,-0.2172920405864715,-31.247425079345703,0.2894096970558166,83.93000793457031,36.37,0
-0.5308369994163513,-0.9491745233535768,-0.195423275232315,-30.07326316833496,0.2894710600376129,83.93000793457031,36.37,0
-0.5029960870742798,-0.939394235610962,-0.1757913827896118,-24.52985000610352,0.2895104587078094,83.93000793457031,36.37,0
-0.4739338457584381,-0.9051289558410645,-0.1519972085952758,-14.778132438659668,0.2886175215244293,83.93000793457031,36.37,0
-0.4049034118652344,-0.8831394910812378,-0.0919452831149101,-3.647738456726074,0.2880444824695587,83.93000793457031,36.37,0
-0.3326147794723511,-0.8690279126167297,-0.04221186414361,5.6052446365356445,0.2876767516136169,83.93000793457031,36.37,0
-0.2806263267993927,-0.8655697107315063,-0.0102958222851157,11.5432767868042,0.2874407470226288,83.93000793457031,36.37,0
-0.2528609037399292,-0.8913393020629883,0.0269793812185525,15.182000160217283,0.2872892916202545,83.93000793457031,36.37,0
-0.2294448614120483,-0.9190722703933716,0.0564982369542121,18.54173851013184,0.2871921062469482,83.93000793457031,36.37,0
-0.2256133407354354,-0.948065221309662,0.081039510667324,22.524940490722656,0.2871297299861908,83.93000793457031,36.37,0
-0.2287522703409195,-0.9666712284088136,0.1023864597082138,26.650297164916992,0.2870897054672241,83.93000793457031,36.37,0
-0.2307666540145874,-1.0066003799438477,0.1328790336847305,30.634014129638672,0.2866050899028778,83.93000793457031,36.37,0
-0.2488526999950409,-1.0378223657608032,0.1356540918350219,35.48338317871094,0.2862941026687622,83.93000793457031,36.37,0
-0.2772526144981384,-1.080249905586243,0.1206416338682174,42.4216194152832,0.2860945165157318,83.93000793457031,36.37,0
-0.3178691267967224,-1.1354663372039795,0.0830186307430267,50.3564453125,0.2859664261341095,83.93000793457031,36.37,0
-0.3551300168037414,-1.1261188983917236,0.0532765798270702,54.911170959472656,0.2858842313289642,83.93000793457031,36.37,0
-0.4014330208301544,-1.0249581336975098,0.056580938398838,51.54312896728516,0.285831481218338,83.93000793457031,36.37,0
-0.4255498349666595,-0.8984634280204773,0.0754948109388351,40.55783081054688,0.2857976257801056,83.93000793457031,36.37,0
-0.4242332875728607,-0.8340797424316406,0.0652415454387664,27.482208251953125,0.2857758998870849,83.93000793457031,36.37,0
-0.4177906513214111,-0.8711308240890503,0.0362704955041408,16.450666427612305,0.2871391177177429,83.93000793457031,36.37,0
-0.3968628048896789,-0.9228969812393188,0.0176785420626401,5.136654376983643,0.2880139350891113,83.93000793457031,36.37,0
-0.3274547755718231,-0.9953019022941588,0.0505294911563396,-10.66130542755127,0.2885753512382507,83.93000793457031,36.37,0
-0.2717171311378479,-1.0025827884674072,0.0996002107858657,-29.64132308959961,0.2889356315135956,83.93000793457031,36.37,0
-0.2415457069873809,-1.001657485961914,0.1422865241765976,-45.65854263305664,0.2891668379306793,83.93000793457031,36.37,0
-0.1997923254966735,-0.9842703342437744,0.220060110092163,-53.798675537109375,0.2893152236938476,83.93000793457031,36.37,0
-0.1785951852798462,-0.9675145149230956,0.2643729448318481,-53.401485443115234,0.2894104421138763,83.93000793457031,36.37,0
-0.2377631515264511,-0.9623593688011168,0.2368326336145401,-47.35356521606445,0.2894715368747711,83.93000793457031,36.37,0
-0.2925270497798919,-0.9646488428115844,0.1855721920728683,-40.1262321472168,0.2899696826934814,83.93000793457031,36.37,0
-0.3164758384227752,-0.9773136377334596,0.1526761949062347,-34.76804733276367,0.2902893722057342,83.93000793457031,36.37,0
-0.2982581555843353,-0.9854412078857422,0.131565436720848,-30.885234832763672,0.2904945313930511,83.93000793457031,36.37,0
-0.2809692919254303,-0.979461431503296,0.112419992685318,-26.405139923095703,0.2906261682510376,83.93000793457031,36.37,0
-0.2530809938907623,-0.9476351141929626,0.0945357754826545,-21.11541748046875,0.2907106578350067,83.93000793457031,36.37,0
-0.2295861095190048,-0.9216130375862122,0.0830587148666381,-17.093826293945312,0.2907648682594299,83.93000793457031,36.37,0
-0.2257039844989776,-0.8993157744407654,0.0756933987140655,-15.59852123260498,0.2907996773719787,83.93000793457031,36.37,0
-0.2456037700176239,-0.8794088959693909,0.076564535498619,-15.39842700958252,0.2908219993114471,83.93000793457031,36.37,0
-0.2639720737934112,-0.877829372882843,0.0771235823631286,-14.922508239746094,0.2894591987133026,83.93000793457031,36.37,0
-0.2869553565979004,-0.8936090469360352,0.0718845725059509,-14.41646671295166,0.2885846197605133,83.93000793457031,36.37,0
-0.3184980154037475,-1.0100932121276855,0.0741202533245086,-15.13783073425293,0.2880233526229858,83.93000793457031,36.37,0
-0.3555335998535156,-1.129628300666809,0.0979460850358009,-17.635663986206055,0.2876631915569305,83.93000793457031,36.37,0
-0.3960942327976227,-1.1503612995147705,0.113236129283905,-21.083654403686523,0.2874320447444916,83.93000793457031,36.37,0
-0.3997326195240021,-1.1132864952087402,0.1062550768256187,-23.317873001098636,0.287283718585968,83.93000793457031,36.37,0
-0.3684808611869812,-1.0223207473754885,0.096177265048027,-21.74588394165039,0.2871885299682617,83.93000793457031,36.37,0
-0.3484252989292145,-1.014324188232422,0.0897099077701568,-15.28797435760498,0.2871274352073669,83.93000793457031,36.37,0
-0.3355547785758972,-1.0427790880203247,0.0743639767169952,-5.640823841094971,0.288006454706192,83.93000793457031,36.37,0
-0.3832729756832123,-1.0778331756591797,0.0645158439874649,3.7816450595855713,0.2885705530643463,83.93000793457031,36.37,0
-0.3859069049358368,-1.0611443519592283,0.0302070062607526,10.376577377319336,0.2889325618743896,83.93000793457031,36.37,0
-0.3708038628101349,-1.0280433893203735,0.0081895682960748,13.845736503601074,0.2891648709774017,83.93000793457031,36.37,0
-0.3107316493988037,-0.9844099879264832,-0.0059399544261395,15.43076229095459,0.289313942193985,83.93000793457031,36.37,0
-0.2497896552085876,-0.9508107900619508,0.0073836273513734,16.21865463256836,0.2894096076488495,83.93000793457031,36.37,0
-0.1994850486516952,-0.9852265119552612,0.0551183559000492,16.527238845825195,0.2894710004329681,83.93000793457031,36.37,0
-0.1672024428844452,-1.0185080766677856,0.0857517570257186,16.49598503112793,0.2895103991031647,83.93000793457031,36.37,0
-0.1464853286743164,-1.039866328239441,0.0886171907186508,16.501005172729492,0.2899946272373199,83.93000793457031,36.37,0
-0.1107991784811019,-1.0255838632583618,0.0680649578571319,17.00220489501953,0.2903053760528564,83.93000793457031,36.37,0
-0.0878978595137596,-0.9940271377563475,0.0380823984742164,18.29114151000977,0.2905047833919525,83.93000793457031,36.37,0
-0.1123855337500572,-0.9793736338615416,0.0244390908628702,20.20741081237793,0.2906327545642853,83.93000793457031,36.37,0
-0.156089186668396,-0.9867631793022156,0.0268791504204273,21.834827423095703,0.2907148897647857,83.93000793457031,36.37,0
-0.2345156371593475,-1.0250920057296753,0.0228472650051116,21.59306526184082,0.2907675802707672,83.93000793457031,36.37,0
-0.2960407733917236,-1.0608848333358765,-0.0301201362162828,18.073877334594727,0.2908014059066772,83.93000793457031,36.37,0
-0.3243285119533539,-1.0726590156555176,-0.0865026637911796,11.043475151062012,0.2908231019973755,83.93000793457031,36.37,0
-0.3312864005565643,-1.001846194267273,-0.1226857230067253,1.5913952589035034,0.2894598841667175,83.93000793457031,36.37,0
-0.3301537930965423,-0.934011459350586,-0.1235148310661315,-8.225360870361328,0.2885850667953491,83.93000793457031,36.37,0
-0.3462202847003937,-0.8736857175827026,-0.0624713860452175,-15.567720413208008,0.2880236506462097,83.93000793457031,36.37,0
-0.3733241558074951,-0.8853521347045898,0.0326805301010608,-17.965280532836914,0.2876633703708648,83.93000793457031,36.37,0
-0.3851200938224792,-0.9208278059959412,0.1161346510052681,-15.262126922607422,0.2874321639537811,83.93000793457031,36.37,0
-0.3311145305633545,-0.988376259803772,0.152897372841835,-9.73703384399414,0.2872837781906128,83.93000793457031,36.37,0
-0.2572724521160126,-1.009333848953247,0.1764895766973495,-3.9199936389923096,0.2871885597705841,83.93000793457031,36.37,0
-0.2658625841140747,-1.0171854496002195,0.1636408269405365,0.945141613483429,0.2871274650096893,83.93000793457031,36.37,0
-0.1818108558654785,-0.9830397367477416,0.2673507332801819,4.497214317321777,0.2875471711158752,83.93000793457031,36.37,0
-0.1502623856067657,-0.961126983165741,0.3786879777908325,6.565358638763428,0.2878165245056152,83.93000793457031,36.37,0
-0.2755585312843323,-0.9358690977096558,0.4445400238037109,7.3301100730896,0.2879893779754638,83.93000793457031,36.37,0
-0.3615641593933105,-0.8972689509391785,0.391637921333313,7.498451709747314,0.2881003022193908,83.93000793457031,36.37,0
-0.399964302778244,-0.8780953884124756,0.3129062056541443,7.846516132354736,0.2881714999675751,83.93000793457031,36.37,0
-0.3686295449733734,-0.8657909035682678,0.234391838312149,8.48546314239502,0.2882171869277954,83.93000793457031,36.37,0
-0.3205318450927734,-0.8522968292236328,0.1840058416128158,8.831015586853027,0.2882464826107025,83.93000793457031,36.37,0
-0.2616766393184662,-0.8436371088027954,0.1516710072755813,8.228778839111328,0.2882652878761291,83.93000793457031,36.37,0
-0.2127112001180648,-0.8324819803237915,0.1309203654527664,6.60989236831665,0.2882773578166961,83.93358612060547,36.37,0
-0.1924835443496704,-0.819725513458252,0.1064082533121109,4.621601581573486,0.2882851064205169,83.93588256835938,36.37,0
-0.1795026063919067,-0.8059413433074951,0.0906777903437614,3.0554423332214355,0.2882900834083557,83.9373550415039,36.37,0
-0.1767699569463729,-0.802693247795105,0.0861806571483612,1.817503929138184,0.2882932722568512,83.93830108642578,36.37,0
-0.2253962755203247,-0.8285976648330688,0.0832946598529815,-0.2272526323795318,0.2882953286170959,83.93891143798828,36.37,0
-0.2789929509162903,-0.8620149493217468,0.0926381424069404,-3.703335285186768,0.288296639919281,83.93930053710938,36.37,0
-0.3301815390586853,-0.9786224365234376,0.1154275685548782,-7.102004528045654,0.2882974743843078,83.9395523071289,36.37,0
-0.4190091490745544,-1.2325831651687622,0.1580413877964019,-7.556273460388184,0.2882980108261108,83.93971252441406,36.37,0
-0.5151980519294739,-1.3675717115402222,0.1797907054424286,-3.387490510940552,0.2878394424915313,83.9398193359375,36.41,0
-0.5377420783042908,-1.3142552375793457,0.1321726441383361,4.486112117767334,0.2875451445579529,83.93988800048828,36.41,0
-0.4570474028587341,-1.2688442468643188,0.1128096655011177,13.311388969421388,0.287356287240982,83.93992614746094,36.41,0
-0.3828710913658142,-1.2341042757034302,0.1115791723132133,19.863422393798828,0.2872350811958313,83.93995666503906,36.41,0
-0.3408668041229248,-1.1838213205337524,0.1443761587142944,21.760961532592773,0.2871572971343994,83.93997192382812,36.41,0
-0.3139108717441559,-1.1235637664794922,0.1934122443199157,18.658105850219727,0.2871074080467224,83.93997955322266,36.41,0
-0.2630254328250885,-1.0289161205291748,0.2416741102933883,12.471675872802734,0.2870753705501556,83.93998718261719,36.41,0
-0.2135767787694931,-0.9401878714561462,0.2334613800048828,6.05468225479126,0.2870548069477081,83.93999481201172,36.41,0
-0.1706479340791702,-0.8552582859992981,0.2057998180389404,1.4708908796310425,0.2870416343212127,83.93999481201172,36.41,0
-0.109512023627758,-0.8231464624404907,0.17685267329216,-0.8043639063835144,0.2870331704616546,83.93999481201172,36.41,0
-0.0982673838734626,-0.8249300718307495,0.1358849704265594,-1.4655770063400269,0.2870277464389801,83.93999481201172,36.41,0
-0.1358334124088287,-0.859661340713501,0.0704098269343376,-1.2629547119140625,0.2870242595672607,83.93999481201172,36.41,0
-0.1375500410795211,-0.8819498419761658,0.0451849736273288,-0.3196788132190704,0.2870220243930816,83.93999481201172,36.41,0
-0.1106627956032753,-0.8962533473968506,0.0401926636695861,1.6112143993377686,0.287020593881607,83.93999481201172,36.41,0
-0.0486259162425994,-0.9054325222969056,0.0705755352973938,4.774193286895752,0.287019670009613,83.93999481201172,36.41,0
0.0079791070893406,-0.9449098110198976,0.1124646067619323,9.297484397888184,0.2870190739631653,83.93999481201172,36.41,0
-0.0452594384551048,-1.110188364982605,0.1281510591506958,14.923028945922852,0.2879368960857391,83.93999481201172,36.41,0
-0.1242070645093917,-1.3226124048233032,0.1214243918657302,20.6540641784668,0.2885259091854095,83.93999481201172,36.41,0
-0.1916644275188446,-1.3805650472640991,0.12270537763834,25.01976776123047,0.2889038920402527,83.93999481201172,36.41,0
-0.1453903019428253,-1.2610180377960205,0.1907007396221161,26.77889633178711,0.2891464829444885,83.93999481201172,36.41,0
-0.1044986769556999,-1.1842997074127195,0.2399340271949768,25.700937271118164,0.2893021404743194,83.93999481201172,36.41,0
-0.0614634603261947,-1.1574573516845703,0.2659313380718231,22.823793411254883,0.289402037858963,83.93999481201172,36.41,0
-0.0394437126815319,-1.0730582475662231,0.2602238059043884,19.261354446411133,0.2894661426544189,83.93999481201172,36.41,0
-0.0421060286462307,-0.9853090643882751,0.2397677302360534,14.908040046691896,0.2895072996616363,83.93999481201172,36.41,0
-0.0494123212993145,-0.8898122906684875,0.2042490988969802,8.958084106445312,0.2886154949665069,83.95074462890625,36.41,0
-0.0652966275811195,-0.8229301571846008,0.1646619588136673,1.3314670324325562,0.2880431711673736,83.9576416015625,36.41,0
-0.1314680129289627,-0.813595712184906,0.1168661192059516,-6.923312187194824,0.2876758873462677,83.96206665039062,36.41,0
-0.2523018419742584,-0.8523876070976257,0.0917912721633911,-14.255657196044922,0.2874401807785034,83.96491241455078,36.41,0
-0.357834905385971,-0.8772819638252258,0.0812974497675895,-19.534347534179688,0.2872889339923858,83.96673583984375,36.41,0
-0.425559937953949,-0.893257737159729,0.068965345621109,-22.671127319335938,0.2871918678283691,83.96790313720703,36.41,0
-0.4578264355659485,-0.9147056341171264,0.0778446346521377,-24.175405502319336,0.2871295809745788,83.96865844726562,36.41,0
-0.4393487870693207,-0.9284696578979492,0.1171294972300529,-24.295276641845703,0.2870896160602569,83.9691390991211,36.41,0
-0.3995020389556885,-0.9261070489883424,0.1591335833072662,-23.071727752685547,0.2875228822231293,83.96944427490234,36.37,0
-0.3571373522281647,-0.9357864260673524,0.1972849369049072,-21.032623291015625,0.2878009378910064,83.96964263916016,36.37,0
-0.3467434644699096,-1.0539536476135254,0.2497571557760238,-19.28338623046875,0.2879793643951416,83.96977233886719,36.37,0
-0.3456710278987884,-1.129786491394043,0.2946263551712036,-18.85942840576172,0.2880938649177551,83.96985626220703,36.37,0
-0.3337872624397278,-1.1168761253356934,0.2954319417476654,-19.783937454223636,0.2881673574447632,83.96990966796875,36.37,0
-0.2533898651599884,-1.1757643222808838,0.2791556119918823,-20.43097305297852,0.2882145047187805,83.96994018554688,36.37,0
-0.1738065779209137,-1.241544246673584,0.2687104046344757,-18.63217163085937,0.2882447838783264,83.96996307373047,36.37,0
-0.1339301615953445,-1.2669646739959717,0.2564094960689544,-14.103017807006836,0.2882642149925232,83.96997833251953,36.37,0
-0.1307308673858642,-1.2384958267211914,0.2429177016019821,-8.964523315429688,0.2891948819160461,83.96998596191406,36.37,0
-0.4365553259849548,-1.2146284580230713,0.1558905988931656,-5.151042461395264,0.2897921502590179,83.9699935913086,36.37,0
-0.1066250726580619,-1.115345120429993,0.2903659343719482,-2.5425539016723637,0.2901754379272461,83.9699935913086,36.37,0
0.0491274297237396,-1.0124462842941284,0.3430778384208679,-0.1771390587091446,0.2904213964939117,83.9699935913086,36.37,0
0.0819071233272552,-0.963205099105835,0.3041342198848724,2.168423175811768,0.290579229593277,83.9699935913086,36.37,0
