acc_x,acc_y,acc_z,bvp,eda,hr,temp,label
0.0,0.0,0.0,0.0,0.0,0.0,34.99,0
-0.0338541641831398,-0.1562499850988388,0.0416666641831398,-10.673333168029783,0.8461027145385742,10.999999046325684,34.99,0
-0.0792682915925979,-0.3658536672592163,0.1017530485987663,-27.030244827270508,1.9811186790466309,25.7560977935791,34.99,0
-0.1187707632780075,-0.5481727719306946,0.1540178507566452,-39.89289093017578,2.9683871269226074,38.59136199951172,34.99,0
-0.1475899517536163,-0.6758462190628052,0.1974860578775406,-43.87889862060547,3.688652753829956,47.955379486083984,34.99,0
-0.1561223119497299,-0.7622864842414856,0.2324055880308151,-41.226654052734375,4.176302909851074,54.29521560668945,34.99,0
-0.1617207676172256,-0.8190037608146667,0.2386585921049118,-36.931095123291016,4.49627161026001,58.45505905151367,34.99,0
-0.1876639425754547,-0.872474730014801,0.2371290177106857,-32.56364822387695,4.703499794006348,61.14918518066406,34.99,0
-0.2099659889936447,-0.8957388997077942,0.2361437082290649,-26.898826599121094,4.861745357513428,62.88466644287109,34.99,0
-0.2131111621856689,-0.910691738128662,0.2355104088783264,-19.562654495239254,4.963456630706787,64.00013732910156,34.99,0
-0.22072733938694,-0.9314867854118348,0.2295072525739669,-11.02281093597412,5.028770923614502,64.71643829345703,34.99,0
-0.2200190126895904,-0.9336408376693726,0.2256537526845932,-1.0882647037506104,5.070696830749512,65.17623901367188,34.99,0
-0.2139668464660644,-0.9350233674049376,0.2175829708576202,10.700909614562988,5.097605228424072,65.47134399414062,34.99,0
-0.2100827395915985,-0.9471060037612916,0.2068056911230087,23.09967803955078,5.114874362945557,65.66073608398438,34.99,0
-0.2131878286600113,-0.938066840171814,0.2054870575666427,34.126888275146484,5.125957012176514,65.78227996826172,34.99,0
-0.2095827609300613,-0.9378637671470642,0.2046408355236053,41.73379135131836,5.133069038391113,65.86028289794922,34.99,0
-0.2072692215442657,-0.9321357011795044,0.2040977776050567,43.35533905029297,5.123861789703369,65.91033935546875,34.99,0
-0.2113822996616363,-0.9284597039222716,0.203749269247055,36.58594512939453,5.117953300476074,65.94245910644531,34.99,0
-0.2084240615367889,-0.931698441505432,0.2035256177186966,21.28263664245605,5.114161491394043,65.96307373046875,34.99,0
-0.2065256386995315,-0.9337769150733948,0.2033820897340774,1.1583659648895264,5.111728191375732,65.97630310058594,34.99,0
-0.2109051048755645,-0.9351107478141784,0.2032899856567382,-19.2509822845459,5.110166549682617,65.98479461669922,34.99,0
-0.213715597987175,-0.935966730117798,0.2032308727502823,-36.47923278808594,5.109164237976074,65.99024200439453,34.99,0
-0.2155192047357559,-0.936516046524048,0.2031929492950439,-51.35436248779297,5.108520984649658,65.99373626708984,34.99,0
-0.2166766673326492,-0.9368685483932496,0.2031686007976532,-64.49368286132812,5.108108043670654,65.99597930908203,34.99,0
-0.2230172306299209,-0.9258992075920104,0.2087507545948028,-72.44926452636719,5.141353607177734,65.99742126464844,34.99,0
-0.2214884608983993,-0.935653030872345,0.2123330533504486,-72.22740936279297,5.162688732147217,65.99834442138672,34.99,0
-0.2205073833465576,-0.9419124722480774,0.214631974697113,-67.61398315429688,5.176380157470703,65.99893951416016,34.99,0
-0.2254755645990371,-0.9403316974639891,0.2161072939634323,-68.36489868164062,5.185166835784912,65.99932098388672,34.99,0
-0.2286638617515564,-0.9337194561958312,0.2170540690422058,-81.33206939697266,5.190805435180664,65.99956512451172,34.99,0
-0.2251121401786804,-0.9350738525390624,0.2120638787746429,-109.4975357055664,5.194424152374268,65.99971771240234,34.99,0
-0.2228328585624694,-0.935943067073822,0.2088614553213119,-133.55540466308594,5.196746349334717,65.99981689453125,34.99,0
-0.2213701456785202,-0.93650084733963,0.2124041020870208,-121.63065338134766,5.198236465454102,65.99988555908203,34.99,0
-0.2204314619302749,-0.942456603050232,0.220275342464447,-78.98343658447266,5.243261337280273,65.99992370605469,34.99,0
-0.2198290675878524,-0.9406808614730836,0.225326657295227,-28.89421272277832,5.27215576171875,66.5982437133789,34.99,0
-0.2418335825204849,-0.9563345909118652,0.2117749750614166,16.598838806152344,5.290698528289795,66.98220825195312,34.99,0
-0.2335637211799621,-0.9439891576766968,0.2142738252878189,52.765357971191406,5.302598476409912,67.2286148071289,34.99,0
-0.2394521385431289,-0.9416643381118774,0.2102796733379364,75.06497192382812,5.310235023498535,67.3867416381836,34.99,0
-0.2376332134008407,-0.9345746636390686,0.2077164500951767,85.38459014892578,5.315135478973389,67.48822021484375,34.99,0
-0.2364659309387207,-0.9356226921081544,0.206071525812149,90.49886322021484,5.3182806968688965,67.5533447265625,34.99,0
-0.2301190644502639,-0.930697500705719,0.2050159126520156,95.3106689453125,5.320298671722412,67.59513854980469,34.99,0
-0.22604601085186,-0.9275367856025696,0.2043384760618209,97.8289794921875,5.37392520904541,67.62195587158203,34.99,0
-0.2234321534633636,-0.9255083799362184,0.2039037346839904,94.78773498535156,5.408339500427246,67.63916778564453,34.99,0
-0.2161569595336914,-0.9242066740989684,0.203624740242958,87.15766143798828,5.430424690246582,67.65021514892578,34.99,0
-0.2114881575107574,-0.9121757745742798,0.2090434730052948,77.57511138916016,5.4445977210998535,67.65730285644531,34.99,0
-0.2140897661447525,-0.904455065727234,0.2069231420755386,66.11978912353516,5.453693389892578,67.66184997558594,34.99,0
-0.2157593369483947,-0.89950031042099,0.2055624276399612,50.06634140014648,5.459530353546143,67.6647720336914,34.99,0
-0.2224285453557968,-0.9075162410736084,0.1990914195775985,28.410982131958008,5.463276386260986,67.66664123535156,34.99,0
-0.2211106717586517,-0.9350515007972716,0.2005364745855331,4.274819374084473,5.465680122375488,67.6678466796875,34.99,0
-0.2146671712398529,-0.941526472568512,0.2070616036653518,-16.817529678344727,5.514828681945801,67.66861724853516,34.99,0
-0.2105320990085601,-0.9400839805603028,0.2224446088075637,-33.07972717285156,5.546369552612305,67.66911315917969,34.99,0
-0.2078784555196762,-0.9223649501800536,0.2435120791196823,-45.76930618286133,5.566610813140869,67.66943359375,34.99,0
-0.2117732614278793,-0.9053961038589478,0.2570319771766662,-56.89703369140625,5.5796003341674805,67.66963958740234,34.99,0
-0.2254682779312133,-0.8889086842536926,0.2601104974746704,-68.06856536865234,5.587936401367188,67.66976928710938,34.99,0
-0.2398547232151031,-0.8895235657691956,0.2620861232280731,-77.37303161621094,5.59328556060791,67.66985321044922,34.99,0
-0.2546848952770233,-0.8899181485176086,0.263353943824768,-77.5797348022461,5.596718788146973,67.66990661621094,34.99,0
-0.2697998285293579,-0.8845736384391785,0.2697653472423553,-63.35342025756836,5.598921775817871,67.66993713378906,34.99,0
-0.2850974798202514,-0.8811438083648682,0.268282026052475,-39.868412017822266,5.6274189949035645,67.66996002197266,34.99,0
-0.3005124032497406,-0.8845404982566833,0.267330139875412,-18.223058700561523,5.645707130432129,67.66997528076172,34.99,0
-0.3104048371315002,-0.8867202997207642,0.266719251871109,-3.587141752243042,5.657443046569824,67.66998291015625,34.99,0
-0.3167532086372375,-0.9105103015899658,0.2663272321224212,6.102700710296631,5.664974689483643,67.66999053955078,34.99,0
-0.3264250159263611,-0.9761573076248168,0.2604778707027435,13.890252113342283,5.6698079109191895,67.66999053955078,34.99,0
-0.3326318264007568,-1.0518723726272583,0.2623218595981598,20.33879852294922,5.672909736633301,67.66999053955078,34.99,0
-0.319821685552597,-1.0668753385543823,0.274700790643692,25.01807403564453,5.674900054931641,67.66999053955078,34.99,0
-0.317198634147644,-1.093296766281128,0.2882426381111145,28.25741195678711,5.676177501678467,67.66999053955078,34.99,0
-0.3211130797863006,-1.08786141872406,0.280139684677124,30.189348220825195,5.679292678833008,67.66999053955078,34.99,0
-0.3180273771286011,-1.0619821548461914,0.2525486052036285,29.91730690002441,5.6812920570373535,67.66999053955078,34.99,0
-0.3160471618175506,-1.0341788530349731,0.2236466705799102,27.10594940185547,5.682575225830078,66.80300903320312,34.99,0
-0.3147763609886169,-1.0275317430496216,0.1771102100610733,22.589773178100582,5.683398246765137,66.24663543701172,34.99,0
-0.302765280008316,-1.023266077041626,0.1360502392053604,16.456483840942383,5.683926582336426,65.88957977294922,34.99,0
-0.2726661562919616,-1.0205285549163818,0.104102537035942,8.812527656555176,5.684265613555908,65.66044616699219,34.99,0
-0.2645458281040191,-0.9907829761505128,0.0612092427909374,2.839468717575073,5.684483051300049,65.51339721679688,34.99,0
-0.2481391280889511,-0.9604983925819396,0.0448783412575721,2.6032090187072754,5.684622764587402,65.41903686523438,34.99,0
-0.237610250711441,-0.9242701530456544,0.0343981087207794,6.564388275146484,5.675990581512451,65.35847473144531,34.99,0
-0.2252556532621383,-0.9010209441184998,0.0276725012809038,7.848960876464844,5.6704511642456055,65.31961059570312,34.99,0
-0.2117294073104858,-0.8749054074287415,0.0345519408583641,2.8588054180145264,5.666896343231201,65.29467010498047,34.99,0
-0.2086468189954757,-0.8357548713684082,0.0669556409120559,-5.119162082672119,5.664614677429199,65.2786636352539,34.99,0
-0.2178641408681869,-0.7994347810745239,0.1045437976717948,-11.82962703704834,5.663150787353516,65.26839447021484,34.99,0
-0.2461703717708587,-0.7593333125114441,0.1230679377913475,-16.57667350769043,5.662211418151856,65.26180267333984,34.99,0
-0.2755312323570251,-0.7447940111160278,0.1405534297227859,-20.00638961791992,5.6616082191467285,65.25757598876953,34.99,0
-0.3111666738986969,-0.7466591000556946,0.162970170378685,-21.820466995239254,5.661221504211426,65.2548599243164,34.99,0
-0.3620243072509765,-0.7982359528541565,0.1829537153244018,-22.282451629638672,5.639856815338135,65.25312042236328,35.03,0
-0.4058573544025421,-0.8537261486053467,0.2013757824897766,-22.20992088317871,5.62614631652832,65.25199890136719,35.03,0
-0.4339869022369385,-0.9341187477111816,0.2243935465812683,-21.676145553588867,5.617347717285156,65.25128173828125,35.03,0
-0.4464410543441772,-1.0304923057556152,0.2335672527551651,-20.43078994750977,5.611701488494873,65.25082397460938,35.03,0
-0.454433411359787,-1.1203281879425049,0.2282588630914688,-18.861337661743164,5.608078002929688,65.25052642822266,35.03,0
-0.4483668804168701,-1.0604263544082642,0.2080589234828949,-17.503061294555664,5.605752468109131,65.25033569335938,35.03,0
-0.4444737434387207,-1.0275826454162598,0.172704666852951,-16.154916763305664,5.604259967803955,65.25021362304688,35.03,0
-0.4251820147037506,-1.023298740386963,0.1444185674190521,-14.232894897460938,5.603302478790283,65.25013732910156,35.03,0
-0.3792150616645813,-1.0093539953231812,0.1262661665678024,-11.849445343017578,5.576062679290772,65.25009155273438,35.03,0
-0.3161294758319855,-0.989209532737732,0.1258125454187393,-10.036860466003418,5.558581829071045,65.25006103515625,35.03,0
-0.2812425494194031,-0.9147064685821532,0.1143258959054946,-9.625988960266112,5.547363758087158,65.25003814697266,35.03,0
-0.2588541209697723,-0.8501013517379761,0.0901611000299453,-10.250794410705566,5.540164470672607,65.2500228881836,35.03,0
-0.272475391626358,-0.780652642250061,0.0802512988448143,-10.777148246765137,5.535544395446777,65.25001525878906,35.03,0
-0.2924122810363769,-0.7304866909980774,0.085087314248085,-10.903559684753418,5.53257942199707,65.25000762939453,35.03,0
-0.3331955075263977,-0.7094886302947998,0.1273752003908157,-11.873162269592283,5.53067684173584,65.25000762939453,35.03,0
-0.3985522389411926,-0.7351976633071899,0.1936975568532943,-14.77391529083252,5.52945613861084,65.25000762939453,35.03,0
-0.4237011075019836,-0.7684895992279053,0.2530527412891388,-18.5413818359375,5.500670909881592,65.25000762939453,35.03,0
-0.4230468869209289,-0.8178433179855347,0.2911435067653656,-20.586538314819336,5.482198238372803,65.25000762939453,35.03,0
-0.4282248318195343,-0.8775045275688171,0.304392397403717,-19.36970329284668,5.470343589782715,65.25000762939453,35.03,0
-0.4315477311611175,-0.9885627627372742,0.346481442451477,-15.6690092086792,5.462735652923584,65.66200256347656,35.03,0
-0.4280824065208435,-1.054235816001892,0.3958828449249267,-11.671210289001465,5.457853317260742,65.92639923095703,35.03,0
-0.4314563274383545,-1.1355654001235962,0.4387813806533813,-9.241790771484377,5.454720497131348,66.0960693359375,35.03,0
-0.4392192959785461,-1.1765624284744265,0.4103334546089172,-8.64285945892334,5.452709674835205,66.2049560546875,35.03,0
-0.4274078011512756,-1.1412965059280396,0.3528927862644195,-8.512862205505371,5.451419353485107,66.27483367919922,35.03,0
-0.4030345380306244,-1.1186648607254028,0.2656506896018982,-7.268682956695557,5.443246841430664,66.3196792602539,35.03,0
-0.3985887169837951,-1.1209344863891602,0.1928704231977462,-4.2490434646606445,5.438002109527588,66.34845733642578,35.03,0
-0.3901378810405731,-1.1447820663452148,0.1461642384529113,0.6551597118377686,5.434636116027832,66.3669204711914,35.03,0
-0.3455302119255066,-1.059326171875,0.1105931177735328,7.152103900909424,5.432476043701172,66.37876892089844,35.03,0
-0.3057080209255218,-0.982094407081604,0.082167848944664,13.50683879852295,5.431089878082275,66.3863754272461,35.03,0
-0.2913479804992676,-0.9157381653785706,0.0527305975556373,17.126373291015625,5.430200576782227,66.3912582397461,35.03,0
-0.3157191872596741,-0.8787522912025452,0.0058505930937826,17.32471466064453,5.429629802703857,66.39439392089844,35.03,0
-0.3369569778442383,-0.8662124276161194,-0.0298320725560188,15.847003936767578,5.429263591766357,66.39640045166016,35.03,0
-0.3225972950458526,-0.869360625743866,-0.0527311526238918,13.999467849731444,5.406076431274414,66.39768981933594,35.03,0
-0.2965887784957886,-0.8825765252113342,-0.0562309175729751,11.223162651062012,5.391196250915527,66.39852142333984,35.03,0
-0.2631046772003174,-0.9078510403633118,-0.052879087626934,6.973094940185547,5.381646633148193,66.39905548095703,35.03,0
-0.2304209619760513,-0.912875235080719,-0.0451303049921989,2.085352897644043,5.375518321990967,66.3993911743164,35.03,0
-0.2150442004203796,-0.916099488735199,-0.0401575826108455,-2.5094265937805176,5.371585845947266,66.39961242675781,35.03,0
-0.2107740640640258,-0.968548595905304,-0.0369663722813129,-7.009346961975098,5.3690619468688965,66.39974975585938,35.03,0
-0.1968381851911544,-1.024598479270935,-0.0237228907644748,-12.139829635620115,5.3674421310424805,66.39984130859375,35.03,0
-0.2102860361337661,-0.9989925622940063,0.0407537557184696,-18.022480010986328,5.366402626037598,66.39990234375,35.03,0
-0.2133183181285858,-0.926582396030426,0.1549022197723388,-23.17691802978516,5.344160556793213,66.39994049072266,35.03,0
-0.232057586312294,-0.9360914826393129,0.2393516898155212,-24.57880973815918,5.329886436462402,66.39996337890625,35.03,0
-0.2160944938659668,-1.0373560190200806,0.2543620765209198,-20.55600357055664,5.32072639465332,66.39997863769531,35.03,0
-0.1610681116580963,-1.1023417711257937,0.2416037768125534,-13.603655815124512,5.314847946166992,66.39998626708984,35.03,0
-0.0753753706812858,-1.0712748765945437,0.2558073401451111,-7.941876888275146,5.311075687408447,66.39999389648438,35.03,0
-0.0875559970736503,-1.00095796585083,0.2481290400028228,-4.706138610839844,5.30865478515625,66.39999389648438,35.03,0
-0.1289594620466232,-0.9558326005935668,0.2264082282781601,-2.185388803482056,5.307101249694824,66.39999389648438,35.03,0
-0.1947142481803894,-0.9436670541763306,0.2180668413639068,0.3637530505657196,5.3061041831970215,66.39999389648438,35.03,0
-0.2369118779897689,-0.9302620887756348,0.2239093631505966,2.211017608642578,5.306841373443604,66.39999389648438,35.03,0
-0.2527963519096374,-0.9272573590278624,0.2276587635278701,3.6078574657440186,5.307314395904541,66.39999389648438,35.03,0
-0.2629900872707367,-0.9197313189506532,0.2188693583011627,6.03402853012085,5.307618141174316,66.39999389648438,35.03,0
-0.2695318460464477,-0.9093037843704224,0.2020332813262939,10.320928573608398,5.3078131675720215,66.39999389648438,35.03,0
-0.2793277502059936,-0.9306008219718932,0.1800332963466644,16.324993133544922,5.307938098907471,67.21324157714844,35.03,0
-0.2856141924858093,-0.9554635882377625,0.1715127527713775,23.98275184631348,5.308018207550049,67.73513793945312,35.03,0
-0.2840506732463836,-0.9938101768493652,0.1604469865560531,33.02418899536133,5.308069705963135,68.07006072998047,35.03,0
-0.2942428588867187,-1.0520055294036863,0.1421500593423843,41.96479797363281,5.308103084564209,68.28499603271484,35.03,0
-0.3119791746139526,-1.128536343574524,0.1472014635801315,48.85237121582031,5.301238536834717,68.42292785644531,35.03,0
-0.3457524180412292,-1.07129168510437,0.1448453962802887,52.92849349975586,5.296833038330078,68.51144409179688,35.03,0
-0.3506328165531158,-0.989773154258728,0.1097467616200447,54.39430618286133,5.294005870819092,68.56824493408203,35.03,0
-0.3481670022010803,-1.0158281326293943,0.070429153740406,52.77702331542969,5.292191505432129,68.60469818115234,35.03,0
-0.3129979372024536,-1.0717331171035769,0.0451973751187324,47.06029891967773,5.291027069091797,68.62808990478516,35.03,0
-0.2792328894138336,-1.0852185487747192,0.0234072990715503,37.27617645263672,5.290279865264893,68.64310455322266,35.03,0
-0.251966655254364,-1.0434927940368652,0.0094236824661493,24.48775291442871,5.289800643920898,68.65274047851562,35.03,0
-0.2512620985507965,-0.9999222755432128,-0.010745745152235,10.140342712402344,5.289493083953857,68.65892028808594,35.03,0
-0.2676032781600952,-0.971961259841919,-0.0292870979756116,-3.2371177673339844,5.283328056335449,68.66288757324219,35.0,0
-0.2668945491313934,-0.9596152305603028,-0.0467836447060108,-12.61733341217041,5.279371738433838,68.66543579101562,35.0,0
-0.2776352763175964,-0.951692283153534,-0.0692074745893478,-17.135915756225586,5.2768330574035645,68.66706848144531,35.0,0
-0.2565391659736633,-0.946607768535614,-0.0780000165104866,-18.52741813659668,5.275203704833984,68.66812133789062,35.0,0
-0.2430009096860885,-0.9601381421089172,-0.0668492466211319,-18.571332931518555,5.274158000946045,68.66879272460938,35.0,0
-0.245508387684822,-0.9856144785881042,-0.0428999997675418,-17.771940231323242,5.273487091064453,68.66922760009766,35.0,0
-0.2415197640657425,-1.0187571048736572,-0.0219329763203859,-16.31671905517578,5.273056507110596,68.66950225830078,35.0,0
-0.2389601022005081,-1.0680149793624878,0.0027180009055882,-14.859786033630373,5.272779941558838,68.669677734375,35.0,0
-0.2205241322517395,-1.15000581741333,0.046526450663805,-14.469362258911133,5.260667324066162,68.66979217529297,35.0,0
-0.2086929827928543,-1.1746339797973633,0.0858357399702072,-16.0853328704834,5.252893924713135,68.66986846923828,35.0,0
-0.1787093430757522,-1.0896788835525513,0.1558443754911422,-19.379392623901367,5.247905731201172,68.66991424560547,35.0,0
-0.1930542141199112,-1.0519529581069946,0.2063696682453155,-21.96623039245605,5.244704246520996,68.6699447631836,35.0,0
-0.2022599279880523,-1.0333404541015625,0.2387938946485519,-20.67427062988281,5.242650032043457,68.66996765136719,35.0,0
-0.1577876508235931,-0.9878093600273132,0.2540041208267212,-14.542953491210938,5.241331577301025,68.66997528076172,35.0,0
-0.1180523559451103,-0.9473945498466492,0.2749607264995575,-6.155086040496826,5.240485668182373,68.66998291015625,35.0,0
-0.13733471930027,-0.8822742104530334,0.2772139012813568,1.0333828926086426,5.23994255065918,68.66999053955078,35.0,0
-0.1832956820726394,-0.8516793251037598,0.2394754439592361,6.577998161315918,5.232249736785889,68.66999053955078,35.0,0
-0.218388557434082,-0.837643027305603,0.2152570784091949,12.622520446777344,5.2273125648498535,68.66999053955078,35.0,0
-0.240909144282341,-0.8454286456108093,0.2109106630086898,19.22788619995117,5.224144458770752,68.66999053955078,35.0,0
-0.2553615570068359,-0.856022834777832,0.2081213891506195,23.02259063720703,5.222111225128174,68.66999053955078,35.0,0
-0.2702340483665466,-0.8852126598358154,0.2063314020633697,21.77134323120117,5.22080659866333,68.66999053955078,35.0,0
-0.2797783613204956,-0.9095427989959716,0.2051826864480972,17.066940307617188,5.219969272613525,69.25037384033203,35.0,0
-0.2859033644199371,-0.9195587038993835,0.2044455111026764,11.522209167480469,5.219431877136231,69.6228256225586,35.0,0
-0.278638482093811,-0.903595209121704,0.2207657545804977,7.061110973358154,5.21908712387085,69.86184692382812,35.0,0
-0.2739762961864471,-0.8933507800102234,0.2256413698196411,5.950114727020264,5.2165703773498535,70.0152359008789,35.0,0
-0.287777692079544,-0.9371564388275146,0.2287702560424804,9.188721656799316,5.21495532989502,70.1136703491211,35.0,0
-0.2966346442699432,-0.9596706032752992,0.2419737428426742,14.24419403076172,5.213918685913086,70.17684173583984,35.0,0
-0.3135140836238861,-1.0356944799423218,0.2504469752311706,17.649721145629883,5.213253498077393,70.2173843383789,35.0,0
-0.3467374145984649,-1.1572532653808594,0.2390912920236587,18.867897033691406,5.212826728820801,70.24340057373047,35.0,0
-0.3008849620819092,-1.0617316961288452,0.1982172280550003,19.474105834960938,5.212552547454834,70.26009368896484,35.0,0
-0.2490683943033218,-0.9892358779907228,0.1607910543680191,20.049428939819336,5.212376594543457,70.27080535888672,35.0,0
-0.2382065951824188,-1.0042877197265625,0.1143819913268089,19.62330818176269,5.212264060974121,70.27767944335938,35.0,0
-0.2424316704273224,-1.0195449590682983,0.0845993235707283,17.504819869995117,5.212191581726074,70.28209686279297,35.0,0
-0.2227519899606704,-1.006945013999939,0.0598887503147125,14.805414199829102,5.2121453285217285,70.28492736816406,35.0,0
-0.2101227045059204,-0.9820657968521118,0.0384331531822681,13.775275230407717,5.212115287780762,70.2867431640625,35.0,0
-0.2244090437889099,-0.938110888004303,0.0302619598805904,15.324640274047852,5.212096214294434,70.28791046142578,35.0,0
-0.255968302488327,-0.9099031686782836,0.0082248346880078,17.46894073486328,5.21208381652832,70.28865814208984,35.0,0
-0.2874167561531067,-0.9029965996742249,-0.0227106474339962,16.989253997802734,5.212076187133789,70.28913879394531,35.0,0
-0.257218599319458,-0.9097599387168884,-0.0313677079975605,12.63669204711914,5.212070941925049,70.28944396972656,35.0,0
-0.2322413772344589,-0.93089359998703,-0.0257277637720108,6.260892391204834,5.212067604064941,70.28964233398438,35.0,0
-0.2274079918861389,-0.938858151435852,-0.005315049085766,0.7792321443557739,5.208852291107178,70.2897720336914,35.0,0
-0.2243061959743499,-0.9439693689346312,0.0189802050590515,-2.8962152004241943,5.206789016723633,70.28985595703125,35.0,0
-0.2223156541585922,-0.9528472423553468,0.0457670502364635,-6.777500152587891,5.205464839935303,70.28990936279297,35.0,0
-0.2042449116706848,-0.9921311736106871,0.0909461751580238,-13.37033462524414,5.204615116119385,70.2899398803711,35.0,0
-0.1870503723621368,-1.050927996635437,0.1255373060703277,-22.319488525390625,5.2040696144104,70.28996276855469,35.0,0
-0.1704181283712387,-1.1054537296295166,0.1589314639568328,-29.581552505493164,5.203719615936279,70.28997802734375,35.0,0
-0.1485489606857299,-1.0956629514694214,0.2027530074119568,-30.19719886779785,5.203495025634766,70.28998565673828,35.0,0
-0.1569056957960128,-1.0334020853042605,0.2420707046985626,-22.84317398071289,5.203351020812988,70.28999328613281,35.0,0
-0.1790618896484375,-0.9430667161941528,0.2617047727108001,-11.45661163330078,5.21014404296875,70.28999328613281,35.0,0
-0.1932804584503173,-0.9074857234954834,0.2631092369556427,-1.0289480686187744,5.214503288269043,70.28999328613281,35.0,0
-0.1688184738159179,-0.9182385802268982,0.2528149783611297,7.665585994720459,5.217300891876221,70.28999328613281,35.0,0
-0.1531201750040054,-0.9419324398040771,0.2294153869152069,17.14666175842285,5.219096183776856,70.28999328613281,35.0,0
-0.1598392277956009,-0.940344512462616,0.2143988758325576,27.834680557250977,5.220248222351074,70.28999328613281,35.0,0
-0.1921400129795074,-0.9113366007804872,0.1879688203334808,36.73570251464844,5.220987796783447,70.28999328613281,35.0,0
-0.2240643352270126,-0.8759276270866394,0.1654097586870193,41.5737190246582,5.221462249755859,70.68049621582031,35.0,0
-0.2445515394210815,-0.8532041907310486,0.1509326547384262,43.120059967041016,5.221766471862793,70.93109893798828,35.0,0
-0.25769904255867,-0.8442193865776062,0.1528376340866089,43.0125617980957,5.224257469177246,71.0919189453125,35.0,0
-0.2549408078193664,-0.8440512418746948,0.1652556955814361,42.033599853515625,5.225855827331543,71.19512176513672,35.0,0
-0.2531707286834717,-0.8439432978630066,0.1900182068347931,40.92529296875,5.226881504058838,71.2613525390625,35.0,0
-0.2520347833633423,-0.8550695776939392,0.22270268201828,40.3645133972168,5.227540016174316,71.3038558959961,35.0,0
-0.2457080334424972,-0.87900310754776,0.2436777055263519,39.488746643066406,5.227962493896484,71.33113098144531,35.0,0
-0.2248545587062835,-0.9559378027915956,0.2515404820442199,35.996185302734375,5.228233814239502,71.34864044189453,35.0,0
-0.2058742344379425,-1.0332989692687988,0.2565863728523254,28.72134017944336,5.228407859802246,71.35987091064453,35.0,0
-0.2048892974853515,-1.1333248615264893,0.2598245441913605,19.75725555419922,5.228519439697266,71.36708068847656,35.0,0
-0.2378438711166381,-1.2199068069458008,0.2786959111690521,12.714895248413086,5.223082542419434,71.37171173095703,35.05,0
-0.2589922249317169,-1.230687975883484,0.2796109318733215,9.069662094116213,5.219593524932861,71.37467956542969,35.05,0
-0.2277818173170089,-1.136846661567688,0.2466114908456802,7.450459003448486,5.21735429763794,71.3765869140625,35.05,0
-0.2077527791261673,-1.115809202194214,0.2086410224437713,5.433304786682129,5.215917110443115,71.3778076171875,35.05,0
-0.1837037503719329,-1.169481873512268,0.1786759942770004,1.1222825050354004,5.21499490737915,71.37859344482422,35.05,0
-0.1402815878391266,-1.1647413969039917,0.1594461649656295,-4.940253257751465,5.21440315246582,71.37909698486328,35.05,0
-0.1124157458543777,-1.1113193035125732,0.1583011150360107,-9.024298667907717,5.214023590087891,71.3794174194336,35.05,0
-0.1001308262348175,-1.0154606103897097,0.1687618345022201,-7.930072784423828,5.213779926300049,71.37962341308594,35.05,0
-0.1034426242113113,-0.9371506571769714,0.1642793715000152,-3.0147528648376465,5.209491729736328,71.3797607421875,35.05,0
-0.099970169365406,-0.847711443901062,0.1390116959810257,1.6765415668487549,5.206739902496338,71.37984466552734,35.05,0
-0.080948419868946,-0.7847167253494263,0.1283941268920898,4.070940971374512,5.204974174499512,71.37989807128906,35.05,0
-0.0687413588166236,-0.7498881220817566,0.1215803772211074,4.887431144714356,5.203840732574463,71.37993621826172,35.05,0
-0.0721031203866005,-0.7555260062217712,0.1228054836392402,5.178540229797363,5.203113555908203,71.37995910644531,35.05,0
-0.0798582807183265,-0.764741837978363,0.1123961359262466,5.068003177642822,5.202646732330322,71.37997436523438,35.05,0
-0.0904328674077987,-0.7986449003219604,0.0945204645395279,4.420272350311279,5.202347278594971,71.3799819946289,35.05,0
-0.1084145754575729,-0.8427929878234863,0.0830488875508308,3.2235944271087646,5.202155113220215,71.37998962402344,35.05,0
-0.1703341752290725,-0.9103091359138488,0.0868826434016227,1.244724988937378,5.195146083831787,71.37998962402344,35.05,0
-0.2324617058038711,-1.0320059061050415,0.0837451517581939,-1.1071373224258425,5.190648078918457,71.37998962402344,35.05,0
-0.3059182167053222,-1.1716794967651367,0.042547270655632,-1.4807507991790771,5.1877617835998535,71.37998962402344,35.05,0
-0.4090361297130584,-1.1773473024368286,0.0049132914282381,2.8866779804229736,5.185909271240234,71.37998962402344,35.05,0
-0.4472224116325378,-1.1138112545013428,-0.0024447066243737,11.672343254089355,5.184720516204834,71.37998962402344,35.05,0
-0.4381414949893951,-1.0898308753967283,0.0152244511991739,20.97187042236328,5.183957576751709,71.37998962402344,35.05,0
-0.3987272679805755,-1.0576483011245728,0.0209657251834869,26.588680267333984,5.183467864990234,71.37998962402344,35.05,0
-0.3566401600837707,-1.0257998704910278,0.0190523695200681,27.079965591430664,5.1831536293029785,71.802734375,35.05,0
-0.346424400806427,-0.971774697303772,0.0066289389505982,24.23541259765625,5.1751484870910645,72.07402801513672,35.05,0
-0.345466285943985,-0.9147133231163024,0.0098518459126353,21.21694564819336,5.170011043548584,72.24813079833984,35.05,0
-0.344851404428482,-0.8668990731239319,0.0231156703084707,19.369430541992188,5.166714191436768,72.35985565185547,35.05,0
-0.3388590514659881,-0.825019121170044,0.0484209507703781,16.815258026123047,5.16459846496582,72.43155670166016,35.05,0
-0.3406112790107727,-0.8037407398223877,0.0702582001686096,10.930785179138184,5.163240909576416,72.47756958007812,35.05,0
-0.3585290610790252,-0.8180743455886841,0.1066631898283958,2.0492990016937256,5.162369728088379,72.5071029663086,35.05,0
-0.3700276613235473,-0.8496639132499695,0.1524169147014618,-5.656569957733154,5.161810398101807,72.52605438232422,35.05,0
-0.3718090355396271,-0.8811318278312683,0.1817790120840072,-7.252044677734375,5.161451816558838,72.53821563720703,35.05,0
-0.3673544526100158,-0.9293150305747986,0.1950241476297378,-1.848788142204285,5.152958869934082,72.5460205078125,35.05,0
-0.3700935244560241,-0.9714317917823792,0.203524112701416,5.577456474304199,5.147508144378662,72.551025390625,35.05,0
-0.3998401761054992,-1.0264487266540527,0.1921855807304382,8.322620391845703,5.144010543823242,72.55423736572266,35.05,0
-0.4133321046829223,-1.0505598783493042,0.2017024904489517,4.28053617477417,5.141765594482422,72.5562973022461,35.05,0
-0.4163926541805267,-1.0884242057800293,0.2078098952770233,-2.3402554988861084,5.14032506942749,72.55762481689453,35.05,0
-0.4127589762210846,-1.1295166015625,0.2341203689575195,-5.643298625946045,5.139400482177734,72.5584716796875,35.05,0
-0.4048293232917785,-1.0831162929534912,0.239809364080429,-3.503319263458252,5.13880729675293,72.55902099609375,35.05,0
-0.3549583256244659,-1.042143702507019,0.2266669124364853,1.5922926664352417,5.138426780700684,72.55937194824219,35.05,0
-0.2781717777252197,-1.111011981964111,0.2070372998714447,5.779501914978027,5.137264251708984,72.5595932006836,35.05,0
-0.1841124147176742,-1.1608054637908936,0.1832445859909057,7.352431297302246,5.1365180015563965,72.55973815917969,35.05,0
-0.1293482929468155,-1.1031956672668457,0.1679757982492447,7.8137125968933105,5.1360392570495605,72.55982971191406,35.05,0
-0.1221927106380462,-1.038236141204834,0.1637749373912811,9.349308013916016,5.135732173919678,72.55989074707031,35.05,0
-0.1567850857973098,-0.9573644399642944,0.1554812937974929,11.649569511413574,5.13553524017334,72.55992889404297,35.05,0
-0.1789844781160354,-0.894270122051239,0.138963371515274,13.018267631530762,5.135408878326416,72.55995178222656,35.05,0
-0.1652419120073318,-0.8537797927856445,0.1115697920322418,13.66016960144043,5.135327339172363,72.55996704101562,35.05,0
-0.150824949145317,-0.8501865267753601,0.0939901694655418,14.953418731689451,5.135275363922119,72.55997467041016,35.05,0
-0.141572967171669,-0.8534783720970154,0.0883063524961471,16.030548095703125,5.133405685424805,72.55998229980469,35.05,0
-0.1468311250209808,-0.8555908799171448,0.0846588090062141,14.138751983642578,5.132205963134766,72.55998992919922,35.05,0
-0.1558032780885696,-0.8513488173484802,0.087915800511837,8.152715682983398,5.131435871124268,72.55998992919922,35.05,0
-0.1951477378606796,-0.843028724193573,0.0956037193536758,-0.9945724606513976,5.130941867828369,72.55998992919922,35.05,0
-0.2595811784267425,-0.8544826507568359,0.1005373820662498,-12.668549537658691,5.130624771118164,72.55998992919922,35.05,0
-0.3121263980865478,-0.8674309253692627,0.1093012988567352,-25.96759033203125,5.130421161651611,72.55998992919922,35.05,0
-0.3626402020454407,-0.9149248003959656,0.1205232515931129,-37.03144836425781,5.130290508270264,72.55998992919922,35.05,0
-0.3950570523738861,-0.9733924865722656,0.1333226263523101,-40.48811340332031,5.13020658493042,72.55998992919922,35.05,0
-0.4046647846698761,-1.0668914318084717,0.1247432082891464,-34.670684814453125,5.126021385192871,72.86093139648438,35.05,0
-0.4220260083675384,-1.0933070182800293,0.1360307484865188,-23.564455032348636,5.123335838317871,73.0540542602539,35.05,0
-0.4499607682228088,-1.0542813539505005,0.1096878051757812,-12.95843505859375,5.121612548828125,73.17799377441406,35.05,0
-0.4231055080890655,-1.034834623336792,0.0871846452355384,-5.424839496612549,5.120506286621094,73.25753021240234,35.05,0
-0.3778824806213379,-1.0223548412322998,0.0671456381678581,0.6027861833572388,5.119796276092529,73.3085708618164,35.05,0
-0.332067608833313,-1.0087482929229736,0.0542857535183429,7.268960475921631,5.119340896606445,73.34132385253906,35.05,0
-0.3082640469074249,-0.955234169960022,0.0684241205453872,14.513300895690918,5.119048595428467,73.36234283447266,35.05,0
-0.2873905003070831,-0.8873052597045898,0.0774973109364509,21.36558532714844,5.118861198425293,73.3758316040039,35.05,0
-0.2795928418636322,-0.8269190788269043,0.0721244141459465,27.744150161743164,5.1169047355651855,73.38449096679688,35.05,0
-0.2801865339279175,-0.7937644720077515,0.0854697152972221,33.5321044921875,5.115649223327637,73.39004516601562,35.05,0
-0.2861652970314026,-0.7780855298042297,0.0996317416429519,37.73012924194336,5.114843368530273,73.39361572265625,35.05,0
-0.3179909884929657,-0.7848169803619385,0.136708989739418,40.08741760253906,5.114326477050781,73.39590454101562,35.05,0
-0.3496104478836059,-0.7947346568107605,0.166100800037384,42.391937255859375,5.113994598388672,73.39736938476562,35.05,0
-0.3922930955886841,-0.8346858620643616,0.1961583197116851,46.65092468261719,5.113781452178955,73.3983154296875,35.05,0
-0.4084888100624084,-0.8603242635726929,0.2154475152492523,52.66931915283203,5.113644599914551,73.39891815185547,35.05,0
-0.4132845103740692,-0.8879730701446533,0.2278262078762054,58.84234237670898,5.113556861877441,73.39930725097656,35.05,0
-0.4275576770305633,-0.9113142490386964,0.2357701361179351,64.98920440673828,5.1043195724487305,73.3995590209961,35.05,0
-0.4311195909976959,-0.9318910241127014,0.2352703213691711,71.99342346191406,5.098391532897949,73.39971923828125,35.05,0
-0.4278076589107513,-0.9339004755020142,0.2405473440885543,78.46949005126953,5.094587326049805,73.39981842041016,35.05,0
-0.4256822466850281,-0.9519833326339722,0.2551293671131134,79.82388305664062,5.092145919799805,73.39988708496094,35.05,0
-0.4411115944385528,-0.9859789609909058,0.2756828367710113,69.88442993164062,5.090579032897949,73.3999252319336,35.05,0
-0.4845999181270599,-1.0021976232528689,0.3168617486953735,43.29654693603516,5.089573860168457,73.39995574951172,35.05,0
-0.4901171028614044,-0.9734214544296264,0.3376902043819427,1.3458224534988403,5.088928699493408,73.39997100830078,35.05,0
-0.4656688570976257,-0.971747875213623,0.3286656141281128,-43.8325424194336,5.088514804840088,73.39997863769531,35.05,0
-0.4107949435710907,-1.0266516208648682,0.2948852777481079,-77.38245391845703,5.091462135314941,73.39998626708984,35.05,0
-0.3755800426006317,-1.0562878847122192,0.2508159279823303,-94.51703643798828,5.093353748321533,73.39999389648438,35.05,0
-0.341785579919815,-1.0081334114074707,0.2169369757175445,-100.2251434326172,5.094567775726318,73.39999389648438,35.05,0
-0.314500480890274,-0.949241816997528,0.1895976364612579,-99.86504364013672,5.095346927642822,73.39999389648438,35.05,0
-0.3025882542133331,-0.91144859790802,0.1608572751283645,-96.20184326171876,5.095846652984619,73.39999389648438,35.05,0
-0.2893458902835846,-0.8815972805023193,0.1368155926465988,-91.66205596923828,5.09616756439209,73.39999389648438,35.05,0
-0.2696521580219269,-0.8568426370620728,0.1325825601816177,-87.41238403320312,5.096373558044434,73.39999389648438,35.05,0
-0.2514160871505737,-0.8409565687179565,0.1522571444511413,-81.97676086425781,5.096505641937256,73.39999389648438,35.05,0
-0.2285176664590835,-0.8251640200614929,0.1816764920949936,-73.97086334228516,5.084196090698242,73.39999389648438,35.05,0
-0.1970294564962387,-0.8038337230682373,0.2173494547605514,-64.6666030883789,5.076296329498291,73.6471939086914,35.05,0
-0.1824199110269546,-0.7845473885536194,0.2402423024177551,-55.88334655761719,5.071227073669434,73.80583190917969,35.05,0
-0.2234243154525756,-0.7945616245269775,0.254933625459671,-47.25172424316406,5.067973613739014,73.90763854980469,35.05,0
-0.294520765542984,-0.8233792781829834,0.2699594497680664,-37.65696716308594,5.0658860206604,73.97296905517578,35.05,0
-0.3569397032260895,-0.8586661219596863,0.2684065997600555,-27.533695220947266,5.06454610824585,74.014892578125,35.05,0
-0.4193876981735229,-0.9372889399528505,0.2506167590618133,-17.89882469177246,5.063686370849609,74.04180145263672,35.05,0
-0.4762565493583679,-1.0213311910629272,0.2168091535568237,-9.20791721343994,5.063134670257568,74.05906677246094,35.05,0
-0.5127516984939575,-1.0752646923065186,0.2063089311122894,-2.3122053146362305,5.060944557189941,74.07014465332031,35.05,0
-0.5025855302810669,-0.99232280254364,0.2051682621240615,1.7619733810424805,5.059538841247559,74.07725524902344,35.05,0
-0.4848659336566925,-0.905508816242218,0.1820451468229293,3.5883800983428955,5.058636665344238,74.08181762695312,35.05,0
-0.4790922701358795,-0.8945788145065308,0.1504127383232116,4.850027084350586,5.05805778503418,74.08474731445312,35.05,0
-0.4138115644454956,-0.8931623101234436,0.1413084268569946,6.028685092926025,5.05768632888794,74.08662414550781,35.05,0
-0.355124831199646,-0.9034488201141356,0.1298680305480957,6.26918888092041,5.057447910308838,74.08782958984375,35.05,0
-0.3342563807964325,-0.8764634728431702,0.1225262507796287,5.237697601318359,5.057294845581055,74.08860778808594,35.05,0
-0.3264620006084442,-0.8423525094985962,0.1178147122263908,3.748170852661133,5.057196617126465,74.08910369873047,35.05,0
-0.3270577788352966,-0.7924731969833374,0.1203888952732086,2.9534943103790283,5.05300235748291,74.08942413330078,35.05,0
-0.3442334532737732,-0.760463535785675,0.1444319486618042,3.855051517486572,5.0503106117248535,74.08963012695312,35.05,0
-0.3664513528347015,-0.7511171102523804,0.1766547262668609,6.862605571746826,5.048583030700684,74.08975982666016,35.05,0
-0.3975028395652771,-0.76191246509552,0.2309200912714004,10.927894592285156,5.047474384307861,74.08984375,35.05,0
-0.4286254346370697,-0.7800358533859253,0.2713422477245331,13.898603439331056,5.046762943267822,74.08989715576172,35.05,0
-0.4765869975090027,-0.814057469367981,0.3084784150123596,14.38991641998291,5.046306610107422,74.08993530273438,35.05,0
-0.5409526228904724,-0.8918683528900146,0.3267124891281128,12.827942848205566,5.046013832092285,74.08995819091797,35.05,0
-0.5878565311431885,-0.9585962295532228,0.3440118432044983,10.59315299987793,5.045825958251953,74.08997344970703,35.05,0
-0.6123589873313904,-1.03500497341156,0.3551135957241058,8.668180465698242,5.042491912841797,74.08998107910156,35.05,0
-0.6392788290977478,-1.0952352285385132,0.3678358197212219,7.328948974609375,5.04035234451294,74.0899887084961,35.05,0
-0.6621522307395935,-1.128289818763733,0.359206885099411,6.813434600830078,5.038979530334473,74.0899887084961,35.05,0
-0.5816688537597656,-1.048742413520813,0.3088871538639068,7.317347526550293,5.038098335266113,74.0899887084961,35.05,0
-0.5132259726524353,-1.0032912492752075,0.2598015069961548,8.120795249938965,5.037532806396484,74.0899887084961,35.05,0
-0.474901020526886,-1.0133076906204224,0.2003123015165329,8.1025972366333,5.037169933319092,74.0899887084961,35.05,0
-0.4503062665462494,-1.0365289449691772,0.1509400010108947,7.503376483917236,5.036937236785889,74.0899887084961,35.05,0
-0.3953383564949035,-1.029039978981018,0.1136579290032386,7.412602424621582,5.036787986755371,74.0899887084961,35.05,0
-0.3320742547512054,-0.9962450861930848,0.0729391127824783,7.297027587890625,5.040823459625244,74.0899887084961,35.05,0
-0.3026705384254455,-0.9751992225646972,0.0356125757098197,5.3205108642578125,5.043413162231445,74.0899887084961,35.05,0
-0.306192010641098,-0.9393020868301392,0.0060607781633734,1.2720175981521606,5.045074939727783,74.26554107666016,35.05,0
-0.3028541207313537,-0.910667598247528,-0.0185016393661499,-3.1388556957244877,5.046141624450684,74.3781967163086,35.05,0
-0.2895165085792541,-0.8922916650772095,-0.045459933578968,-6.943961143493652,5.046825885772705,74.45049285888672,35.05,0
-0.2697616517543793,-0.8749012351036072,-0.0515646673738956,-10.528700828552246,5.04726505279541,74.49688720703125,35.05,0
-0.2458885610103607,-0.8637410402297974,-0.049884557723999,-13.667502403259276,5.047546863555908,74.52666473388672,35.05,0
-0.2361659705638885,-0.8677746653556824,-0.0320130363106727,-15.190991401672363,5.047727584838867,74.5457763671875,35.05,0
-0.2243287861347198,-0.8759609460830688,-0.0149463498964905,-14.904029846191406,5.037285804748535,74.55803680419922,35.09,0
-0.2167323678731918,-0.8980077505111694,0.0239949394017457,-13.99977684020996,5.030584812164307,74.56590270996094,35.09,0
-0.2118574231863021,-0.9681338667869568,0.0545829907059669,-13.136456489562988,5.026284217834473,74.57095336914062,35.09,0
-0.225522294640541,-1.0131367444992063,0.0798104181885719,-11.56497573852539,5.023524284362793,74.5741958618164,35.09,0
-0.2566827237606048,-0.9804415106773376,0.1351843476295471,-8.492925643920898,5.021753311157227,74.57627868652344,35.09,0
-0.2822774648666382,-0.903481900691986,0.1763179302215576,-4.167708873748779,5.0206170082092285,74.5776138305664,35.09,0
-0.343484878540039,-0.9324624538421632,0.2083128690719604,0.6966081261634827,5.019887447357178,74.5784683227539,35.09,0
-0.3435798585414886,-0.9734516143798828,0.2400409281253814,5.473396301269531,5.019419193267822,74.57901763916016,35.09,0
-0.2932608425617218,-0.9885605573654176,0.2604021728038788,9.552733421325684,5.017282962799072,74.5793685913086,35.09,0
-0.2161868065595626,-0.9590721726417542,0.3014577031135559,12.729498863220217,5.015912055969238,74.57959747314453,35.09,0
-0.1947139948606491,-0.928952693939209,0.3054136931896209,15.749789237976074,5.0150322914123535,74.57974243164062,35.09,0
-0.2425094991922378,-0.9208192825317384,0.2575724422931671,19.5545597076416,5.014467716217041,74.579833984375,35.09,0
-0.2843774557113647,-0.9323930740356444,0.2492617815732956,23.85918235778809,5.014105319976807,74.57989501953125,35.09,0
-0.3112458884716034,-0.93422269821167,0.255124032497406,27.449216842651367,5.013872623443604,74.5799331665039,35.09,0
-0.3172929584980011,-0.924201250076294,0.2588860690593719,29.978796005249023,5.013723373413086,74.5799560546875,35.09,0
-0.3155758380889892,-0.9121723175048828,0.2557025551795959,32.315067291259766,5.013627529144287,74.57997131347656,35.09,0
-0.3088761270046234,-0.9044528007507324,0.2368662506341934,35.02884292602539,5.019992351531982,74.5799789428711,35.09,0
-0.3213699460029602,-0.9442811012268066,0.2247781902551651,37.060577392578125,5.02407693862915,74.57998657226562,35.09,0
-0.3293877840042114,-0.975438356399536,0.2170207649469375,35.76347732543945,5.026698112487793,74.57999420166016,35.09,0
-0.3401309251785278,-1.0122265815734863,0.1840536296367645,28.493186950683597,5.028380393981934,74.57999420166016,35.09,0
-0.3582208156585693,-1.075019598007202,0.1517016738653183,15.215020179748535,5.0294599533081055,74.57999420166016,35.09,0
-0.375427633523941,-1.143305420875549,0.1309400498867035,-0.3387390375137329,5.030152797698975,74.57999420166016,35.09,0
-0.3696766495704651,-1.080769658088684,0.1008231118321418,-12.960604667663574,5.030597686767578,74.57999420166016,35.09,0
-0.3603882193565368,-1.0070511102676392,0.070300243794918,-19.73503875732422,5.030882835388184,74.57999420166016,35.09,0
-0.3488296866416931,-0.9877316951751708,0.0507124252617359,-21.53885269165039,5.029229640960693,74.57999420166016,35.09,0
-0.3694009482860565,-0.997724711894989,0.0269465427845716,-21.352970123291016,5.02816915512085,74.57999420166016,35.09,0
-0.3658090829849243,-1.032126545906067,-0.0050983582623302,-21.42713928222656,5.027488231658936,74.57999420166016,35.09,0
-0.3243196010589599,-1.0206170082092283,-0.008869607001543,-21.761343002319336,5.0270514488220215,74.73046112060547,35.09,0
-0.2976940274238586,-1.013230800628662,-0.0112897772341966,-20.926122665405277,5.026771068572998,74.8270263671875,35.09,0
-0.3029983937740326,-0.9916974306106568,-0.029636226594448,-18.405378341674805,5.026591300964356,74.88899230957031,35.09,0
-0.3120001852512359,-0.9834763407707214,-0.0470076948404312,-15.691441535949709,5.02647590637207,74.92876434326172,35.09,0
-0.3009836971759796,-0.9726027250289916,-0.0581557042896747,-14.673473358154297,5.026401996612549,74.95428466796875,35.09,0
-0.2827183902263641,-0.9656246900558472,-0.0597120821475982,-15.711175918579102,5.027731418609619,74.97066497802734,35.07,0
-0.2709967792034149,-0.9667443633079528,-0.0607108734548091,-17.810144424438477,5.0285844802856445,74.9811782836914,35.07,0
-0.252278983592987,-0.9954517483711244,-0.0613518431782722,-19.7303524017334,5.02913236618042,74.98792266845703,35.07,0
-0.2402669787406921,-1.0194722414016724,-0.0561654046177864,-20.722599029541016,5.029483795166016,74.99224853515625,35.07,0
-0.2325583547353744,-1.0236916542053225,-0.0416414998471736,-21.28055000305176,5.029709339141846,74.99502563476562,35.07,0
-0.2332091778516769,-1.0431928634643557,-0.0099297929555177,-22.828025817871094,5.029853820800781,74.99681091308594,35.07,0
-0.2392246127128601,-1.0501097440719604,0.0216165017336606,-25.762863159179688,5.029946804046631,74.99795532226562,35.07,0
-0.2654760777950287,-1.015364170074463,0.0866432934999466,-28.445186614990234,5.030006408691406,74.99868774414062,35.07,0
-0.2823227643966675,-0.987468719482422,0.1451670676469802,-28.665447235107425,5.0318803787231445,74.99916076660156,35.07,0
-0.2819384336471557,-0.9863603711128236,0.1939198076725006,-25.81892967224121,5.033082962036133,74.99945831298828,35.07,0
-0.2257140576839447,-0.9968446493148804,0.2196087390184402,-21.591873168945312,5.033854961395264,74.99964904785156,35.07,0
-0.1784369349479675,-1.009170651435852,0.2528877258300781,-18.237911224365234,5.034350395202637,74.99977111816406,35.07,0
-0.1536949723958969,-0.9722985625267028,0.2798420488834381,-15.781012535095217,5.034668445587158,74.9998550415039,35.07,0
-0.1658058762550354,-0.9318428635597228,0.2803464531898498,-11.825486183166504,5.034872531890869,74.99990844726562,35.07,0
-0.2015668302774429,-0.8946851491928101,0.2526812851428985,-4.987966060638428,5.035003185272217,74.99993896484375,35.07,0
-0.2245161533355713,-0.8876327872276306,0.2349273711442947,2.656522035598755,5.0350871086120605,74.99996185302734,35.07,0
-0.2392437011003494,-0.8943025469779968,0.2235339283943176,7.877580642700195,5.037436485290527,74.9999771118164,35.07,0
-0.2486950010061264,-0.909778356552124,0.216222271323204,9.888272285461426,5.038944244384766,74.99998474121094,35.07,0
-0.2547602951526642,-0.9253076314926147,0.2171278446912765,10.333130836486816,5.03991174697876,74.99999237060547,35.07,0
-0.2586526572704315,-0.9352734088897704,0.2177089899778366,10.86581325531006,5.04053258895874,74.99999237060547,35.07,0
-0.277943879365921,-0.9416688680648804,0.2124841660261154,12.289595603942873,5.040931224822998,74.99999237060547,35.07,0
-0.2903238832950592,-0.9345775842666626,0.2091311812400818,15.019662857055664,5.041186809539795,74.99999237060547,35.07,0
-0.3150619566440582,-0.9300267696380616,0.2069794237613678,18.473386764526367,5.041350841522217,74.99999237060547,35.07,0
-0.3365352153778076,-0.9271063208580016,0.2055985480546951,20.85816764831543,5.04145622253418,74.99999237060547,35.07,0
-0.3391199707984924,-0.93082994222641,0.2159079313278198,20.87673759460449,5.042901039123535,74.99999237060547,35.07,0
-0.3575720489025116,-1.017186164855957,0.2169261276721954,19.086618423461918,5.043828010559082,74.99999237060547,35.07,0
-0.3806090652942657,-1.0558112859725952,0.2231773138046264,16.906042098999023,5.04442310333252,74.99999237060547,35.07,0
-0.3730018138885498,-0.9854364991188048,0.2103956490755081,14.911965370178224,5.04480504989624,74.99999237060547,35.07,0
-0.3737176656723022,-0.934676229953766,0.1853997856378555,12.467945098876951,5.045050144195557,75.12896728515625,35.07,0
-0.3965681791305542,-0.952481210231781,0.1581633239984512,8.864609718322754,5.045207500457764,75.21173858642578,35.07,0
-0.3832434415817261,-0.9807007312774658,0.1294889897108078,4.599693298339844,5.0453081130981445,75.26485443115234,35.07,0
-0.3690946102142334,-1.0100059509277344,0.1054896786808967,1.271590232849121,5.04537296295166,75.29894256591797,35.07,0
-0.354416936635971,-1.0064212083816528,0.0900883004069328,-0.1333491504192352,5.038987636566162,75.32081604003906,35.11,0
-0.3449976444244385,-1.004120707511902,0.0746068060398101,-0.5369803309440613,5.034890174865723,75.33485412597656,35.11,0
-0.327757328748703,-0.9802533388137816,0.0590739026665687,-1.7919635772705078,5.032260417938232,75.34386444091797,35.11,0
-0.3110957145690918,-0.9593388438224792,0.0379102304577827,-4.60716438293457,5.030572891235352,75.34964752197266,35.11,0
-0.3004032671451568,-0.9403193593025208,0.0243286043405532,-8.147765159606934,5.029489994049072,75.35335540771484,35.11,0
-0.2879436910152435,-0.9225159883499146,0.0156126981601119,-11.483942985534668,5.02879524230957,75.3557357788086,35.11,0
-0.2799478471279144,-0.9054930210113524,0.0044215563684701,-14.402329444885254,5.02834939956665,75.35726165771484,35.11,0
-0.2692188024520874,-0.9057642221450806,0.0084352744743227,-16.973783493041992,5.0280632972717285,75.35824584960938,35.11,0
-0.2511379718780517,-0.928329348564148,0.0166088212281465,-19.319015502929688,5.0223708152771,75.35887145996094,35.11,0
-0.2395347356796264,-0.9540058970451356,0.0274519082158803,-21.75551986694336,5.0187177658081055,75.3592758178711,35.11,0
-0.2320884466171264,-1.0376569032669067,0.0288126040250062,-24.14311981201172,5.016373634338379,75.35953521728516,35.11,0
-0.2385053932666778,-1.091339349746704,0.0352835953235626,-25.370824813842773,5.014869213104248,75.35970306396484,35.11,0
-0.2538189589977264,-1.0306274890899658,0.0786207243800163,-24.614606857299805,5.013903617858887,75.35980987548828,35.11,0
-0.2748418748378753,-0.9804705381393432,0.1176275461912155,-22.613880157470703,5.013284206390381,75.35987854003906,35.11,0
-0.2883331775665283,-0.9762715697288512,0.1538554280996322,-20.50235366821289,5.01288652420044,75.35992431640625,35.11,0
-0.2298178374767303,-0.9903702139854432,0.1827021688222885,-17.88623046875,5.012631416320801,75.35995483398438,35.11,0
-0.1698749512434005,-0.9938201308250428,0.2012143582105636,-13.323379516601562,5.006041049957275,75.35997009277344,35.11,0
-0.1705914884805679,-0.9680452346801758,0.2242899537086486,-6.561848640441895,5.001811981201172,75.35997772216797,35.11,0
-0.1990401893854141,-0.9235154986381532,0.2279029935598373,0.6577032208442688,4.99909782409668,75.3599853515625,35.11,0
-0.2172969281673431,-0.8949388861656189,0.2190260887145996,6.157779693603516,4.997355937957764,75.35999298095703,35.11,0
-0.2178175002336502,-0.8766000866889954,0.2189271748065948,9.20018196105957,4.996238231658936,75.35999298095703,35.11,0
-0.223749354481697,-0.864831268787384,0.224461480975151,10.611651420593262,4.995521068572998,75.35999298095703,35.11,0
-0.2275560796260833,-0.8796698451042175,0.2280130684375763,11.542529106140137,4.995060443878174,75.35999298095703,35.11,0
-0.2299990057945251,-0.8947901725769043,0.235890045762062,12.483839988708496,4.994765281677246,75.35999298095703,35.11,0
-0.2315667420625686,-0.8988957405090332,0.2409450411796569,13.259882926940918,4.992739200592041,75.35999298095703,35.11,0
-0.2325728237628936,-0.9015304446220398,0.238591268658638,13.467714309692385,4.991438865661621,75.35999298095703,35.11,0
-0.2332184612751007,-0.908819019794464,0.2370807528495788,12.877408027648926,4.990604400634766,75.35999298095703,35.11,0
-0.2392305731773376,-0.9414852857589722,0.2249158471822738,11.534871101379396,4.990068912506104,75.35999298095703,35.11,0
-0.2486865818500518,-0.9904375076293944,0.2171091139316558,9.72750759124756,4.989725589752197,75.35999298095703,35.11,0
-0.2659504413604736,-1.0218522548675537,0.2232947498559951,7.940695285797119,4.989504814147949,75.47105407714844,35.11,0
-0.305018275976181,-1.08679461479187,0.2216665595769882,6.768943786621094,4.989363193511963,75.54232788085938,35.11,0
-0.3412853181362152,-1.117275357246399,0.2150239050388336,6.715583324432373,4.989272594451904,75.58806610107422,35.11,0
-0.3309727609157562,-1.002489447593689,0.1939677149057388,7.738199710845947,4.989673614501953,75.61741638183594,35.11,0
-0.3299525380134582,-0.96801096200943,0.1748572885990142,8.903182029724121,4.989931106567383,75.6362533569336,35.11,0
-0.3348955810070038,-0.9570801854133606,0.1681910902261734,8.952198028564453,4.990096092224121,75.64834594726562,35.11,0
-0.3044810891151428,-1.0004453659057615,0.1639131009578704,7.486137390136719,4.990201950073242,75.6561050415039,35.11,0
-0.279365062713623,-1.028274655342102,0.1611677408218383,5.359471321105957,4.990270137786865,75.66107940673828,35.11,0
-0.2688448131084442,-1.0181450843811035,0.165003702044487,3.7403366565704346,4.99031400680542,75.66427612304688,35.11,0
-0.2453001886606216,-0.9892534017562866,0.1730631738901138,3.170586585998535,4.990342140197754,75.66632843017578,35.11,0
-0.218995064496994,-0.9595168232917786,0.183833047747612,3.482060432434082,4.990360260009766,75.66764068603516,35.11,0
-0.1853206157684326,-0.9180424809455872,0.1907445341348648,3.929144144058228,4.986240386962891,75.66848754882812,35.11,0
-0.1637102961540222,-0.8914266228675842,0.1895821541547775,3.599853754043579,4.983596324920654,75.66902923583984,35.11,0
-0.1554398089647293,-0.8631505370140076,0.1944339871406555,2.338839530944824,4.981899261474609,75.66937255859375,35.11,0
-0.1501322984695434,-0.8562001585960388,0.1919498294591903,0.784417450428009,4.980810165405273,75.66959381103516,35.11,0
-0.1467262357473373,-0.8685331344604492,0.1847578734159469,-0.9905401468276978,4.980111598968506,75.66973876953125,35.11,0
-0.1501381993293762,-0.9044365882873536,0.1801424920558929,-3.777590751647949,4.979663372039795,75.66983032226562,35.11,0
-0.1523277908563614,-0.944270670413971,0.1715828329324722,-7.726452350616455,4.97937536239624,75.66989135742188,35.11,0
-0.1929173767566681,-1.0202138423919678,0.1436986327171325,-11.478680610656738,4.979190826416016,75.66992950439453,35.11,0
-0.2581498622894287,-1.0297653675079346,0.1425974816083908,-13.14146900177002,4.985498905181885,75.66995239257812,35.11,0
-0.3112078607082367,-0.9631239771842957,0.1586841493844986,-12.18081283569336,4.989547252655029,75.66996765136719,35.11,0
-0.3284640908241272,-0.8755751252174377,0.1578121036291122,-10.38565158843994,4.99214506149292,75.66997528076172,35.11,0
-0.3395381569862366,-0.8753690719604492,0.1404591500759124,-10.082690238952637,4.993812561035156,75.66998291015625,35.11,0
-0.341047078371048,-0.9256168007850648,0.1405185610055923,-11.135004043579102,4.994882583618164,75.66999053955078,35.11,0
-0.3476131856441498,-0.9522651433944702,0.1685455590486526,-10.97916030883789,4.995569229125977,75.66999053955078,35.11,0
-0.36302250623703,-0.9469754099845886,0.2033250033855438,-8.009506225585938,4.996009826660156,75.66999053955078,35.11,0
-0.38410684466362,-0.90439635515213,0.2368399947881698,-3.707009792327881,4.996292591094971,75.66999053955078,35.11,0
-0.392039805650711,-0.8546804785728455,0.2471524477005005,-0.6879698634147644,4.989129066467285,75.66999053955078,35.11,0
-0.3971307277679443,-0.8059823513031006,0.225781500339508,0.3789103627204895,4.984531879425049,75.66999053955078,35.11,0
-0.4339844286441803,-0.7859262228012085,0.2176646441221237,0.7841318249702454,4.981581687927246,75.66999053955078,35.11,0
-0.4632327854633331,-0.7786531448364258,0.2180534750223159,1.5493228435516355,4.9796881675720215,75.66999053955078,35.11,0
-0.4987960159778595,-0.7795835137367249,0.2183030098676681,2.6924068927764893,4.97847318649292,75.66999053955078,35.11,0
-0.5328140258789062,-0.7857783436775208,0.2184631526470184,3.827221155166626,4.977693557739258,75.66999053955078,35.11,0
-0.5602425932884216,-0.8065471053123474,0.229761466383934,4.025258541107178,4.977193355560303,75.74522399902344,35.11,0
-0.5666490793228149,-0.8366686701774597,0.2426098436117172,2.2643301486968994,4.976871967315674,75.79351043701172,35.11,0
-0.5763581991195679,-0.8671944737434387,0.2508552074432373,-0.7859929203987122,4.97528886795044,75.82449340820312,35.09,0
-0.5881867408752441,-0.9203708171844482,0.272939920425415,-2.822331190109253,4.974272727966309,75.84437561035156,35.09,0
-0.5901798009872437,-0.9712896943092346,0.3039059340953827,-2.45607328414917,4.973620891571045,75.85713958740234,35.09,0
-0.5802633166313171,-0.9983686804771424,0.3237781524658203,-0.4225771725177765,4.973202705383301,75.86532592773438,35.09,0
-0.5011284351348877,-0.9821597933769226,0.3141399025917053,2.1183922290802,4.972934246063232,75.8705825805664,35.09,0
-0.4615397453308105,-0.9997467398643494,0.291161298751831,4.809482574462891,4.972762107849121,75.87395477294922,35.09,0
-0.4025473594665527,-1.0558152198791504,0.2540238499641418,6.977126121520996,4.972651481628418,75.8761215209961,35.09,0
-0.3478961288928985,-1.0806012153625488,0.2245934009552002,7.397316932678223,4.972580432891846,75.87751007080078,35.09,0
-0.2960307896137237,-1.0237363576889038,0.2113044112920761,6.151541709899902,4.970698833465576,75.87840270996094,35.09,0
-0.26834437251091,-0.9592548608779908,0.1747874319553375,5.015313148498535,4.969491004943848,75.87897491455078,35.09,0
-0.2505768239498138,-0.9122766256332396,0.1457551568746566,5.067148208618164,4.968716144561768,75.87934112548828,35.09,0
-0.2055879831314087,-0.8821286559104919,0.1327216923236847,5.440757751464844,4.968218803405762,75.87957763671875,35.09,0
-0.1823145002126693,-0.8571836352348328,0.1187597885727882,5.01774263381958,4.967899799346924,75.87973022460938,35.09,0
-0.1785744726657867,-0.841175377368927,0.0986042916774749,3.8828749656677246,4.9676947593688965,75.87982940673828,35.09,0
-0.15938101708889,-0.8309022188186646,0.1024629771709442,2.656604051589966,4.967563152313232,75.87989044189453,35.09,0
-0.1470637619495391,-0.829907238483429,0.1049392595887184,1.6367865800857544,4.967478752136231,75.87992858886719,35.09,0
-0.1727458983659744,-0.8516598343849182,0.095332846045494,0.7924498915672302,4.961456775665283,75.87995147705078,35.09,0
-0.2116183191537857,-0.8712171912193298,0.0891680046916008,-0.4193383455276489,4.957592010498047,75.87996673583984,35.09,0
-0.2701510488986969,-0.8949635028839111,0.0852117612957954,-2.887969970703125,4.955111980438232,75.87997436523438,35.09,0
-0.3245072960853576,-0.9437891840934752,0.0770751014351844,-6.421116828918457,4.95352029800415,75.8799819946289,35.09,0
-0.3761833310127258,-1.0255026817321775,0.0606579110026359,-9.08257007598877,4.952498912811279,75.87998962402344,35.09,0
-0.4821171164512634,-1.077941656112671,0.0389267541468143,-9.160466194152832,4.951843738555908,75.87998962402344,35.09,0
-0.5500993132591248,-1.038822889328003,0.0417742729187011,-7.45141077041626,4.951423168182373,75.87998962402344,35.09,0
-0.5041619539260864,-0.8961654901504517,0.0547971948981285,-6.551678657531738,4.95115327835083,75.87998962402344,35.09,0
-0.4970731139183044,-0.9109739065170288,0.0463612340390682,-7.701084136962891,4.955111980438232,75.87998962402344,35.09,0
-0.4925239086151123,-0.942868173122406,0.0297519713640213,-8.951014518737793,4.957652568817139,75.87998962402344,35.09,0
-0.4224312007427215,-0.9633361101150512,0.0414841994643211,-7.313414096832275,4.959282875061035,75.87998962402344,35.09,0
-0.3774497509002685,-0.9484823346138,0.0602088160812854,-2.5688610076904297,4.960329055786133,75.87998962402344,35.09,0
-0.3821698725223541,-0.8997656106948853,0.0666274279356002,2.525153398513794,4.961000442504883,75.87998962402344,35.09,0
-0.3851989805698395,-0.8629042506217957,0.076344296336174,5.923171520233154,4.961431503295898,75.87998962402344,35.09,0
-0.37594735622406,-0.8448465466499329,0.0881777927279472,8.30803108215332,4.961708068847656,75.87998962402344,35.09,0
-0.3979990482330322,-0.8164648413658142,0.1125651746988296,10.877443313598633,4.961885452270508,75.9444808959961,35.09,0
-0.4121505618095398,-0.7982510924339294,0.1394111365079879,13.217781066894531,4.961999416351318,75.9858627319336,35.07,0
-0.4324277341365814,-0.7977581024169922,0.1678348779678344,14.04256820678711,4.962072372436523,76.01242065429688,35.07,0
-0.4622337818145752,-0.8198328018188477,0.1860755980014801,12.28976821899414,4.962119102478027,76.02946472167969,35.07,0
-0.4757638275623321,-0.850792407989502,0.1977814435958862,7.539355754852295,4.962149143218994,76.0404052734375,35.07,0
-0.4956421554088592,-0.909844934940338,0.2052935808897018,0.990638256072998,4.962168216705322,76.04742431640625,35.07,0
-0.5028011798858643,-0.9421436786651612,0.2157122194766998,-4.275976181030273,4.962180614471436,76.05192565917969,35.07,0
-0.5129931569099426,-0.946077823638916,0.2168005257844925,-5.642379283905029,4.962188720703125,76.05481719970703,35.07,0
-0.5251315832138062,-0.9989824891090392,0.2230967134237289,-3.380921602249145,4.962193965911865,76.05667114257812,35.07,0
-0.5385190844535828,-1.0665203332901,0.2271372377872467,0.1124196723103523,4.957606315612793,76.057861328125,35.07,0
-0.5023282170295715,-1.0706777572631836,0.2129368931055069,2.726832866668701,4.954662322998047,76.05862426757812,35.07,0
-0.451114147901535,-1.0565524101257324,0.1982261538505554,3.523299217224121,4.952773094177246,76.05911254882812,35.07,0
-0.3734657168388366,-1.0810742378234863,0.1887856572866439,2.7160377502441406,4.951560497283936,76.05943298339844,35.07,0
-0.2956465482711792,-1.0912132263183594,0.1659339666366577,1.6247717142105105,4.950782299041748,76.05963897705078,35.07,0
-0.2401089072227478,-1.0641331672668457,0.1568668335676193,1.1215016841888428,4.950283050537109,76.05976867675781,35.07,0
-0.2044680416584015,-1.0075703859329224,0.1398525238037109,0.1823288798332214,4.949962615966797,76.05985260009766,35.07,0
-0.1927913427352905,-0.9544782638549804,0.1233359426259994,-2.0755279064178467,4.949757099151611,76.05990600585938,35.07,0
-0.1964934468269348,-0.8980156779289246,0.11273655295372,-4.011721134185791,4.9523797035217285,76.0599365234375,35.07,0
-0.170880377292633,-0.8617812395095825,0.1115322485566139,-3.835558414459229,4.954062461853027,76.0599594116211,35.07,0
-0.1488456130027771,-0.8385280966758728,0.1163571700453758,-2.697890520095825,4.955142498016357,76.05997467041016,35.07,0
-0.1347049623727798,-0.81800776720047,0.119453527033329,-2.684315919876098,4.955835342407227,76.05998229980469,35.07,0
-0.1368258595466613,-0.8104367852210999,0.1158428192138671,-3.4816839694976807,4.95628023147583,76.05998992919922,35.07,0
-0.1773713529109954,-0.8111759424209595,0.1023301258683204,-3.545567035675049,4.956565856933594,76.05998992919922,35.07,0
-0.2537710964679718,-0.8396391868591309,0.0880606845021247,-3.088585376739502,4.956748962402344,76.05998992919922,35.07,0
-0.3195933699607849,-0.8579052686691284,0.0677078291773796,-3.802024602890015,4.956866264343262,76.05998992919922,35.07,0
-0.3842253983020782,-0.8920184373855591,0.0434509888291358,-6.262528896331787,4.948678970336914,76.05998992919922,35.07,0
-0.4424958527088165,-0.9418991804122924,0.022286569699645,-8.833911895751953,4.943424701690674,76.05998992919922,35.07,0
-0.5414659976959229,-1.0410830974578855,-0.013686635531485,-8.911327362060547,4.94005298614502,76.05998992919922,35.07,0
-0.5713927149772644,-1.0151692628860474,0.0080100279301404,-5.471579551696777,4.937889099121094,76.05998992919922,35.07,0
-0.5570113062858582,-0.9425614476203918,0.0443247966468334,-0.935473084449768,4.936500549316406,76.05998992919922,35.07,0
-0.5421843528747559,-0.8903681635856628,0.03964065015316,0.5640042424201965,4.935609340667725,76.05998992919922,35.07,0
-0.5550603866577148,-0.8848624229431152,0.0254390873014926,-2.059875726699829,4.935037612915039,76.05998992919922,35.07,0
-0.5241390466690063,-0.9205135703086852,0.0387164391577243,-5.14451789855957,4.934670448303223,76.05998992919922,35.07,0
-0.4986977279186249,-0.9377946257591248,0.0696281790733337,-5.196638107299805,4.932274341583252,76.0779037475586,35.11,0
-0.4711754024028778,-0.926493525505066,0.1006610989570617,-3.6465871334075928,4.930737018585205,76.08940124511719,35.11,0
-0.4535131752490997,-0.8856545090675354,0.1317717880010604,-3.9702417850494394,4.929750442504883,76.0967788696289,35.11,0
-0.4477763473987579,-0.8538485765457153,0.1517368406057357,-6.119700908660889,4.929117202758789,76.10151672363281,35.11,0
-0.4440947771072387,-0.8222418427467346,0.1925381422042846,-7.405952930450439,4.9287109375,76.10455322265625,35.11,0
-0.4641232490539551,-0.7963606715202332,0.2299176156520843,-7.163787841796875,4.928450107574463,76.10650634765625,35.11,0
-0.4937696754932403,-0.7797515988349915,0.2595033645629883,-6.65728759765625,4.928282737731934,76.10775756835938,35.11,0
-0.5295884013175964,-0.769092857837677,0.2784897983074188,-5.880840301513672,4.928175449371338,76.10855865478516,35.11,0
-0.5581725239753723,-0.7678504586219788,0.2962719798088074,-3.888627290725708,4.928106307983398,76.10907745361328,35.11,0
-0.5821139812469482,-0.7838464975357056,0.3076835572719574,-1.0767972469329834,4.9280619621276855,76.10940551757812,35.11,0
-0.6086737513542175,-0.8165029287338257,0.3150068521499634,1.469266653060913,4.928033828735352,76.109619140625,35.11,0
-0.6257182955741882,-0.837459921836853,0.3141087591648102,3.740882396697998,4.92801570892334,76.10975646972656,35.11,0
-0.6646453738212585,-0.8733000159263611,0.3079346418380737,6.090735912322998,4.928003787994385,76.1098403930664,35.11,0
-0.6896265149116516,-0.9186912178993224,0.303972452878952,8.154035568237305,4.9279961585998535,76.10990142822266,35.11,0
-0.6664735674858093,-0.931027352809906,0.2902341783046722,9.703845024108888,4.927991390228272,76.10993957519531,35.11,0
-0.6124309301376343,-0.927748441696167,0.2646244168281555,10.93845558166504,4.927988529205322,76.1099624633789,35.11,0
-0.577749490737915,-0.936839759349823,0.2369940131902694,11.211284637451172,4.919264316558838,76.10997772216797,35.11,0
-0.5219062566757202,-0.948271870613098,0.2024690806865692,9.455362319946287,4.913665771484375,76.1099853515625,35.11,0
-0.4748737514019012,-0.9556083083152772,0.1747151911258697,6.103733062744141,4.9100728034973145,76.10999298095703,35.11,0
-0.4222998917102813,-0.9323275685310364,0.1513065695762634,2.641627788543701,4.907767295837402,76.10999298095703,35.11,0
-0.3829632401466369,-0.889398455619812,0.1362842619419098,-0.1533643007278442,4.906287670135498,76.10999298095703,35.11,0
-0.3577192425727844,-0.8450556993484497,0.1266438215970993,-1.9864377975463867,4.905337810516357,76.10999298095703,35.11,0
-0.3303235471248626,-0.7998057007789612,0.1260549128055572,-2.57525634765625,4.904728412628174,76.10999298095703,35.11,0
-0.295949250459671,-0.765169084072113,0.1368725299835205,-2.576955795288086,4.904337406158447,76.10999298095703,35.11,0
-0.2514986991882324,-0.7373435497283936,0.1550102084875106,-3.26948356628418,4.899496078491211,76.10999298095703,35.11,0
-0.2173751294612884,-0.713888943195343,0.1778454780578613,-4.6453776359558105,4.896389007568359,76.10999298095703,35.11,0
-0.2066721320152282,-0.6988371014595032,0.1924998313188552,-5.420869827270508,4.894395351409912,76.10999298095703,35.11,0
-0.238987997174263,-0.7115688323974609,0.2130997031927108,-5.33457612991333,4.893115997314453,76.10999298095703,35.11,0
-0.2709220051765442,-0.7421303987503052,0.2319172918796539,-5.852410316467285,4.892294883728027,76.10999298095703,35.11,0
-0.3138065040111542,-0.8401119112968445,0.2327977865934372,-7.990344524383545,4.891767978668213,76.10999298095703,35.11,0
-0.3805117309093475,-1.0149463415145874,0.2109717428684234,-10.412042617797852,4.891429901123047,76.10999298095703,35.11,0
-0.4681015014648437,-1.160731554031372,0.1969650387763977,-10.465049743652344,4.8912129402160645,76.10999298095703,35.11,0
-0.4907249212265014,-1.159126043319702,0.2215629965066909,-7.03113317489624,4.89612340927124,76.10999298095703,35.09,0
-0.4548633694648742,-1.0741291046142578,0.2485440969467163,-2.029451608657837,4.899274349212647,76.16373443603516,35.09,0
-0.4318494796752929,-1.0419740676879885,0.2490656822919845,1.047784447669983,4.901296615600586,76.1982192993164,35.09,0
-0.4058849513530731,-1.0213388204574585,0.2382048666477203,0.3428108096122741,4.902594566345215,76.22035217285156,35.09,0
-0.3500379920005798,-0.9969006776809692,0.2312350124120712,-2.4275269508361816,4.903427600860596,76.23455810546875,35.09,0
-0.3197964131832123,-0.947631061077118,0.2323599308729171,-3.736052989959717,4.903962135314941,76.2436752319336,35.09,0
-0.3115846514701843,-0.893621563911438,0.2218862920999527,-2.465652704238892,4.9043049812316895,76.24952697753906,35.09,0
-0.3231081366539001,-0.853363573551178,0.1871760487556457,-1.1559875011444092,4.904524803161621,76.25328063964844,35.09,0
-0.3528943359851837,-0.8219305872917175,0.170498788356781,-2.217867374420166,4.9065022468566895,76.25569152832031,35.09,0
-0.3720093965530395,-0.8073564767837524,0.1709918230772018,-4.654782772064209,4.907771110534668,76.25723266601562,35.09,0
-0.3618852496147156,-0.8259925246238708,0.204894870519638,-6.046691417694092,4.908585548400879,76.25822448730469,35.09,0
-0.3385948240756988,-0.849147617816925,0.2322496771812439,-5.807844161987305,4.9091081619262695,76.25885772705078,35.09,0
-0.3012572824954986,-0.8696050047874451,0.2442066371440887,-5.013284683227539,4.909443378448486,76.25926971435547,35.09,0
-0.2884917557239532,-0.9107221961021424,0.2350866049528122,-4.7649102210998535,4.909658432006836,76.25952911376953,35.09,0
-0.2858973443508148,-0.9594999551773072,0.2292338907718658,-5.751942157745361,4.909796714782715,76.25969696044922,35.09,0
-0.2842324078083038,-0.9964004755020142,0.2142824083566665,-7.911539554595947,4.909885406494141,76.25980377197266,35.09,0
-0.288761705160141,-1.0368744134902954,0.1990896314382553,-10.09277629852295,4.913614749908447,76.25987243652344,35.09,0
-0.3196572363376617,-1.074043869972229,0.1949375569820404,-11.177302360534668,4.916007995605469,76.25991821289062,35.09,0
-0.3506797552108764,-1.0195282697677612,0.1530885696411132,-11.464874267578123,4.917543888092041,76.25994873046875,35.09,0
-0.3705882132053375,-0.9957388043403624,0.1094389781355857,-12.0291748046875,4.918529510498047,76.25997161865234,35.09,0
-0.3945598602294922,-1.019656538963318,0.0814271867275238,-12.971687316894531,4.919161796569824,76.25997924804688,35.09,0
-0.3931501805782318,-1.0406032800674438,0.0634508281946182,-13.31501007080078,4.919567584991455,76.2599868774414,35.09,0
-0.3642566502094269,-1.0652412176132202,0.0407190881669521,-12.048565864562988,4.919827938079834,76.25999450683594,35.09,0
-0.3345188796520233,-1.0250747203826904,0.0261311661452054,-8.642049789428711,4.919995307922363,76.25999450683594,35.09,0
-0.3266304433345794,-0.993700385093689,0.016769478097558,-3.31760835647583,4.946268558502197,76.25999450683594,35.09,0
-0.3271658718585968,-0.979163944721222,-0.000433862383943,2.9797027111053467,4.963129043579102,76.25999450683594,35.09,0
-0.3219117224216461,-0.9754330515861512,-0.0226695258170366,9.707886695861816,4.973948955535889,76.25999450683594,35.09,0
-0.296148806810379,-0.98423433303833,-0.0369390957057476,17.13174057006836,4.980892658233643,76.25999450683594,35.09,0
-0.274017870426178,-0.9898825287818908,-0.0460964813828468,24.844402313232425,4.985348701477051,76.25999450683594,35.09,0
-0.259815514087677,-0.993507206439972,-0.0575709417462348,31.16607093811035,4.988208293914795,76.25999450683594,35.09,0
-0.2507012486457824,-1.0070288181304932,-0.0705323666334152,34.98650360107422,4.990043640136719,76.25999450683594,35.09,0
-0.2448522448539734,-1.0045106410980225,-0.0844480320811271,36.564090728759766,4.9912214279174805,76.25999450683594,35.09,0
-0.2410986870527267,-1.002894639968872,-0.0877805352210998,35.86043930053711,5.043849468231201,76.25999450683594,35.11,0
-0.227494329214096,-1.0634331703186035,-0.0675280466675758,31.77256393432617,5.077622890472412,76.25999450683594,35.11,0
-0.2187638282775879,-1.0742944478988647,-0.0433356128633022,24.466773986816406,5.099297046661377,76.31015014648438,35.11,0
-0.2467477470636367,-0.9637112617492676,0.0057763457298278,17.392343521118164,5.113205909729004,76.34233856201172,35.11,0
-0.2703039944171905,-0.8983431458473206,0.0484891198575496,15.453330039978027,5.122131824493408,76.36299896240234,35.11,0
-0.3134098947048187,-0.9459580183029176,0.0926930457353591,20.44624710083008,5.127860069274902,76.37625885009766,35.11,0
-0.273899495601654,-1.0101011991500854,0.1490494459867477,27.992494583129883,5.13153600692749,76.384765625,35.11,0
-0.2093595713376999,-1.0400689840316772,0.2132046222686767,29.435379028320312,5.133895397186279,76.39022064208984,35.11,0
-0.1511482447385788,-0.9977250695228576,0.3103534579277038,19.441648483276367,5.176723480224609,76.39372253417969,35.11,0
-0.1417804360389709,-0.959355652332306,0.350306898355484,2.147965431213379,5.204207897186279,76.3959732055664,35.11,0
-0.1917464584112167,-0.9347323775291444,0.3087734282016754,-13.098747253417969,5.221846103668213,76.39741516113281,35.11,0
-0.2294095605611801,-0.9357239007949828,0.2821196317672729,-21.31045913696289,5.233165264129639,76.3983383178711,35.11,0
-0.2479817867279052,-0.9363601803779602,0.2706125378608703,-23.59956169128418,5.240428924560547,76.39893341064453,35.11,0
-0.2487048208713531,-0.9423663020133972,0.2632279396057129,-22.06995964050293,5.245090484619141,76.3993148803711,35.11,0
-0.2491688281297683,-0.9406229257583618,0.2528911530971527,-18.09689712524414,5.248082160949707,76.3995590209961,35.11,0
-0.2550643682479858,-0.9283085465431212,0.2294642776250839,-13.634119033813477,5.250001907348633,76.39971923828125,35.11,0
-0.2700433433055877,-0.920405924320221,0.2032347023487091,-9.820782661437988,5.281990051269531,76.39981842041016,35.11,0
-0.2852537631988525,-0.9153344631195068,0.1864020824432373,-5.944155216217041,5.302518367767334,76.39988708496094,35.11,0
-0.3062104880809784,-0.9232754111289978,0.1755998730659485,-2.034076690673828,5.315691947937012,76.3999252319336,35.11,0
-0.3196592926979065,-0.9227737188339232,0.1742654144763946,-0.1445989161729812,5.324146270751953,76.39995574951172,35.11,0
-0.3450832962989807,-0.9784294962882996,0.1622134745121002,-1.3538618087768557,5.329571723937988,76.39997100830078,35.11,0
-0.378192275762558,-1.0253417491912842,0.1544792354106903,-3.6704046726226807,5.333053588867188,76.39997863769531,35.11,0
-0.3994397222995758,-1.0218605995178225,0.1439180821180343,-4.512165069580078,5.335288047790527,76.39998626708984,35.11,0
-0.3850862383842468,-0.980442225933075,0.114749439060688,-3.597832679748535,5.336721897125244,76.39999389648438,35.11,0
-0.3758749961853027,-0.9874489307403564,0.0848351344466209,-2.24439549446106,5.3463640213012695,76.39999389648438,35.11,0
-0.3755615353584289,-1.0255321264266968,0.0600400790572166,-1.1967086791992188,5.352551937103272,76.39999389648438,35.11,0
-0.3305781781673431,-1.0499716997146606,0.0385302677750587,-0.2843310832977295,5.356523036956787,76.39999389648438,35.11,0
-0.2905148863792419,-1.0656555891036987,0.0303242821246385,0.7884106636047363,5.359071254730225,76.39999389648438,35.11,0
-0.2592068016529083,-1.042133927345276,0.0306559279561042,2.050046682357788,5.360706806182861,76.39999389648438,35.11,0
-0.2447128444910049,-1.0270391702651978,0.0308687593787908,3.0567338466644287,5.361756324768066,76.39999389648438,35.11,0
-0.2354114651679992,-1.0061566829681396,0.01421201787889,2.8357841968536377,5.362429618835449,76.39999389648438,35.11,0
-0.2294423729181289,-0.987157702445984,0.003522680606693,0.7164098620414734,5.362861633300781,76.39999389648438,35.11,0
-0.2256117463111877,-0.9749652147293092,0.0022606535349041,-2.6427597999572754,5.359466552734375,76.39999389648438,35.09,0
-0.2119579315185547,-0.9559452533721924,0.0070485319010913,-5.643970012664795,5.357287883758545,76.39999389648438,35.09,0
-0.1975979208946228,-0.9437393546104432,0.0045233420096337,-7.4230875968933105,5.355889797210693,76.39999389648438,35.09,0
-0.1883824914693832,-0.9415040612220764,0.0140983695164322,-8.683048248291016,5.354992389678955,76.46089935302734,35.09,0
-0.1768707782030105,-0.945667326450348,0.0258408449590206,-10.659538269042969,5.354416370391846,76.49998474121094,35.09,0
-0.1750809997320175,-0.942741334438324,0.0389742627739906,-13.665484428405762,5.354046821594238,76.52507019042969,35.09,0
-0.1795302033424377,-0.9856457710266112,0.0362069867551326,-16.712291717529297,5.353809833526611,76.54116821289062,35.09,0
-0.1991787701845169,-1.035570502281189,0.0456266589462757,-17.86147689819336,5.3536577224731445,76.55149841308594,35.09,0
-0.2341791838407516,-1.0116316080093384,0.0908560827374458,-15.879783630371094,5.345297336578369,76.5581283569336,35.09,0
-0.2846293151378631,-0.9458889961242676,0.1422728300094604,-12.544483184814451,5.339931964874268,76.5623779296875,35.09,0
-0.3337986171245575,-0.9484813213348388,0.1752691268920898,-11.26031494140625,5.336488723754883,76.56510925292969,35.09,0
-0.2981793582439422,-1.000524878501892,0.2132375687360763,-12.17017650604248,5.3342790603637695,76.56686401367188,35.09,0
-0.2305387705564499,-1.0283256769180298,0.226407989859581,-11.614813804626465,5.332860946655273,76.56798553466797,35.09,0
-0.1703376173973083,-0.9957866668701172,0.2404577732086181,-7.496709823608398,5.331951141357422,76.56871032714844,35.09,0
-0.2100728154182434,-0.9581117033958436,0.2158874720335006,-1.912653088569641,5.331367015838623,76.56917572021484,35.09,0
-0.2523659169673919,-0.9451296329498292,0.1889241188764572,2.1831815242767334,5.330992221832275,76.56947326660156,35.09,0
-0.2851049602031708,-0.9423962831497192,0.188413918018341,4.080806732177734,5.314684867858887,76.56966400146484,35.09,0
-0.2949194312095642,-0.9406421780586244,0.1992820501327514,4.7468767166137695,5.304219722747803,76.56978607177734,35.09,0
-0.3068155646324157,-0.945114254951477,0.2118543684482574,5.303295135498047,5.29750394821167,76.56986236572266,35.09,0
-0.2920587360858917,-0.9423863887786864,0.2087270021438598,6.581094264984131,5.29319429397583,76.56990814208984,35.09,0
-0.2713930904865265,-0.9294402599334716,0.2011222690343856,8.655013084411621,5.290428161621094,76.56993865966797,35.09,0
-0.2581310868263244,-0.9323277473449708,0.179448664188385,10.25462818145752,5.288653373718262,76.56996154785156,35.09,0
-0.2496202886104583,-0.9397785067558287,0.1655397862195968,9.60810661315918,5.2875142097473145,76.56997680664062,35.09,0
-0.249756321310997,-0.9557555317878724,0.1510161012411117,6.5886735916137695,5.286783218383789,76.56998443603516,35.09,0
-0.2498436272144317,-0.9604108929634094,0.1472934037446975,3.4042389392852783,5.274379253387451,76.56999206542969,35.09,0
-0.2554974257946014,-0.974593997001648,0.1449044048786163,2.4210946559906006,5.266418933868408,76.56999206542969,35.09,0
-0.2535279393196106,-0.9948914647102356,0.1433712691068649,3.817907094955444,5.261310577392578,76.56999206542969,35.09,0
-0.2522640228271484,-1.0023194551467896,0.1423873901367187,6.011192798614502,5.258032321929932,76.56999206542969,35.09,0
-0.2738440036773681,-0.9846951961517334,0.12496268004179,7.75547981262207,5.25592851638794,76.56999206542969,35.09,0
-0.2876928150653839,-0.9342005252838136,0.1081827282905578,8.70648193359375,5.254578590393066,76.56999206542969,35.09,0
-0.3077757358551025,-0.9241870641708374,0.1030120924115181,8.754315376281738,5.253712177276611,76.56999206542969,35.09,0
-0.3094682395458221,-0.9401520490646362,0.0996938794851303,8.0828275680542,5.2531561851501465,76.56999206542969,35.09,0
-0.2993588447570801,-0.9671908020973206,0.0975644364953041,7.232744216918945,5.24545431137085,76.56999206542969,35.11,0
-0.2760778963565826,-0.9957382678985596,0.1129912063479423,6.26088285446167,5.240511894226074,76.56999206542969,35.11,0
-0.2499419748783111,-0.9860695004463196,0.128489002585411,4.641242504119873,5.237339973449707,76.56999206542969,35.11,0
-0.2331694364547729,-0.9742668867111206,0.1328368186950683,2.2476367950439453,5.235304355621338,76.56999206542969,35.11,0
-0.211210235953331,-0.9554970860481262,0.1356269866228103,-0.4599437117576599,5.233997821807861,76.5950698852539,35.11,0
-0.1915203183889389,-0.9434517025947572,0.1374175697565078,-3.1934690475463867,5.23315954208374,76.61116790771484,35.11,0
-0.1788844615221023,-0.9469172358512878,0.1329688876867294,-5.850497245788574,5.232621669769287,76.62149810791016,35.11,0
-0.1539821773767471,-0.9491412043571472,0.1357117444276809,-8.107341766357422,5.232276439666748,76.62812805175781,35.11,0
-0.1324035376310348,-0.950568437576294,0.1374719589948654,-9.903164863586426,5.227005481719971,76.63237762451172,35.11,0
-0.1185556128621101,-0.9682776927947998,0.1330037862062454,-11.96917724609375,5.223623275756836,76.6351089477539,35.11,0
-0.1096688136458396,-0.9796424508094788,0.1245385929942131,-14.874940872192385,5.221452713012695,76.6368637084961,35.11,0
-0.1039657816290855,-0.9589468240737916,0.1191061213612556,-17.717735290527344,5.220059394836426,76.63798522949219,35.11,0
-0.1226969957351684,-0.9624589085578918,0.1156198754906654,-18.470888137817383,5.219165325164795,76.63871002197266,35.11,0
-0.1571087092161178,-0.9759082794189452,0.1189803779125213,-16.01650619506836,5.218591690063477,76.63917541503906,35.11,0
-0.2239743620157241,-0.9117682576179504,0.1547235995531082,-11.6434326171875,5.218223571777344,76.63947296142578,35.11,0
-0.2668848931789398,-0.8482157588005066,0.1832593232393264,-7.87333345413208,5.217987537384033,76.63966369628906,35.11,0
-0.3168134987354278,-0.9193869233131408,0.2071696817874908,-5.350006103515625,5.217376708984375,76.63978576660156,35.11,0
-0.2760837376117706,-1.0042449235916138,0.2281117439270019,-2.0110433101654053,5.216984272003174,76.63986206054688,35.11,0
-0.2499457150697708,-1.0698974132537842,0.2527467012405395,3.71428656578064,5.216732501983643,76.63990783691406,35.11,0
-0.2555629312992096,-1.0504539012908936,0.3133381903171539,9.967927932739258,5.216570854187012,76.63993835449219,35.11,0
-0.2815588414669037,-1.0099873542785645,0.3410267829895019,13.361369132995604,5.216467380523682,76.63996124267578,35.11,0
-0.3150348365306854,-0.9336382150650024,0.3252090811729431,13.16025447845459,5.216401100158691,76.63997650146484,35.11,0
-0.3477133512496948,-0.8734462261199951,0.2870693206787109,11.616073608398438,5.216358184814453,76.63998413085938,35.11,0
-0.3854778707027435,-0.8348184823989868,0.2569956183433532,10.757661819458008,5.216331005096436,76.6399917602539,35.11,0
-0.4265062808990478,-0.7932360768318176,0.248891606926918,10.969871520996094,5.21493673324585,76.6399917602539,35.11,0
-0.4640315175056457,-0.7609531283378601,0.2436909228563308,12.055438041687012,5.214041709899902,76.6399917602539,35.11,0
-0.4993085861206054,-0.734637975692749,0.2403534203767776,13.33246898651123,5.213467597961426,76.6399917602539,35.11,0
-0.5443384647369385,-0.7289459705352783,0.2382116019725799,13.220524787902832,5.213099002838135,76.6399917602539,35.11,0
-0.5900294184684753,-0.7420865297317505,0.2368371039628982,10.751941680908203,5.212862491607666,76.6399917602539,35.11,0
-0.6137534379959106,-0.7785082459449768,0.2527483701705932,6.8569865226745605,5.212710857391357,76.6399917602539,35.11,0
-0.6177825927734375,-0.8018816113471985,0.2629593014717102,3.0390405654907227,5.212613582611084,76.6399917602539,35.11,0
-0.6595526933670044,-0.8560656905174255,0.2751098573207855,-0.0882040783762931,5.212551116943359,76.6399917602539,35.11,0
-0.6807605624198914,-0.9244245886802672,0.2997007071971893,-2.2957141399383545,5.206084251403809,76.6399917602539,35.11,0
-0.6495883464813232,-0.9347067475318908,0.3042861521244049,-3.2143890857696533,5.201933860778809,76.6399917602539,35.11,0
-0.5792038440704346,-0.9469029903411864,0.2848377227783203,-3.1483302116394043,5.199270725250244,76.6399917602539,35.11,0
-0.5228396058082581,-0.9771209359169006,0.2611612975597381,-3.195501804351806,5.197561740875244,76.6399917602539,35.11,0
-0.4418860673904419,-1.0077086687088013,0.2235760390758514,-3.788238286972046,5.196465015411377,76.6399917602539,35.11,0
-0.3675436675548553,-0.988153636455536,0.1938582062721252,-4.057562828063965,5.195761203765869,76.66149139404297,35.11,0
-0.3198349773883819,-0.964408814907074,0.1747870147228241,-3.0624799728393555,5.195309162139893,76.67528533935547,35.11,0
-0.3004138469696045,-0.9323774576187134,0.151352658867836,-0.9550371766090392,5.195019245147705,76.68413543701172,35.11,0
-0.2823527157306671,-0.9118215441703796,0.1307160705327987,1.3503634929656982,5.188865661621094,76.6898193359375,35.11,0
-0.276359885931015,-0.9098255038261414,0.1118749231100082,3.0412092208862305,5.184916973114014,76.69346618652344,35.11,0
-0.2669162452220917,-0.8973489999771118,0.1109793037176132,3.517258405685425,5.182382583618164,76.69580841064453,35.11,0
-0.260855883359909,-0.878146767616272,0.1104045510292053,2.432720184326172,5.180756092071533,76.69731140136719,35.11,0
-0.2625644505023956,-0.8378350138664246,0.1044379323720932,0.1998009830713272,5.179712295532227,76.69827270507812,35.11,0
-0.2692586779594421,-0.8007696866989136,0.1006089001893997,-2.2219488620758057,5.179042816162109,76.69889068603516,35.11,0
-0.2903479933738708,-0.760189950466156,0.09815164655447,-4.38512659072876,5.178613185882568,76.69928741455078,35.11,0
-0.3150774538516998,-0.7677348852157593,0.1021725013852119,-6.593739032745361,5.178337097167969,76.69953918457031,35.11,0
-0.3645340204238891,-0.8005656599998474,0.0879595279693603,-8.956899642944336,5.171733379364014,76.69969940185547,35.11,0
-0.4634456932544708,-0.8720145225524902,0.0620451346039772,-10.8030366897583,5.167495250701904,76.6998062133789,35.11,0
-0.5493125915527344,-0.9570506811141968,0.0342192202806472,-11.006155967712402,5.164775848388672,76.69987487792969,35.11,0
-0.610014796257019,-1.0340131521224976,0.021959925070405,-9.20549774169922,5.163030624389648,76.69992065429688,35.11,0
-0.5929922461509705,-0.9938387870788574,0.058874811977148,-6.87485408782959,5.161910533905029,76.699951171875,35.11,0
-0.5428837537765503,-0.9512639045715332,0.1105535328388214,-6.024044513702393,5.161191463470459,76.69996643066406,35.11,0
-0.572302520275116,-0.9407351016998292,0.0709468945860862,-6.341444492340088,5.160730361938477,76.6999740600586,35.11,0
-0.4960196316242218,-0.9451738595962524,0.0903118252754211,-5.183754920959473,5.160434246063232,76.69998168945312,35.11,0
-0.4190768003463745,-0.9648157358169556,0.0915435776114463,-0.9872137308120728,5.153358459472656,76.69998931884766,35.11,0
-0.3808948695659637,-0.943834125995636,0.0979318171739578,4.794064998626709,5.148818016052246,76.69998931884766,35.11,0
-0.3563918769359588,-0.9079782366752625,0.10762919485569,9.546686172485352,5.145904064178467,76.69998931884766,35.11,0
-0.34626504778862,-0.8569791316986084,0.1194501891732215,12.10583209991455,5.144033908843994,76.69998931884766,35.11,0
-0.3397662341594696,-0.8186530470848083,0.1270362287759781,13.15701961517334,5.142833709716797,76.69998931884766,35.11,0
-0.3355956673622131,-0.7884597778320312,0.1431000530719757,13.903263092041016,5.142063617706299,76.69998931884766,35.11,0
-0.3553103506565094,-0.7634857296943665,0.1757999956607818,14.668766021728516,5.1415696144104,76.69998931884766,35.11,0
-0.3791576325893402,-0.7586543560028076,0.2023827135562896,14.368271827697754,5.141252517700195,76.69998931884766,35.11,0
-0.3776681423187256,-0.7779449820518494,0.2474308311939239,11.552986145019531,5.1369171142578125,76.69998931884766,35.09,0
-0.3767122626304626,-0.7959223389625549,0.276340126991272,6.378676891326904,5.134135246276856,76.69998931884766,35.09,0
-0.4544676840305328,-0.8634369373321533,0.2389146983623504,1.252485275268555,5.132349967956543,76.69998931884766,35.09,0
-0.5435510277748108,-0.9571439027786256,0.1869083493947982,-1.0770792961120603,5.131204128265381,76.69998931884766,35.09,0
-0.6007196307182312,-1.039670705795288,0.1703269928693771,-0.100082479417324,5.130468845367432,76.69998931884766,35.09,0
-0.6206138134002686,-1.075838327407837,0.1876748949289322,2.314602851867676,5.1299967765808105,76.69998931884766,35.09,0
-0.6109896302223206,-1.059864163398743,0.2267966568470001,4.100659370422363,5.129693984985352,76.67133331298828,35.09,0
-0.5656290054321289,-0.9488529562950134,0.2183161079883575,4.318960189819336,5.129499912261963,76.65294647216797,35.09,0
-0.5309213399887085,-0.9727745652198792,0.1848849058151245,2.9364585876464844,5.118358135223389,76.64114379882812,35.09,0
-0.4918546676635742,-1.0217126607894895,0.1466373652219772,0.9386500120162964,5.111207962036133,76.6335678100586,35.09,0
-0.4220017194747925,-1.0195317268371582,0.1108967438340187,-0.2252034395933151,5.106619358062744,76.62870788574219,35.09,0
-0.3547830283641815,-1.0013388395309448,0.0991560220718383,-0.6783263683319092,5.10367488861084,76.6255874633789,35.09,0
-0.3228414952754974,-0.9616747498512268,0.1084148213267326,-2.1406168937683105,5.101785182952881,76.62358856201172,35.09,0
-0.3023432493209839,-0.9306228756904602,0.0863677114248275,-5.024369239807129,5.10057258605957,76.62230682373047,35.09,0
-0.2779931128025055,-0.9050977826118468,0.0722191482782363,-7.82079553604126,5.099794387817383,76.6214828491211,35.09,0
-0.2455732673406601,-0.8719239234924316,0.0743349641561508,-9.805256843566896,5.099294662475586,76.6209487915039,35.09,0
-0.2135725319385528,-0.8450371026992798,0.0868883207440376,-11.755877494812012,5.093465805053711,76.62061309814453,35.09,0
-0.1594496518373489,-0.8165870904922485,0.1173354387283325,-13.717022895812988,5.089725017547607,76.62039184570312,35.09,0
-0.0967278331518173,-0.7815362215042114,0.1536679714918136,-14.416691780090332,5.087324142456055,76.62025451660156,35.09,0
-0.0788676813244819,-0.7702381610870361,0.1601907759904861,-13.303695678710938,5.0857834815979,76.62016296386719,35.09,0
-0.1457749009132385,-0.8077698945999146,0.1139967665076255,-11.557657241821287,5.084794998168945,76.62010192871094,35.09,0
-0.23349429666996,-0.8710399866104126,0.0675587877631187,-10.494471549987791,5.084160327911377,76.62006378173828,35.09,0
-0.3401675224304199,-0.9564253091812134,0.0321597941219806,-10.073708534240724,5.083753108978272,76.62004089355469,35.09,0
-0.3974287211894989,-1.0727962255477903,-0.0017527915770187,-9.470507621765137,5.083491802215576,76.62002563476562,35.09,0
-0.4565667510032654,-1.1810630559921265,-0.0347114875912666,-8.13760757446289,5.083783149719238,76.6200180053711,35.09,0
-0.4945181310176849,-1.1217936277389526,-0.0502647049725055,-6.089231491088867,5.083970069885254,76.62001037597656,35.09,0
-0.5020798444747925,-1.0165846347808838,-0.0490503162145614,-4.2659759521484375,5.084089756011963,76.62001037597656,35.09,0
-0.5125302672386169,-0.9826542139053344,-0.059466540813446,-4.313991069793701,5.084167003631592,76.62001037597656,35.09,0
-0.4744545519351959,-0.9776729345321656,-0.0549555271863937,-6.333133697509766,5.084216594696045,76.62001037597656,35.09,0
-0.4332264363765716,-0.9744762182235718,-0.0520606189966201,-7.89401388168335,5.084248065948486,76.62001037597656,35.09,0
-0.4067685902118683,-0.9332403540611268,-0.033409509807825,-7.082913875579834,5.084268569946289,76.62001037597656,35.09,0
-0.4121805727481842,-0.884386420249939,-0.0102447532117366,-4.9968109130859375,5.0842814445495605,76.62001037597656,35.09,0
-0.4212514460086822,-0.8530347943305969,0.0102188298478722,-3.7512171268463135,5.079240322113037,76.62001037597656,35.11,0
-0.432670384645462,-0.8441106677055359,0.0569378249347209,-3.847510576248169,5.076004981994629,76.62001037597656,35.11,0
-0.4511939585208893,-0.838383674621582,0.1037127077579498,-4.392953872680664,5.0739288330078125,76.62001037597656,35.11,0
-0.4910701811313629,-0.823512852191925,0.1505234688520431,-4.266505241394043,5.072596549987793,76.62001037597656,35.11,0
-0.5278559923171997,-0.813969612121582,0.1917594671249389,-2.816813945770264,5.071741580963135,76.62001037597656,35.11,0
-0.5738540887832642,-0.8190408945083618,0.2350156754255294,-0.6899055242538452,5.071192741394043,76.62001037597656,35.11,0
-0.6033730506896973,-0.8446864485740662,0.2683728039264679,0.2845211327075958,5.070840835571289,76.62001037597656,35.11,0
-0.6279143691062927,-0.8667420744895935,0.2841817140579223,-0.516012966632843,5.070614814758301,76.6271743774414,35.11,0
-0.6548591256141663,-0.8864938616752625,0.2719358503818512,-0.5640148520469666,5.065420627593994,76.63176727294922,35.11,0
-0.6329663395881653,-0.921560525894165,0.3256526887416839,3.682775497436523,5.062087059020996,76.63471984863281,35.11,0
-0.7084811925888062,-0.9160754084587096,0.2705606818199157,12.957069396972656,5.059947967529297,76.63661193847656,35.11,0
-0.6785734295845032,-0.9293487071990968,0.2352057844400406,24.483264923095703,5.05857515335083,76.63782501220703,35.11,0
-0.6369892358779907,-0.9266712069511414,0.2013214975595474,34.39508438110352,5.057693958282471,76.63860321044922,35.11,0
-0.5935095548629761,-0.9473440051078796,0.1571854203939438,40.3080940246582,5.05712890625,76.63910675048828,35.11,0
-0.5600090622901917,-0.9885995388031006,0.1176658794283866,42.64461517333984,5.056766033172607,76.6394271850586,35.11,0
-0.5105214715003967,-1.0318682193756104,0.0755111873149871,43.47053527832031,5.056533336639404,76.63963317871094,35.11,0
-0.4171876907348633,-1.0148533582687378,0.0708498284220695,43.16940689086914,5.055006504058838,76.63976287841797,35.11,0
-0.3349003493785858,-0.987140953540802,0.0734562128782272,39.46523666381836,5.0540266036987305,76.63984680175781,35.11,0
-0.2764952778816223,-0.94136780500412,0.0695310682058334,30.954742431640625,5.053398132324219,76.63990020751953,35.11,0
-0.2446120530366897,-0.8896021842956543,0.061414361000061,19.89004898071289,5.052994728088379,76.63993835449219,35.11,0
-0.2241512238979339,-0.8227953314781189,0.0618032999336719,9.78000259399414,5.052735805511475,76.63996124267578,35.11,0
-0.2166184186935424,-0.7575314044952393,0.0676506757736206,1.8087704181671145,5.052569389343262,76.63997650146484,35.11,0
-0.2117843031883239,-0.7100510001182556,0.0825987309217453,-4.922448635101318,5.052462577819824,76.63998413085938,35.11,0
-0.2142798155546188,-0.6851786375045776,0.1145826280117034,-10.99761962890625,5.052394390106201,76.6399917602539,35.11,0
-0.2214790731668472,-0.674814760684967,0.1463036090135574,-16.071399688720703,5.053727626800537,76.6399917602539,35.11,0
-0.2484902292490005,-0.7297393083572388,0.1610625237226486,-19.69646453857422,5.054583549499512,76.6399917602539,35.11,0
-0.2882155478000641,-0.848953366279602,0.1705339550971985,-21.686059951782227,5.055132389068604,76.6399917602539,35.11,0
-0.3305022716522217,-0.953446924686432,0.1822099387645721,-22.199779510498047,5.055484771728516,76.6399917602539,35.11,0
-0.3968238830566406,-1.1380581855773926,0.2120940089225769,-21.791444778442383,5.055710792541504,76.6399917602539,35.11,0
-0.456178605556488,-1.2397377490997314,0.2256741225719452,-20.902448654174805,5.055856227874756,76.6399917602539,35.11,0
-0.4774757325649261,-1.1650453805923462,0.2231934964656829,-19.51869773864746,5.0559492111206055,76.6399917602539,35.11,0
-0.451958566904068,-1.0387433767318726,0.2048082500696182,-17.864013671875,5.056008815765381,76.6399917602539,35.11,0
-0.4411809146404266,-1.0080699920654297,0.1874118894338607,-16.82362937927246,5.078081607818604,76.6399917602539,35.09,0
-0.4230688810348511,-1.0051788091659546,0.1594545841217041,-16.68260955810547,5.0922465324401855,76.6399917602539,35.09,0
-0.3890545070171356,-1.0033234357833862,0.1415131986141204,-16.033227920532227,5.10133695602417,76.6399917602539,35.09,0
-0.3616282641887665,-0.974143922328949,0.1299994438886642,-13.542181015014648,5.107170581817627,76.6399917602539,35.09,0
-0.3776143491268158,-0.916233777999878,0.1282083541154861,-10.360072135925291,5.11091423034668,76.6399917602539,35.09,0
-0.3934710621833801,-0.8734725713729858,0.1270589381456375,-8.848198890686035,5.113316535949707,76.6399917602539,35.09,0
-0.4092447757720947,-0.8516286611557007,0.1375168561935424,-9.396978378295898,5.114858150482178,76.6399917602539,35.09,0
-0.4081718623638153,-0.8488060832023621,0.1610214710235595,-10.318782806396484,5.115847587585449,76.6399917602539,35.09,0
-0.3906900286674499,-0.8693857789039612,0.2040942460298538,-10.372957229614258,5.147697925567627,76.60417175292969,35.09,0
-0.3514823019504547,-0.8713971376419067,0.2149425595998764,-9.50849723815918,5.168137550354004,76.58118438720703,35.09,0
-0.3039299547672272,-0.8782856464385986,0.2107088267803192,-7.739243507385254,5.181254386901856,76.5664291381836,35.09,0
-0.2678158283233642,-0.91629296541214,0.1800029873847961,-5.041835308074951,5.189671993255615,76.55696105957031,35.09,0
-0.2558353841304779,-0.9518794417381288,0.1491021960973739,-2.0318143367767334,5.195074081420898,76.55088806152344,35.09,0
-0.2761359214782715,-0.9747167825698853,0.1236740797758102,0.6306893229484558,5.198540687561035,76.54698944091797,35.09,0
-0.2947613894939422,-1.011763572692871,0.1073557808995246,3.306626558303833,5.200765609741211,76.54448699951172,35.09,0
-0.3235074877738952,-1.069124698638916,0.0968836322426796,6.49274492263794,5.202193260192871,76.54287719726562,35.09,0
-0.3587484061717987,-1.0331647396087646,0.078967660665512,9.440220832824709,5.227438926696777,76.5418472290039,35.09,0
-0.3757662177085876,-0.9820988178253174,0.0506769008934497,10.883919715881348,5.243639945983887,76.54118347167969,35.09,0
-0.4146761298179626,-1.0220986604690552,0.004532647319138,10.560083389282228,5.254036903381348,76.54075622558594,35.09,0
-0.4172551929950714,-1.0701594352722168,-0.0362756289541721,9.241665840148926,5.260709285736084,76.54048919677734,35.09,0
-0.390921413898468,-1.0898064374923706,-0.0512684844434261,8.05523681640625,5.264991283416748,76.54031372070312,35.09,0
-0.3292396962642669,-1.057632565498352,-0.0440967120230197,7.816910743713379,5.267739295959473,76.54019927978516,35.09,0
-0.2952536940574646,-1.031387448310852,-0.0338965058326721,8.15836238861084,5.269502639770508,76.54013061523438,35.09,0
-0.2958345413208008,-1.025740385055542,-0.038546148687601,7.933247089385986,5.270634174346924,76.54008483886719,35.09,0
-0.2906095087528229,-1.0165187120437622,-0.0583233460783958,7.097343444824219,5.27916431427002,76.54005432128906,35.09,0
-0.2760608494281769,-1.0161985158920288,-0.07101521641016,6.937079429626465,5.284638404846191,76.54003143310547,35.09,0
-0.2555288076400757,-1.0103952884674072,-0.073562353849411,8.188445091247559,5.288151264190674,76.54002380371094,35.09,0
-0.2479503005743026,-1.0010733604431152,-0.0695991814136505,10.352877616882324,5.290405750274658,76.5400161743164,35.09,0
-0.2430868446826934,-1.011884331703186,-0.0614580698311328,12.802329063415527,5.291852474212647,76.54000854492188,35.09,0
-0.2343679815530777,-1.018822193145752,-0.0562335737049579,14.789824485778809,5.292780876159668,76.54000854492188,35.09,0
-0.2287727147340774,-1.023274540901184,-0.0416852459311485,14.660914421081545,5.293376922607422,76.54000854492188,35.09,0
-0.2139864563941955,-1.003740668296814,-0.0155556425452232,11.210566520690918,5.293759346008301,76.54000854492188,35.09,0
-0.2100952565670013,-1.0191938877105713,0.0068106073886156,5.8329176902771,5.294004440307617,76.54000854492188,35.11,0
-0.2131958901882171,-0.9955242276191713,0.032359529286623,2.063002824783325,5.294161796569824,76.54000854492188,35.11,0
-0.2487723380327224,-0.9579432606697084,0.0767442286014556,2.6996254920959477,5.294262886047363,76.54000854492188,35.11,0
-0.3051899075508117,-0.9674126505851746,0.1332166492938995,7.188726902008057,5.294327735900879,76.54000854492188,35.11,0
-0.3581887781620025,-0.9678917527198792,0.2198373675346374,11.294815063476562,5.294369220733643,76.54000854492188,35.11,0
-0.319429337978363,-0.9737970232963562,0.2698277831077575,9.910215377807615,5.294395923614502,76.54000854492188,35.11,0
-0.2217846810817718,-0.9495977759361268,0.3242998421192169,1.6558842658996582,5.294413089752197,76.54000854492188,35.11,0
-0.2150997072458267,-0.9116770029067992,0.3144746720790863,-9.230088233947754,5.294424057006836,76.54000854492188,35.11,0
-0.2332007735967636,-0.8985372185707092,0.2857783734798431,-16.76779556274414,5.285708904266357,76.54000854492188,35.11,0
-0.2672080993652344,-0.9013003706932068,0.2673627138137817,-18.82498359680176,5.280116081237793,76.54717254638672,35.11,0
-0.2946298122406006,-0.9198669195175172,0.2611424028873443,-17.282690048217773,5.276526927947998,76.55176544189453,35.11,0
-0.3234230279922485,-0.9429774284362792,0.2515527904033661,-14.01441764831543,5.274223804473877,76.55471801757812,35.11,0
-0.3251075446605682,-0.9522106647491456,0.2398009449243545,-9.602684020996094,5.272745609283447,76.55661010742188,35.11,0
-0.3149930238723755,-0.952538251876831,0.2322592884302139,-4.700758934020996,5.271797180175781,76.55782318115234,35.11,0
-0.302904337644577,-0.9303573369979858,0.2162239402532577,0.1682333499193191,5.271188735961914,76.55860137939453,35.11,0
-0.3007442951202392,-0.9161229133605956,0.2003355920314788,4.862040519714356,5.270798206329346,76.5591049194336,35.11,0
-0.3161514103412628,-0.923781394958496,0.1789438277482986,8.322077751159668,5.262284755706787,76.5594253540039,35.11,0
-0.3316365778446197,-0.9230983853340148,0.1652158200740814,8.994857788085938,5.256821632385254,76.55963134765625,35.11,0
-0.3415740728378296,-0.9338556528091432,0.1620037406682968,6.997622966766357,5.253315448760986,76.55976104736328,35.11,0
-0.3423536121845245,-0.9575523734092712,0.1543446481227874,4.060762405395508,5.251065254211426,76.55984497070312,35.11,0
-0.354049414396286,-1.023139476776123,0.1438317000865936,1.5311908721923828,5.249621391296387,76.55989837646484,35.11,0
-0.3895439803600311,-1.0708273649215698,0.1258895546197891,-0.4181568622589111,5.248694896697998,76.5599365234375,35.11,0
-0.4123223721981048,-1.0398551225662231,0.0975819900631904,-2.106210470199585,5.248100280761719,76.5599594116211,35.11,0
-0.4269402325153351,-1.0367722511291504,0.068220280110836,-3.594336986541748,5.247718811035156,76.55997467041016,35.11,0
-0.4251255691051483,-1.079576015472412,0.0381820760667324,-4.459766387939453,5.239669799804688,76.55998229980469,35.11,0
-0.4015699326992035,-1.1014472246170044,0.0189052838832139,-4.1266703605651855,5.234504699707031,76.55998992919922,35.11,0
-0.3528666198253631,-1.1154829263687134,0.0009367748280055,-2.970691442489624,5.231189727783203,76.55998992919922,35.11,0
-0.3160138726234436,-1.096501350402832,-0.010594381019473,-2.7554891109466557,5.229062557220459,76.55998992919922,35.11,0
-0.2867661416530609,-1.0731245279312134,-0.017994413152337,-5.014127731323242,5.227697372436523,76.55998992919922,35.11,0
-0.267996609210968,-1.0469270944595337,-0.0283411014825105,-9.068124771118164,5.226821422576904,76.55998992919922,35.11,0
-0.2559514045715332,-1.0301151275634766,-0.0349810123443603,-12.565390586853027,5.226259231567383,76.55998992919922,35.11,0
-0.2482215017080307,-1.0081305503845217,-0.0504376739263534,-14.007237434387209,5.225898265838623,76.55998992919922,35.11,0
-0.2432608902454376,-0.9828266501426696,-0.065954640507698,-13.98673152923584,5.213272571563721,76.55998992919922,35.11,0
-0.2288819104433059,-0.9553924798965454,-0.0703147649765014,-14.07030200958252,5.205170154571533,76.55998992919922,35.11,0
-0.2252520769834518,-0.9321890473365784,-0.067515067756176,-15.24169635772705,5.199970245361328,76.55998992919922,35.11,0
-0.2229226529598236,-0.917298436164856,-0.0601206086575984,-17.401382446289062,5.196633338928223,76.55998992919922,35.11,0
-0.215829998254776,-0.9077425003051758,-0.0329841710627079,-19.7761344909668,5.194491863250732,76.55998992919922,35.11,0
-0.2000827938318252,-0.8904144763946533,0.0124193029478192,-21.321609497070312,5.193117618560791,76.55998992919922,35.11,0
-0.1899771392345428,-0.8904898762702942,0.0415566377341747,-21.059505462646484,5.192235946655273,76.55998992919922,35.11,0
-0.2226763367652893,-0.940918266773224,0.0770486295223236,-19.01045036315918,5.191669940948486,76.55998992919922,35.11,0
-0.2604541182518005,-0.9788780808448792,0.1222164407372474,-16.50965118408203,5.183043956756592,76.55998992919922,35.11,0
-0.3070888221263885,-0.930467426776886,0.2239736169576645,-14.453377723693848,5.177508354187012,76.55998992919922,35.11,0
-0.3482118248939514,-0.9385846853256226,0.3228621482849121,-11.933616638183594,5.173955917358398,76.55282592773438,35.11,0
-0.3410155773162842,-0.9773805141448976,0.3695298135280609,-7.841019630432129,5.171676158905029,76.54823303222656,35.11,0
-0.2356374859809875,-1.019070744514465,0.3379029035568237,-2.9826817512512207,5.170213222503662,76.54528045654297,35.11,0
-0.1624141186475753,-1.0402274131774902,0.3064110279083252,0.8193919658660889,5.16927433013916,76.54338836669922,35.11,0
-0.1825968772172927,-1.0202178955078125,0.2694080173969269,3.1518664360046387,5.168671607971191,76.54217529296875,35.11,0
-0.223537877202034,-0.9961813688278198,0.2512593865394592,5.146692276000977,5.168284893035889,76.54139709472656,35.11,0
-0.261007010936737,-0.9695605635643004,0.2452104240655899,7.648515224456787,5.162528038024902,76.5408935546875,35.11,0
-0.2850525379180908,-0.93568354845047,0.241328552365303,10.468534469604492,5.1588335037231445,76.54057312011719,35.11,0
-0.3060813546180725,-0.9139432311058044,0.2332396209239959,13.17748737335205,5.156462669372559,76.54036712646484,35.11,0
-0.3083808720111847,-0.9055892825126648,0.2280486077070236,15.460488319396973,5.154941082000732,76.54023742675781,35.11,0
-0.2930632531642914,-0.8946304321289062,0.224717304110527,16.950664520263672,5.153964996337891,76.54015350341797,35.11,0
-0.2832332849502563,-0.8875976800918579,0.2225794792175293,17.588125228881836,5.153338432312012,76.54010009765625,35.11,0
-0.2769249975681305,-0.8998777866363525,0.2156097590923309,17.767925262451172,5.152936458587647,76.5400619506836,35.11,0
-0.2728766798973083,-0.924551784992218,0.2055392265319824,17.689851760864258,5.152678489685059,76.5400390625,35.11,0
-0.2702787220478058,-0.9403861165046692,0.2102720886468887,17.06295394897461,5.151594638824463,76.54002380371094,35.11,0
-0.2742092609405517,-0.9393521547317504,0.2189071327447891,15.750673294067385,5.1508989334106445,76.5400161743164,35.11,0
-0.2823294401168823,-0.9722752571105956,0.2188508361577987,14.217089653015137,5.150452613830566,76.54000854492188,35.11,0
-0.3043338060379028,-1.0101966857910156,0.2020213901996612,13.035881996154783,5.150166034698486,76.54000854492188,35.11,0
-0.3240527212619781,-1.017739176750183,0.185623437166214,12.019906044006348,5.149982452392578,76.54000854492188,35.11,0
-0.3311094343662262,-0.9889928698539734,0.1527090817689895,10.533170700073242,5.149864196777344,76.54000854492188,35.11,0
-0.3412357866764068,-1.0097296237945557,0.1315865516662597,8.676260948181152,5.1497883796691895,76.54000854492188,35.11,0
-0.3365387618541717,-1.028635025024414,0.1180313229560852,7.180083751678467,5.149739742279053,76.54000854492188,35.11,0
-0.294340044260025,-1.051962971687317,0.1037345826625824,5.983473300933838,5.142823219299316,76.54000854492188,35.11,0
-0.261661559343338,-1.0837267637252808,0.1001575291156768,3.983151912689209,5.138384342193604,76.54000854492188,35.11,0
-0.2294948399066925,-1.087317705154419,0.109057530760765,0.5212547183036804,5.135535717010498,76.54000854492188,35.11,0
-0.2088520973920822,-1.0560355186462402,0.1147690415382385,-3.756790161132813,5.133707523345947,76.54000854492188,35.11,0
-0.1900070011615753,-1.0135692358016968,0.1184343621134758,-7.795502662658691,5.132534503936768,76.54000854492188,35.11,0
-0.1723155230283737,-0.9583280086517334,0.1263843327760696,-11.196978569030762,5.131781578063965,76.54000854492188,35.11,0
-0.155364379286766,-0.9172795414924622,0.1370839327573776,-14.128607749938965,5.131298542022705,76.54000854492188,35.11,0
-0.1388883292675018,-0.8741437196731567,0.1495480984449386,-16.826786041259766,5.130988597869873,76.54000854492188,35.11,0
-0.1227171793580055,-0.8352660536766052,0.1631446480751037,-19.48262596130371,5.126199245452881,76.54000854492188,35.11,0
-0.1235350146889686,-0.8103166222572327,0.1718701422214508,-22.00023651123047,5.123125553131104,76.54000854492188,35.11,0
-0.152048721909523,-0.839087724685669,0.1718718856573104,-23.85234260559082,5.121153354644775,76.54000854492188,35.11,0
-0.1815427392721176,-0.8799424171447754,0.1718730032444,-24.43188095092773,5.119887351989746,76.54358673095703,35.11,0
-0.2172636240720749,-0.9061606526374816,0.1830692738294601,-23.119983673095703,5.119074821472168,76.54588317871094,35.11,0
-0.2793716490268707,-0.9397792816162108,0.1958521604537964,-19.02510452270508,5.118553638458252,76.54735565185547,35.11,0
-0.3360223174095154,-0.961353838443756,0.1928599327802658,-11.52852725982666,5.118219375610352,76.54830169677734,35.11,0
-0.400366336107254,-0.9472102522850036,0.1909396946430206,-1.2398971319198608,5.11800479888916,76.54891204833984,35.11,0
-0.4472563862800598,-0.8933514952659607,0.184109628200531,9.762155532836914,5.11694860458374,76.54930114746094,35.11,0
-0.5221299529075623,-0.8867769241333008,0.1741287112236023,18.56018829345703,5.116271018981934,76.54955291748047,35.11,0
-0.5701794624328613,-0.932937741279602,0.1789190769195556,22.526031494140625,5.115836143493652,76.54971313476562,35.11,0
-0.561830461025238,-0.9793543815612792,0.198786586523056,20.42806434631348,5.115557193756104,76.54981994628906,35.11,0
-0.5172881484031677,-1.0091419219970703,0.2451230585575103,13.33167552947998,5.115377902984619,76.54988861083984,35.11,0
-0.4887034296989441,-1.0002689361572266,0.2636635899543762,4.869031429290772,5.115262985229492,76.5499267578125,35.11,0
-0.4703594148159027,-0.9497926235198976,0.24197518825531,-0.5797193050384521,5.115189075469971,76.54995727539062,35.11,0
-0.4585872888565063,-0.8726176023483276,0.205665722489357,-1.2211008071899414,5.115141868591309,76.54997253417969,35.11,0
-0.4510326087474823,-0.8174933791160583,0.1767666190862655,1.39457368850708,5.1082258224487305,76.54998016357422,35.11,0
-0.4685755372047424,-0.7765200138092041,0.1582208424806594,4.971928119659424,5.103787422180176,76.54998779296875,35.11,0
-0.4966269135475158,-0.7446278929710388,0.1463192254304886,7.984183311462402,5.1009392738342285,76.54999542236328,35.11,0
-0.5314220190048218,-0.7129658460617065,0.1498769968748092,8.971475601196289,5.099111557006836,76.54999542236328,35.11,0
-0.5705448389053345,-0.709440290927887,0.1577579528093338,7.13308572769165,5.097938537597656,76.54999542236328,35.11,0
-0.5956515669822693,-0.7071778178215027,0.1796088218688964,3.871836423873901,5.0971856117248535,76.54999542236328,35.11,0
-0.6117636561393738,-0.7449102997779846,0.2104247659444809,1.6069906949996948,5.096702575683594,76.54999542236328,35.11,0
-0.6500923037528992,-0.8083092570304871,0.2357984483242035,1.1315861940383911,5.096392631530762,76.54999542236328,35.11,0
-0.6858850121498108,-0.8881794810295105,0.2632773518562317,1.7078125476837158,5.0916032791137695,76.54999542236328,35.11,0
-0.7088546752929688,-0.9898155331611632,0.3033028244972229,3.026983976364136,5.088529586791992,76.54999542236328,35.11,0
-0.6844108700752258,-1.015855312347412,0.3289888799190521,5.174027442932129,5.086557388305664,76.54999542236328,35.11,0
-0.5847576260566711,-0.9765883684158324,0.3286793828010559,7.171661853790283,5.085291385650635,76.54999542236328,35.11,0
-0.5040125846862793,-0.9569869041442872,0.3172852098941803,7.514993667602539,5.084478855133057,76.54999542236328,35.11,0
-0.4354017674922943,-0.9835922122001648,0.2819842398166656,6.033600807189941,5.083957672119141,76.54999542236328,35.11,0
-0.3521868586540222,-0.9782748818397522,0.2313412278890609,3.904260873794556,5.08362340927124,76.54999542236328,35.11,0
-0.3043820858001709,-0.9580692052841188,0.1932436823844909,1.9753086566925049,5.083408832550049,76.54999542236328,35.11,0
-0.3128881752490997,-0.9115157127380372,0.1575993150472641,0.1749538481235504,5.075007915496826,76.54999542236328,35.11,0
-0.3183468878269195,-0.8760426044464111,0.13472481071949,-1.5715352296829224,5.069616794586182,76.54999542236328,35.11,0
-0.3106544315814972,-0.8532779812812805,0.114447496831417,-3.0971624851226807,5.066157341003418,76.54999542236328,35.11,0
-0.2833267450332641,-0.8554623126983643,0.1126302331686019,-4.613608360290527,5.063937187194824,76.54999542236328,35.11,0
-0.2545938491821289,-0.8624618649482727,0.1226595714688301,-6.4895853996276855,5.062512397766113,76.54283142089844,35.11,0
-0.2193614244461059,-0.8613559603691101,0.1458891481161117,-8.331177711486816,5.06159782409668,76.5382308959961,35.11,0
-0.2079468220472335,-0.8606462478637695,0.1607965528964996,-9.40552806854248,5.061010837554932,76.5352783203125,35.11,0
-0.217414915561676,-0.8322019577026367,0.1591677218675613,-10.051993370056152,5.060634136199951,76.53338623046875,35.11,0
-0.2682731747627258,-0.8139480352401733,0.1581224203109741,-11.35533618927002,5.060392379760742,76.53217315673828,35.11,0
-0.345693290233612,-0.8134292364120483,0.1462560594081878,-13.459979057312012,5.060237407684326,76.5313949584961,35.11,0
-0.4513548016548157,-0.8298896551132202,0.1218475922942161,-15.308595657348633,5.060137748718262,76.53089141845703,35.11,0
-0.5247600674629211,-0.8628441095352173,0.1061836406588554,-15.713930130004885,5.060073852539063,76.53057098388672,35.11,0
-0.5886606574058533,-0.9511656761169434,0.0849358737468719,-13.99288558959961,5.060032844543457,76.53036499023438,35.11,0
-0.6296683549880981,-0.9910520315170288,0.0768980532884597,-10.434353828430176,5.060006618499756,76.53023529052734,35.11,0
-0.6447892189025879,-0.960671067237854,0.0941309407353401,-6.499125957489014,5.059989929199219,76.5301513671875,35.11,0
-0.6153084635734558,-0.9299787878990172,0.1051900163292884,-3.543813943862915,5.05997896194458,76.53009796142578,35.11,0
-0.6019871830940247,-0.9326733350753784,0.095493771135807,-1.4538060426712036,5.064103603363037,76.53005981445312,35.11,0
-0.548656165599823,-0.9455980658531188,0.0948690548539161,0.6505293846130371,5.066750526428223,76.53003692626953,35.11,0
-0.4640514254570007,-0.9650879502296448,0.0944681465625763,2.907362222671509,5.0684494972229,76.53002166748047,35.11,0
-0.409756988286972,-0.9608021378517152,0.0942108631134033,4.871558666229248,5.069539546966553,76.53001403808594,35.11,0
-0.3861094713211059,-0.9188673496246338,0.088447980582714,6.533315658569336,5.070239067077637,76.5300064086914,35.11,0
-0.382129430770874,-0.875162661075592,0.0847496911883354,8.169364929199219,5.070688247680664,76.5300064086914,35.11,0
-0.3907707929611206,-0.8303222060203552,0.1047674417495727,9.466485023498535,5.070976257324219,76.5300064086914,35.11,0
-0.401914119720459,-0.7959483861923218,0.1400047838687896,9.790176391601562,5.071161270141602,76.5300064086914,35.11,0
-0.4202608168125152,-0.7682914733886719,0.1794113963842392,9.163162231445312,5.066689491271973,76.5300064086914,35.09,0
-0.4376324415206909,-0.7393473386764526,0.2326891720294952,8.187568664550781,5.063819885253906,76.5300064086914,35.09,0
-0.4487805366516113,-0.7263703942298889,0.2556842267513275,7.074258804321289,5.061978340148926,76.5300064086914,35.09,0
-0.4839236140251159,-0.7404336333274841,0.2480500340461731,5.525060176849365,5.06079626083374,76.5300064086914,35.09,0
-0.523269772529602,-0.7606541514396667,0.243150845170021,3.4704315662384038,5.060037612915039,76.5300064086914,35.09,0
-0.5485198497772217,-0.7736305594444275,0.2344090640544891,1.5213557481765747,5.059550762176514,76.5300064086914,35.09,0
-0.581517219543457,-0.8267402648925781,0.2232013046741485,0.6180610060691833,5.059238433837891,76.5300064086914,35.09,0
-0.6138885617256165,-0.8888118863105774,0.2328021377325058,1.24570631980896,5.059038162231445,76.5300064086914,35.09,0
-0.5954782366752625,-0.9118525385856628,0.2445611804723739,2.89164662361145,5.058450222015381,76.5300064086914,35.09,0
-0.55567467212677,-0.9546275734901428,0.2297163605690002,4.539041519165039,5.058073043823242,76.5300064086914,35.09,0
-0.5301310420036316,-1.021262526512146,0.2145920246839523,5.81478214263916,5.057830810546875,76.5300064086914,35.09,0
-0.4577608406543731,-1.047231674194336,0.1880927830934524,7.213856220245361,5.057675361633301,76.5300064086914,35.09,0
-0.4113178253173828,-1.0303105115890503,0.1654893159866333,8.842546463012695,5.057575702667236,76.5300064086914,35.09,0
-0.3927089273929596,-0.974669337272644,0.1565814912319183,9.461420059204102,5.057511806488037,76.52642059326172,35.09,0
-0.3751690089702606,-0.9333642721176147,0.1340716332197189,7.59080696105957,5.057470798492432,76.52411651611328,35.09,0
-0.3527173697948456,-0.9012593030929564,0.1308216452598571,3.585198163986206,5.057444095611572,76.52264404296875,35.09,0
-0.3327114284038543,-0.8694605827331543,0.1343337744474411,-0.5222958922386169,5.054214000701904,76.52169799804688,35.09,0
-0.3254705369472503,-0.8322607278823853,0.1365876495838165,-3.502176284790039,5.052141189575195,76.52108764648438,35.09,0
-0.3544103801250458,-0.7803990840911865,0.171620711684227,-5.833653450012207,5.050810813903809,76.52069854736328,35.09,0
-0.3729823231697082,-0.7303239703178406,0.1941029131412506,-7.938899040222168,5.049957275390625,76.52044677734375,35.09,0
-0.396096259355545,-0.6981886625289917,0.2085306942462921,-9.340080261230469,5.04940938949585,76.5202865600586,35.09,0
-0.444516122341156,-0.6831638216972351,0.2233873903751373,-9.802204132080078,5.049057960510254,76.52017974853516,35.09,0
-0.4979802966117859,-0.6903150677680969,0.2385193407535553,-9.790666580200195,5.048832416534424,76.52011108398438,35.09,0
-0.5546815991401672,-0.7396864891052246,0.2426323741674423,-9.704445838928224,5.04868745803833,76.52007293701172,35.09,0
-0.5742759108543396,-0.8161524534225464,0.2508696615695953,-9.566715240478516,5.04767656326294,76.5200424194336,35.09,0
-0.5756548643112183,-0.8876150250434875,0.2449603229761123,-9.227547645568848,5.047028064727783,76.52002716064453,35.09,0
-0.5765398144721985,-0.9838555455207824,0.2299724966287613,-8.34352970123291,5.046611785888672,76.52001953125,35.09,0
-0.5771077275276184,-1.0288238525390625,0.2259519547224044,-6.765932083129883,5.046344757080078,76.52001190185547,35.09,0
-0.5326899886131287,-0.9625197649002076,0.2121762484312057,-5.205386638641357,5.046173095703125,76.52000427246094,35.09,0
-0.4985874593257904,-0.95355623960495,0.1753469258546829,-4.544262886047363,5.04606294631958,76.52000427246094,35.09,0
-0.4599090814590454,-0.958999514579773,0.1461142152547836,-4.367189407348633,5.045992374420166,76.52000427246094,35.09,0
-0.3791097998619079,-0.9624927043914796,0.1217565611004829,-3.390153169631958,5.045947074890137,76.52000427246094,35.09,0
-0.3048663735389709,-0.964734435081482,0.1061252281069755,-1.394603610038757,5.044081687927246,76.52000427246094,35.09,0
-0.2796123027801513,-0.9157930612564088,0.096093937754631,0.5129758715629578,5.042884349822998,76.52000427246094,35.09,0
-0.3081879019737243,-0.861994206905365,0.0784608796238899,1.353814959526062,5.042116165161133,76.52000427246094,35.09,0
-0.3321238458156585,-0.810675859451294,0.0727427750825882,0.8902959227561951,5.041623115539551,76.52000427246094,35.09,0
-0.3586800992488861,-0.7777427434921265,0.1026598662137985,-0.5607531666755676,5.041306972503662,76.52000427246094,35.09,0
-0.3869179189205169,-0.7566081285476685,0.1330544799566269,-2.03292179107666,5.041103839874268,76.52000427246094,35.09,0
-0.4218326508998871,-0.7598384618759155,0.1749510914087295,-2.4582016468048096,5.040973663330078,76.52000427246094,35.09,0
-0.4554344713687897,-0.7787048816680908,0.2186312526464462,-1.8068171739578247,5.040889739990234,76.52000427246094,35.09,0
-0.4937915205955505,-0.8076055645942688,0.2466626614332199,-1.2025021314620972,5.038081645965576,76.52000427246094,35.09,0
-0.5519934892654419,-0.8485434651374817,0.2814449369907379,-1.746157169342041,5.036279678344727,76.52000427246094,35.09,0
-0.5837463736534119,-0.8916083574295044,0.3429506123065948,-3.732280731201172,5.035123348236084,76.52000427246094,35.09,0
-0.6209169030189514,-0.94723379611969,0.3768236339092254,-6.934286117553711,5.03438138961792,76.52000427246094,35.09,0
-0.6391730308532715,-1.0501042604446411,0.4097569584846496,-10.855670928955078,5.033905029296875,76.52000427246094,35.09,0
-0.6340954303741455,-1.1329139471054075,0.4140983521938324,-14.644004821777344,5.033599376678467,76.52000427246094,35.09,0
-0.5188814401626587,-1.0741009712219238,0.3776999711990356,-17.36890983581543,5.033403396606445,76.5235824584961,35.09,0
