acc_x,acc_y,acc_z,bvp,eda,hr,temp,label
0.0,0.0,0.0,0.0,0.0,0.0,29.45,0
-0.0442708320915699,-0.1015624925494194,0.1249999925494194,31.02166557312012,0.4424144625663757,12.4399995803833,29.45,0
-0.1036585420370101,-0.2336128056049347,0.3010670840740204,65.56658172607422,1.0358973741531372,29.127805709838867,29.45,0
-0.160299003124237,-0.348473846912384,0.4591985046863556,89.94720458984375,1.5521252155303955,43.6433219909668,29.45,0
-0.1695920825004577,-0.4482857584953308,0.5745639204978943,105.59548950195312,1.9287413358688357,54.233177185058594,29.45,0
-0.1758838891983032,-0.5158626437187195,0.6416917443275452,109.59535217285156,2.1837263107299805,61.4029541015625,29.45,0
-0.2410960495471954,-0.5324374437332153,0.6579718589782715,97.95065307617188,2.3510332107543945,66.10736083984375,29.45,0
-0.2777514457702636,-0.5543307662010193,0.668515682220459,73.99053192138672,2.4593896865844727,69.1541748046875,29.45,0
-0.2901834845542907,-0.5740240216255188,0.6753077507019043,44.44559860229492,2.511770009994507,71.1168441772461,29.45,0
-0.3037687242031097,-0.5922763347625732,0.674078643321991,12.161157608032228,2.5454370975494385,72.37833404541016,29.45,0
-0.3180890083312988,-0.6039971113204956,0.6844823360443115,-18.84646987915039,2.56705641746521,73.18840789794922,29.45,0
-0.3160868883132934,-0.6227153539657593,0.6911605596542358,-36.07828521728516,2.5809342861175537,73.70840454101562,29.45,0
-0.3371921181678772,-0.6179362535476685,0.6954467296600342,-37.46530151367188,2.58984112739563,74.04214477539062,29.45,0
-0.339541494846344,-0.6204668283462524,0.6981974840164185,-30.982627868652344,2.595557451248169,74.2563247680664,29.45,0
-0.3354514837265014,-0.6220908761024475,0.6943650841712952,-20.753501892089844,2.5992257595062256,74.3937759399414,29.45,0
-0.3552177548408508,-0.6231330633163452,0.6863078474998474,-6.264350414276123,2.6015799045562744,74.48198699951172,29.45,0
-0.3455115854740143,-0.6182041168212891,0.681137204170227,10.672024726867676,2.6012542247772217,74.5385971069336,29.45,0
-0.3336849510669708,-0.6206387877464294,0.6722211837768555,28.43012046813965,2.6010453701019287,74.5749282836914,29.45,0
-0.3372908234596252,-0.6277989745140076,0.6776949167251587,45.483131408691406,2.6009113788604736,74.5982437133789,29.45,0
-0.3396048843860626,-0.6267962455749512,0.6812076568603516,60.93365859985352,2.600825309753418,74.61320495605469,29.45,0
-0.3410899043083191,-0.6093593835830688,0.6834619641304016,72.50765228271484,2.6007699966430664,74.622802734375,29.45,0
-0.3980206549167633,-0.6037672162055969,0.6401264071464539,77.25182342529297,2.6007344722747803,74.62896728515625,29.45,0
-0.3785777688026428,-0.6225695610046387,0.6515005826950073,76.4415054321289,2.6007118225097656,74.63291931152344,29.45,0
-0.3716982305049896,-0.6178424954414368,0.6587998867034912,71.51134490966797,2.6006972789764404,74.63545227050781,29.45,0
-0.3672833442687988,-0.6204067468643188,0.6578863859176636,62.22840881347656,2.566718578338623,74.6370849609375,29.45,0
-0.3644501268863678,-0.616454541683197,0.6628978848457336,48.14945602416992,2.544913053512573,74.63813018798828,29.45,0
-0.3570341467857361,-0.6139182448387146,0.6605162024497986,32.368404388427734,2.530919551849365,74.63880157470703,29.45,0
-0.3578727841377258,-0.612290620803833,0.658987820148468,17.651756286621094,2.521939277648926,74.63922882080078,29.45,0
-0.352813184261322,-0.6000505089759827,0.6412136554718018,3.650421380996704,2.516176223754883,74.6395034790039,29.45,0
-0.3495662212371826,-0.5809999704360962,0.6130138635635376,-15.405449867248535,2.51247787475586,74.63967895507812,29.45,0
-0.3418847322463989,-0.540785551071167,0.561330258846283,-38.22450256347656,2.5101044178009038,74.6397933959961,29.45,0
-0.3649440705776214,-0.5597604513168335,0.5393582582473755,-57.69418716430664,2.5085813999176025,74.6398696899414,29.45,0
-0.3629488945007324,-0.5663396716117859,0.5196601152420044,-70.2818603515625,2.502554416656494,74.76889038085938,29.45,0
-0.3560707569122314,-0.553768515586853,0.4902256429195404,-84.4037094116211,2.498686552047729,74.8516845703125,29.45,0
-0.3796456158161163,-0.5680921673774719,0.4825318455696106,-108.52385711669922,2.496204376220703,74.90482330322266,29.45,0
-0.3891768455505371,-0.5996753573417664,0.4719966351985931,-133.1383514404297,2.4946115016937256,74.93891906738281,29.45,0
-0.4008912146091461,-0.6423347592353821,0.4596379399299621,-148.13560485839844,2.493589162826538,74.96080017089844,29.45,0
-0.4140065908432007,-0.6976999640464783,0.4573046267032623,-156.54190063476562,2.4929332733154297,74.97484588623047,29.45,0
-0.4112277328968048,-0.7388279438018799,0.4390139281749725,-180.77734375,2.4925122261047363,74.98385620117188,29.45,0
-0.4318355321884155,-0.7876126170158386,0.4272760152816772,-222.21437072753903,2.4922420978546143,74.98963928222656,29.45,0
-0.4450604319572449,-0.8804953098297119,0.4141454994678497,-264.8418884277344,2.4920687675476074,74.99335479736328,29.47,0
-0.4311563074588775,-0.9456998705863952,0.4057191014289856,-302.8093566894531,2.491957426071167,74.99573516845703,29.47,0
-0.4110378921031952,-0.976348876953125,0.3891159892082214,-357.0892028808594,2.4918859004974365,74.99726104736328,29.47,0
-0.409322589635849,-0.990419864654541,0.3392766416072845,-450.451416015625,2.491840124130249,74.99824523925781,29.47,0
-0.4250151216983795,-1.0050475597381592,0.3016948401927948,-571.0869750976562,2.4918107986450195,74.99887084960938,29.47,0
-0.4238901436328888,-1.020032525062561,0.2831747829914093,-696.3958129882812,2.4917919635772705,74.99927520751953,29.47,0
-0.4063748717308044,-1.0072579383850098,0.2656919062137604,-711.9277954101562,2.4917798042297363,74.9995346069336,29.47,0
-0.3895367980003357,-0.9934622049331664,0.243276834487915,-537.6040649414062,2.491771936416626,74.99970245361328,29.47,0
-0.3731333315372467,-0.9678155183792114,0.2176965922117233,-285.2101745605469,2.4931440353393555,74.99980926513672,29.47,0
-0.3682042956352234,-0.9457591772079468,0.1956828832626342,-57.55175018310547,2.494024515151977,74.9998779296875,29.47,0
-0.370638906955719,-0.9260069131851196,0.175957977771759,122.97128295898438,2.494589567184448,74.99992370605469,29.47,0
-0.3442124426364898,-0.9021355509757996,0.1521041244268417,248.03854370117188,2.4949522018432617,74.99995422363281,29.47,0
-0.3104601204395294,-0.8812184929847717,0.1311983168125152,305.7543640136719,2.495184898376465,74.99996948242188,29.47,0
-0.2664087414741516,-0.8733928799629211,0.1009888499975204,317.7723388671875,2.495334386825561,74.9999771118164,29.47,0
-0.2381390929222107,-0.8683708906173706,0.0760043784976005,313.9166564941406,2.4954302310943604,74.99998474121094,29.47,0
-0.2255950272083282,-0.8763436079025269,0.0431774593889713,305.8785705566406,2.495491743087769,74.99999237060547,29.47,0
-0.2399360686540603,-0.9038511514663696,0.0053177117370069,281.84716796875,2.495072364807129,74.99999237060547,29.47,0
-0.2603348791599273,-0.9382972121238708,-0.0189784951508045,248.7523498535156,2.4948031902313232,74.99999237060547,29.47,0
-0.2678278684616089,-0.99398934841156,-0.0625592768192291,225.50775146484372,2.4946305751800537,74.99999237060547,29.47,0
-0.2614409029483795,-1.063315987586975,-0.1129180118441581,217.2578887939453,2.4945197105407715,74.99999237060547,29.47,0
-0.2685376703739166,-1.1245992183685305,-0.1508331149816513,207.22027587890625,2.494448661804199,74.99999237060547,29.47,0
-0.2898852825164795,-1.0911561250686646,-0.1303826570510864,178.52732849121094,2.494402885437012,74.99999237060547,29.47,0
-0.3035849630832672,-1.0305098295211792,-0.1004654094576835,139.63943481445312,2.4943735599517822,74.99999237060547,29.47,0
-0.2955833077430725,-0.9915905594825744,-0.081266239285469,105.4367904663086,2.494354724884033,74.99999237060547,29.47,0
-0.2848505079746246,-0.9890055060386658,-0.0689453184604644,81.00119018554688,2.481488943099976,75.1361312866211,29.47,0
-0.2611694931983948,-0.9985421299934388,-0.0554406866431236,61.28585052490234,2.4732325077056885,75.22349548339844,29.47,0
-0.2291790693998336,-0.9878688454627992,-0.0299808662384748,46.70983505249024,2.4679341316223145,75.2795639038086,29.47,0
-0.203051671385765,-0.9586282968521118,-0.0080444449558854,40.69474792480469,2.464533805847168,75.31554412841797,29.47,0
-0.191882386803627,-0.9174723029136658,0.0228264108300209,41.6746711730957,2.4623517990112305,75.33863830566406,29.47,0
-0.1959101408720016,-0.8966584801673889,0.0426375493407249,44.78983688354492,2.460951328277588,75.35345458984375,29.47,0
-0.2040926963090896,-0.8833013772964478,0.0665467455983161,47.49115753173828,2.460052728652954,75.36296081542969,29.47,0
-0.1813549101352691,-0.8859251141548157,0.0986836180090904,50.77596282958984,2.4594759941101074,75.36906433105469,29.47,0
-0.1835564374923706,-0.8876088857650757,0.1137094348669052,54.81855392456055,2.441662311553955,75.37297821044922,29.43,0
-0.2353492230176925,-0.8998849987983704,0.1065588146448135,58.627349853515625,2.4302306175231934,75.37549591064453,29.43,0
-0.2629890739917755,-0.9021652936935424,0.1019699573516845,61.39046478271485,2.4228944778442383,75.37710571289062,29.43,0
-0.2695311903953552,-0.8924331068992615,0.1102206408977508,61.83453750610352,2.41818642616272,75.37814331054688,29.43,0
-0.2625339925289154,-0.908578634262085,0.1099176853895187,58.5190315246582,2.4151651859283447,75.3788070678711,29.43,0
-0.2692391574382782,-0.9301354885101318,0.0985277146100997,51.61217498779297,2.413226366043091,75.37923431396484,29.43,0
-0.2847376763820648,-0.9495671987533568,0.0856205150485038,42.73735427856445,2.41198205947876,75.37950897216797,29.43,0
-0.2890859544277191,-0.9620373845100404,0.0661418661475181,34.308502197265625,2.4111835956573486,75.37968444824219,29.43,0
-0.2750831246376037,-1.0092244148254397,0.0368482694029808,28.705890655517575,2.4005720615386963,75.37979888916016,29.43,0
-0.2828902304172516,-1.0898863077163696,0.0292448718100786,23.46247291564941,2.393762350082397,75.37986755371094,29.43,0
-0.3158892393112182,-1.102466106414795,0.0411587730050087,8.626140594482422,2.389392137527466,75.37991333007812,29.43,0
-0.3258705735206604,-1.071354627609253,0.0152177829295396,-22.89197540283203,2.386587619781494,75.37994384765625,29.43,0
-0.3154826760292053,-1.073780179023743,-0.02382074855268,-63.67172622680664,2.3847877979278564,75.37996673583984,29.43,0
-0.3144141137599945,-1.103325605392456,-0.0320801101624965,-98.28594970703124,2.3836328983306885,75.37997436523438,29.43,0
-0.2969350516796112,-1.0998951196670532,-0.0261849425733089,-119.09141540527344,2.3828916549682617,75.3799819946289,29.43,0
-0.2689246535301208,-1.06970477104187,-0.022401763126254,-129.39439392089844,2.382416009902954,75.37998962402344,29.43,0
-0.2565469741821289,-1.011145830154419,-0.0143761625513434,-133.93194580078125,2.383028507232666,75.37998962402344,29.43,0
-0.2597992420196533,-0.9791638851165771,-0.0092257931828498,-131.86410522460938,2.3834216594696045,75.37998962402344,29.43,0
-0.2674841284751892,-0.958639681339264,-0.017116131260991,-119.53498840332033,2.383673906326294,75.37998962402344,29.43,0
-0.2724158465862274,-0.9342728853225708,-0.0277774706482887,-97.33556365966795,2.383835792541504,75.37998962402344,29.43,0
-0.2755807340145111,-0.913037896156311,-0.02902153134346,-71.38139343261719,2.383939743041992,75.37998962402344,29.43,0
-0.2720140218734741,-0.8882150053977966,-0.0242221225053071,-49.7063102722168,2.3840065002441406,75.37998962402344,29.43,0
-0.2753228843212127,-0.8722850680351257,-0.0155443642288446,-37.92454147338867,2.3840491771698,75.37998962402344,29.43,0
-0.2830440998077392,-0.8620621562004089,-0.0099754780530929,-35.44377136230469,2.3840765953063965,75.37998962402344,29.43,0
-0.2824013531208038,-0.8443061113357544,-0.0064016873948276,-37.92514419555664,2.38409423828125,75.47313690185547,29.43,0
-0.2819888591766357,-0.8329113125801086,-0.00410823430866,-49.007789611816406,2.384105682373047,75.53291320800781,29.43,0
-0.2761263847351074,-0.8479899168014526,0.0029613464139401,-79.89396667480469,2.38411283493042,75.57128143310547,29.43,0
-0.2723641693592071,-0.8688620328903198,0.0019004216883331,-124.72847747802734,2.384117603302002,75.59590148925781,29.43,0
-0.264352023601532,-0.8822565674781799,0.0068173557519912,-150.111572265625,2.3841207027435303,75.61170196533203,29.43,0
-0.2424169778823852,-0.9132434725761414,0.0099727604538202,-128.67645263671875,2.384122610092163,75.62184143066406,29.43,0
-0.2339380979537964,-0.9555202126502992,0.0063999434933066,-73.40216064453125,2.3841238021850586,75.62834930419922,29.43,0
-0.2452901750802993,-0.9602598547935486,0.0376937612891197,-23.994083404541016,2.384124517440796,75.63252258300781,29.43,0
-0.2525752782821655,-0.929714858531952,0.0689718797802925,-8.601876258850098,2.3799936771392822,75.63520050048828,29.45,0
-0.2348593473434448,-0.9213083982467652,0.0722510516643524,-26.510499954223636,2.377342700958252,75.63691711425781,29.45,0
-0.2234902828931808,-0.955098032951355,0.0575621165335178,-56.28510665893555,2.3756415843963623,75.63802337646484,29.45,0
-0.2161942720413208,-0.9991734027862548,0.0481356009840965,-73.80207061767578,2.374549865722656,75.63873291015625,29.45,0
-0.2171098738908767,-1.0218605995178225,0.0420862063765525,-68.87528991699219,2.3738491535186768,75.6391830444336,29.45,0
-0.2176974564790725,-1.002833366394043,0.0438018292188644,-48.667667388916016,2.373399496078491,75.63947296142578,29.45,0
-0.2348678559064865,-0.9570360779762268,0.0393050424754619,-26.216501235961918,2.3731110095977783,75.63966369628906,29.45,0
-0.262680172920227,-0.922048270702362,0.0420170351862907,-8.569987297058105,2.3729257583618164,75.63978576660156,29.45,0
-0.2861262857913971,-0.9051928520202636,0.049355212599039,6.118568420410156,2.372807025909424,75.63986206054688,29.45,0
-0.3067704141139984,-0.8999738097190857,0.054064430296421,24.93118667602539,2.3727307319641118,75.63990783691406,29.45,0
-0.3312141895294189,-0.9078201055526732,0.0514887608587741,51.92188262939453,2.3726818561553955,75.63993835449219,29.45,0
-0.3580963313579559,-0.9240509271621704,0.0554336197674274,80.88274383544922,2.372650384902954,75.63996124267578,29.45,0
-0.3473588824272156,-0.9064780473709106,0.0635629817843437,100.04137420654295,2.3726301193237305,75.63997650146484,29.45,0
-0.3348704278469085,-0.9119940996170044,0.0743777081370353,105.00274658203124,2.372617244720459,75.63998413085938,29.45,0
-0.3380515873432159,-0.971511721611023,0.0813179761171341,99.64581298828124,2.3726089000701904,75.6399917602539,29.45,0
-0.3568864166736603,-1.0209022760391235,0.0801740661263465,85.12355041503906,2.37260365486145,75.6399917602539,29.45,0
-0.3465824127197265,-1.047000527381897,0.0402555502951145,62.05049133300781,2.3726003170013428,75.6399917602539,29.45,0
-0.3399699032306671,-1.1309221982955933,0.0034425987396389,40.48320770263672,2.372598171234131,75.6399917602539,29.45,0
-0.352519690990448,-1.13999605178833,-0.0089862877503037,27.63494110107422,2.372596740722656,75.6399917602539,29.45,0
-0.3661712110042572,-1.0786458253860474,-0.0281579792499542,12.65442180633545,2.37259578704834,75.6399917602539,29.45,0
-0.3693341910839081,-1.0616658926010132,-0.0628523677587509,-15.173025131225586,2.3725950717926025,75.6399917602539,29.45,0
-0.3657662272453308,-1.0731602907180786,-0.1019105538725853,-45.30856704711914,2.3725948333740234,75.6399917602539,29.45,0
-0.3634765148162842,-1.0917322635650637,-0.1325736194849014,-61.419921875,2.3725945949554443,75.6399917602539,29.45,0
-0.356409341096878,-1.0868573188781738,-0.1522514075040817,-62.75266647338867,2.372594356536865,75.6399917602539,29.45,0
-0.3182874023914337,-1.0109578371047974,-0.1536839306354522,-58.52427291870117,2.3762667179107666,75.72239685058594,29.45,0
-0.2938229143619537,-0.9622499346733092,-0.1602010130882263,-56.44126510620117,2.378623485565185,75.77527618408203,29.45,0
-0.2949163615703583,-0.9477853178977966,-0.1699810773134231,-60.8903694152832,2.3801357746124268,75.80921173095703,29.45,0
-0.3068135976791382,-0.9273071885108948,-0.1818551421165466,-68.76831817626953,2.381106376647949,75.83099365234375,29.45,0
-0.3088507950305938,-0.914165496826172,-0.2006707787513733,-67.1424331665039,2.3817291259765625,75.844970703125,29.45,0
-0.2989625930786133,-0.9113296866416932,-0.2127455770969391,-45.6461067199707,2.382128953933716,75.85393524169922,29.45,0
-0.2926169335842132,-0.8983142971992493,-0.2092989385128021,-9.78950309753418,2.382385492324829,75.85968780517578,29.45,0
-0.299740195274353,-0.8843640089035034,-0.1958915293216705,25.294483184814453,2.382550001144409,75.8633804321289,29.45,0
-0.3099092543125152,-0.8866070508956909,-0.1760918796062469,50.901126861572266,2.381737470626831,75.86575317382812,29.43,0
-0.3108374178409576,-0.8992420434951782,-0.1577878296375274,68.05409240722656,2.381216049194336,75.86727905273438,29.43,0
-0.3114330470561981,-0.9297415614128112,-0.1348457932472229,79.69599914550781,2.3808813095092773,75.86825561523438,29.43,0
-0.3118152916431427,-0.9437166452407836,-0.1089273691177368,86.33594512939453,2.380666494369507,75.86888122558594,29.43,0
-0.2952672839164734,-0.9358916878700256,-0.0587077662348747,86.73148345947266,2.380528688430786,75.8692855834961,29.43,0
-0.2622566223144531,-0.975652277469635,-0.0320774912834167,81.86940002441406,2.3804402351379395,75.86954498291016,29.43,0
-0.2522678077220917,-0.9955706000328064,-0.0037921641487628,79.26508331298828,2.3803834915161133,75.86970520019531,29.43,0
-0.2682486772537231,-0.9299841523170472,0.06473970413208,86.01283264160156,2.3803470134735107,75.86981201171875,29.43,0
-0.2729065120220184,-0.8711012601852417,0.1031217351555824,95.38025665283205,2.3839962482452397,75.86988067626953,29.43,0
-0.2758956253528595,-0.8669002652168274,0.0997642427682876,90.42188262939452,2.386337995529175,75.86992645263672,29.43,0
-0.2890094220638275,-0.9201820492744446,0.1032073721289634,63.573387145996094,2.387840986251831,75.86995697021484,29.43,0
-0.2918273210525512,-0.9543752074241638,0.1278080642223358,24.67256736755371,2.388805389404297,75.8699722290039,29.43,0
-0.2544512748718261,-0.948329508304596,0.1323998272418975,-10.444758415222168,2.3894243240356445,75.86997985839844,29.43,0
-0.2192699313163757,-0.944449782371521,0.1185532361268997,-32.79832458496094,2.389821529388428,75.86998748779297,29.43,0
-0.2190836668014526,-0.953155517578125,0.1096672862768173,-42.64742660522461,2.3900763988494877,75.8699951171875,29.43,0
-0.24135522544384,-0.9811334609985352,0.0871714726090431,-45.12032699584961,2.390239953994751,75.8699951171875,29.43,0
-0.2612456083297729,-0.9934903383255004,0.0671371817588806,-45.98003005981445,2.386213541030884,75.8699951171875,29.43,0
-0.279607892036438,-0.9958224892616272,0.0430847778916358,-48.663368225097656,2.383629560470581,75.8699951171875,29.43,0
-0.2969895005226135,-1.002916932106018,0.0220515560358762,-50.532264709472656,2.3819713592529297,75.8699951171875,29.43,0
-0.3081440329551697,-1.007469654083252,0.0029558697715401,-43.8427848815918,2.3809070587158203,75.8699951171875,29.43,0
-0.3097046017646789,-0.9880002737045288,-0.0092986412346363,-25.602895736694336,2.380224227905273,75.8699951171875,29.43,0
-0.2995105385780334,-0.9755059480667114,-0.0283584296703338,-3.801884889602661,2.3797860145568848,75.8699951171875,29.43,0
-0.2873708009719848,-0.9730855822563172,-0.0461876802146434,9.697935104370115,2.379504680633545,75.8699951171875,29.43,0
-0.2851779758930206,-0.977130115032196,-0.0576294660568237,8.623902320861816,2.379324197769165,75.8699951171875,29.43,0
-0.3061618506908417,-0.9741278886795044,-0.0705699175596237,-4.238942623138428,2.3764541149139404,75.93806457519531,29.43,0
-0.3196280896663666,-0.9554079174995422,-0.090069904923439,-17.74563217163086,2.374612331390381,75.98175048828125,29.43,0
-0.3282699584960937,-0.9489922523498536,-0.1081816479563713,-21.419336318969727,2.3734302520751958,76.00978088378906,29.43,0
-0.3506091237068176,-1.0232439041137695,-0.1365980505943298,-17.822668075561523,2.372671842575073,76.02777099609375,29.43,0
-0.3985317647457123,-1.0261121988296509,-0.1268451809883117,-19.150848388671875,2.372184991836548,76.03931427001953,29.43,0
-0.4180901944637298,-1.0111595392227173,-0.1261841356754303,-30.596872329711918,2.371872663497925,76.04672241210938,29.43,0
-0.4026528000831604,-1.0239548683166504,-0.1649443358182907,-44.17237091064453,2.3716721534729004,76.05147552490234,29.43,0
-0.375952661037445,-1.0377639532089231,-0.1954161673784256,-48.81095504760742,2.371543407440185,76.05452728271484,29.43,0
-0.3420247137546539,-1.0466258525848389,-0.1925801336765289,-41.85325241088867,2.374674081802368,76.05648803710938,29.41,0
-0.3146539330482483,-1.0523128509521484,-0.1851623654365539,-30.33052444458008,2.376683235168457,76.05774688720703,29.41,0
-0.2970889508724212,-1.0055824518203735,-0.1748042851686477,-22.53823471069336,2.3779726028442383,76.05855560302734,29.41,0
-0.3026100695133209,-0.9699958562850952,-0.1793526262044906,-19.973743438720703,2.3787999153137207,76.05907440185547,29.41,0
-0.31175097823143,-0.95275616645813,-0.1878692656755447,-17.71537971496582,2.37933087348938,76.05940246582031,29.41,0
-0.3120193183422088,-0.9416927695274352,-0.1989325284957885,-10.419328689575195,2.379671573638916,76.05961608886719,29.41,0
-0.3065937459468841,-0.9233973622322084,-0.2004345059394836,2.8789525032043457,2.379890203475952,76.05975341796875,29.41,0
-0.2863186001777649,-0.906058669090271,-0.1958006173372268,18.39546203613281,2.380030632019043,76.0598373413086,29.41,0
-0.2789049744606018,-0.9117249846458436,-0.1872290819883346,30.366474151611328,2.377366542816162,76.05989837646484,29.41,0
-0.2797451019287109,-0.9209590554237366,-0.1817283630371093,35.716522216796875,2.375656843185425,76.0599365234375,29.41,0
-0.2914797961711883,-0.9436783194541932,-0.1670027673244476,38.85968780517578,2.3745596408843994,76.0599594116211,29.41,0
-0.2934126555919647,-0.9638559818267822,-0.1519549638032913,47.33617401123047,2.3738555908203125,76.05997467041016,29.41,0
-0.2834575176239013,-0.9935981631278992,-0.1311025917530059,61.20927810668945,2.373403549194336,76.05998229980469,29.41,0
-0.2658733427524566,-0.9790983200073242,-0.1009274199604988,78.32350158691406,2.3731136322021484,76.05998992919922,29.41,0
-0.2545888125896454,-0.9585976600646972,-0.06476940959692,105.46025848388672,2.37292742729187,76.05998992919922,29.41,0
-0.2305537313222885,-0.9902237057685852,-0.0359675027430057,143.62535095214844,2.37280797958374,76.05998992919922,29.41,0
-0.2263249605894088,-1.0105195045471191,-0.0006907766219228,172.3413543701172,2.3727314472198486,76.05998992919922,29.41,0
-0.2460022717714309,-0.9675663709640504,0.055534441024065,172.35519409179688,2.3726823329925537,76.05998992919922,29.41,0
-0.2362389415502548,-0.923208236694336,0.0748232305049896,149.30303955078125,2.372650623321533,76.05998992919922,29.41,0
-0.2243756204843521,-0.9115350246429444,0.0704083368182182,116.6431884765625,2.3726303577423096,76.05998992919922,29.41,0
-0.211164653301239,-0.9488260746002196,0.0675751119852066,77.79975891113281,2.372617483139038,76.05998992919922,29.41,0
-0.202686607837677,-0.9951484203338624,0.0769524648785591,37.374061584472656,2.372609138488769,76.05998992919922,29.41,0
-0.2028436660766601,-0.9912887811660768,0.0997636318206787,5.244066715240479,2.37260365486145,76.05998992919922,29.41,0
-0.2085422277450561,-0.9608229994773864,0.0920114293694496,-17.886497497558594,2.3726003170013428,76.05998992919922,29.41,0
-0.2177970111370086,-0.9468696117401124,0.081438735127449,-39.458438873291016,2.369384765625,76.20687866210938,29.41,0
-0.2293339818716049,-0.9491106271743774,0.0746537894010543,-58.67593383789063,2.367321252822876,76.3011474609375,29.41,0
-0.2311399579048156,-0.9561465978622437,0.0702996030449867,-66.9638900756836,2.365997076034546,76.36164093017578,29.41,0
-0.2322989404201507,-0.9606618881225586,0.0563097856938838,-63.46590423583984,2.365147352218628,76.40045928955078,29.41,0
-0.2442382574081421,-0.9691572785377502,0.041734155267477,-56.86468505859375,2.3646020889282227,76.42537689208984,29.41,0
-0.2519002258777618,-0.96901136636734,0.0323803536593914,-52.33463287353516,2.3642520904541016,76.44136047363281,29.41,0
-0.2624149918556213,-0.940928876399994,0.0263776220381259,-46.53278350830078,2.364027500152588,76.45162200927734,29.41,0
-0.2747605443000793,-0.9229071140289308,0.0225254129618406,-35.85212707519531,2.3638832569122314,76.45820617675781,29.41,0
-0.2938787639141083,-0.922537326812744,0.0088577382266521,-22.15876197814941,2.36470890045166,76.46243286132812,29.41,0
-0.2949521839618683,-0.927897810935974,-0.0055111623369157,-10.236393928527832,2.365238904953003,76.46514129638672,29.41,0
-0.2900432646274566,-0.9369356632232666,-0.0147322956472635,-1.5571048259735107,2.3655788898468018,76.46688079833984,29.41,0
-0.2812952399253845,-0.931540071964264,-0.026247663423419,9.415287017822266,2.36579704284668,76.46800231933594,29.41,0
-0.2756812572479248,-0.9280774593353271,-0.0392353348433971,26.960847854614254,2.3659372329711914,76.46871948242188,29.41,0
-0.2832740843296051,-0.9818331003189088,-0.0643633976578712,42.21873474121094,2.3660271167755127,76.46917724609375,29.41,0
-0.3273311257362366,-0.988341510295868,-0.0580980479717254,41.75345230102539,2.3660848140716557,76.46947479248047,29.41,0
-0.3556044101715088,-0.9701271653175354,-0.0540773048996925,27.070819854736328,2.366121768951416,76.46966552734375,29.41,0
-0.3625530302524566,-0.9808293581008912,-0.0794858932495117,11.98788356781006,2.365686178207397,76.46978759765625,29.41,0
-0.3502189218997955,-1.0100884437561035,-0.106987215578556,3.88843846321106,2.3654067516326904,76.46986389160156,29.41,0
-0.3031191825866699,-1.0344630479812622,-0.1246359795331955,-1.008382797241211,2.365227460861206,76.46990966796875,29.41,0
-0.2616977393627167,-1.0501052141189575,-0.1303641647100448,-8.940784454345703,2.3651123046875,76.46994018554688,29.41,0
-0.2463113814592361,-1.037752389907837,-0.1340401917695999,-21.73029899597168,2.3650383949279785,76.46996307373047,29.41,0
-0.2532306313514709,-0.99623841047287,-0.1419970244169235,-35.00721740722656,2.3649909496307373,76.46997833251953,29.41,0
-0.2576709985733032,-0.9695971608161926,-0.147103264927864,-42.33457946777344,2.3649604320526123,76.46998596191406,29.41,0
-0.2605205774307251,-0.9636958837509156,-0.1559779196977615,-42.38667678833008,2.364940881729126,76.4699935913086,29.41,0
-0.2567515075206756,-0.9543110132217408,-0.1616731733083725,-39.10264587402344,2.361715078353882,76.4699935913086,29.41,0
-0.2431371808052063,-0.9482883214950562,-0.1653280556201934,-35.056968688964844,2.359645128250122,76.4699935913086,29.41,0
-0.2232047468423843,-0.93882554769516,-0.1620757728815078,-29.175464630126957,2.358316659927368,76.4699935913086,29.41,0
-0.210413247346878,-0.9271551370620728,-0.1543908715248108,-19.54712677001953,2.357464075088501,76.4699935913086,29.41,0
-0.2133999466896057,-0.9140679240226746,-0.1438613682985305,-4.6088151931762695,2.356916904449463,76.4699935913086,29.41,0
-0.2153166383504867,-0.9168648719787598,-0.1427019089460373,14.58978271484375,2.3565659523010254,76.4699935913086,29.41,0
-0.2165466696023941,-0.918659806251526,-0.1363600641489029,33.41271209716797,2.3563406467437744,76.4699935913086,29.41,0
-0.2173360288143158,-0.9198116660118104,-0.126692458987236,52.09845352172852,2.35619592666626,76.4699935913086,29.41,0
-0.2178425937891006,-0.9093553423881532,-0.1092927977442741,77.53529357910156,2.3570213317871094,76.65987396240234,29.41,0
-0.2181676775217056,-0.919438362121582,-0.0925289243459701,105.83932495117188,2.357551097869873,76.78172302246094,29.41,0
-0.2183762937784195,-0.9986801743507384,-0.0873686075210571,117.57608795166016,2.357891082763672,76.85992431640625,29.41,0
-0.224107950925827,-1.0551307201385498,-0.08405701816082,102.70621490478516,2.35810923576355,76.91011047363281,29.41,0
-0.2501772940158844,-1.024184226989746,-0.0371496342122554,74.19026947021484,2.3582491874694824,76.94231414794922,29.41,0
-0.2613093256950378,-0.9819334149360656,0.0041483766399323,48.7359733581543,2.358339071273804,76.96298217773438,29.41,0
-0.2404643446207046,-0.9716125726699828,0.0250532869249582,30.885440826416016,2.3583967685699463,76.97624206542969,29.41,0
-0.2102939188480377,-1.0321625471115112,0.0216755326837301,19.12547874450684,2.358433723449707,76.98475646972656,29.41,0
-0.1797367334365844,-1.0766178369522097,0.0195078831166028,11.861635208129885,2.3552439212799072,76.99021911621094,29.45,0
-0.1433335542678833,-1.0603644847869873,0.0293123591691255,5.5091423988342285,2.353196859359741,76.99372100830078,29.45,0
-0.1367654204368591,-1.0275429487228394,0.0412020832300186,-2.784212589263916,2.351883172988892,76.9959716796875,29.45,0
-0.1437459141016006,-0.9784910678863524,0.0488322228193283,-9.754395484924316,2.3510401248931885,76.9974136352539,29.45,0
-0.1650189161300659,-0.9414145946502686,0.0481310337781906,-9.308581352233888,2.350499153137207,76.99833679199219,29.45,0
-0.1842684894800186,-0.9120233058929444,0.0476810485124588,-0.8255505561828613,2.350152015686035,76.99893188476562,29.45,0
-0.191023975610733,-0.8931616544723511,0.0473922751843929,10.09971046447754,2.349929094314575,76.99931335449219,29.45,0
-0.2009570300579071,-0.8810573220252991,0.0360114090144634,18.207181930541992,2.3497860431671143,76.99955749511719,29.45,0
-0.201733723282814,-0.8788872361183167,0.0343055985867977,22.514448165893555,2.350153684616089,76.99971771240234,29.45,0
-0.2134277075529098,-0.8607012629508972,0.0332109071314334,24.80928611755371,2.3503894805908203,76.99981689453125,29.45,0
-0.2209322303533554,-0.8490305542945862,0.0325083956122398,26.188833236694336,2.35054087638855,76.99988555908203,29.45,0
-0.2369437515735626,-0.8583343029022217,0.0320575647056102,24.62008285522461,2.350637912750244,76.99992370605469,29.45,0
-0.2472190260887146,-0.8866960406303406,0.0261704735457897,18.36129379272461,2.3507003784179688,76.99995422363281,29.45,0
-0.2426175624132156,-0.9384835958480836,0.016794703900814,12.102070808410645,2.350740432739258,76.99996948242188,29.45,0
-0.2172735035419464,-1.0053044557571411,-0.0060154488310217,12.391517639160156,2.3507659435272217,76.9999771118164,29.45,0
-0.206606924533844,-1.087370753288269,-0.0262514669448137,16.04161834716797,2.35078239440918,76.99998474121094,29.45,0
-0.2501416802406311,-1.1400361061096191,-0.0112489070743322,12.576687812805176,2.35079288482666,76.99999237060547,29.45,0
-0.2948731184005737,-1.1122581958770752,0.0095744226127862,-1.996043682098389,2.350799798965454,76.99999237060547,29.45,0
-0.284394770860672,-1.0552475452423096,-0.021844558417797,-22.45038604736328,2.350804090499878,76.99999237060547,29.45,0
-0.2552792727947235,-1.0634435415267944,-0.0476052276790142,-41.437896728515625,2.350806951522827,76.99999237060547,29.45,0
-0.2365946173667907,-1.1078877449035645,-0.0585391670465469,-52.46223449707031,2.35080885887146,76.99999237060547,29.45,0
-0.2246038764715194,-1.1420072317123413,-0.0655559375882148,-52.361122131347656,2.3508100509643555,76.99999237060547,29.45,0
-0.2169089019298553,-1.1247186660766602,-0.0756566748023033,-45.9049186706543,2.3508107662200928,76.99999237060547,29.45,0
-0.2063729465007782,-1.0576461553573608,-0.076540969312191,-42.324161529541016,2.350811243057251,76.99999237060547,29.45,0
-0.2108071148395538,-1.0146028995513916,-0.0715106874704361,-44.62984848022461,2.3494343757629395,77.18987274169922,29.45,0
-0.2136527150869369,-0.981382429599762,-0.0626847669482231,-46.29938507080078,2.348550796508789,77.31172180175781,29.45,0
-0.2154788523912429,-0.9544656872749328,-0.0626185759902,-40.26296615600586,2.347983837127685,77.38992309570312,29.45,0
-0.2054552137851715,-0.925996482372284,-0.0625760927796363,-28.67943572998047,2.347619771957397,77.44010925292969,29.45,0
-0.1766315251588821,-0.8909332752227783,-0.0569510571658611,-19.92740631103516,2.347386360168457,77.4723129272461,29.45,0
-0.1581341475248336,-0.8796272873878479,-0.0533412322402,-16.46040153503418,2.347236394882202,77.49298095703125,29.45,0
-0.1518613696098327,-0.8723717331886292,-0.0566224306821823,-11.648858070373535,2.347140312194824,77.50624084472656,29.45,0
-0.1646291762590408,-0.8509222269058228,-0.0643258914351463,-1.191728949546814,2.347078561782837,77.51475524902344,29.45,0
-0.178420603275299,-0.8371571898460388,-0.069269523024559,7.844146251678467,2.347956895828247,77.52021789550781,29.43,0
-0.1984666883945465,-0.8563124537467957,-0.0836376100778579,4.994513034820557,2.348520517349243,77.52371978759766,29.43,0
-0.2225266546010971,-0.9021918177604676,-0.0984560027718544,-6.564493656158447,2.34888219833374,77.52597045898438,29.43,0
-0.2435647398233413,-0.94842791557312,-0.1135633662343025,-6.971297264099121,2.349114179611206,77.52741241455078,29.43,0
-0.2514680027961731,-0.9892951250076294,-0.1288561820983886,18.193178176879883,2.3492631912231445,77.52833557128906,29.43,0
-0.2509420812129974,-1.0491080284118652,-0.1498657763004303,55.063907623291016,2.3493587970733643,77.5289306640625,29.43,0
-0.2562023401260376,-1.1378724575042725,-0.1801418513059616,72.62787628173828,2.3494200706481934,77.52931213378906,29.43,0
-0.2875669598579407,-1.0884785652160645,-0.165984645485878,57.42776870727539,2.349459409713745,77.52955627441406,29.43,0
-0.3132927417755127,-1.0119982957839966,-0.1401060372591018,25.633207321166992,2.345812559127808,77.52971649169922,29.43,0
-0.3298020660877228,-0.9741131663322448,-0.1234986335039138,1.105744242668152,2.3434722423553467,77.52981567382812,29.43,0
-0.3347990214824676,-0.9609962105751038,-0.1128409579396247,-5.946822166442871,2.341970205307007,77.5298843383789,29.43,0
-0.3100169003009796,-1.019751787185669,-0.1227947995066642,1.0344792604446411,2.341006278991699,77.52992248535156,29.43,0
-0.2661243081092834,-1.0126755237579346,-0.1123892813920974,13.360516548156738,2.3403878211975098,77.52995300292969,29.43,0
-0.2323587834835052,-0.974547803401947,-0.0889182910323143,22.76817512512207,2.3399908542633057,77.52996826171875,29.43,0
-0.2330811023712158,-0.922090709209442,-0.0626604184508323,26.326326370239254,2.339736223220825,77.52997589111328,29.43,0
-0.239142432808876,-0.8828290104866028,-0.0402118489146232,28.38404083251953,2.339572668075561,77.52998352050781,29.43,0
-0.2654233276844024,-0.8744264245033264,-0.0202078763395547,34.89213180541992,2.3440582752227783,77.52999114990234,29.43,0
-0.282288908958435,-0.8802297115325928,-0.0073704780079424,45.98660659790039,2.3469367027282715,77.52999114990234,29.43,0
-0.2875144779682159,-0.8839539289474487,0.0064656008034944,56.15517425537109,2.3487839698791504,77.52999114990234,29.43,0
-0.2964657247066498,-0.8863438963890076,0.0377358980476856,61.17251205444336,2.349969387054444,77.52999114990234,29.43,0
-0.3190034627914428,-0.8990731835365295,0.0689989253878593,60.8133544921875,2.3507301807403564,77.52999114990234,29.43,0
-0.322271317243576,-0.890448808670044,0.100257284939289,52.96273040771485,2.3512184619903564,77.52999114990234,29.43,0
-0.3187706768512726,-0.8905119299888611,0.1315126419067382,33.6982421875,2.351531744003296,77.52999114990234,29.43,0
-0.3277197182178497,-0.9073457717895508,0.1571683138608932,9.584555625915527,2.3517327308654785,77.52999114990234,29.43,0
-0.3334626853466034,-0.9237465262413024,0.1736326515674591,-3.3358442783355717,2.3458943367004395,77.73419952392578,29.43,0
-0.3315504193305969,-0.9342715740203856,0.1786007285118103,-1.5711233615875244,2.3421475887298584,77.86524963378906,29.43,0
-0.3359210193157196,-0.9522215127944946,0.1593978554010391,-0.549686849117279,2.339743137359619,77.94934844970703,29.43,0
-0.3611169159412384,-1.0141206979751587,0.1414767950773239,-12.909685134887695,2.338200092315674,78.0033187866211,29.43,0
-0.3940795063972473,-1.0426485538482666,0.1355738639831543,-34.555721282958984,2.337209939956665,78.03795623779297,29.43,0
-0.3928419053554535,-0.9937827587127686,0.1205901503562927,-53.534156799316406,2.33657455444336,78.0601806640625,29.43,0
-0.3696565926074981,-0.9512279629707336,0.099778912961483,-60.3323974609375,2.3361666202545166,78.07444763183594,29.43,0
-0.3435820341110229,-0.9687008857727052,0.0808256864547729,-51.59363555908203,2.335904836654663,78.08360290527344,29.43,0
-0.3492399752140045,-1.0190984010696411,0.057467047125101,-32.65483856201172,2.335736989974976,78.0894775390625,29.43,0
-0.3416753709316253,-1.0346473455429075,0.0312812700867652,-14.636332511901855,2.3356292247772217,78.09324645996094,29.43,0
-0.3312230706214905,-0.9998435974121094,0.0144767444580793,-5.068586826324463,2.3355600833892822,78.09566497802734,29.43,0
-0.3413087129592895,-0.9663130044937134,0.0148881152272224,-2.1421289443969727,2.3355157375335693,78.09721374511719,29.43,0
-0.3925632834434509,-0.9503927826881408,0.0207498837262392,1.4734524488449097,2.335487127304077,78.09821319580078,29.43,0
-0.40866219997406,-0.9065894484519958,0.0189138557761907,9.561671257019045,2.3354687690734863,78.0988540649414,29.43,0
-0.4189935624599457,-0.8672834038734436,0.0233333725482225,17.836822509765625,2.3354570865631104,78.0992660522461,29.43,0
-0.4256236255168915,-0.8364613056182861,0.0373651124536991,19.28173828125,2.335449457168579,78.09952545166016,29.43,0
-0.4298784136772156,-0.816681444644928,0.0519676506519317,12.961451530456545,2.3359034061431885,78.09969329833984,29.43,0
-0.4270111322402954,-0.787194550037384,0.0613387189805507,5.072099685668945,2.3361947536468506,78.09980010986328,29.43,0
-0.4195733070373535,-0.7626737952232361,0.0673525333404541,0.5178940892219543,2.3363819122314453,78.09986877441406,29.43,0
-0.4259956777095794,-0.7469377517700195,0.071211852133274,-5.385436058044434,2.3365018367767334,78.09991455078125,29.43,0
-0.4581060707569122,-0.759230375289917,0.0736885368824005,-24.543102264404297,2.336578845977783,78.09994506835938,29.43,0
-0.4843104481697082,-0.7783146500587463,0.0752779319882392,-60.4143180847168,2.336628198623657,78.09996795654297,29.43,0
-0.517920196056366,-0.8353440165519714,0.0762979164719581,-94.5690460205078,2.3366599082946777,78.0999755859375,29.43,0
-0.4891090393066406,-0.8775399327278137,0.0825502574443817,-100.20478057861328,2.3366804122924805,78.09998321533203,29.43,0
-0.4482286274433136,-0.8990210890769958,0.0865626484155654,-73.95353698730469,2.3330211639404297,78.09999084472656,29.43,0
-0.4107983708381653,-0.9463930726051332,0.0835397988557815,-42.46501159667969,2.3306727409362797,78.09999084472656,29.43,0
-0.4091688692569732,-0.9879892468452454,0.0760021284222602,-31.52919578552246,2.3291656970977783,78.09999084472656,29.43,0
-0.441709816455841,-0.9754988551139832,0.0767626613378524,-39.851806640625,2.3281984329223637,78.09999084472656,29.43,0
-0.4569949507713318,-0.9450921416282654,0.0716529563069343,-48.413516998291016,2.327577829360962,78.09999084472656,29.43,0
-0.4668040573596954,-0.9479699730873108,0.0683738440275192,-44.24213790893555,2.327179431915283,78.09999084472656,29.43,0
-0.4339145720005035,-1.0001968145370483,0.0718672722578048,-28.642837524414062,2.3269238471984863,78.09999084472656,29.43,0
-0.3904168903827667,-1.0505062341690063,0.0853046998381614,-10.506823539733888,2.3267598152160645,78.09999084472656,29.43,0
-0.3513070344924927,-1.049205303192139,0.0995258390903472,1.525909662246704,2.3307859897613525,78.30419921875,29.43,0
-0.3374041318893432,-0.9923927187919616,0.108652152121067,4.898578643798828,2.333369731903076,78.43524932861328,29.43,0
-0.3340798020362854,-0.933542549610138,0.1145088896155357,6.170902252197266,2.3350276947021484,78.51934814453125,29.43,0
-0.3487397730350494,-0.8901781439781189,0.1126696318387985,15.023122787475586,2.3360917568206787,78.57331848144531,29.43,0
-0.3917343318462372,-0.8735449314117432,0.1282826215028762,33.48659896850586,2.3367745876312256,78.60795593261719,29.43,0
-0.3689458072185516,-0.8572729229927063,0.1662910133600235,54.07687759399414,2.3372128009796143,78.63018035888672,29.43,0
-0.2871481478214264,-0.8300371170043945,0.2242692559957504,68.34381103515625,2.337494134902954,78.64444732666016,29.43,0
-0.2682417631149292,-0.8069609999656677,0.2502808272838592,74.21070861816406,2.337674617767334,78.65360260009766,29.43,0
-0.3400753438472748,-0.7753587365150452,0.2389846742153167,73.79487609863281,2.334118366241455,78.65947723388672,29.43,0
-0.4085651040077209,-0.7550782561302185,0.2261376678943634,66.26255798339844,2.331836223602295,78.66324615478516,29.43,0
-0.4525178968906402,-0.7532589435577393,0.2234909832477569,48.80016708374024,2.330371618270874,78.66566467285156,29.43,0
-0.4807242751121521,-0.7520914077758789,0.2441835850477218,25.84654426574707,2.329431772232056,78.6672134399414,29.43,0
-0.4764344096183777,-0.7513421177864075,0.2574629187583923,8.558271408081055,2.3288285732269287,78.668212890625,29.43,0
-0.4904747307300567,-0.8068390488624573,0.254789263010025,0.9280046820640564,2.328441381454468,78.66885375976562,29.43,0
-0.5274738669395447,-0.8760403990745544,0.2418779283761978,-5.430352210998535,2.328192949295044,78.66926574707031,29.43,0
-0.601597785949707,-0.9428409337997437,0.2223966270685196,-19.17656898498535,2.328033447265625,78.66952514648438,29.43,0
-0.5875906944274902,-0.91293865442276,0.1931013166904449,-38.57744598388672,2.327471971511841,78.66969299316406,29.43,0
-0.5674062371253967,-0.8713579773902893,0.1854968219995498,-54.26646041870117,2.3271117210388184,78.6697998046875,29.43,0
-0.5432574152946472,-0.8390761017799377,0.2030078023672104,-58.23363876342773,2.32688045501709,78.66986846923828,29.43,0
-0.5557489991188049,-0.835152804851532,0.2030497938394546,-49.32963562011719,2.3267319202423096,78.66991424560547,29.43,0
-0.6197431087493896,-0.855026125907898,0.1526967734098434,-32.21221923828125,2.326636791229248,78.6699447631836,29.43,0
-0.6496152877807617,-0.8453885912895203,0.125980868935585,-12.736542701721191,2.326575517654419,78.66996765136719,29.43,0
-0.6519922018051147,-0.8168126940727234,0.108836144208908,4.963723659515381,2.3265364170074463,78.66997528076172,29.43,0
-0.6535176038742065,-0.77608323097229,0.1090291962027549,19.06340789794922,2.326511144638061,78.66998291015625,29.43,0
-0.6712898015975952,-0.7443476319313049,0.1091530844569206,30.049945831298828,2.324199914932251,78.66999053955078,29.43,0
-0.6994883418083191,-0.7239815592765808,0.1092325896024704,38.94908142089844,2.32271671295166,78.66999053955078,29.43,0
-0.7007911801338196,-0.6941184401512146,0.1204791590571403,44.914398193359375,2.3217649459838867,78.66999053955078,29.43,0
-0.696029543876648,-0.6693562269210815,0.1276965588331222,46.539310455322266,2.3211541175842285,78.66999053955078,29.43,0
-0.692973792552948,-0.6590630412101746,0.1435238122940063,45.01696395874024,2.320762157440185,78.66999053955078,29.43,0
-0.6854149699211121,-0.6580552458763123,0.1648763865232467,43.21601486206055,2.3205106258392334,78.66999053955078,29.43,0
-0.6805641651153564,-0.6630063056945801,0.1953725665807724,41.83098602294922,2.3203492164611816,78.66999053955078,29.43,0
-0.6830489635467529,-0.6549880504608154,0.2149432599544525,38.06176376342773,2.3202455043792725,78.66999053955078,29.43,0
-0.6790457963943481,-0.649842381477356,0.2331003695726394,29.068866729736328,2.318342685699463,78.85270690917969,29.43,0
-0.6932701468467712,-0.6465401649475098,0.2391547858715057,17.48322296142578,2.3171215057373047,78.96996307373047,29.43,0
-0.7023984789848328,-0.6444210410118103,0.2374423891305923,11.065675735473633,2.316337823867798,79.04521179199219,29.43,0
-0.6914632320404053,-0.643061101436615,0.2363434731960296,12.7152099609375,2.3158349990844727,79.09349822998047,29.43,0
-0.656456708908081,-0.6365906000137329,0.2412360310554504,13.795281410217283,2.315512180328369,79.1244888305664,29.43,0
-0.6227959990501404,-0.6324381828308105,0.2387780100107193,3.3107728958129883,2.31530499458313,79.14437866210938,29.43,0
-0.62358558177948,-0.6465667486190796,0.2316028177738189,-18.93729782104492,2.3151721954345703,79.15714263916016,29.43,0
-0.6296901106834412,-0.6612313985824585,0.2214004248380661,-43.418006896972656,2.315086841583252,79.16532897949219,29.43,0
-0.6112165451049805,-0.6650445461273193,0.2148531228303909,-61.808082580566406,2.313195943832397,79.17058563232422,29.41,0
-0.6049590110778809,-0.7010782361030579,0.2162492126226425,-72.7248764038086,2.3119826316833496,79.17395782470703,29.41,0
-0.5785521864891052,-0.7521914839744568,0.2283406853675842,-78.43375396728516,2.311203956604004,79.1761245727539,29.41,0
-0.5448125004768372,-0.8073841333389282,0.2584913969039917,-78.9518814086914,2.310704231262207,79.1775131225586,29.41,0
-0.5231603384017944,-0.8428035974502563,0.2834381759166717,-70.9477310180664,2.3103835582733154,79.17840576171875,29.41,0
-0.4980696439743042,-0.8263493180274963,0.2882520258426666,-52.46245193481445,2.310177803039551,79.1789779663086,29.41,0
-0.5099567770957947,-0.7989965677261353,0.2801457345485687,-26.72076988220215,2.3100457191467285,79.1793441772461,29.41,0
-0.5175852179527283,-0.7702476382255554,0.2749435603618622,-0.3993103206157684,2.3099608421325684,79.17958068847656,29.41,0
-0.5224807262420654,-0.7629937529563904,0.2772029042243957,20.50118827819824,2.304397821426392,79.17973327636719,29.41,0
-0.5256223678588867,-0.769534170627594,0.2786528170108795,33.8422737121582,2.300827980041504,79.1798324584961,29.41,0
-0.5276384949684143,-0.779329240322113,0.2851810455322265,42.2891731262207,2.298537015914917,79.17989349365234,29.41,0
-0.5345301032066345,-0.7800173759460449,0.2949682772159576,48.6807861328125,2.2970666885375977,79.179931640625,29.41,0
-0.5389527678489685,-0.7692634463310242,0.3068469166755676,49.23221969604492,2.2961232662200928,79.1799545288086,29.41,0
-0.5417909622192383,-0.7455688714981079,0.3088721632957458,36.90019989013672,2.295517683029175,79.17996978759766,29.41,0
-0.5492101311683655,-0.7247652411460876,0.3157696425914764,13.60264015197754,2.2951290607452397,79.17997741699219,29.41,0
-0.5539713501930237,-0.733805775642395,0.3313916027545929,-6.507301330566406,2.294879674911499,79.17998504638672,29.41,0
-0.5626245737075806,-0.7675963640213013,0.3638079762458801,-8.442858695983887,2.2983920574188232,79.17999267578125,29.41,0
-0.5737754702568054,-0.8004767298698425,0.3958064615726471,8.550322532653809,2.3006460666656494,79.17999267578125,29.41,0
-0.6089203953742981,-0.8159797191619873,0.3995479345321655,25.291582107543945,2.3020925521850586,79.17999267578125,29.41,0
-0.6706587672233582,-0.8371241688728333,0.3739601373672485,17.323366165161133,2.30302095413208,79.17999267578125,29.41,0
-0.760658860206604,-0.8842801451683044,0.3183549344539642,-18.3853702545166,2.303616762161255,79.17999267578125,29.41,0
-0.7736335396766663,-0.8697599172592163,0.2714751660823822,-57.95299530029297,2.303999185562134,79.17999267578125,29.41,0
-0.7539710998535156,-0.8324527740478516,0.2413904219865799,-76.2732162475586,2.3042445182800293,79.17999267578125,29.41,0
-0.7301573157310486,-0.8085111975669861,0.2220837771892547,-68.6340103149414,2.3044018745422363,79.17999267578125,29.41,0
-0.7204728126525879,-0.8155379891395569,0.198498323559761,-45.499881744384766,2.3040435314178467,79.36628723144531,29.41,0
-0.7254533767700195,-0.8424384593963623,0.1553736627101898,-19.347124099731445,2.3038136959075928,79.48583984375,29.41,0
-0.7342473864555359,-0.8373105525970459,0.1276987493038177,0.6282878518104553,2.303666114807129,79.56256103515625,29.41,0
-0.7286953330039978,-0.8172264099121094,0.1099385768175125,11.838780403137209,2.3035714626312256,79.61180114746094,29.41,0
-0.7251323461532593,-0.7763487100601196,0.104138895869255,19.72088432312012,2.3035106658935547,79.64339447021484,29.41,0
-0.7284436225891113,-0.744517982006073,0.1060147732496261,30.808637619018555,2.303471803665161,79.6636734008789,29.41,0
-0.752959668636322,-0.7240908741950989,0.0904252752661705,44.50172805786133,2.3034467697143555,79.67668914794922,29.41,0
-0.7630949020385742,-0.7053841352462769,0.0804208368062973,55.28107833862305,2.303430795669556,79.6850357055664,29.41,0
-0.7807946801185608,-0.6877814531326294,0.0851961076259613,60.86592864990234,2.3025026321411133,79.69039916992188,29.41,0
-0.7865555882453918,-0.6540939807891846,0.0826628282666206,63.92332458496094,2.3019070625305176,79.69384002685547,29.41,0
-0.7846547961235046,-0.6268775463104248,0.075439341366291,67.046142578125,2.3015246391296387,79.696044921875,29.41,0
-0.8002282977104187,-0.6094115972518921,0.1099881455302238,69.23648071289062,2.301279306411743,79.69746398925781,29.41,0
-0.7934291958808899,-0.5982029438018799,0.1545506715774536,67.46794891357422,2.301121950149536,79.69837188720703,29.41,0
-0.794663667678833,-0.5910098552703857,0.1831483393907547,60.64387512207031,2.301020860671997,79.6989517211914,29.41,0
-0.7898581027984619,-0.5975893139839172,0.2238917797803878,50.9552001953125,2.300956010818481,79.69932556152344,29.41,0
-0.7587853074073792,-0.5962138772010803,0.2780274450778961,40.73583221435547,2.3009145259857178,79.69956970214844,29.41,0
-0.7388445734977722,-0.5897334218025208,0.2959752678871155,29.900033950805664,2.302264928817749,79.69972229003906,29.41,0
-0.7764277458190918,-0.546390175819397,0.318688690662384,18.4465274810791,2.303131580352783,79.69982147216797,29.41,0
-0.7893509268760681,-0.4961839020252228,0.3444604277610779,8.638679504394531,2.303687810897827,79.69988250732422,29.41,0
-0.7472642660140991,-0.4303777515888214,0.3777925670146942,1.8465893268585205,2.304044723510742,79.69992065429688,29.41,0
-0.714657723903656,-0.3881471455097198,0.3991832137107849,-3.422157287597656,2.30427360534668,79.699951171875,29.41,0
-0.693732738494873,-0.3778392970561981,0.4073127210140228,-7.727640151977539,2.3044207096099854,79.69996643066406,29.41,0
-0.6970975995063782,-0.3936154246330261,0.4181275367736816,-8.742354393005371,2.3045151233673096,79.6999740600586,29.41,0
-0.7048547267913818,-0.4037396311759949,0.4306656420230865,-5.635417938232422,2.3045756816864014,79.69998168945312,29.41,0
-0.7210283875465393,-0.3934434354305267,0.4387118816375732,-1.6675654649734497,2.305073499679565,79.69998931884766,29.41,0
-0.7314077019691467,-0.3756403923034668,0.4382777214050293,0.463194876909256,2.305392980575561,79.69998931884766,29.41,0
-0.7548618316650391,-0.3586176335811615,0.4435968697071075,2.586517572402954,2.3055977821350098,79.69998931884766,29.41,0
-0.7643156051635742,-0.3476934134960174,0.4526081681251526,7.696518421173096,2.305729389190674,79.69998931884766,29.41,0
-0.7647846937179565,-0.3350850939750671,0.4471955597400665,15.242670059204102,2.305813789367676,79.69998931884766,29.41,0
-0.765085756778717,-0.3381893634796142,0.4437220394611358,22.002033233642575,2.305867910385132,79.69998931884766,29.41,0
-0.7652789354324341,-0.3345837295055389,0.4526884853839874,25.755844116210938,2.3059027194976807,79.69998931884766,29.41,0
-0.793391764163971,-0.3266720771789551,0.4472470879554748,26.735376358032227,2.305925130844116,79.69998931884766,29.41,0
-0.811432957649231,-0.3271926045417785,0.4381573498249054,26.69762420654297,2.2999720573425293,79.86837005615234,29.41,0
-0.8062174320220947,-0.3275266289710998,0.4435196220874786,26.712804794311523,2.296151638031006,79.97643280029297,29.41,0
-0.786077082157135,-0.3333387672901153,0.4581563770771026,24.766462326049805,2.2936999797821045,80.0457763671875,29.41,0
-0.7899455428123474,-0.3426664471626282,0.4675493836402893,16.416746139526367,2.2921266555786133,80.09027862548828,29.41,0
-0.8148191571235657,-0.3598479628562927,0.4623817503452301,-0.0726846158504486,2.291116952896118,80.11883544921875,29.41,0
-0.8195860981941223,-0.3596785068511963,0.4758587777614593,-19.48569869995117,2.29046893119812,80.13716125488281,29.41,0
-0.8394385576248169,-0.3539719879627228,0.4789097905158996,-33.459285736083984,2.290053129196167,80.14892578125,29.41,0
-0.9081564545631408,-0.3671032190322876,0.4584766328334808,-39.41378402709961,2.289786100387573,80.15647888183594,29.41,0
-0.9690489768981934,-0.3923234045505523,0.4453638195991516,-42.0492057800293,2.285942316055298,80.16132354736328,29.41,0
-0.9745396375656128,-0.3973127007484436,0.4201554358005523,-44.983619689941406,2.283475637435913,80.1644287109375,29.41,0
-0.9332810640335084,-0.3949167728424072,0.3983803987503052,-44.82110595703125,2.2818925380706787,80.16642761230469,29.41,0
-0.9068036675453186,-0.3933792114257812,0.3788086473941803,-34.32734680175781,2.280876636505127,80.16770935058594,29.41,0
-0.9122030735015868,-0.403588056564331,0.3438575267791748,-11.1347017288208,2.2802248001098637,80.16852569580078,29.41,0
-0.904472589492798,-0.4213350415229797,0.3158301413059234,16.38116455078125,2.27980637550354,80.16905212402344,29.41,0
-0.854729413986206,-0.4159307181835174,0.3034415543079376,35.773231506347656,2.279537916183472,80.16938781738281,29.41,0
-0.8284048438072205,-0.4124625325202942,0.3010890483856201,42.48223876953125,2.279365539550781,80.16960906982422,29.41,0
-0.8227068185806274,-0.4102368354797363,0.2995793223381042,38.80929565429688,2.2820093631744385,80.16974639892578,29.41,0
-0.8246479034423828,-0.4479929506778717,0.2986104786396026,27.782379150390625,2.283705949783325,80.16983795166016,29.41,0
-0.8035025000572205,-0.4946137368679046,0.2923909425735473,16.213388442993164,2.284794807434082,80.1698989868164,29.41,0
-0.7059659957885742,-0.5413256287574768,0.2828018367290497,11.50467014312744,2.2854936122894287,80.16993713378906,29.41,0
-0.6545681953430176,-0.6048892736434937,0.2710503339767456,10.073549270629885,2.28594183921814,80.16996002197266,29.41,0
-0.632779598236084,-0.6736696362495422,0.2579111158847809,2.9680302143096924,2.2862296104431152,80.16997528076172,29.41,0
-0.6243947148323059,-0.7346022129058838,0.2606746852397918,-10.340532302856444,2.286414384841919,80.16998291015625,29.41,0
-0.6134160161018372,-0.7904985547065735,0.2792415022850036,-25.23310852050781,2.2865328788757324,80.16999053955078,29.41,0
-0.5671861171722412,-0.8319674134254456,0.3023521602153778,-37.387672424316406,2.2861499786376958,80.16999053955078,29.41,0
-0.4759428799152374,-0.8249930739402771,0.2891943752765655,-39.00783157348633,2.2859041690826416,80.16999053955078,29.41,0
-0.4341815412044525,-0.820517361164093,0.2527616024017334,-24.954164505004883,2.2857465744018555,80.16999053955078,29.41,0
-0.4913481473922729,-0.8568295240402222,0.2293811440467834,-4.130744457244873,2.2856452465057373,80.16999053955078,29.41,0
-0.5280343890190125,-0.8745347857475281,0.2423657774925232,7.745760917663574,2.2855803966522217,80.16999053955078,29.41,0
-0.5291864275932312,-0.8747014403343201,0.2842852175235748,4.985113620758057,2.285538673400879,80.16999053955078,29.41,0
-0.4963390827178955,-0.9139928221702576,0.2887955904006958,-5.133911609649658,2.2855119705200195,80.16999053955078,29.41,0
-0.4472706615924835,-0.9392077922821044,0.2972878813743591,-12.412303924560549,2.285494804382324,80.16999053955078,29.41,0
-0.4325746893882751,-0.9609870314598083,0.3027377426624298,-12.293253898620604,2.353881597518921,80.3097152709961,29.41,0
-0.4343392252922058,-0.9581704139709472,0.3006373643875122,-6.169466495513916,2.397768259048462,80.39938354492188,29.41,0
-0.4578627049922943,-0.9171784520149232,0.2824961543083191,1.7478344440460205,2.4259321689605717,80.45692443847656,29.41,0
-0.4897520244121551,-0.8796765804290771,0.2820497155189514,6.302063941955566,2.4440062046051025,80.49385070800781,29.41,0
-0.5158145427703857,-0.8444145321846008,0.2873609960079193,4.760817050933838,2.4556050300598145,80.51754760742188,29.41,0
-0.5157466530799866,-0.8049920201301575,0.2907694578170776,-0.0078840516507625,2.463048458099365,80.53275299072266,29.41,0
-0.5157030820846558,-0.7852907180786133,0.2817612588405609,-3.279533863067627,2.467825412750244,80.54251098632812,29.41,0
-0.5324684381484985,-0.7838431000709534,0.2647847831249237,-4.146684169769287,2.470890998840332,80.54877471923828,29.41,0
-0.520836353302002,-0.7773163318634033,0.2594880163669586,-4.53120756149292,2.4664313793182373,80.55279541015625,29.45,0
-0.5133715867996216,-0.7731277942657471,0.261686623096466,-6.286237239837647,2.463569402694702,80.55537414550781,29.45,0
-0.5197766423225403,-0.770439863204956,0.2630975842475891,-11.360512733459473,2.461732864379883,80.5570297241211,29.45,0
-0.546278178691864,-0.7799104452133179,0.264003038406372,-19.33872604370117,2.4605541229248047,80.55809020996094,29.45,0
-0.5856764316558838,-0.7859881520271301,0.2701818943023681,-24.63422966003418,2.4597978591918945,80.55877685546875,29.45,0
-0.5661777257919312,-0.7730951309204102,0.2685493528842926,-21.91353988647461,2.459312438964844,80.55921173095703,29.45,0
-0.5368712544441223,-0.7592233419418335,0.2675016820430755,-12.386202812194824,2.459000825881958,80.55949401855469,29.45,0
-0.5740418434143066,-0.7671145796775818,0.2556338012218475,0.2231024652719497,2.458801031112671,80.55967712402344,29.45,0
-0.6258846521377563,-0.7721787095069885,0.24801766872406,15.727377891540527,2.450869083404541,80.5597915649414,29.45,0
-0.6927410364151001,-0.8258085250854492,0.237532302737236,34.64073181152344,2.4457788467407227,80.55986785888672,29.45,0
-0.6516789793968201,-0.8882139325141907,0.2252056300640106,54.09385681152344,2.442512273788452,80.5599136352539,29.45,0
-0.5861433148384094,-0.9114688038825988,0.2172950804233551,71.47513580322266,2.440416097640991,80.55994415283203,29.45,0
-0.5328907370567322,-0.9040013551712036,0.1954252123832702,89.74085235595703,2.439070701599121,80.55996704101562,29.45,0
-0.5043140649795532,-0.8936113715171814,0.1701948493719101,116.14771270751952,2.4382073879241943,80.55997467041016,29.45,0
-0.5083662867546082,-0.8533570766448975,0.1372101306915283,154.84034729003906,2.4376533031463623,80.55998229980469,29.45,0
-0.499771237373352,-0.8219264149665833,0.1048468872904777,199.1925201416016,2.437297821044922,80.55998992919922,29.45,0
-0.4830598831176758,-0.7961582541465759,0.0840780213475227,232.2014617919922,2.4384467601776123,80.55998992919922,29.45,0
-0.4723354876041412,-0.7908172607421875,0.0651519820094108,237.20220947265625,2.439184188842773,80.55998992919922,29.45,0
-0.47664874792099,-0.7929874658584595,0.0530063398182392,208.30795288085935,2.43965744972229,80.55998992919922,29.45,0
-0.4962100684642792,-0.8111734986305237,0.0396141931414604,150.20289611816406,2.439961194992065,80.55998992919922,29.45,0
-0.4695789813995361,-0.8172464966773987,0.0142265604808926,70.96603393554688,2.4401559829711914,80.55998992919922,29.45,0
-0.4244998097419739,-0.8267415761947632,-0.0076635354198515,-21.692285537719727,2.4402809143066406,80.55998992919922,29.45,0
-0.339592844247818,-0.8552260994911194,-0.0217113383114337,-117.30682373046876,2.440361261367798,80.55998992919922,29.45,0
-0.2627133429050445,-0.8902991414070129,-0.02512863650918,-200.68882751464844,2.440412759780884,80.55998992919922,29.45,0
-0.2189742773771286,-0.968784749507904,-0.0329194366931915,-259.0673217773437,2.430805921554565,80.70329284667969,29.45,0
-0.2188939303159713,-1.024749994277954,-0.0491146706044673,-290.0074157714844,2.424640655517578,80.79525756835938,29.45,0
-0.2188423722982406,-1.0886541604995728,-0.0818989351391792,-295.95184326171875,2.420684337615967,80.85427856445312,29.45,0
-0.2691892385482788,-1.0848820209503174,-0.086144670844078,-276.14312744140625,2.418145179748535,80.89215087890625,29.45,0
-0.3238900601863861,-1.0040924549102783,-0.0160982701927423,-233.92135620117188,2.416515827178955,80.91645812988281,29.45,0
-0.3533961176872253,-0.9522463083267212,0.0288534797728061,-184.1768035888672,2.415470123291016,80.93206024169922,29.45,0
-0.3331469893455505,-0.9693544507026672,0.035309825092554,-142.12210083007812,2.414799213409424,80.94207000732422,29.45,0
-0.2977611720561981,-1.0139200687408447,0.039453137665987,-111.76976776123048,2.4143686294555664,80.94849395751953,29.45,0
-0.2358681708574295,-1.0369219779968262,0.0477098487317562,-91.2811050415039,2.4003207683563232,80.9526138305664,29.41,0
-0.1905510425567627,-1.0124988555908203,0.0586063079535961,-79.0318832397461,2.391305685043335,80.95526123046875,29.41,0
-0.1782624274492263,-0.9800321459770204,0.0655990242958068,-69.57678985595703,2.3855202198028564,80.95695495605469,29.41,0
-0.1759740859270095,-0.9703924655914308,0.0756843239068985,-54.824893951416016,2.381807565689087,80.95804595947266,29.41,0
-0.1745055615901947,-0.9586085081100464,0.0821564868092536,-34.219749450683594,2.379425048828125,80.95874786376953,29.41,0
-0.1791609227657318,-0.9510462284088136,0.0751143991947174,-16.42160415649414,2.3778960704803467,80.95919799804688,29.41,0
-0.1821484565734863,-0.9405953884124756,0.0649974197149276,-8.073627471923828,2.3769147396087646,80.95948791503906,29.41,0
-0.1952612400054931,-0.9450842142105104,0.0585049241781234,-6.581976413726807,2.3762850761413574,80.95967102050781,29.41,0
-0.22046959400177,-0.9367693662643432,0.0487406402826309,-5.879083633422852,2.3584370613098145,80.95978546142578,29.41,0
-0.2366468608379364,-0.9146400094032288,0.0424744859337806,-3.651049852371216,2.3469831943511963,80.9598617553711,29.41,0
-0.2582240402698517,-0.8948408961296082,0.0440510027110576,-0.1899056881666183,2.339632749557495,80.95990753173828,29.41,0
-0.2776688039302826,-0.8709394335746765,0.0450627207756042,5.008378028869629,2.3349156379699707,80.9599380493164,29.41,0
-0.2789517939090729,-0.8723941445350647,0.0401142090559005,11.880338668823242,2.331888437271118,80.9599609375,29.41,0
-0.2629818320274353,-0.9013165831565856,0.0313407629728317,18.250036239624023,2.329945802688598,80.95997619628906,29.41,0
-0.2415376752614975,-0.9478662014007568,0.0201126970350742,22.79631233215332,2.328699111938477,80.9599838256836,29.41,0
-0.2445693612098693,-1.0505101680755615,0.0073093967512249,26.91042900085449,2.327899217605591,80.95999145507812,29.41,0
-0.2745037972927093,-1.0995877981185913,0.0046907500363886,30.664813995361328,2.325549602508545,80.95999145507812,29.41,0
-0.3105073273181915,-1.0359208583831787,0.0198035761713981,30.412309646606445,2.324041843414306,80.95999145507812,29.41,0
-0.3168189823627472,-1.0118564367294312,0.0015132464468479,23.3394775390625,2.3230743408203125,80.95999145507812,29.41,0
-0.3152716755867004,-1.0188043117523191,-0.0102244345471262,11.570902824401855,2.322453260421753,80.95999145507812,29.41,0
-0.3030831515789032,-1.0624475479125977,-0.0121592283248901,0.5899854898452759,2.322054862976074,80.95999145507812,29.41,0
-0.2840657234191894,-1.0792596340179443,-0.002205318538472,-4.4363627433776855,2.3217990398406982,80.95999145507812,29.41,0
-0.2382747679948806,-1.0396686792373655,-0.0014152465155348,-1.2670862674713137,2.3216350078582764,80.95999145507812,29.41,0
-0.2088887691497802,-1.0030659437179563,0.0046895509585738,9.364953994750977,2.321529626846313,80.95999145507812,29.41,0
-0.1956283003091812,-0.990772008895874,0.0086072580888867,26.52013397216797,2.321003198623657,81.10688018798828,29.41,0
-0.1983140558004379,-0.9772846698760986,0.0055236429907381,48.87177658081055,2.3206653594970703,81.2011489868164,29.41,0
-0.2000376135110855,-0.9686293005943298,-0.0020530181936919,70.20179748535156,2.320448398590088,81.26164245605469,29.41,0
-0.1955459117889404,-0.9462814331054688,-0.0181108321994543,81.04560852050781,2.3203091621398926,81.30046081542969,29.41,0
-0.1870656311511993,-0.91514652967453,-0.0228180382400751,78.62178039550781,2.3202199935913086,81.32537841796875,29.41,0
-0.1816234737634658,-0.8951659798622131,-0.0258388519287109,70.47795104980469,2.320162773132324,81.34136199951172,29.41,0
-0.1837287843227386,-0.8767458200454712,-0.027777437120676,65.0152587890625,2.3201260566711426,81.35162353515625,29.41,0
-0.1794820725917816,-0.8817181587219238,-0.0402170568704605,61.09762191772461,2.3201024532318115,81.35820770263672,29.41,0
-0.1879523247480392,-0.918495774269104,-0.0649934113025665,47.13359451293945,2.314119338989258,81.36243438720703,29.43,0
-0.1989858299493789,-0.9532930254936218,-0.0976867750287056,13.477590560913086,2.3102798461914062,81.36514282226562,29.43,0
-0.2004687190055847,-1.003612756729126,-0.1242652684450149,-26.635644912719727,2.307815790176392,81.36688232421875,29.43,0
-0.2070181220769882,-1.1030783653259275,-0.1525173634290695,-38.9326057434082,2.30623459815979,81.36800384521484,29.43,0
-0.2392100244760513,-1.133323073387146,-0.1538546085357666,-8.5836763381958,2.305219888687134,81.36872100830078,29.43,0
-0.2822600305080414,-1.0183857679367063,-0.0987350344657898,33.56306076049805,2.3045685291290283,81.36917877197266,29.43,0
-0.28189817070961,-0.978212296962738,-0.0745580121874809,44.26311874389648,2.3041505813598637,81.36947631835938,29.43,0
-0.2648726403713226,-0.9916156530380248,-0.0646403655409812,14.397652626037598,2.303882360458374,81.36966705322266,29.43,0
-0.2427510768175125,-1.0617927312850952,-0.0582757890224456,-31.874053955078125,2.2991199493408203,81.36978912353516,29.43,0
-0.2117614150047302,-1.0732417106628418,-0.04859359562397,-67.74493408203125,2.2960636615753174,81.36986541748047,29.43,0
-0.1694829314947128,-1.0022201538085938,-0.0311845727264881,-81.3569564819336,2.294102430343628,81.36991119384766,29.43,0
-0.1647421270608902,-0.9398492574691772,-0.0200124643743038,-76.24212646484375,2.292843818664551,81.36994171142578,29.43,0
-0.1728953123092651,-0.8998231887817383,-0.007245073094964,-65.46139526367188,2.2920360565185547,81.36996459960938,29.43,0
-0.1893230974674224,-0.8629412055015564,0.0121438512578606,-61.63828659057617,2.291517734527588,81.36997985839844,29.43,0
-0.2054632753133773,-0.8336747288703918,0.0189887732267379,-67.57522583007812,2.291185140609741,81.36998748779297,29.43,0
-0.2214188873767852,-0.8204909563064575,0.0177836753427982,-75.8096923828125,2.290971517562866,81.3699951171875,29.43,0
-0.2316582798957824,-0.8064326047897339,0.0226080883294343,-76.98130798339844,2.288539409637451,81.3699951171875,29.43,0
-0.2382293343544006,-0.803008496761322,0.0313018932938575,-66.97828674316406,2.2869787216186523,81.3699951171875,29.43,0
-0.2480440437793731,-0.8288000226020813,0.0424788519740104,-47.27473449707031,2.2859771251678467,81.3699951171875,29.43,0
-0.2599403262138366,-0.8677425980567932,0.0496515780687332,-22.18067741394043,2.285334348678589,81.3699951171875,29.43,0
-0.2619768977165222,-0.9263203740119934,0.0486568473279476,1.486059546470642,2.284921884536743,81.3699951171875,29.43,0
-0.2352949827909469,-0.980705499649048,0.0144318388774991,13.220406532287598,2.2846572399139404,81.3699951171875,29.43,0
-0.2013787478208542,-1.0771822929382324,-0.0243251230567693,5.510558128356934,2.284487247467041,81.3699951171875,29.43,0
-0.2411887794733047,-1.178279995918274,-0.0212082378566265,-12.882586479187012,2.284378290176392,81.3699951171875,29.43,0
-0.2947254478931427,-1.1815831661224363,0.0087808724492788,-20.501798629760746,2.2806358337402344,81.50613403320312,29.43,0
-0.2954955399036407,-1.0997363328933716,-0.0055604907684028,-8.521020889282227,2.2782342433929443,81.59349822998047,29.43,0
-0.2624031007289886,-1.0975916385650637,-0.0371550507843494,7.966357231140137,2.2766928672790527,81.64956665039062,29.43,0
-0.241166278719902,-1.1298019886016846,-0.0574306175112724,11.61830711364746,2.2757036685943604,81.685546875,29.43,0
-0.2275377064943313,-1.167266011238098,-0.0704423114657402,4.106252193450928,2.275068998336792,81.7086410522461,29.43,0
-0.2131938934326172,-1.1465260982513428,-0.078792467713356,-1.6818472146987915,2.2746615409851074,81.72345733642578,29.43,0
-0.2039888650178909,-1.07723867893219,-0.0729555711150169,-0.2015816420316696,2.274400234222412,81.73296356201172,29.43,0
-0.2092771530151367,-1.0159807205200195,-0.0524164587259292,3.3170742988586426,2.2742323875427246,81.73906707763672,29.43,0
-0.2126708775758743,-0.9766688346862792,-0.0392356403172016,2.236184597015381,2.2796332836151123,81.74298095703125,29.43,0
-0.2148487716913223,-0.9290496706962584,-0.0363747254014015,-3.974634885787964,2.283099412918091,81.74549865722656,29.43,0
-0.2050508707761764,-0.8760993480682373,-0.0345387533307075,-10.443106651306152,2.2853236198425293,81.74710845947266,29.43,0
-0.1819698214530944,-0.8365210890769958,-0.0221649836748838,-12.845901489257812,2.2867510318756104,81.7481460571289,29.43,0
-0.1727554947137832,-0.8167198300361633,-0.0086264358833432,-11.306862831115724,2.2876670360565186,81.74880981445312,29.43,0
-0.1724400520324707,-0.8040124773979187,-0.0055359499529004,-8.012017250061035,2.288254976272583,81.74923706054688,29.43,0
-0.1946287155151367,-0.8014554381370544,-0.0147482035681605,-3.343198776245117,2.2886321544647217,81.74951171875,29.43,0
-0.2144659012556076,-0.805412232875824,-0.0262578707188367,3.009854316711426,2.288874387741089,81.74968719482422,29.43,0
-0.2495873570442199,-0.84153813123703,-0.0392418876290321,7.015225887298584,2.28076696395874,81.74980163574219,29.43,0
-0.2777240574359894,-0.898308277130127,-0.0531720556318759,-2.1616227626800537,2.275563955307007,81.74987030029297,29.43,0
-0.2901827991008758,-0.9459356665611268,-0.0621116384863853,-31.950157165527344,2.272224903106689,81.74991607666016,29.43,0
-0.2813847959041595,-0.9820979237556458,-0.0734463185071945,-67.68629455566406,2.270082235336304,81.74994659423828,29.43,0
-0.2645431756973266,-1.027695894241333,-0.0919158160686492,-76.21773529052734,2.268707036972046,81.74996948242188,29.43,0
-0.2593329846858978,-1.1017402410507202,-0.1261595785617828,-43.60636138916016,2.267824649810791,81.7499771118164,29.43,0
-0.2839782536029815,-1.104475498199463,-0.1369397044181823,2.313789129257202,2.267258405685425,81.74998474121094,29.43,0
-0.3109897077083587,-1.0390574932098389,-0.127064436674118,25.566930770874023,2.266895055770874,81.74999237060547,29.43,0
-0.3227263391017914,-0.9914782047271729,-0.1095315143465995,24.28546905517578,2.268497943878174,81.74999237060547,29.43,0
-0.3190626800060272,-0.9945312142372132,-0.1038776710629463,19.629743576049805,2.269526481628418,81.74999237060547,29.43,0
-0.2831248939037323,-1.0580660104751587,-0.1170426830649375,20.507566452026367,2.27018666267395,81.74999237060547,29.43,0
-0.2376710027456283,-1.0428612232208252,-0.1142956763505935,22.292560577392575,2.2706103324890137,81.74999237060547,29.43,0
-0.202903538942337,-0.999517023563385,-0.0957394838333129,24.91767120361328,2.270882129669189,81.74999237060547,29.43,0
-0.1917873322963714,-0.9381145238876344,-0.0726356357336044,30.038005828857425,2.271056652069092,81.74999237060547,29.43,0
-0.1902513653039932,-0.8875144124031067,-0.0578089170157909,31.894495010375977,2.2711684703826904,81.74999237060547,29.43,0
-0.206058993935585,-0.8494443893432617,-0.0482939854264259,27.514976501464844,2.271240234375,81.74999237060547,29.43,0
-0.2385945171117782,-0.830610990524292,-0.0421878471970558,25.92969512939453,2.269450187683105,81.86463928222656,29.43,0
-0.2706694900989532,-0.8241226077079773,-0.0326715074479579,36.10432052612305,2.268301486968994,81.9382095336914,29.43,0
-0.2968511283397674,-0.8143609166145325,-0.0153689188882708,53.84010314941406,2.267564296722412,81.98542785644531,29.43,0
-0.3192507922649383,-0.8080964684486389,0.0013326617190614,66.81615447998047,2.2670912742614746,82.0157241821289,29.43,0
-0.3336255848407745,-0.809674084186554,0.0288440976291894,64.7503890991211,2.2667877674102783,82.03517150878906,29.43,0
-0.3260571956634521,-0.833077609539032,0.0576949045062065,44.18626403808594,2.2665929794311523,82.04764556884766,29.43,0
-0.3156024515628814,-0.8536943793296814,0.0818074643611908,14.119043350219728,2.266468048095703,82.05565643310547,29.43,0
-0.2865020930767059,-0.8893161416053772,0.0804881900548935,-6.100669860839844,2.266387701034546,82.06079864501953,29.43,0
-0.2622293829917907,-0.9177739024162292,0.0628482326865196,-5.58095645904541,2.264040946960449,82.06409454345703,29.43,0
-0.2466525584459304,-1.0088075399398804,0.0291368290781974,5.754655838012695,2.2625348567962646,82.06620788574219,29.43,0
-0.2814384400844574,-1.1008143424987793,0.0186983402818441,9.657995223999023,2.261568307876587,82.06756591796875,29.43,0
-0.3261531293392181,-1.1206746101379397,0.0175972934812307,-2.4898011684417725,2.2609479427337646,82.06843566894531,29.43,0
-0.3380551040172577,-1.0606486797332764,-0.0110981678590178,-25.55449676513672,2.260550022125244,82.0689926147461,29.43,0
-0.3233020305633545,-1.027725338935852,-0.0407088100910186,-46.213600158691406,2.2602944374084477,82.06935119628906,29.43,0
-0.291443258523941,-1.0681724548339844,-0.0541134439408779,-53.13026428222656,2.2601306438446045,82.069580078125,29.43,0
-0.2709981203079223,-1.105324625968933,-0.0571179911494255,-46.21937942504883,2.2600255012512207,82.06973266601562,29.43,0
-0.2522798478603363,-1.1123734712600708,-0.0646439120173454,-34.69087219238281,2.260876178741455,82.06983184814453,29.43,0
-0.2290719747543335,-1.0777126550674438,-0.0750713869929313,-26.640512466430664,2.2614221572875977,82.06989288330078,29.43,0
-0.2141785025596618,-1.0442737340927124,-0.0761653706431388,-22.566940307617188,2.261772394180298,82.06993103027344,29.43,0
-0.2270118296146392,-1.0340100526809692,-0.0824651941657066,-17.255077362060547,2.26199722290039,82.06995391845703,29.43,0
-0.2352475225925445,-1.0050324201583862,-0.080910287797451,-6.921110153198242,2.262141466140747,82.0699691772461,29.43,0
-0.240532711148262,-0.9752406477928162,-0.0743146613240242,5.1131591796875,2.2622339725494385,82.06997680664062,29.43,0
-0.2383266687393188,-0.9225353598594666,-0.0644841939210891,11.363621711730955,2.2622933387756348,82.06998443603516,29.43,0
-0.2425087243318557,-0.894309937953949,-0.0581755675375461,9.334586143493652,2.262331485748291,82.06999206542969,29.43,0
-0.2451925277709961,-0.8650009036064148,-0.048529278486967,5.005191802978516,2.2605199813842773,82.06999206542969,29.43,0
-0.269305944442749,-0.8405942916870117,-0.0479366220533847,5.744925022125244,2.259357452392578,82.06999206542969,29.43,0
-0.3015738725662231,-0.8249315023422241,-0.0531540624797344,9.838045120239258,2.2586114406585693,82.06999206542969,29.43,0
-0.3222815692424774,-0.8260756134986877,-0.0509045422077178,4.941364765167236,2.2581326961517334,82.06999206542969,29.43,0
-0.3411683440208435,-0.8324075937271118,-0.0438631549477577,-17.9517822265625,2.2578253746032715,82.06999206542969,29.43,0
-0.3644843399524688,-0.8644599914550781,-0.0337466225028038,-47.36050796508789,2.2576282024383545,82.06999206542969,29.43,0
-0.351458340883255,-0.8962249159812927,-0.0328521877527236,-57.22673797607422,2.257501602172852,82.06999206542969,29.43,0
-0.3319034576416015,-0.9222075939178468,-0.0322781912982463,-37.05800628662109,2.257420539855957,82.06999206542969,29.43,0
-0.2969631552696228,-0.9500772953033448,-0.0375076085329055,-8.079265594482422,2.255991220474243,82.17747497558594,29.43,0
-0.2745404839515686,-1.0015491247177124,-0.0520590953528881,0.7945113182067871,2.2550740242004395,82.24645233154297,29.43,0
-0.2769442200660705,-1.0289829969406128,-0.0557996295392513,-13.343947410583496,2.2544853687286377,82.29071807861328,29.43,0
-0.3008778989315033,-0.9682196378707886,-0.0358089916408062,-29.75072860717773,2.254107713699341,82.31912231445312,29.43,0
-0.3162371516227722,-0.9180296659469604,-0.0229801498353481,-33.497840881347656,2.2538652420043945,82.33734893798828,29.43,0
-0.3260938227176666,-0.9138095378875732,-0.0315406620502471,-27.46197509765625,2.2537097930908203,82.34904479980469,29.43,0
-0.326821506023407,-0.939090132713318,-0.0370343029499053,-19.404054641723636,2.2536098957061768,82.35655212402344,29.43,0
-0.2881040573120117,-1.0000959634780884,-0.0405598059296608,-12.810663223266602,2.2535457611083984,82.36137390136719,29.43,0
-0.2408663481473922,-0.9944638013839722,-0.026028947904706,-8.719124794006348,2.2516682147979736,82.36446380615234,29.41,0
-0.2105519026517868,-0.9628605246543884,-0.0055083325132727,-4.556485176086426,2.2504632472991943,82.36644744873047,29.41,0
-0.2078911513090133,-0.9313838481903076,0.0020628441125154,7.096374034881592,2.249690055847168,82.36772155761719,29.41,0
-0.2173791974782943,-0.9111838936805724,0.0013238146202638,30.868061065673828,2.2491939067840576,82.36853790283203,29.41,0
-0.2346636205911636,-0.8982207179069519,0.000849548028782,61.8795280456543,2.248875379562378,82.36906433105469,29.41,0
-0.2569513320922851,-0.901097297668457,0.0061429655179381,90.4113311767578,2.248671054840088,82.36940002441406,29.41,0
-0.2768520712852478,-0.9029433131217957,0.0207355245947837,109.72093963623048,2.248539924621582,82.36961364746094,29.41,0
-0.2784276604652405,-0.8929324150085449,0.0356979630887508,115.45988464355467,2.248455762863159,82.3697509765625,29.41,0
-0.2794387936592102,-0.8809102177619934,0.0452999956905841,102.70237731933594,2.2502381801605225,82.36984252929688,29.41,0
-0.2912832200527191,-0.8843905925750732,0.0738531276583671,72.49683380126953,2.251382112503052,82.36990356445312,29.41,0
-0.3044820725917816,-0.8922218680381775,0.0977746546268463,38.95431518554688,2.252116203308105,82.36994171142578,29.41,0
-0.3297456502914428,-0.8972475528717041,0.10752834379673,18.8222770690918,2.25258731842041,82.36996459960938,29.41,0
-0.3571539223194122,-0.9172660708427428,0.1249832436442375,13.78794288635254,2.252889633178711,82.36997985839844,29.41,0
-0.3635474145412445,-0.9301127791404724,0.13058702647686,11.786020278930664,2.2530837059021,82.36998748779297,29.41,0
-0.4124325811862945,-0.9775415062904358,0.1005965620279312,3.106865167617798,2.25320816040039,82.3699951171875,29.41,0
-0.4214131832122803,-1.0639562606811523,0.1149370521306991,-12.32216453552246,2.2532880306243896,82.3699951171875,29.41,0
-0.4439697265625,-1.0914233922958374,0.1185421794652938,-29.20965003967285,2.251043796539306,82.3699951171875,29.41,0
-0.4360541105270386,-1.0418769121170044,0.1152579709887504,-42.572784423828125,2.249603748321533,82.3699951171875,29.41,0
-0.4141810238361358,-0.9932875633239746,0.1019548028707504,-51.14130783081055,2.2486796379089355,82.3699951171875,29.41,0
-0.3777530193328857,-1.006887912750244,0.065428726375103,-56.47887802124024,2.248086452484131,82.3699951171875,29.41,0
-0.3431800901889801,-1.060397982597351,0.0195972900837659,-58.97633361816406,2.2477059364318848,82.3699951171875,29.41,0
-0.3209931552410126,-1.0835421085357666,-0.0098146852105855,-57.84197235107422,2.2474615573883057,82.3699951171875,29.41,0
-0.2955593168735504,-1.048014760017395,-0.0342873707413673,-53.82878112792969,2.247304916381836,82.3699951171875,29.41,0
-0.2792373597621918,-1.0084220170974731,-0.0499925315380096,-47.86064529418945,2.247204303741455,82.3699951171875,29.41,0
-0.2799583971500397,-0.977415919303894,-0.0600712001323699,-39.43061447143555,2.245762586593628,82.47030639648438,29.41,0
-0.3028122186660766,-0.9575179815292358,-0.0721368864178657,-29.19139289855957,2.2448372840881348,82.53468322753906,29.41,0
-0.3174784779548645,-0.9391508102416992,-0.0910754948854446,-19.60392189025879,2.244243621826172,82.57599639892578,29.41,0
-0.3156948983669281,-0.910570502281189,-0.1032292023301124,-10.975674629211426,2.243862628936768,82.60250854492188,29.41,0
-0.3145503103733063,-0.8810337781906128,-0.0998332053422927,-0.1148552373051643,2.2436180114746094,82.61952209472656,29.41,0
-0.3138157725334167,-0.8564810156822205,-0.0976538509130477,14.97311019897461,2.2434611320495605,82.63043975830078,29.41,0
-0.3021488487720489,-0.846322238445282,-0.0906574949622154,30.652929306030277,2.24336051940918,82.637451171875,29.41,0
-0.294661670923233,-0.8509984612464905,-0.0861676335334777,38.69118118286133,2.243295907974243,82.6419448852539,29.41,0
-0.2898568511009216,-0.8707927465438843,-0.0664929747581482,32.80817031860352,2.2432544231414795,82.64482879638672,29.41,0
-0.2867733836174011,-0.9002888798713684,-0.0538669116795063,17.127893447875977,2.24322772026062,82.64668273925781,29.41,0
-0.2791968286037445,-0.9304133653640748,-0.0345686823129653,6.323599815368652,2.243210554122925,82.64787292480469,29.41,0
-0.2463457435369491,-0.972136616706848,-0.0277819652110338,11.477636337280272,2.243199586868286,82.64863586425781,29.41,0
-0.2196660339832306,-1.0213032960891724,-0.0178288668394088,27.15583610534668,2.243192672729492,82.64912414550781,29.41,0
-0.2305334061384201,-1.0136712789535522,0.0221451055258512,37.5647087097168,2.2431881427764893,82.6494369506836,29.41,0
-0.2487030029296875,-0.9639912247657776,0.0645914226770401,33.75115966796875,2.24318528175354,82.64964294433594,29.41,0
-0.2491676658391952,-0.9097183346748352,0.0750377029180526,21.00393867492676,2.2431833744049072,82.64977264404297,29.41,0
-0.2438680827617645,-0.9196712970733644,0.0649482011795044,10.752779006958008,2.2395095825195312,82.64985656738281,29.41,0
-0.2348693460226059,-0.954047441482544,0.0584733411669731,8.42310905456543,2.237152099609375,82.64990997314453,29.41,0
-0.2178989201784134,-0.9649125337600708,0.0655137002468109,10.274187088012695,2.2356390953063965,82.64994049072266,29.41,0
-0.2126060575246811,-0.9494940042495728,0.0644340217113494,10.193870544433594,2.234668254852295,82.64996337890625,29.41,0
-0.2204049527645111,-0.9228059649467468,0.0581433698534965,6.305389404296875,2.2340452671051025,82.64997863769531,29.41,0
-0.2422031462192535,-0.9224724173545836,0.0541063919663429,1.6461104154586792,2.233645439147949,82.64998626708984,29.41,0
-0.2673875391483307,-0.927856147289276,0.0571134649217128,0.9059107303619384,2.233388662338257,82.64999389648438,29.41,0
-0.283549427986145,-0.9257133603096008,0.0478476844727993,5.439333915710449,2.2332239151000977,82.64999389648438,29.41,0
-0.2883234024047851,-0.9299359917640686,0.0363036654889583,11.501290321350098,2.234036445617676,82.64999389648438,29.41,0
-0.2801915407180786,-0.9438413977622986,0.034493152052164,15.029664993286133,2.234557867050171,82.64999389648438,29.41,0
-0.2805707454681396,-0.9359717965126038,0.0445268154144287,16.448484420776367,2.234892606735229,82.64999389648438,29.41,0
-0.2752163112163543,-0.9197259545326232,0.0453680716454982,18.23673248291016,2.235107421875,82.64999389648438,29.41,0
-0.2885734736919403,-0.9260936379432678,0.0179190672934055,18.678560256958008,2.2352452278137207,82.64999389648438,29.41,0
-0.3083408772945404,-0.9469733834266664,0.0003038771101273,11.567663192749023,2.2353336811065674,82.64999389648438,29.41,0
-0.3042331337928772,-0.9771661162376404,-0.005402763839811,-4.624741077423096,2.2353904247283936,82.64999389648438,29.41,0
-0.2904014885425567,-0.9965420961380004,-0.0146627314388751,-19.232786178588867,2.235426902770996,82.64999389648438,29.41,0
-0.287122905254364,-1.0145742893218994,-0.0262030195444822,-17.687698364257812,2.2340731620788574,82.7431411743164,29.41,0
-0.3130077719688415,-1.0709284543991089,-0.0615977831184864,0.500214159488678,2.2332043647766118,82.80291748046875,29.41,0
-0.3464125096797943,-1.0902999639511108,-0.078714333474636,17.714412689208984,2.2326467037200928,82.8412857055664,29.41,0
-0.367849737405777,-1.0467537641525269,-0.0841009765863418,16.27621841430664,2.2322888374328613,82.86590576171875,29.41,0
-0.3648135960102081,-1.052394986152649,-0.1155466809868812,-3.204472541809082,2.2320592403411865,82.88170623779297,29.41,0
-0.3516696393489837,-1.0896018743515017,-0.1413245052099228,-24.59442901611328,2.2319118976593018,82.891845703125,29.41,0
-0.3152457177639007,-1.1022834777832031,-0.1578672230243683,-33.25550842285156,2.2318172454833984,82.89835357666016,29.41,0
-0.2806754112243652,-1.0936285257339478,-0.1684833914041519,-27.70770835876465,2.231756687164306,82.90252685546875,29.41,0
-0.2696857154369354,-1.0544875860214231,-0.1696984618902206,-17.8564453125,2.230799436569214,82.90520477294922,29.43,0
-0.2738287150859833,-0.9957825541496276,-0.1760759949684143,-13.963459014892578,2.230185270309448,82.90692138671875,29.43,0
-0.2820852100849151,-0.9469135403633118,-0.1801687330007553,-16.828279495239258,2.2297911643981934,82.90802764892578,29.43,0
-0.2929815351963043,-0.926747739315033,-0.1883929818868637,-19.666296005249023,2.2295382022857666,82.90873718261719,29.43,0
-0.3055719435214996,-0.9194042682647704,-0.188073068857193,-18.32057380676269,2.2293758392333984,82.90918731689453,29.43,0
-0.2968584299087524,-0.9034960865974426,-0.1822699904441833,-15.296674728393556,2.229271650314331,82.90947723388672,29.43,0
-0.2856688201427459,-0.8988849520683289,-0.1785459071397781,-13.78243637084961,2.2292046546936035,82.90966796875,29.43,0
-0.284085750579834,-0.9015235304832458,-0.1705582290887832,-12.656635284423828,2.229161739349365,82.9097900390625,29.43,0
-0.2830698192119598,-0.8976190686225891,-0.1542366445064544,-9.021526336669922,2.2309703826904297,82.90986633300781,29.43,0
-0.2880156338214874,-0.900711178779602,-0.1381646245718002,-3.4787352085113525,2.232131004333496,82.909912109375,29.43,0
-0.2855917811393738,-0.9306843876838684,-0.1222527474164962,-1.2329134941101074,2.2328758239746094,82.90994262695312,29.43,0
-0.2728407680988312,-0.9499194622039796,-0.1064436510205268,-4.821610450744629,2.233353853225708,82.90996551513672,29.43,0
-0.2590601146221161,-0.945470094680786,-0.0795049592852592,-5.164960861206055,2.233660697937012,82.90998077392578,29.43,0
-0.2334231585264206,-0.9370169639587402,-0.0454239323735237,11.298752784729004,2.2338573932647705,82.90998840332031,29.43,0
-0.2169708460569381,-0.9539833664894104,-0.0235526915639638,42.20249557495117,2.2339837551116943,82.90999603271484,29.43,0
-0.2288037836551666,-0.987262487411499,0.0016785621410235,66.788818359375,2.234064817428589,82.90999603271484,29.43,0
-0.2699841260910034,-0.9470435976982116,0.0626527220010757,69.35078430175781,2.231362819671631,82.90999603271484,29.43,0
-0.2964113056659698,-0.8876467943191528,0.10178242623806,54.70135116577149,2.229628801345825,82.90999603271484,29.43,0
-0.2965774238109588,-0.8719204068183899,0.0989047512412071,37.37553024291992,2.228516101837158,82.90999603271484,29.43,0
-0.2910862565040588,-0.8954147696495056,0.0858624726533889,25.905725479125977,2.227802038192749,82.90999603271484,29.43,0
-0.2651712596416473,-0.9776654243469238,0.0718949139118194,20.14289283752441,2.227343797683716,82.90999603271484,29.43,0
-0.2485404908657074,-0.9912647008895874,0.0797246620059013,15.9824857711792,2.227049827575684,82.90999603271484,29.43,0
-0.2434656023979187,-0.9887964129447936,0.0791515707969665,9.694174766540527,2.226861000061035,82.90999603271484,29.43,0
-0.2402088195085525,-0.9872124195098876,0.0675882473587989,1.5315715074539185,2.226739883422852,82.90999603271484,29.43,0
-0.2437165826559066,-0.991793692111969,0.0545697957277298,-3.344876766204834,2.2243669033050537,82.99597930908203,29.43,0
-0.2515654265880584,-0.9947336912155152,0.0350197553634643,-0.1438893675804138,2.222843885421753,83.05116271972656,29.43,0
-0.2510046064853668,-0.985424816608429,0.0112781142815947,9.340580940246582,2.221866607666016,83.0865707397461,29.43,0
-0.2562424838542938,-0.9794509410858154,-0.0039579044096171,19.27127265930176,2.2212393283843994,83.10929870605469,29.43,0
-0.276397168636322,-0.9700194597244264,-0.024931052699685,26.82646942138672,2.220836877822876,83.1238784790039,29.43,0
-0.2893312871456146,-0.9527713656425476,-0.0383904129266738,32.29116439819336,2.220578670501709,83.13323974609375,29.43,0
-0.2920338809490204,-0.9361047148704528,-0.0358323045074939,34.16443634033203,2.2204129695892334,83.13924407958984,29.43,0
-0.2993660271167755,-0.9254090189933776,-0.0397884324193,28.462968826293945,2.220306634902954,83.14309692382812,29.43,0
-0.3152669072151184,-0.9241429567337036,-0.0479250214993953,14.572259902954102,2.2216155529022217,83.14556884765625,29.41,0
-0.3254711925983429,-0.9289281964302064,-0.0587443932890892,0.2769735753536224,2.2224555015563965,83.14715576171875,29.41,0
-0.3264219462871551,-0.9264013171195984,-0.0656876415014267,-5.074310302734375,2.222994565963745,83.14817810058594,29.41,0
-0.3214342892169952,-0.9079864025115968,-0.0645456463098526,-3.718552589416504,2.223340511322021,83.14883422851562,29.41,0
-0.3182335197925567,-0.9633420705795288,-0.0918016508221626,-7.409124374389648,2.223562479019165,83.14925384521484,29.41,0
-0.332972764968872,-1.049246072769165,-0.1148907616734504,-21.689584732055664,2.2237048149108887,83.14952087402344,29.41,0
-0.3704204261302948,-1.0483965873718262,-0.1017191484570503,-41.05713653564453,2.223796129226685,83.14969635009766,29.41,0
-0.3832566440105438,-1.0198626518249512,-0.1212552413344383,-57.42694854736328,2.223854780197144,83.1498031616211,29.41,0
-0.3579075336456299,-1.018344521522522,-0.1505856961011886,-65.37061309814453,2.2211382389068604,83.14987182617188,29.41,0
-0.3304443955421448,-1.0453591346740725,-0.1750060766935348,-63.83346939086914,2.2193949222564697,83.14991760253906,29.41,0
-0.301624596118927,-1.04030442237854,-0.185079887509346,-58.32222366333008,2.218276262283325,83.14994812011719,29.41,0
-0.2887274622917175,-1.0202672481536863,-0.1915446817874908,-56.82032775878906,2.2175581455230717,83.14997100830078,29.41,0
-0.2860485911369324,-0.9906152486801147,-0.1900956481695175,-60.61057662963867,2.217097520828247,83.14997863769531,29.41,0
-0.3067205548286438,-0.9547929763793944,-0.200361281633377,-63.51583862304688,2.216801881790161,83.14998626708984,29.41,0
-0.3199866414070129,-0.9318042993545532,-0.2181447297334671,-61.31046295166016,2.2166121006011963,83.14999389648438,29.41,0
-0.3229022622108459,-0.9394425749778748,-0.2239593416452407,-56.64936447143555,2.2164902687072754,83.14999389648438,29.41,0
-0.3079800307750702,-0.9331488609313964,-0.2164952754974365,-52.8520622253418,2.2177891731262207,83.14999389648438,29.41,0
-0.2928060293197632,-0.9235121607780457,-0.206107497215271,-47.67808532714844,2.21862268447876,83.14999389648438,29.41,0
-0.2830682098865509,-0.917327880859375,-0.1938434392213821,-35.38695526123047,2.219157695770264,83.14999389648438,29.41,0
-0.2880145907402038,-0.9301524758338928,-0.1747775375843048,-12.817819595336914,2.21950101852417,83.14999389648438,29.41,0
-0.2967866659164428,-0.94398033618927,-0.1569443643093109,14.92844581604004,2.21972131729126,83.14999389648438,29.41,0
-0.2968183159828186,-0.958452045917511,-0.1399022787809372,36.7218132019043,2.219862699508667,83.14999389648438,29.41,0
-0.2912408411502838,-0.973336935043335,-0.1289656460285186,50.97623443603516,2.2199532985687256,83.14999389648438,29.41,0
-0.2876615524291992,-0.9828891754150392,-0.0995560511946678,72.39064025878906,2.2200114727020264,83.14999389648438,29.41,0
-0.2741690278053283,-0.9890192747116088,-0.0694871172308921,109.03299713134766,2.2186717987060547,83.21089935302734,29.41,0
-0.2543147504329681,-0.987355411052704,-0.0501906052231788,141.7480010986328,2.2178120613098145,83.24998474121094,29.41,0
-0.2303778678178787,-1.0086787939071655,-0.0322094410657882,143.3787841796875,2.217260360717773,83.27507019042969,29.41,0
-0.2262120991945266,-1.0167651176452637,-0.009474616497755,111.40473175048828,2.216906309127808,83.29116821289062,29.41,0
-0.2403320670127868,-0.988367795944214,0.033104158937931,67.59172058105469,2.216679096221924,83.30149841308594,29.41,0
-0.2493934482336044,-0.9477529525756836,0.0604287646710872,32.62516403198242,2.2165331840515137,83.3081283569336,29.41,0
-0.2496107518672943,-0.9160909056663512,0.0723663493990898,12.732854843139648,2.216439723968506,83.3123779296875,29.41,0
-0.2273591011762619,-0.9125653505325316,0.0520383305847644,4.341439723968506,2.2163796424865723,83.31510925292969,29.41,0
-0.2074815034866333,-0.9270961284637452,0.0389929786324501,-0.1910342127084732,2.2158823013305664,83.31686401367188,29.41,0
-0.2115185260772705,-0.953214466571808,0.0530123226344585,-9.50177764892578,2.2155630588531494,83.31798553466797,29.41,0
-0.2365003526210785,-0.9363890886306764,0.0676069036126136,-26.03830909729004,2.215358257293701,83.31871032714844,29.41,0
-0.2525322437286377,-0.9143959879875184,0.0657773166894912,-40.70598220825195,2.215226650238037,83.31917572021484,29.41,0
-0.2628206014633178,-0.9170753955841064,0.0534076429903507,-42.12253952026367,2.215142250061035,83.31947326660156,29.41,0
-0.2694230675697326,-0.9243926405906676,0.0510672740638256,-31.58169174194336,2.215088129043579,83.31966400146484,29.41,0
-0.256866842508316,-0.934686243534088,0.0439675860106945,-21.52121353149414,2.2150533199310303,83.31978607177734,29.41,0
-0.2432111948728561,-0.9412920475006104,0.0394114144146442,-19.002227783203125,2.2150309085845947,83.31986236572266,29.41,0
-0.2344477921724319,-0.9455313086509703,0.0364875271916389,-18.421052932739254,2.214557409286499,83.31990814208984,29.41,0
-0.2400194853544235,-0.9482517838478088,0.0290133692324161,-11.452566146850586,2.2142534255981445,83.31993865966797,29.41,0
-0.2491928488016128,-0.9499976634979248,0.0242168847471475,0.833004355430603,2.2140583992004395,83.31996154785156,29.41,0
-0.2438842356204986,-0.9343247413635254,0.0155410030856728,7.760629653930664,2.213933229446411,83.31997680664062,29.41,0
-0.2292819321155548,-0.9298645257949828,0.004375547170639,2.888101100921631,2.213852882385254,83.31998443603516,29.41,0
-0.2199110090732574,-0.9326000213623048,-0.002789800055325,-5.788217067718506,2.213801383972168,83.31999206542969,29.41,0
-0.2194950729608535,-0.9287577271461488,-0.0129858823493123,-8.400553703308105,2.213768243789673,83.31999206542969,29.41,0
-0.2192281484603881,-0.9206941723823548,-0.019529141485691,-9.776063919067385,2.213747024536133,83.31999206542969,29.41,0
-0.2246546298265457,-0.9211171865463256,-0.0349237769842147,-19.819433212280277,2.2114384174346924,83.31999206542969,29.41,0
-0.2337348014116287,-0.9941597580909728,-0.0615964904427528,-35.48265838623047,2.2099568843841557,83.31999206542969,29.41,0
-0.2563552558422088,-1.0746209621429443,-0.0787135064601898,-45.88908767700195,2.2090060710906982,83.31999206542969,29.41,0
-0.2932628691196441,-1.0814740657806396,-0.0673071220517158,-46.69907760620117,2.2083959579467773,83.31999206542969,29.41,0
-0.3113502562046051,-1.0410897731781006,-0.0655849352478981,-40.51588439941406,2.2080044746398926,83.31999206542969,29.41,0
-0.2837733030319214,-1.00397789478302,-0.0924686044454574,-32.03740310668945,2.2077531814575195,83.31999206542969,29.41,0
-0.2492826581001281,-1.0529327392578125,-0.1041232198476791,-26.879425048828125,2.207592010498047,83.31999206542969,29.41,0
-0.2327463328838348,-1.0843491554260254,-0.1004069373011589,-28.28400039672852,2.207488536834717,83.31999206542969,29.41,0
-0.2109387218952179,-1.082119345664978,-0.0980220362544059,-33.29458999633789,2.208799123764038,83.35940551757812,29.41,0
-0.1913460791110992,-1.0694928169250488,-0.1076870933175087,-36.06227493286133,2.2096402645111084,83.38469696044922,29.41,0
-0.1843704134225845,-1.0222053527832031,-0.1082917973399162,-34.67500305175781,2.2101800441741943,83.40092468261719,29.41,0
-0.185491606593132,-0.9806634783744812,-0.1030820906162262,-32.26572036743164,2.210526466369629,83.41133880615234,29.41,0
-0.1862111240625381,-0.9540042877197266,-0.1053365767002105,-31.36802673339844,2.2107489109039307,83.41802215576172,29.41,0
-0.1866728663444519,-0.9480915069580078,-0.1123811453580856,-29.07588577270508,2.2108914852142334,83.42230987548828,29.41,0
-0.1813714206218719,-0.9386992454528807,-0.1224997192621231,-19.565622329711918,2.2109830379486084,83.42506408691406,29.41,0
-0.1723714768886566,-0.9214763045310974,-0.1233954653143882,-2.3063418865203857,2.2110416889190674,83.42683410644531,29.41,0
-0.1665958315134048,-0.9048258066177368,-0.1183725297451019,14.179360389709473,2.209243059158325,83.42797088623047,29.41,0
-0.1684871315956115,-0.8885427117347717,-0.1151490956544876,21.280254364013672,2.2080888748168945,83.42869567871094,29.41,0
-0.1864941865205764,-0.8836909532546997,-0.1130804792046547,22.756183624267575,2.207348108291626,83.42916107177734,29.41,0
-0.1980500817298889,-0.8805773258209229,-0.1117529645562172,31.072710037231445,2.206872701644897,83.42945861816406,29.41,0
-0.2054659873247146,-0.889774739742279,-0.1053032651543617,49.61515045166016,2.2065675258636475,83.42964935302734,29.41,0
-0.2102250903844833,-0.9012749195098876,-0.0955664440989494,66.72010040283203,2.206371784210205,83.42977142333984,29.41,0
-0.2132792025804519,-0.908655047416687,-0.0893179178237915,70.57492065429688,2.2062461376190186,83.42985534667969,29.41,0
-0.2096413820981979,-0.9749667048454284,-0.0965035185217857,62.39772033691406,2.2061655521392822,83.4299087524414,29.41,0
-0.212904617190361,-1.0511083602905271,-0.1123103722929954,51.16358184814453,2.2056548595428467,83.42993927001953,29.41,0
-0.242987647652626,-1.0439939498901367,-0.0832698792219162,42.26676177978516,2.205327033996582,83.42996215820312,29.41,0
-0.2622931897640228,-1.0058417320251465,-0.0478400401771068,36.03424072265625,2.2051167488098145,83.42997741699219,29.41,0
-0.2634868323802948,-1.003748893737793,-0.030700983479619,32.36058044433594,2.204981803894043,83.42998504638672,29.41,0
-0.2418617457151413,-1.063981294631958,-0.0308976732194423,30.64790153503418,2.204895257949829,83.42999267578125,29.41,0
-0.2279840111732483,-1.1306239366531372,-0.0310238972306251,27.69302749633789,2.2048397064208984,83.42999267578125,29.41,0
-0.1966869831085205,-1.1062179803848269,-0.0087138023227453,21.408105850219727,2.204803943634033,83.42999267578125,29.41,0
-0.1822001338005066,-1.0289801359176636,0.0056035327725112,14.988808631896973,2.2047810554504395,83.42999267578125,29.41,0
-0.172903299331665,-0.9738155603408812,0.0147915733978152,12.83610725402832,2.202930212020874,83.42999267578125,29.41,0
-0.1781326830387115,-0.9384141564369202,0.0150901544839143,14.442495346069336,2.20174241065979,83.42999267578125,29.41,0
-0.1870863735675811,-0.9045000076293944,0.0152817666530609,16.06450843811035,2.2009801864624023,83.42999267578125,29.41,0
-0.1928323358297348,-0.8715403079986572,0.0042091836221516,16.213361740112305,2.200491189956665,83.42999267578125,29.41,0
-0.1853242069482803,-0.8671820163726807,-0.0028965624514967,16.34471321105957,2.2001771926879883,83.42999267578125,29.41,0
-0.1805059313774109,-0.8699828386306763,0.0037389271892607,17.965930938720703,2.1999757289886475,83.42999267578125,29.41,0
-0.1830116063356399,-0.8493891954421997,0.0247905254364013,20.887187957763672,2.1998465061187744,83.42999267578125,29.41,0
-0.195815160870552,-0.8361733555793762,0.0327024571597576,21.8017520904541,2.199763536453247,83.42999267578125,29.41,0
-0.2152272909879684,-0.8500832915306091,0.0321821048855781,14.392358779907228,2.1987922191619877,83.4658203125,29.41,0
-0.2388804256916046,-0.9037920832633972,0.0150548480451107,-3.507033348083496,2.1981687545776367,83.48881530761719,29.41,0
-0.2484618723392486,-0.955052614212036,-0.0015342138940468,-22.624719619750977,2.1977686882019043,83.50357055664062,29.41,0
-0.2266218215227127,-0.9991442561149596,-0.0233756676316261,-30.35422706604004,2.197511911392212,83.5130386352539,29.41,0
-0.2182039022445678,-1.1170040369033811,-0.0429900288581848,-26.12527275085449,2.1973471641540527,83.51911163330078,29.41,0
-0.2519862055778503,-1.192639708518982,-0.0387840755283832,-19.96851921081543,2.197241306304932,83.52301025390625,29.41,0
-0.312850147485733,-1.1180273294448853,-0.0080960653722286,-18.93368530273437,2.197173595428467,83.5255126953125,29.41,0
-0.3295180201530456,-1.0533519983291626,-0.0107933627441525,-23.93722343444824,2.197129964828491,83.5271224975586,29.41,0
-0.2730412185192108,-1.0678248405456543,-0.0461109802126884,-33.091697692871094,2.196183919906616,83.52815246582031,29.41,0
-0.2311998754739761,-1.1051015853881836,-0.0631780177354812,-39.95172119140625,2.1955766677856445,83.52881622314453,29.41,0
-0.2043485194444656,-1.1290236711502075,-0.0797284394502639,-37.60093307495117,2.1951870918273926,83.52924346923828,29.41,0
-0.1871168613433838,-1.0716043710708618,-0.0847517699003219,-30.07719039916992,2.194936990737915,83.52951049804688,29.41,0
-0.1760585755109787,-1.0179626941680908,-0.0823776796460151,-29.261369705200195,2.19477653503418,83.5296859741211,29.41,0
-0.1857553273439407,-0.9947341084480286,-0.0696585774421691,-37.515132904052734,2.194673538208008,83.52980041503906,29.41,0
-0.1863803714513778,-0.979827344417572,-0.0614961870014667,-44.3524284362793,2.1946074962615967,83.52986907958984,29.41,0
-0.181183710694313,-0.9590654969215392,-0.0730513557791709,-42.23783874511719,2.1945650577545166,83.52991485595703,29.41,0
-0.1722510159015655,-0.9177528619766236,-0.0748690292239189,-35.46038055419922,2.1940789222717285,83.52994537353516,29.41,0
-0.1665185242891311,-0.8800452351570129,-0.0648399591445922,-30.827974319458008,2.193766832351685,83.52996826171875,29.41,0
-0.1628397405147552,-0.8502488732337952,-0.0528061017394065,-28.095195770263672,2.1935665607452397,83.52997589111328,29.41,0
-0.1660766899585724,-0.8311272859573364,-0.0506812408566474,-23.378664016723636,2.1934380531311035,83.52998352050781,29.41,0
-0.1793495267629623,-0.8132583498954773,-0.0493176281452178,-16.432527542114258,2.1933555603027344,83.52999114990234,29.41,0
-0.1934650391340255,-0.8241822123527527,-0.0484425388276577,-11.681126594543455,2.193302631378174,83.52999114990234,29.41,0
-0.2081213444471359,-0.8479858636856079,-0.0478809550404548,-14.23868179321289,2.1932687759399414,83.52999114990234,29.41,0
-0.2287224680185318,-0.9080438613891602,-0.0587161146104335,-22.47907829284668,2.193247079849243,83.52999114990234,29.41,0
-0.2363453060388565,-0.957781195640564,-0.071267269551754,-23.91243934631348,2.1900198459625244,83.52999114990234,29.41,0
-0.2076505571603775,-1.012090802192688,-0.1129085272550582,-7.231093406677246,2.187948703765869,83.52999114990234,29.41,0
-0.2060292363166809,-1.063736915588379,-0.1396314799785614,20.0756893157959,2.186619758605957,83.52999114990234,29.41,0
-0.2161843180656433,-1.091282606124878,-0.1455851942300796,36.92966842651367,2.185766696929932,83.52999114990234,29.41,0
-0.2562879025936126,-1.0809710025787354,-0.1438081711530685,33.44035720825195,2.1852192878723145,83.52999114990234,29.41,0
-0.2932196259498596,-1.0519624948501587,-0.1370700001716613,20.58953094482422,2.184868097305298,83.52999114990234,29.41,0
-0.3225180506706238,-1.0333465337753296,-0.1271480619907379,14.0371675491333,2.184642791748047,83.52999114990234,29.41,0
-0.2853423655033111,-1.03259539604187,-0.1319762766361236,17.47028923034668,2.184498071670532,83.52999114990234,29.41,0
-0.255887359380722,-0.9985267519950868,-0.1294769793748855,24.169601440429688,2.1867003440856934,83.57298278808594,29.41,0
-0.2313870638608932,-0.9262834787368774,-0.0998841971158981,26.913997650146484,2.1881134510040283,83.60057830810547,29.41,0
-0.215664193034172,-0.8743241429328918,-0.0808932483196258,22.2373046875,2.1890203952789307,83.6182861328125,29.41,0
-0.2223674803972244,-0.8465774059295654,-0.0743037313222885,11.784314155578612,2.1896023750305176,83.62964630126953,29.41,0
-0.2434625923633575,-0.8511622548103333,-0.0644771829247474,3.49985408782959,2.1899759769439697,83.6369400024414,29.41,0
-0.2514024376869201,-0.8541045188903809,-0.0581710673868656,5.352097988128662,2.190215587615967,83.64161682128906,29.41,0
-0.250900000333786,-0.8615905046463013,-0.0429286174476146,16.016674041748047,2.1903693675994877,83.64462280273438,29.41,0
-0.2561753392219543,-0.8719923496246338,-0.0275491159409284,27.03428649902344,2.190468072891236,83.64655303955078,29.41,0
-0.2539629638195038,-0.8618743419647217,-0.006483887322247,32.81144714355469,2.190990686416626,83.64778900146484,29.41,0
-0.2581409811973572,-0.8609789609909058,0.0182301122695207,32.943485260009766,2.191326141357422,83.6485824584961,29.41,0
-0.2552244067192077,-0.8715998530387878,0.0340901352465152,25.93471908569336,2.1915414333343506,83.64909362792969,29.41,0
-0.2589505016803741,-0.917600154876709,0.0386704094707965,8.715169906616211,2.1916794776916504,83.64942169189453,29.41,0
-0.2613416910171509,-0.9527183175086976,0.0416097678244113,-12.495530128479004,2.191768169403076,83.64962768554688,29.41,0
-0.2460829019546508,-0.992048442363739,0.0323005281388759,-19.76617813110352,2.191825151443481,83.64976501464844,29.41,0
-0.2418884634971618,-1.1180481910705566,0.0095330690965056,-3.542062282562256,2.191861629486084,83.64984893798828,29.41,0
-0.2727833688259125,-1.21570086479187,0.011715549044311,22.013187408447266,2.191884994506836,83.64990234375,29.41,0
-0.3038054704666137,-1.1496199369430542,0.0243116877973079,35.27473831176758,2.1896047592163086,83.64994049072266,29.41,0
-0.3013225793838501,-1.0848219394683838,0.0100040677934885,31.110088348388672,2.188141345977783,83.64996337890625,29.41,0
-0.2605447769165039,-1.0936182737350464,-0.0159710627049207,20.19036674499512,2.187202215194702,83.64997863769531,29.41,0
-0.239973708987236,-1.121654391288757,-0.0214448571205139,13.311690330505373,2.1865994930267334,83.64998626708984,29.41,0
-0.2211746126413345,-1.1228529214859009,-0.0305553972721099,12.343789100646973,2.1862127780914307,83.64999389648438,29.41,0
-0.2035126537084579,-1.0732421875,-0.0419997945427894,11.088530540466309,2.185964584350586,83.64999389648438,29.41,0
-0.1921782195568084,-1.0302093029022217,-0.0437463745474815,2.8061423301696777,2.185805320739746,83.64999389648438,29.41,0
-0.1960999816656112,-0.9969955086708068,-0.0392694547772407,-11.397387504577637,2.1857030391693115,83.64999389648438,29.41,0
-0.2042145282030105,-0.964485228061676,-0.03639642521739,-23.07035446166992,2.1847193241119385,83.64999389648438,29.41,0
-0.2094219774007797,-0.9324264526367188,-0.0401504524052143,-25.92195701599121,2.184087991714477,83.64999389648438,29.41,0
-0.2015682607889175,-0.8838641047477722,-0.0425595715641975,-22.245532989501957,2.183682680130005,83.64999389648438,29.41,0
-0.1965281963348388,-0.8471018075942993,-0.0385078303515911,-18.943998336791992,2.183422565460205,83.64999389648438,29.41,0
-0.2212826460599899,-0.8459010124206543,-0.0359076559543609,-19.56235122680664,2.183255672454834,83.64999389648438,29.41,0
-0.2315708547830581,-0.8451303839683533,-0.0398367904126644,-21.213075637817383,2.1831486225128174,83.64999389648438,29.41,0
-0.2381732314825058,-0.8502336144447327,-0.0423582829535007,-18.972864151000977,2.183079957962036,83.64999389648438,29.41,0
-0.2480080425739288,-0.8703019022941589,-0.0383786559104919,-14.601096153259276,2.1830358505249023,83.64999389648438,29.41,0
-0.2599172294139862,-0.8943761587142944,-0.0358247607946395,-18.158201217651367,2.179794311523437,83.64282989501953,29.41,0
-0.2675598561763763,-0.9266189336776732,-0.0453813672065734,-35.376705169677734,2.1777141094207764,83.63822937011719,29.41,0
-0.2612689137458801,-0.9585060477256776,-0.0627097934484481,-56.46492385864258,2.1763792037963867,83.6352767944336,29.41,0
-0.2516339719295501,-0.9733715653419496,-0.0738301798701286,-64.2230224609375,2.175522565841675,83.63338470458984,29.41,0
-0.245450809597969,-1.01649808883667,-0.0865643769502639,-51.883548736572266,2.1749727725982666,83.63217163085938,29.41,0
-0.2414828240871429,-1.0609674453735352,-0.1059320047497749,-29.86734962463379,2.1746199131011963,83.63139343261719,29.41,0
-0.2613274753093719,-1.061516523361206,-0.1239588037133216,-14.649518013000488,2.174393653869629,83.63088989257812,29.41,0
-0.2852582037448883,-1.017086625099182,-0.1131362691521644,-10.69452667236328,2.174248456954956,83.63056945800781,29.41,0
-0.3062133193016052,-0.9829763174057008,-0.1005932167172432,-7.572481632232666,2.1746139526367188,83.63036346435547,29.39,0
-0.3140633404254913,-0.9834774136543274,-0.0869460329413414,2.5635135173797607,2.1748485565185547,83.63023376464844,29.39,0
-0.3023077249526977,-1.006190061569214,-0.0837858319282531,13.90110683441162,2.174999237060547,83.6301498413086,29.39,0
-0.2667747735977173,-1.020765781402588,-0.0761600211262703,18.189054489135746,2.175095796585083,83.63009643554688,29.39,0
-0.2383739799261093,-0.9741418361663818,-0.0488751158118248,16.29421043395996,2.1751577854156494,83.63005828857422,29.39,0
-0.2257457673549652,-0.9218301773071288,-0.0257674623280763,13.630847930908203,2.17519760131836,83.63003540039062,29.39,0
-0.23443503677845,-0.8882595896720886,-0.0165360737591981,13.47291088104248,2.1752231121063232,83.63002014160156,29.39,0
-0.2400113046169281,-0.8835092186927795,-0.0162096749991178,18.31192779541016,2.175239562988281,83.63001251220703,29.39,0
-0.2435898333787918,-0.8804607391357422,-0.0048046614974737,30.0656681060791,2.1715779304504395,83.6300048828125,29.39,0
-0.2402885556221008,-0.8729066252708435,0.0081121940165758,45.64784240722656,2.1692280769348145,83.6300048828125,29.39,0
-0.2381699830293655,-0.8736565709114075,0.0164014883339405,58.02641296386719,2.167720079421997,83.6300048828125,29.39,0
-0.2424081712961197,-0.8909311890602112,0.0217210799455642,63.19735336303711,2.166752338409424,83.6300048828125,29.39,0
-0.2563235461711883,-0.902017056941986,0.0307326614856719,59.85934066772461,2.1661312580108643,83.6300048828125,29.39,0
-0.2652536332607269,-0.9091312885284424,0.0365157760679721,45.92335891723633,2.165732860565185,83.6300048828125,29.39,0
-0.2597889006137848,-0.9248923659324646,0.0514225959777832,25.88839340209961,2.1654770374298096,83.6300048828125,29.39,0
-0.2562819421291351,-0.9406046867370604,0.0609889328479766,13.758367538452148,2.165313005447388,83.6300048828125,29.39,0
-0.2484336197376251,-0.9618834853172302,0.0559325106441974,16.381397247314453,2.167962074279785,83.6300048828125,29.39,0
-0.2433970123529434,-0.9811367988586426,0.0470898151397705,23.4923095703125,2.1696619987487797,83.6300048828125,29.39,0
-0.2513603568077087,-1.0494701862335205,0.0302195325493812,22.87527847290039,2.170753002166748,83.6300048828125,29.39,0
-0.2788618803024292,-1.0933226346969604,0.0305887050926685,13.694828987121582,2.1714529991149902,83.6300048828125,29.39,0
-0.3077063262462616,-1.0934756994247437,0.0308256186544895,0.8710603713989258,2.1719021797180176,83.6300048828125,29.39,0
-0.2926303744316101,-1.0543895959854126,0.0197821073234081,-11.883288383483888,2.172190427780152,83.6300048828125,29.39,0
-0.2661621570587158,-1.040501832962036,0.0014994689263403,-22.02079963684082,2.172375440597534,83.6300048828125,29.39,0
-0.2435786128044128,-1.053980588912964,-0.0158310513943433,-29.121177673339844,2.1724941730499268,83.6300048828125,29.39,0
-0.2346835732460022,-1.045837163925171,-0.0325505547225475,-35.451168060302734,2.1684389114379883,83.63358306884766,29.39,0
-0.2401707917451858,-1.018220067024231,-0.0488779433071613,-41.99253082275391,2.1658365726470947,83.63587951660156,29.39,0
-0.2492899596691131,-0.9781059622764589,-0.0593559220433235,-45.75333023071289,2.1641664505004883,83.6373519897461,29.39,0
-0.2663376629352569,-0.9579607844352722,-0.0604823119938373,-43.07595443725586,2.1630947589874268,83.63829803466797,29.39,0
-0.282875657081604,-0.9282394647598268,-0.0612051635980606,-34.17470169067383,2.1624069213867188,83.63890838623047,29.39,0
-0.2766954898834228,-0.9091660380363464,-0.067266821861267,-22.84849548339844,2.1619656085968018,83.63929748535156,29.39,0
-0.2727293968200683,-0.8969258069992065,-0.0655590742826461,-12.74258804321289,2.161682367324829,83.6395492553711,29.39,0
-0.2757819592952728,-0.8778751492500305,-0.0588653646409511,-5.200338840484619,2.1615006923675537,83.63970947265625,29.39,0
-0.2777409255504608,-0.8712473511695862,-0.048971951007843,0.2058894485235214,2.1636791229248047,83.63981628417969,29.41,0
-0.2789980769157409,-0.8725917935371399,-0.0370251536369323,4.506452560424805,2.165076971054077,83.63988494873047,29.41,0
-0.2686092853546142,-0.8846501111984253,-0.0181628372520208,7.223315715789795,2.1659741401672363,83.63992309570312,29.41,0
-0.256344586610794,-0.8979862332344055,-0.0060580885037779,4.194851398468018,2.1665499210357666,83.63995361328125,29.41,0
-0.2428760379552841,-0.934533417224884,0.0073078167624771,-8.421134948730469,2.166919231414795,83.63996887207031,29.41,0
-0.2286349236965179,-0.9747806191444396,0.0102875111624598,-25.359146118164062,2.167156457901001,83.63997650146484,29.41,0
-0.2250935733318328,-1.0118045806884766,0.0121997073292732,-33.585044860839844,2.167308568954468,83.63998413085938,29.41,0
-0.2172231674194336,-1.041162133216858,0.0022312954533845,-26.987716674804688,2.1674060821533203,83.6399917602539,29.41,0
-0.2177701741456985,-1.07679545879364,-0.0097636319696903,-14.29188632965088,2.1647145748138428,83.6399917602539,29.41,0
-0.2573056221008301,-1.0548807382583618,0.0161253586411476,-7.953634262084961,2.162987232208252,83.6399917602539,29.41,0
-0.2882749736309051,-0.968046009540558,0.0495327487587928,-9.611064910888672,2.161878824234009,83.6399917602539,29.41,0
-0.285758227109909,-0.8955271244049072,0.0541783645749092,-11.054461479187012,2.1611673831939697,83.6399917602539,29.41,0
-0.2561542391777038,-0.8993687033653259,0.0403663292527198,-6.513740062713623,2.1607108116149902,83.6399917602539,29.41,0
-0.2259605675935745,-0.9298228621482848,0.0259047858417034,1.415839433670044,2.1604177951812744,83.6399917602539,29.41,0
-0.195388451218605,-0.9605621099472046,0.0166242010891437,7.962695598602295,2.1602296829223637,83.6399917602539,29.41,0
-0.1869645863771438,-0.9634954929351808,0.0106684556230902,12.407706260681152,2.160109043121338,83.6399917602539,29.41,0
-0.2095475047826767,-0.9261935353279114,0.0180419497191905,15.994686126708984,2.1572773456573486,83.6399917602539,29.41,0
-0.2520287930965423,-0.8966575264930725,0.0227738339453935,18.436323165893555,2.1554601192474365,83.6399917602539,29.41,0
-0.2904863953590393,-0.8721052408218384,0.0258104838430881,19.56256866455078,2.154294013977051,83.6399917602539,29.41,0
-0.2927751541137695,-0.8619467616081238,0.0165636837482452,21.166643142700195,2.153545618057251,83.6399917602539,29.41,0
-0.2886461913585663,-0.8666231632232666,0.0106296185404062,24.78982925415039,2.1530654430389404,83.6399917602539,29.41,0
-0.2971920073032379,-0.8976131081581116,0.0180170256644487,29.54038619995117,2.152757167816162,83.6399917602539,29.41,0
-0.3026762008666992,-0.9063051342964172,0.0171600636094808,33.742610931396484,2.152559280395508,83.6399917602539,29.41,0
-0.3005978763103485,-0.9006876349449158,0.0166101157665252,36.25664138793945,2.152432441711426,83.6399917602539,29.41,0
-0.3160574436187744,-0.9194737076759338,0.0274527389556169,34.731666564941406,2.153728008270264,83.65432739257812,29.41,0
-0.3371740579605102,-0.9539206624031068,0.0344109125435352,26.80282974243164,2.15455961227417,83.66352844238281,29.41,0
-0.3451277017593384,-0.9816244840621948,0.027680717408657,15.688666343688965,2.155093193054199,83.66942596435547,29.41,0
-0.3334385752677917,-0.9826098680496216,0.0233616661280393,9.304994583129885,2.155435562133789,83.6732177734375,29.41,0
-0.3315349519252777,-0.9888400435447692,0.0149921728298068,10.542776107788086,2.1556553840637207,83.67564392089844,29.41,0
-0.3694977462291717,-1.076804757118225,-0.0071722101420164,13.457998275756836,2.1557962894439697,83.67720794677734,29.41,0
-0.4050556123256683,-1.0996688604354858,-0.0213960334658622,10.764618873596191,2.1558868885040283,83.67820739746094,29.41,0
-0.4110812842845917,-1.0639617443084717,-0.0417196154594421,0.5956138968467712,2.155945062637329,83.67884826660156,29.41,0
-0.3757638037204742,-1.046644687652588,-0.0715554431080818,-13.622057914733888,2.153228044509888,83.67926025390625,29.43,0
-0.3475013077259063,-1.041129469871521,-0.0907023623585701,-25.83790397644043,2.151484489440918,83.67952728271484,29.43,0
-0.3237662613391876,-1.0375900268554688,-0.1085875257849693,-31.420307159423828,2.1503653526306152,83.67969512939453,29.43,0
-0.3085345029830932,-1.029720902442932,-0.1256629675626754,-31.563499450683597,2.1496472358703613,83.67980194091797,29.43,0
-0.3043574094772339,-0.9910842776298524,-0.1422187834978103,-31.612401962280277,2.149186372756958,83.67987060546875,29.43,0
-0.3072745501995086,-0.9271051287651062,-0.1584411263465881,-33.56404495239258,2.148890733718872,83.67991638183594,29.43,0
-0.3147443830966949,-0.897242546081543,-0.1800472438335418,-33.462284088134766,2.1487009525299072,83.67994689941406,29.43,0
-0.3307336270809173,-0.9004695415496826,-0.1995105743408203,-27.482147216796875,2.1485791206359863,83.67996978759766,29.43,0
-0.3353968262672424,-0.896942675113678,-0.2064032405614853,-17.016674041748047,2.148500919342041,83.67997741699219,29.43,0
-0.321596086025238,-0.9002770781517029,-0.2108265608549118,-5.965620040893555,2.1484508514404297,83.67998504638672,29.43,0
-0.3071417808532715,-0.8968191742897034,-0.2024696469306945,3.981622934341431,2.148418664932251,83.67999267578125,29.43,0
-0.3034636378288269,-0.88900226354599,-0.1915088891983032,12.937480926513672,2.148397922515869,83.67999267578125,29.43,0
-0.3067009747028351,-0.9007791876792908,-0.1788771301507949,20.003223419189453,2.1483845710754395,83.67999267578125,29.43,0
-0.3031807541847229,-0.9139347076416016,-0.1651730090379715,22.570775985717773,2.148376226425171,83.67999267578125,29.43,0
-0.2897261083126068,-0.944768249988556,-0.1507807224988937,17.465328216552734,2.148370742797852,83.67999267578125,29.43,0
-0.2754939198493957,-0.981348752975464,-0.1303490400314331,5.318488597869873,2.148367166519165,83.67999267578125,29.43,0
-0.2607627511024475,-1.0048240423202517,-0.1060416102409362,-3.873859167098999,2.150660276412964,83.67999267578125,29.43,0
-0.2457113713026046,-0.9974980354309082,-0.0680513978004455,3.163702249526977,2.1521317958831787,83.67999267578125,29.43,0
-0.2192589342594146,-0.9983943700790404,-0.0548670180141925,25.807836532592773,2.153076171875,83.67999267578125,29.43,0
-0.2190766036510467,-1.043751835823059,-0.0464060418307781,46.49798583984375,2.153682231903076,83.67999267578125,29.43,0
-0.2749373316764831,-1.0056862831115725,0.0261970181018114,50.14577102661133,2.15407133102417,83.67999267578125,29.43,0
-0.3163833022117615,-0.9420735836029052,0.0839850306510925,38.8227653503418,2.1543209552764893,83.67999267578125,29.43,0
-0.3093942999839782,-0.9236417412757874,0.0818856284022331,25.30471611022949,2.154481172561645,83.67999267578125,29.43,0
-0.2881158292293548,-0.9509976506233216,0.0637450292706489,20.13336944580078,2.1545839309692383,83.67999267578125,29.43,0
-0.2408739030361175,-1.0245308876037598,0.0521034374833107,25.48094749450684,2.1514365673065186,83.66207885742188,29.43,0
-0.1937634199857711,-1.021340250968933,0.0670236349105835,35.518985748291016,2.149416923522949,83.65058898925781,29.43,0
-0.1579328626394271,-1.0024993419647217,0.0654030069708824,42.56627655029297,2.148120641708374,83.6432113647461,29.43,0
-0.1405366361141204,-0.9848105907440186,0.0419718846678733,45.057498931884766,2.1472887992858887,83.63847351074219,29.43,0
-0.1573616117238998,-0.973459005355835,0.026935139670968,48.12149810791016,2.1467549800872803,83.63543701171875,29.43,0
-0.1737566888332367,-0.9605764150619508,0.0116876484826207,56.28565216064453,2.1464123725891118,83.63349151611328,29.43,0
-0.1898758858442306,-0.9411135911941528,-0.0092928633093833,67.92341613769531,2.14619255065918,83.63224029541016,29.43,0
-0.2114157974720001,-0.9230256676673888,-0.0227569472044706,76.40573120117188,2.1460516452789307,83.63143920898438,29.43,0
-0.2476299703121185,-0.9170156717300416,-0.031397420912981,75.56177520751953,2.143206834793091,83.63092041015625,29.41,0
-0.2764679193496704,-0.901963233947754,-0.0313446074724197,65.17166900634766,2.14138126373291,83.6305923461914,29.41,0
-0.2893766760826111,-0.8867056965827942,-0.0201151650398969,49.765995025634766,2.140209674835205,83.63037872314453,29.41,0
-0.2864652276039123,-0.8881098031997681,-0.0185065288096666,31.08788108825684,2.139457941055298,83.63024139404297,29.41,0
-0.2957923710346222,-0.900206446647644,-0.0174741987138986,8.762029647827148,2.1389753818511963,83.63015747070312,29.41,0
-0.3017780184745788,-0.9191648960113524,-0.0112139349803328,-11.820592880249023,2.138665676116944,83.63009643554688,29.41,0
-0.3000214695930481,-0.9313313364982604,-0.007196458056569,-24.1838493347168,2.138467073440552,83.63005828857422,29.41,0
-0.3100897669792175,-0.9335412979125975,-0.0102160470560193,-32.31133270263672,2.1383395195007324,83.63003540039062,29.41,0
-0.3333443403244018,-0.940557301044464,-0.0121538452804088,-45.92106246948242,2.1359622478485107,83.63002014160156,29.41,0
-0.3426700234413147,-0.9450597763061525,-0.0133974123746156,-67.78872680664062,2.134436845779419,83.63001251220703,29.41,0
-0.3374591469764709,-1.0207202434539795,-0.0309887863695621,-92.70957946777344,2.133457899093628,83.6300048828125,29.41,0
-0.3397128880023956,-1.0636770725250244,-0.0366801433265209,-111.8585968017578,2.1328296661376958,83.6300048828125,29.41,0
-0.3467569947242737,-1.0184731483459473,-0.0291369780898094,-117.290283203125,2.1324265003204346,83.6300048828125,29.41,0
-0.3512775003910064,-0.995061695575714,-0.0410895347595214,-111.05291748046876,2.1321675777435303,83.6300048828125,29.41,0
-0.3429829478263855,-1.002428650856018,-0.0543577708303928,-106.38019561767578,2.132001638412476,83.6300048828125,29.41,0
-0.315268874168396,-1.0295474529266355,-0.0572747848927974,-113.62767791748048,2.131895065307617,83.6300048828125,29.41,0
