acc_x,acc_y,acc_z,bvp,eda,hr,temp,label
0.0,0.0,0.0,0.0,0.0,0.0,25.29,0
-0.0078124995343387,-0.1536458283662796,0.0546874962747097,-7.626666069030762,0.4650512933731079,11.56666660308838,25.29,0
-0.0308689028024673,-0.3513719737529754,0.1322408467531204,-20.75780487060547,1.0889006853103638,27.082927703857425,25.29,0
-0.0409572273492813,-0.5084095001220703,0.2096657007932663,-35.88249206542969,1.6315422058105469,40.579402923583984,25.29,0
-0.0483172051608562,-0.6336532235145569,0.2608131170272827,-51.293235778808594,2.027428388595581,50.425811767578125,25.29,0
-0.0862385407090187,-0.7349177002906799,0.2954420745372772,-66.28035736083984,2.2954602241516118,57.09224319458008,25.29,0
-0.1555450111627578,-0.862445592880249,0.2792921066284179,-80.30419158935547,2.471327543258667,61.46638107299805,25.29,0
-0.1613760739564895,-0.9115631580352784,0.252094566822052,-93.67523956298828,2.585228204727173,64.2992935180664,25.29,0
-0.1595421135425567,-0.8761212229728699,0.2457550168037414,-109.14338684082033,2.6168832778930664,66.12417602539062,25.29,0
-0.1639579981565475,-0.8869090676307678,0.2416803240776062,-131.15911865234375,2.6372294425964355,67.29711151123047,25.29,0
-0.1611971855163574,-0.9162224531173706,0.227870762348175,-159.77044677734375,2.650294780731201,68.0503158569336,25.29,0
-0.1426332592964172,-0.9406362771987916,0.2246034890413284,-184.92832946777344,2.658681631088257,68.53380584716797,25.29,0
-0.141913816332817,-0.9507078528404236,0.211311399936676,-191.2985076904297,2.664064407348633,68.8441162109375,25.29,0
-0.1414520889520645,-0.9403784275054932,0.2139762938022613,-169.72154235839844,2.667518854141236,69.04326629638672,25.29,0
-0.1467535197734832,-0.9281517267227172,0.2156865000724792,-121.52850341796876,2.669735908508301,69.17106628417969,25.29,0
-0.1501556932926178,-0.925903022289276,0.2055885046720504,-55.83553314208984,2.6711585521698,69.25308227539062,25.29,0
-0.1523390263319015,-0.9244599342346193,0.1991081684827804,12.26038932800293,2.7257800102233887,69.30571746826172,25.29,0
-0.1593379378318786,-0.923533856868744,0.2005472332239151,67.05572509765625,2.7608330249786377,69.33949279785156,25.29,0
-0.163829430937767,-0.9173417687416076,0.195872962474823,102.6322250366211,2.783328056335449,69.36116790771484,25.29,0
-0.1667118221521377,-0.913368046283722,0.1816777437925338,124.03731536865234,2.7977640628814697,69.37508392333984,25.29,0
-0.1965504437685012,-0.8940246105194092,0.166970282793045,136.73851013183594,2.807028293609619,69.3840103149414,25.29,0
-0.20450359582901,-0.8648177981376648,0.1575318872928619,141.77615356445312,2.812973499298096,69.38973999023438,25.29,0
-0.2040096968412399,-0.8740634322166443,0.1346815377473831,140.44839477539062,2.816788673400879,69.39341735839844,25.29,0
-0.2204860746860504,-0.9415722489356996,0.1144197285175323,135.67697143554688,2.819236993789673,69.3957748413086,25.29,0
-0.231059655547142,-0.9848955273628236,0.1014168709516525,128.7457733154297,2.829071283340454,69.39728546142578,25.29,0
-0.2378451824188232,-0.9567201733589172,0.0986701548099517,119.4433364868164,2.8353822231292725,69.39826202392578,25.29,0
-0.2366019636392593,-0.9610299468040466,0.0913096964359283,108.56902313232422,2.8394322395324707,69.39888763427734,25.29,0
-0.2414019107818603,-0.9917845726013184,0.0977817252278328,97.76790618896484,2.842031240463257,69.39928436279297,25.29,0
-0.2276889234781265,-0.97793447971344,0.1187284290790557,87.74102783203125,2.843699216842652,69.39954376220703,25.29,0
-0.2188887149095535,-0.9578507542610168,0.1377685964107513,78.02471160888672,2.8447697162628174,69.39970397949219,25.29,0
-0.2244367897510528,-0.9449621438980104,0.1443897038698196,68.65817260742188,2.845456600189209,69.39981079101562,25.29,0
-0.2279972285032272,-0.9366909861564636,0.1486387401819229,61.63339614868164,2.845897436141968,69.3998794555664,25.29,0
-0.2246843427419662,-0.9313830733299256,0.1569633036851883,59.590110778808594,2.8498523235321045,69.3999252319336,25.29,0
-0.2169605493545532,-0.9447700381278992,0.151109978556633,62.87171173095703,2.85239052772522,69.3748779296875,25.29,0
-0.2120038568973541,-0.9645565748214722,0.1417558789253235,69.52394104003906,2.8540194034576416,69.35880279541016,25.29,0
-0.2144207209348678,-0.9772544503211976,0.1245574131608009,78.41448211669922,2.855064630508423,69.3484878540039,25.29,0
-0.2215694934129715,-0.9854032397270204,0.107922650873661,90.03116607666016,2.8557353019714355,69.34186553955078,25.29,0
-0.2261571586132049,-1.0018281936645508,0.0916496440768241,103.94547271728516,2.856165885925293,69.33761596679688,25.29,0
-0.2123079448938369,-1.0403577089309692,0.0700110122561454,118.1269302368164,2.856442213058472,69.33488464355469,25.29,0
-0.1978225409984588,-1.0986703634262085,0.0393312647938728,131.95318603515625,2.856619358062744,69.33313751220703,25.29,0
-0.1829288601875305,-1.180874228477478,0.0028494440484791,147.93032836914062,2.8558151721954346,69.33201599121094,25.29,0
-0.1733709573745727,-1.2056390047073364,-0.0205624885857105,168.72706604003906,2.855299234390259,69.33129119873047,25.29,0
-0.167237251996994,-1.182347297668457,-0.0355869196355342,193.00006103515625,2.8549680709838867,69.33082580566406,25.29,0
-0.1353121101856231,-1.1114221811294556,-0.0452287346124649,214.1694793701172,2.8547556400299072,69.33052825927734,25.29,0
-0.0924332961440086,-1.009928822517395,-0.0514162965118885,222.7069396972656,2.854619264602661,69.33033752441406,25.29,0
-0.0313294939696788,-0.9615895748138428,-0.0609848909080028,211.1434783935547,2.854531764984131,69.33021545410156,25.29,0
0.0190789569169282,-0.9585570693016052,-0.072723239660263,178.4189910888672,2.854475498199463,69.33013916015625,25.29,0
0.051428198814392,-0.9845998883247375,-0.08025623857975,128.2740478515625,2.8544394969940186,69.33009338378906,25.29,0
0.060992531478405,-0.962128221988678,-0.0738949328660965,63.59277725219727,2.8534982204437256,69.33006286621094,25.29,0
0.0783259198069572,-0.9253160953521729,-0.0642148405313491,-12.534363746643066,2.8528940677642822,69.33003997802734,25.29,0
0.0558628402650356,-0.8681055307388306,-0.046807162463665,-89.01004028320312,2.852506399154663,69.33002471923828,25.29,0
0.0190562307834625,-0.8313910961151123,-0.0300381425768136,-148.63124084472656,2.852257490158081,69.33001708984375,25.29,0
-0.0213574543595314,-0.819025456905365,-0.013678977265954,-182.18878173828125,2.852097749710083,69.33000946044922,25.29,0
-0.0416948571801185,-0.7942965626716614,-0.0031806058250367,-194.10128784179688,2.8519952297210693,69.33000946044922,25.29,0
-0.0547462329268455,-0.778427004814148,0.0091544184833765,-192.6068878173828,2.8519294261932373,69.33000946044922,25.29,0
-0.0743174031376838,-0.7962316870689392,0.0170703269541263,-182.5122985839844,2.8518872261047363,69.33000946044922,25.29,0
-0.0980726033449173,-0.8188532590866089,0.0165525283664464,-167.83724975585938,2.8532373905181885,69.33000946044922,25.29,0
-0.1245128735899925,-0.8781526684761047,0.0050246850587427,-152.6302032470703,2.854103803634644,69.33000946044922,25.29,0
-0.1526762694120407,-0.955392062664032,-0.0191665440797805,-137.7588653564453,2.8546597957611084,69.33000946044922,25.29,0
-0.1763476878404617,-1.0329487323760986,-0.040288858115673,-121.99594116210938,2.8550167083740234,69.33000946044922,25.29,0
-0.2027341872453689,-1.0939157009124756,-0.0650394931435585,-105.86505889892578,2.855245590209961,69.33000946044922,25.29,0
-0.2196675240993499,-1.1834207773208618,-0.0977163463830947,-91.39680480957033,2.8553926944732666,69.33000946044922,25.29,0
-0.2753165662288666,-1.336022138595581,-0.0962953716516494,-78.99149322509766,2.855487108230591,69.33000946044922,25.29,0
-0.2886378169059753,-1.1428686380386353,-0.0561990514397621,-67.17562103271484,2.8555476665496826,69.33000946044922,25.29,0
-0.2635999917984009,-1.018913745880127,-0.0360653176903724,-55.27945709228516,2.8574225902557373,69.33000946044922,25.31,0
-0.2139454931020736,-1.073713302612305,-0.062329065054655,-44.49251556396485,2.858625650405884,69.33000946044922,25.31,0
-0.1876778751611709,-1.1144782304763794,-0.0623903051018714,-35.94717025756836,2.8593978881835938,70.08234405517578,25.31,0
-0.2044074684381485,-1.0846611261367798,-0.0512340553104877,-29.11979484558105,2.859893321990967,70.56515502929688,25.31,0
-0.2095457911491394,-1.0039507150650024,-0.0440746173262596,-22.861108779907227,2.8602113723754883,70.87499237060547,25.31,0
-0.2184410393238067,-0.9577531218528748,-0.0394801013171672,-17.09634780883789,2.860415458679199,71.0738296508789,25.31,0
-0.2353450506925583,-0.9448994994163512,-0.0253360569477081,-12.587193489074709,2.860546350479126,71.20143127441406,25.31,0
-0.246193066239357,-0.9310530424118042,-0.0106614483520388,-9.471358299255373,2.860630512237549,71.28331756591797,25.31,0
-0.2307635992765426,-0.9109716415405272,0.0099514201283454,-7.0418853759765625,2.8560941219329834,71.33586883544922,25.31,0
-0.1872752159833908,-0.8924867510795593,0.0399728938937187,-4.855838775634766,2.8531830310821533,71.36959075927734,25.31,0
-0.1537691056728363,-0.8694286942481995,0.0648367255926132,-3.105449914932251,2.851314783096313,71.3912353515625,25.31,0
-0.1434623599052429,-0.8378379940986633,0.075195126235485,-1.8925869464874268,2.850115776062012,71.40512084960938,25.31,0
-0.1592391729354858,-0.811967134475708,0.0818425491452217,-1.0067640542984009,2.849346399307251,71.41403198242188,25.31,0
-0.2085482478141784,-0.8065602779388428,0.0805107057094574,-0.341564267873764,2.848852634429932,71.41975402832031,25.31,0
-0.2625830769538879,-0.836677074432373,0.085253782570362,0.1175658106803894,2.8485357761383057,71.42342376708984,25.31,0
-0.297259509563446,-0.8839932084083557,0.0938953906297683,0.5125212073326111,2.848332405090332,71.42578125,25.31,0
-0.3139150738716125,-0.9759334921836852,0.0994410812854766,0.8734580874443054,2.845447540283203,71.42729187011719,25.31,0
-0.3022125661373138,-1.0797176361083984,0.0862066596746444,1.0728434324264526,2.8435962200164795,71.42826080322266,25.31,0
-0.2611159086227417,-1.230286955833435,0.0721157938241958,0.9715126156806946,2.8424081802368164,71.42888641357422,25.31,0
-0.2851224243640899,-1.198164939880371,0.1190508306026458,0.4335843920707702,2.8416457176208496,71.42928314208984,25.31,0
-0.306126207113266,-1.1271708011627195,0.1491710394620895,-0.4705087840557098,2.841156482696533,71.4295425415039,25.31,0
-0.314007431268692,-1.0704153776168823,0.1349138021469116,-1.2155022621154783,2.8408424854278564,71.42970275878906,25.31,0
-0.2966740727424621,-1.022797465324402,0.1145687848329544,-1.3353385925292969,2.840641021728516,71.4298095703125,25.31,0
-0.2295727580785751,-0.964250147342682,0.095914751291275,-0.9859161972999572,2.8405117988586426,71.42987823486328,25.31,0
-0.1865109950304031,-0.8874934315681458,0.0951392129063606,-0.629121720790863,2.8431830406188965,71.42992401123047,25.31,0
-0.164474219083786,-0.8326376080513,0.0946415141224861,-0.4144818186759949,2.8448972702026367,71.4299545288086,25.31,0
-0.1671255975961685,-0.7974342703819275,0.0663332492113113,-0.2659905850887298,2.8459973335266118,71.42996978759766,25.31,0
-0.180022656917572,-0.7804405689239502,0.0425688624382019,-0.2208535075187683,2.846703290939331,71.42997741699219,25.31,0
-0.2106903493404388,-0.7919260859489441,0.0217204708606004,-0.3602681756019592,2.847156524658203,71.42998504638672,25.31,0
-0.2415666580200195,-0.8048946261405945,0.0083411745727062,-0.5679615139961243,2.847447395324707,71.42999267578125,25.31,0
-0.2613812983036041,-0.8132171034812927,0.0109506603330373,-0.6188478469848633,2.8476338386535645,71.42999267578125,25.31,0
-0.2517060935497284,-0.80736243724823,0.0406141504645347,-0.5619394183158875,2.847753524780273,71.42999267578125,25.31,0
-0.2454970926046371,-0.7980074882507324,0.0652482435107231,-0.6042355298995972,2.848289251327514,71.42999267578125,25.29,0
-0.2415125221014022,-0.8143950700759888,0.0810569897294044,-0.7173605561256409,2.848633050918579,71.42999267578125,25.29,0
-0.2501510083675384,-0.875291645526886,0.0856043547391891,-0.6681500673294067,2.848853588104248,71.42999267578125,25.29,0
-0.2556946873664856,-0.94795823097229,0.0773270428180694,-0.2890598177909851,2.8489952087402344,71.94947052001953,25.29,0
-0.2592523097991943,-1.1513291597366333,0.0552218183875083,0.4701093733310699,2.849086046218872,72.2828369140625,25.29,0
-0.2783286869525909,-1.343416452407837,0.0522315092384815,1.283314824104309,2.849144458770752,72.49677276611328,25.29,0
-0.3017663657665252,-1.304351568222046,0.0671058222651481,1.45767343044281,2.849181890487671,72.63406372070312,25.29,0
-0.2664273381233215,-1.1337398290634155,0.0542602017521858,0.8745471239089966,2.84920597076416,72.72216796875,25.29,0
-0.2381510287523269,-1.0466420650482178,0.0348210744559764,0.4107658565044403,2.8538119792938232,72.7787094116211,25.29,0
-0.2591893374919891,-1.0131388902664185,-4.493773667491041e-05,0.6684369444847107,2.8567678928375244,72.81499481201172,25.29,0
-0.2894838452339172,-0.9804429411888124,-0.0280177108943462,1.145479440689087,2.8586649894714355,72.8382797241211,25.29,0
-0.3425117433071136,-0.8978850245475769,-0.0515667982399463,1.243828535079956,2.859882354736328,72.85322570800781,25.29,0
-0.3765420019626617,-0.8672952055931091,-0.0946681201457977,1.1457273960113523,2.860663652420044,72.8628158569336,25.29,0
-0.3983806669712066,-0.853262186050415,-0.1223280653357505,1.175918698310852,2.8611650466918945,72.86897277832031,25.29,0
-0.4235910177230835,-0.8666477203369141,-0.1400786340236663,1.1845459938049316,2.8614866733551025,72.8729248046875,25.29,0
-0.4341717958450317,-0.8808355331420898,-0.1514699161052703,0.9070590138435364,2.8616931438446045,72.87545776367188,25.29,0
-0.424168586730957,-0.9011359810829164,-0.1531824171543121,0.4817861318588257,2.862743377685547,72.87708282470703,25.29,0
-0.3953580260276794,-0.9141636490821838,-0.1374880820512771,0.1587144434452057,2.863417387008667,72.87812805175781,25.29,0
-0.3712712824344635,-0.9449151754379272,-0.1218185797333717,-0.1525090783834457,2.8638501167297363,72.87879943847656,25.29,0
-0.3502160310745239,-0.9926385879516602,-0.1173605695366859,-0.6209275722503662,2.8641276359558105,72.87922668457031,25.29,0
-0.3367039859294891,-1.0456558465957642,-0.1256952285766601,-1.068417191505432,2.8643057346343994,72.87950134277344,25.29,0
-0.3336305022239685,-1.0684837102890017,-0.1366417109966278,-1.2230349779129028,2.864420175552368,72.87967681884766,25.29,0
-0.3148647844791412,-1.1111222505569458,-0.1548620760440826,-1.125218152999878,2.8644936084747314,72.87979125976562,25.29,0
-0.308419793844223,-1.2000607252120972,-0.1665548533201217,-0.9370548129081726,2.8645405769348145,72.87986755371094,25.29,0
-0.3546637594699859,-1.1395829916000366,-0.0956897661089897,-0.4974531531333923,2.8682432174682617,72.87991333007812,25.29,0
-0.3843404650688171,-1.0447940826416016,-0.0390170849859714,0.3972783386707306,2.870619535446167,72.87994384765625,25.29,0
-0.3418097496032715,-1.028746247291565,-0.0418322421610355,1.4157048463821411,2.8721444606781006,72.87996673583984,25.29,0
-0.2697337865829468,-1.0576320886611938,-0.0604321733117103,1.9008913040161133,2.8731231689453125,72.87997436523438,25.29,0
-0.212284043431282,-1.0537782907485962,-0.0611729882657527,1.6892000436782837,2.873751163482666,72.8799819946289,25.29,0
-0.1642205566167831,-0.9617407321929932,-0.0336595252156257,1.2380820512771606,2.874154090881348,72.87998962402344,25.29,0
-0.1501694917678833,-0.8914808034896851,-0.0216007456183433,0.8805116415023804,2.874412775039673,72.87998962402344,25.29,0
-0.1803367584943771,-0.874380886554718,-0.0474487617611885,0.4898275732994079,2.8745787143707275,72.87998962402344,25.29,0
-0.210891917347908,-0.8746026754379272,-0.0752320811152458,-0.0582447312772274,2.8719308376312256,72.87998962402344,25.29,0
-0.2472937852144241,-0.8747450113296509,-0.0930618122220039,-0.581929624080658,2.8702316284179688,72.87998962402344,25.29,0
-0.2762521803379059,-0.8804341554641724,-0.0933083593845367,-0.9036701321601868,2.869141101837158,72.87998962402344,25.29,0
-0.2892382442951202,-0.8896828889846802,-0.0822710320353508,-1.1101446151733398,2.868441343307495,72.87998962402344,25.29,0
-0.2975719571113586,-0.9068137407302856,-0.0639923587441444,-1.1709965467453003,2.867992401123047,73.28124237060547,25.29,0
-0.2749311625957489,-0.9066118001937866,-0.0354688391089439,-0.8410425782203674,2.867704153060913,73.53874206542969,25.29,0
-0.2436082810163498,-0.912079930305481,-0.0115663101896643,-0.2997001409530639,2.8675191402435303,73.70399475097656,25.29,0
-0.2067137360572815,-0.9435779452323914,0.0149685060605406,-0.1994954496622085,2.8674004077911377,73.81004333496094,25.29,0
-0.1886347234249115,-0.96379154920578,0.037594798952341,-0.6976542472839355,2.872833013534546,73.87809753417969,25.29,0
-0.1882282048463821,-0.9879590272903442,0.0465172752737998,-1.221550703048706,2.876319169998169,73.92176818847656,25.29,0
-0.199162870645523,-1.0202616453170776,0.0466454327106475,-1.2209951877593994,2.878556489944458,73.94979858398438,25.29,0
-0.2061801105737686,-1.0745782852172852,0.0411299020051956,-0.5363667011260986,2.879992246627808,73.96778106689453,25.29,0
-0.2274766862392425,-1.159815549850464,0.0431881286203861,0.6804072856903076,2.880913734436035,73.97932434082031,25.29,0
-0.2691324949264526,-1.147342562675476,0.0501067526638507,1.808772683143616,2.881505012512207,73.98673248291016,25.29,0
-0.3182558715343475,-1.0441759824752808,0.0321556292474269,2.1352267265319824,2.8818843364715576,73.99148559570312,25.29,0
-0.3497804403305053,-1.0339473485946655,-0.001755467033945,1.6855322122573853,2.8821277618408203,73.99453735351562,25.29,0
-0.3700110912322998,-1.0105899572372437,-0.0235176552087068,1.0530169010162354,2.88044810295105,73.99649810791016,25.29,0
-0.3773961663246155,-0.9844049215316772,-0.0430811494588851,0.561123251914978,2.8793699741363525,73.99774932861328,25.29,0
-0.3709399402141571,-0.9508075714111328,-0.0556358732283115,0.1845503896474838,2.8786780834198,73.9985580444336,25.29,0
-0.3611989319324493,-0.9236489534378052,-0.0748883187770843,-0.0750252828001976,2.8782341480255127,73.99907684326172,25.29,0
-0.3493499457836151,-0.9118178486824036,-0.0872434303164482,-0.1878673434257507,2.8779492378234863,73.99940490722656,25.29,0
-0.3473437130451202,-0.9098231196403505,-0.0895744562149047,-0.2889434993267059,2.8777663707733154,73.99961853027344,25.29,0
-0.3516540229320526,-0.9197385907173156,-0.0910703763365745,-0.5651803016662598,2.877649068832397,73.999755859375,25.29,0
-0.3488223552703857,-0.9261017441749572,-0.092030368745327,-0.9645728468894958,2.8775737285614014,73.99983978271484,25.29,0
-0.347005158662796,-0.9301852583885192,-0.0926464423537254,-1.1814717054367063,2.876148223876953,73.9999008178711,25.29,0
-0.3402411937713623,-0.9440013766288756,-0.0930417999625206,-1.0376414060592651,2.8752334117889404,73.99993896484375,25.29,0
-0.3135093748569488,-0.9696610569953918,-0.0932955145835876,-0.7482977509498596,2.8746464252471924,73.99996185302734,25.29,0
-0.2907566726207733,-0.9805302023887634,-0.0934583395719528,-0.5912742614746094,2.874269723892212,73.9999771118164,25.29,0
-0.2761552929878235,-0.9931032061576844,-0.0991606041789054,-0.4761753380298614,2.874027967453003,73.99998474121094,25.29,0
-0.2443938702344894,-1.0123673677444458,-0.1084177643060684,-0.1264531463384628,2.873872756958008,73.99999237060547,25.29,0
-0.2184134423732757,-1.0191322565078735,-0.1087606996297836,0.4956443309783935,2.8737733364105225,73.99999237060547,25.29,0
-0.2129362374544143,-1.118635654449463,-0.1201763227581977,1.0739994049072266,2.8737094402313232,73.99999237060547,25.29,0
-0.2542034685611725,-1.0817313194274902,-0.0827200189232826,1.219452142715454,2.873209238052368,73.99999237060547,25.29,0
-0.2694908678531647,-1.0020705461502075,-0.053084947168827,0.7861567735671997,2.8728880882263184,73.99999237060547,25.29,0
-0.2289214730262756,-0.973339855670929,-0.045262411236763,0.0674358829855918,2.8726820945739746,73.99999237060547,25.29,0
-0.1804952770471573,-0.9940866231918336,-0.0514379069209098,-0.4475363790988922,2.872549772262573,73.99999237060547,25.29,0
-0.12142925709486,-0.9962051510810852,-0.0498032122850418,-0.6311303377151489,2.872464895248413,73.99999237060547,25.29,0
-0.1003174036741256,-0.9471847414970398,-0.048754159361124,-0.752532958984375,2.872410535812378,74.32242584228516,25.29,0
-0.1035623550415039,-0.9101284742355348,-0.0480809360742569,-0.9128414392471312,2.87237548828125,74.52935028076172,25.29,0
-0.1392314285039901,-0.8975434303283691,-0.0588444508612155,-0.9082409143447876,2.8723530769348145,74.66213989257812,25.29,0
-0.1621217876672744,-0.8950648307800293,-0.0713496282696724,-0.6903340220451355,2.874634027481079,74.74735260009766,25.29,0
-0.1824092715978622,-0.9046697616577148,-0.084972508251667,-0.450181782245636,2.8760979175567627,74.80204010009766,25.29,0
-0.1786352843046188,-0.9164314270019532,-0.0825193375349044,-0.2279969602823257,2.877037286758423,74.8371353149414,25.29,0
-0.1706155836582183,-0.9351749420166016,-0.0697494819760322,-0.0245077479630708,2.8776402473449707,74.85965728759766,25.29,0
-0.1486756801605224,-0.9416056871414183,-0.0559567511081695,-0.015727661550045,2.8780272006988525,74.87410736083984,25.29,0
-0.123400367796421,-0.940134823322296,-0.0471053719520568,-0.1963870376348495,2.8782753944396973,74.88338470458984,25.29,0
-0.0959845781326294,-0.9279953241348268,-0.0414250642061233,-0.3015761077404022,2.878434658050537,74.88933563232422,25.29,0
-0.072792924940586,-0.9258026480674744,-0.0377797707915306,-0.2974288761615753,2.878536939620972,74.89315795898438,25.29,0
-0.0635076314210891,-0.946786642074585,-0.0354404300451278,-0.3592537939548492,2.887324333190918,74.8956069946289,25.29,0
-0.0687444135546684,-0.9938396215438844,-0.0395369529724121,-0.3344430923461914,2.8929636478424072,74.89717864990234,25.29,0
-0.0721050798892974,-1.007242202758789,-0.0365680903196334,0.0504842735826969,2.89658260345459,74.898193359375,25.29,0
-0.0798595398664474,-1.0550276041030884,-0.0290650706738233,0.677261471748352,2.898905038833618,74.89884185791016,25.29,0
-0.1296180933713913,-1.197649002075195,-0.0242500640451908,1.2012985944747925,2.900395393371582,74.89925384521484,25.29,0
-0.18394136428833,-1.2499908208847046,-0.0155622949823737,1.3907098770141602,2.9013516902923584,74.89952087402344,25.29,0
-0.1684229522943496,-1.0596697330474854,-0.0043892106041312,1.1969964504241943,2.901965379714966,74.89969635009766,25.29,0
-0.130475252866745,-0.931934893131256,0.0027810321189463,0.8290671706199646,2.9023592472076416,74.8998031616211,25.29,0
-0.1453070193529129,-1.012297511100769,-0.0150086171925067,0.6108642220497131,2.9122519493103027,74.89987182617188,25.29,0
-0.1604229807853698,-1.030282974243164,-0.0432183146476745,0.5890591740608215,2.918600559234619,74.89991760253906,25.29,0
-0.1589279770851135,-1.0026406049728394,-0.061321672052145,0.5499879121780396,2.9226748943328857,74.89994812011719,25.29,0
-0.1635663509368896,-0.9513146281242372,-0.0561460442841053,0.4031066298484802,2.925289392471313,74.89997100830078,25.29,0
-0.1553474366664886,-0.9351698756217957,-0.0584223978221416,0.2121171504259109,2.9269673824310303,74.89997863769531,25.29,0
-0.1612685620784759,-0.90241801738739,-0.0654810070991516,-0.0035958613734692,2.928044080734253,74.89998626708984,25.29,0
-0.1426773071289062,-0.8758019804954529,-0.0700108110904693,-0.2423401772975921,2.9287350177764893,74.89999389648438,25.29,0
-0.1195509582757949,-0.8699169158935547,-0.0673200041055679,-0.4206305742263794,2.929178476333618,74.89999389648438,25.29,0
-0.1047097966074943,-0.8605424165725708,-0.0599954277276992,-0.5063865184783936,2.9419620037078857,74.89999389648438,25.31,0
-0.1007833629846572,-0.8601241707801819,-0.0608927085995674,-0.6079931855201721,2.9501657485961914,74.89999389648438,25.31,0
-0.1094591543078422,-0.8822468519210815,-0.067066304385662,-0.7376848459243774,2.955430507659912,74.89999389648438,25.31,0
-0.1150267794728279,-0.9300305843353271,-0.0654303878545761,-0.7098536491394043,2.9588091373443604,74.89999389648438,25.31,0
-0.1130019873380661,-0.9606954455375672,-0.0587827786803245,-0.4089697301387787,2.96097731590271,74.89999389648438,25.31,0
-0.1005070433020591,-1.0419498682022097,-0.0769078209996223,0.0671437233686447,2.9623687267303467,74.89999389648438,25.31,0
-0.0980862826108932,-1.1444742679595947,-0.0997349843382835,0.6377965211868286,2.963261604309082,75.16510772705078,25.31,0
-0.1525105237960815,-1.204670786857605,-0.0919930413365364,1.1867200136184692,2.963834524154663,75.33524322509766,25.31,0
-0.1986324191093444,-1.1313459873199463,-0.0534380637109279,1.3634412288665771,2.975219488143921,75.44442749023438,25.31,0
-0.2058396935462951,-1.089888095855713,-0.0286956969648599,0.9645425081253052,2.982525587081909,75.51449584960938,25.31,0
-0.1544871628284454,-1.124858260154724,-0.0240130200982093,0.3180514872074127,2.9872143268585205,75.55945587158203,25.31,0
-0.0935431942343711,-1.1305068731307983,-0.0210079476237297,-0.1828110367059707,2.9902231693267822,75.58831024169922,25.31,0
-0.026443988084793,-1.0333718061447144,-0.0022861426696181,-0.457662284374237,2.992154121398926,75.60682678222656,25.31,0
-0.0169702302664518,-0.9318516850471495,0.0153262084349989,-0.4764126539230346,2.993393421173096,75.61871337890625,25.31,0
-0.0276838410645723,-0.8611041903495789,0.0322265774011611,-0.2519955933094024,2.9941885471343994,75.6263427734375,25.31,0
-0.0569503158330917,-0.8101047277450562,0.0318767093122005,0.0030822150874882,2.994699001312256,75.63123321533203,25.31,0
-0.0813296288251876,-0.7829740047454834,0.0260544121265411,0.199019655585289,3.007420778274536,75.6343765258789,25.31,0
-0.0969748720526695,-0.7823563814163208,0.0223179962486028,0.3713344931602478,3.015584945678711,75.63639068603516,25.31,0
-0.1014173105359077,-0.7931555509567261,0.014322405681014,0.3027874529361725,3.020824193954468,75.63768005371094,25.31,0
-0.115463763475418,-0.8112813830375671,0.0259846188127994,-0.1890240460634231,3.024186372756958,75.63851165771484,25.31,0
-0.1580646187067031,-0.8509023785591125,0.044664304703474,-0.7446728944778442,3.026344060897827,75.63904571533203,25.31,0
-0.202196717262268,-0.8987199664115906,0.0678474009037017,-0.9077972769737244,3.027728796005249,75.63938903808594,25.31,0
-0.2361159324645996,-0.9685909748077391,0.0883227512240409,-0.7724485397338867,3.0286173820495605,75.63961029052734,25.31,0
-0.2802744209766388,-1.063810110092163,0.0622782334685325,-0.6855894923210144,3.0291876792907715,75.6397476196289,25.31,0
-0.3142105638980865,-1.1641006469726562,0.034368809312582,-0.6835870146751404,3.038734674453736,75.63983917236328,25.31,0
-0.363977700471878,-1.3068302869796753,0.0220559239387512,-0.5031731724739075,3.044861316680908,75.63990020751953,25.31,0
-0.3735243082046509,-1.2808725833892822,0.0365453213453292,0.0855060592293739,3.048793077468872,75.63993835449219,25.31,0
-0.3124774694442749,-1.113074541091919,0.0458437800407409,0.9899250864982604,3.051316261291504,75.63996124267578,25.31,0
-0.2173233777284622,-1.0557713508605957,0.0070288013666868,1.684971570968628,3.0529353618621826,75.63997650146484,25.31,0
-0.1562589555978775,-1.0413886308670044,-0.0514670647680759,1.5685480833053589,3.0539746284484863,75.63998413085938,25.31,0
-0.1226691007614135,-1.082538604736328,-0.139386311173439,0.7164152264595032,3.0546414852142334,75.6399917602539,25.31,0
-0.1067108362913131,-1.058566331863403,-0.1902100443840026,-0.0883799865841865,3.0550694465637207,75.6399917602539,25.31,0
-0.0964697450399398,-1.003997802734375,-0.1892391443252563,-0.2788368761539459,3.059016466140747,75.6399917602539,25.31,0
-0.112288698554039,-0.980174481868744,-0.1718227565288543,-0.1323679685592651,3.061549425125122,75.6399917602539,25.31,0
-0.139233723282814,-0.9592882394790648,-0.160645917057991,-0.2389968931674957,3.0631749629974365,75.6399917602539,25.31,0
-0.1677210330963134,-0.9234935641288756,-0.147875502705574,-0.6621001958847046,3.064218282699585,75.6399917602539,25.31,0
-0.1804047673940658,-0.8949248194694519,-0.1284846365451812,-0.980197012424469,3.064887762069702,75.6399917602539,25.31,0
-0.1773489117622375,-0.8765910267829895,-0.0992473661899566,-0.990874171257019,3.065317392349243,75.6399917602539,25.31,0
-0.180985614657402,-0.8536299467086792,-0.0692890211939811,-0.8795011639595032,3.065593004226685,75.6399917602539,25.31,0
-0.1945149898529052,-0.833297073841095,-0.0500634796917438,-0.8044458031654358,3.065769910812378,75.88719177246094,25.31,0
-0.2423817813396453,-0.8370419144630432,-0.0377256348729133,-0.7956879138946533,3.072309970855713,76.04582977294922,25.31,0
-0.2954910397529602,-0.8562384843826294,-0.0354056879878044,-0.8473888039588928,3.0765068531036377,76.14763641357422,25.31,0
-0.3351712822914123,-0.8741554617881775,-0.0283191073685884,-0.7910030484199524,3.079200267791748,76.21296691894531,25.31,0
-0.3494402170181274,-0.8968490958213806,-0.0237713474780321,-0.4359687268733978,3.0809288024902344,76.25489807128906,25.31,0
-0.3474016487598419,-0.9170103669166564,-0.0264506321400403,0.1214688494801521,3.082037925720215,76.28180694580078,25.31,0
-0.3293001055717468,-1.0139153003692627,-0.0673544630408287,0.6654940843582153,3.082749843597412,76.299072265625,25.31,0
-0.3176835775375366,-1.1488744020462036,-0.1103975102305412,1.0719393491744995,3.0832066535949707,76.31015014648438,25.31,0
-0.332619845867157,-1.134723424911499,-0.1100311875343322,1.2611210346221924,3.0834999084472656,76.3172607421875,25.31,0
-0.3366073071956634,-1.01928448677063,-0.0762094557285308,1.2857974767684937,3.0827698707580566,76.32182312011719,25.31,0
-0.3335684537887573,-0.9955823421478271,-0.0545046180486679,1.28730309009552,3.082301378250122,76.32475280761719,25.31,0
-0.2868360877037048,-0.9915672540664672,-0.0405757017433643,1.1413836479187012,3.082000732421875,76.32662963867188,25.31,0
-0.2344548553228378,-0.9610016942024232,-0.0316369235515594,0.6285796165466309,3.0818076133728027,76.32783508300781,25.31,0
-0.1784484982490539,-0.9189953804016112,-0.009107207879424,-0.0336880199611187,3.081683874130249,76.32861328125,25.31,0
-0.1593001633882522,-0.8752448558807373,0.0165466163307428,-0.4264500439167022,3.081604242324829,76.32910919189453,25.31,0
-0.152609646320343,-0.8527660369873047,0.0330097638070583,-0.528033971786499,3.0815532207489014,76.32942962646484,25.31,0
-0.1483160555362701,-0.8327426314353943,0.0379770882427692,-0.6039724349975586,3.0815205574035645,76.32963562011719,25.31,0
-0.1455606818199157,-0.8198927640914917,0.0355670563876628,-0.74226975440979,3.081958770751953,76.32976531982422,25.31,0
-0.1549879908561706,-0.8172442317008972,0.0396182127296924,-0.8166906833648682,3.082240104675293,76.32984924316406,25.31,0
-0.1778312176465988,-0.8211423754692078,0.0534135587513446,-0.6853209733963013,3.082420587539673,76.32990264892578,25.31,0
-0.1924906820058822,-0.8404372930526733,0.0622666180133819,-0.371730625629425,3.082536458969116,76.32994079589844,25.31,0
-0.1963005065917968,-0.9031996130943298,0.0567524544894695,0.001477254438214,3.082610845565796,76.32996368408203,25.31,0
-0.1987454295158386,-0.9658679366111756,0.053213782608509,0.4451873898506164,3.082658529281616,76.3299789428711,25.31,0
-0.2059122174978256,-1.0172804594039917,0.0285517685115337,1.048784255981445,3.082689046859741,76.32998657226562,25.31,0
-0.2217070013284683,-1.1062517166137695,-0.0040682172402739,1.7334917783737185,3.0827085971832275,76.32999420166016,25.31,0
-0.2374409586191177,-1.185739517211914,-0.0250018443912267,2.305452823638916,3.074917316436768,76.32999420166016,25.29,0
-0.2867225110530853,-1.2759345769882202,-0.0272402931004762,2.543531894683838,3.0699174404144287,76.32999420166016,25.29,0
-0.3239463567733764,-1.2498500347137451,-0.0174812525510787,2.201921939849853,3.06670880317688,76.32999420166016,25.29,0
-0.3030522763729095,-1.070775032043457,-2.2912823624210432e-05,1.2876766920089722,3.06464958190918,76.32999420166016,25.29,0
-0.2448614835739135,-1.0286259651184082,-0.0112102534621953,0.2674749493598938,3.06332802772522,76.32999420166016,25.29,0
-0.2075179815292358,-1.0351638793945312,-0.0351829677820205,-0.3764840066432953,3.0624799728393555,76.32999420166016,25.29,0
-0.1891508400440216,-1.084141731262207,-0.0841539204120636,-0.6285239458084106,3.0619359016418457,76.32999420166016,25.29,0
-0.1773638725280761,-1.104377269744873,-0.1211784332990646,-0.7365300059318542,3.061586618423462,76.32999420166016,25.29,0
-0.17539744079113,-1.050189971923828,-0.1169497668743133,-0.8058421015739441,3.058608293533325,76.54136657714844,25.29,0
-0.1853310465812683,-1.0154156684875488,-0.1030405014753341,-0.7930014133453369,3.056696891784668,76.67701721191406,25.29,0
-0.1973036378622055,-0.9819040298461914,-0.0885165631771087,-0.7274397611618042,3.0554702281951904,76.76406860351562,25.29,0
-0.2105847299098968,-0.9380070567131042,-0.0568048357963562,-0.6817834973335266,3.054682970046997,76.81993103027344,25.29,0
-0.2079122215509414,-0.8986409902572632,-0.0252585243433713,-0.684727132320404,3.054177761077881,76.85578155517578,25.29,0
-0.1894038468599319,-0.8621825575828552,0.0061816312372684,-0.7260245084762573,3.0538535118103027,76.8787841796875,25.29,0
-0.1607329100370407,-0.8387856483459473,0.0263581126928329,-0.8098480105400085,3.053645610809326,76.89354705810547,25.29,0
-0.153529092669487,-0.8237708210945129,0.044903989881277,-0.8994668126106262,3.0535120964050293,76.90302276611328,25.29,0
-0.1712972074747085,-0.8421240448951721,0.0512078925967216,-0.9319010376930236,3.048836231231689,76.90910339355469,25.29,0
-0.1882975250482559,-0.8706954121589661,0.0496556013822555,-0.8953942060470581,3.045835494995117,76.91300964355469,25.29,0
-0.2383917719125747,-0.8890308737754822,0.0430616550147533,-0.8074798583984375,3.043909788131714,76.91551208496094,25.29,0
-0.2817349135875702,-0.8951997756958008,0.0276344921439886,-0.6937403082847595,3.042673826217652,76.91712188720703,25.29,0
-0.2983545064926147,-0.9159519076347352,0.0065386770293116,-0.520436704158783,3.04188084602356,76.91815185546875,25.29,0
-0.2810311317443847,-1.0804094076156616,-0.034988272935152,-0.1763529926538467,3.0413718223571777,76.91881561279297,25.29,0
-0.2923050820827484,-1.225133180618286,-0.061637882143259,0.2200063467025756,3.0410451889038086,76.91924285888672,25.29,0
-0.3555178046226501,-1.183661937713623,-0.0395556464791297,0.3382290601730346,3.0408356189727783,76.91950988769531,25.29,0
-0.3960841000080108,-1.061885952949524,0.0026043350808322,0.2027256488800048,3.042078256607056,76.91968536376953,25.29,0
-0.3997261226177215,-0.978139340877533,0.0184646360576152,0.1265150755643844,3.0428755283355717,76.9197998046875,25.29,0
-0.334890067577362,-0.9747755527496338,0.0230450890958309,0.0525294877588748,3.0433871746063232,76.91986846923828,25.29,0
-0.254097580909729,-0.955823540687561,0.0371801108121871,-0.249313086271286,3.043715715408325,76.91991424560547,25.29,0
-0.1798585206270218,-0.9100745916366576,0.063044473528862,-0.6149818897247314,3.043926477432251,76.9199447631836,25.29,0
-0.1658028215169906,-0.858324408531189,0.0796427354216575,-0.7923258543014526,3.0440616607666016,76.91996765136719,25.29,0
-0.1791737675666809,-0.8251141309738159,0.0846967697143554,-0.8918047547340393,3.0441484451293945,76.91997528076172,25.29,0
-0.2101455777883529,-0.8093994855880737,0.0935379341244697,-1.0738695859909058,3.0442042350769043,76.91998291015625,25.29,0
-0.2300215065479278,-0.8049125075340271,0.099211685359478,-1.31609845161438,3.041944742202759,76.91999053955078,25.33,0
-0.2203856259584427,-0.802033007144928,0.1084505468606948,-1.5288681983947754,3.040494680404663,76.91999053955078,25.33,0
-0.214201882481575,-0.8057829141616821,0.1311728358268737,-1.5794297456741333,3.0395641326904297,76.91999053955078,25.33,0
-0.2102335095405578,-0.808189332485199,0.1569502353668213,-1.3682620525360107,3.0389668941497803,76.91999053955078,25.33,0
-0.2188823819160461,-0.820929229259491,0.1902860105037689,-0.9138975739479064,3.038583517074585,76.91999053955078,25.33,0
-0.2188349515199661,-0.8514960408210754,0.2172767668962478,-0.2891331017017364,3.0383377075195312,76.91999053955078,25.33,0
-0.2132067382335662,-0.921492040157318,0.2345978915691375,0.4557320177555084,3.038179874420166,76.91999053955078,25.33,0
-0.2095948755741119,-1.0223891735076904,0.2345180362462997,1.2633405923843384,3.038078546524048,76.91999053955078,25.33,0
-0.1904836744070053,-1.137519121170044,0.2344667911529541,1.9428331851959229,3.0389318466186523,76.91999053955078,25.33,0
-0.178219199180603,-1.3065650463104248,0.2176405787467956,2.15677261352539,3.039479255676269,77.05255126953125,25.33,0
-0.1927396655082702,-1.4262444972991943,0.1956469416618347,1.70652437210083,3.039830684661865,77.13761901855469,25.33,0
-0.2244491577148437,-1.329516887664795,0.1703371405601501,0.9231854677200316,3.0400562286376958,77.19220733642578,25.33,0
-0.2000162899494171,-1.1498894691467283,0.1317036747932434,0.5028828978538513,3.04020094871521,77.22724151611328,25.33,0
-0.1787389069795608,-1.0570060014724731,0.0957153886556625,0.8027864694595337,3.0402936935424805,77.24972534179688,25.33,0
-0.2210620492696762,-1.0365831851959229,0.0726201757788658,1.4860601425170898,3.040353298187256,77.26415252685547,25.33,0
-0.2706137001514435,-1.001085877418518,0.0633967742323875,1.856476902961731,3.040391445159912,77.2734146118164,25.33,0
-0.3024131059646606,-0.9167302250862122,0.0406844019889831,1.4457428455352783,3.037202835083008,77.27935791015625,25.33,0
-0.2892334759235382,-0.8961822986602783,-0.0018799647223204,0.5157983899116516,3.035156488418579,77.28317260742188,25.33,0
-0.2695800065994262,-0.894191324710846,-0.0291953235864639,-0.1705508828163147,3.033843278884888,77.2856216430664,25.33,0
-0.256967544555664,-0.9153047800064088,-0.0467247515916824,-0.3853080570697784,3.033000469207764,77.28719329833984,25.33,0
-0.2488735914230346,-0.9288541674613952,-0.0635719001293182,-0.6771776080131531,3.0324597358703613,77.28820037841797,25.33,0
-0.2436793595552444,-0.9319515824317932,-0.0911767557263374,-1.3266348838806152,3.032112598419189,77.28884887695312,25.33,0
-0.2515415549278259,-0.922743797302246,-0.1032941862940788,-1.9010525941848757,3.0318899154663086,77.28926086425781,25.33,0
-0.2565870583057403,-0.9168347716331482,-0.1054726839065551,-1.9723269939422607,3.0317471027374268,77.2895278930664,25.33,0
-0.2598249614238739,-0.9186404943466188,-0.1012729406356811,-1.6024880409240725,3.0325732231140137,77.2896957397461,25.33,0
-0.2619028687477112,-0.9421903491020204,-0.1041755676269531,-1.1251140832901,3.0331034660339355,77.28980255126953,25.33,0
-0.2632363438606262,-0.974096655845642,-0.094842754304409,-0.893997073173523,3.033443689346313,77.28987121582031,25.33,0
-0.2584943175315857,-1.03935444355011,-0.0944512635469436,-0.906895399093628,3.0336620807647705,77.2899169921875,25.33,0
-0.2610489428043365,-1.1428086757659912,-0.1053955778479576,-0.6142364740371704,3.0338022708892822,77.28994750976562,25.33,0
-0.3130683302879333,-1.1084396839141846,-0.0564412623643875,0.3689070045948028,3.0338921546936035,77.28997039794922,25.33,0
-0.3464513719081878,-1.0080147981643677,0.0029636675026267,1.5515486001968384,3.033949851989746,77.28997802734375,25.33,0
-0.339885801076889,-0.9715567827224731,0.0130974603816866,2.1994400024414062,3.033986806869507,77.28998565673828,25.33,0
-0.3020857572555542,-1.0489200353622437,-0.0307792238891124,2.235466480255127,3.034928798675537,77.28999328613281,25.29,0
-0.2610345482826233,-1.1097629070281982,-0.0589367523789405,1.986310362815857,3.03553318977356,77.28999328613281,25.29,0
-0.1955058127641677,-1.0704394578933716,-0.0434199906885623,1.622209548950195,3.035921096801758,77.28999328613281,25.29,0
-0.1366599202156067,-1.022812843322754,-0.0278644505888223,1.1807610988616943,3.03617000579834,77.28999328613281,25.29,0
-0.1156893447041511,-0.9922488927841188,-0.029077349230647,0.6538498401641846,3.036329746246338,77.28999328613281,25.29,0
-0.1358182877302169,-0.978232443332672,-0.0466490387916564,0.0613456293940544,3.036432266235352,77.28999328613281,25.29,0
-0.1599314212799072,-0.9524441957473756,-0.0635233148932457,-0.4012886881828308,3.036498069763184,77.28999328613281,25.29,0
-0.2033947259187698,-0.935894787311554,-0.0855478048324585,-0.5835383534431458,3.036540269851685,77.28999328613281,25.29,0
-0.2312869727611541,-0.9252743124961852,-0.110877402126789,-0.6969131231307983,3.0333542823791504,77.28999328613281,25.29,0
-0.2491866052150726,-0.9240564703941344,-0.1327302455902099,-0.9058083891868592,3.0313096046447754,77.28999328613281,25.29,0
-0.2326846867799759,-0.8952860832214355,-0.1243630498647689,-0.9753789901733398,3.0299973487854004,77.40105438232422,25.29,0
-0.216496929526329,-0.8600295782089233,-0.1133956909179687,-0.772827684879303,3.0291552543640137,77.47232818603516,25.29,0
-0.1949130147695541,-0.8430017232894897,-0.0895641520619392,-0.5640252828598022,3.028614997863769,77.51806640625,25.29,0
-0.1978550255298614,-0.8376719951629639,-0.0630748942494392,-0.4730187952518463,3.0282680988311768,77.54741668701172,25.29,0
-0.2445252239704132,-0.8622406125068665,-0.0180867407470941,-0.2211569994688034,3.028045654296875,77.56625366210938,25.29,0
-0.2800732553005218,-0.9563761353492736,-0.0116070294752717,0.4384514093399048,3.027902841567993,77.5783462524414,25.29,0
-0.3028859198093414,-1.1343401670455933,-0.0186442732810974,1.4528751373291016,3.02872896194458,77.58610534667969,25.29,0
-0.3343191146850586,-1.2541450262069702,-0.0119648212566971,2.530200481414795,3.029259204864502,77.59107971191406,25.29,0
-0.3321000337600708,-1.2078778743743896,-0.0020805594976991,3.171409845352173,3.02959942817688,77.59427642822266,25.29,0
-0.2746981978416443,-1.183784008026123,-0.0349218286573886,3.0204365253448486,3.029817819595337,77.59632873535156,25.29,0
-0.2378610074520111,-1.2019085884094238,-0.0671930164098739,2.239278554916382,3.0299580097198486,77.59764099121094,25.29,0
-0.2366121262311935,-1.1799533367156982,-0.0823050290346145,1.3223977088928225,3.03004789352417,77.5984878540039,25.29,0
-0.2749950885772705,-1.0371148586273191,-0.1087963730096817,0.5978584289550781,3.0301055908203125,77.59902954101562,25.29,0
-0.2884314954280853,-0.9398515820503236,-0.1425903141498565,0.0827348008751869,3.030142545700073,77.59937286376953,25.29,0
-0.2746631205081939,-0.9054224491119384,-0.1978639662265777,-0.3481540381908417,3.0283303260803223,77.59959411621094,25.29,0
-0.2826206982135772,-0.8889256119728088,-0.2445309609174728,-0.7393161058425903,3.027167320251465,77.59973907470703,25.29,0
-0.287727415561676,-0.8783388733863831,-0.2744791507720947,-1.047662615776062,3.026421070098877,77.5998306274414,25.29,0
-0.2742112874984741,-0.8827404975891113,-0.2881004214286804,-1.338688611984253,3.025942087173462,77.59989166259766,25.29,0
-0.2655374109745025,-0.8967607021331787,-0.2856462001800537,-1.675920486450195,3.025634765625,77.59992980957031,25.29,0
-0.259971022605896,-0.9001603126525879,-0.2616801261901855,-1.878006219863892,3.025437355041504,77.5999526977539,25.29,0
-0.2508010566234588,-0.9247331023216248,-0.2351045310497284,-1.7855736017227173,3.025310754776001,77.59996795654297,25.29,0
-0.2505140602588653,-0.9405024647712708,-0.2124520689249038,-1.5327965021133425,3.025229454040528,77.5999755859375,25.29,0
-0.2615254521369934,-0.9954045414924622,-0.192317247390747,-1.295344591140747,3.0260956287384038,77.59998321533203,25.33,0
-0.2685919106006622,-1.0362353324890137,-0.1793958842754364,-1.0641449689865112,3.026651382446289,77.59999084472656,25.33,0
-0.256333440542221,-1.1631981134414673,-0.1990925669670105,-0.7473933696746826,3.027008056640625,77.59999084472656,25.33,0
-0.2652599811553955,-1.1103289127349854,-0.1613527983427047,-0.2431840151548385,3.0272369384765625,77.59999084472656,25.33,0
-0.2765862941741943,-1.0260205268859863,-0.1203402578830719,0.4278983175754547,3.027383804321289,77.59999084472656,25.33,0
-0.2390726804733276,-1.0502851009368896,-0.1332051903009414,0.8657255172729492,3.0274782180786133,77.59999084472656,25.33,0
-0.1982052773237228,-1.1050411462783811,-0.1526567190885543,0.7275364398956299,3.027538776397705,77.59999084472656,25.33,0
-0.1495878398418426,-1.100996017456055,-0.14834626019001,0.3379182815551758,3.027577638626098,77.59999084472656,25.33,0
-0.1295835077762603,-1.0032379627227783,-0.1287867426872253,0.1810307502746582,3.028979539871216,77.59999084472656,25.33,0
-0.1391369849443435,-0.9461001753807068,-0.1218323409557342,0.1842440515756607,3.029879331588745,77.59999084472656,25.33,0
-0.1900500506162643,-0.9150302410125732,-0.1509560495615005,0.1254023760557174,3.030456781387329,77.59999084472656,25.33,0
-0.2283208966255188,-0.9006891250610352,-0.1752437502145767,0.1198843568563461,3.030827283859253,77.85435485839844,25.33,0
-0.2304898202419281,-0.9026813507080078,-0.190830186009407,0.2274030596017837,3.031064987182617,78.01759338378906,25.33,0
-0.2150883972644806,-0.9095576405525208,-0.2008326649665832,0.1853425204753875,3.031217575073242,78.12235260009766,25.33,0
-0.1940090954303741,-0.9195681810379028,-0.1960561424493789,-0.0780994892120361,3.031315565109253,78.1895751953125,25.33,0
-0.1860793828964233,-0.9315901398658752,-0.1873930692672729,-0.2901523411273956,3.031378507614136,78.23271942138672,25.33,0
-0.1753927767276764,-0.9337074160575868,-0.1706380546092987,-0.3581666946411133,3.0309596061706543,78.26040649414062,25.33,0
-0.1573391854763031,-0.92387056350708,-0.1430923342704773,-0.5128742456436157,3.030690670013428,78.2781753540039,25.33,0
-0.1401556581258773,-0.923155665397644,-0.1254150718450546,-0.8342763185501099,3.030518054962158,78.2895736694336,25.33,0
-0.1291282474994659,-0.9170990586280824,-0.1028752699494361,-1.1157677173614502,3.030407428741455,78.29689025878906,25.33,0
-0.1276492774486541,-0.9356033802032472,-0.0772149786353111,-1.2641695737838743,3.030336380004883,78.30158233642578,25.33,0
-0.126700147986412,-0.9362828731536864,-0.0551499016582965,-1.4095613956451416,3.0302908420562744,78.30459594726562,25.33,0
-0.1316888332366943,-0.9815011024475098,-0.0521853566169738,-1.391805648803711,3.030261516571045,78.30653381347656,25.33,0
-0.1684769243001938,-1.0720950365066528,-0.0502828806638717,-0.7677906155586243,3.030242681503296,78.30777740478516,25.33,0
-0.2256720513105392,-1.175015211105347,-0.0546597577631473,0.3635117709636688,3.0357391834259038,78.3085708618164,25.33,0
-0.2399854958057403,-1.1347057819366455,-0.0686641335487365,1.2399846315383911,3.039266586303711,78.30908203125,25.33,0
-0.2379754930734634,-1.097641944885254,-0.0776513367891311,1.4370317459106443,3.041530132293701,78.30941009521484,25.33,0
-0.2030989378690719,-1.0794543027877808,-0.0834188014268875,1.3270353078842163,3.042982816696167,78.30962371826172,25.33,0
-0.1807171702384948,-1.056586980819702,-0.0983155816793441,1.2707761526107788,3.043915033340454,78.30976104736328,25.33,0
-0.1495605260133743,-1.041912078857422,-0.1190710216760635,1.10569965839386,3.04451322555542,78.30984497070312,25.33,0
-0.1127726584672927,-0.9933100938796996,-0.1323906779289245,0.6630009412765503,3.044897079467773,78.30989837646484,25.33,0
-0.0891643241047859,-0.9509246349334716,-0.1353406906127929,0.1567826718091964,3.0451436042785645,78.3099365234375,25.33,0
-0.0852093994617462,-0.929321825504303,-0.1428316086530685,-0.1788267940282821,3.040252447128296,78.3099594116211,25.31,0
-0.0938669070601463,-0.909860610961914,-0.1476388424634933,-0.4766008853912353,3.037113666534424,78.30997467041016,25.31,0
-0.1162161231040954,-0.8973715305328369,-0.1395283043384552,-0.8432413339614868,3.0350992679595947,78.30998229980469,25.31,0
-0.1249607875943183,-0.8893567323684692,-0.1287256479263305,-1.046286940574646,3.033806562423706,78.30998992919922,25.31,0
-0.1305726170539856,-0.8842133283615112,-0.1161953583359718,-0.940139889717102,3.032977104187012,78.30998992919922,25.31,0
-0.134173959493637,-0.8865103721618652,-0.0969585925340652,-0.7430481314659119,3.032444715499878,78.30998992919922,25.31,0
-0.1308873146772384,-0.8879844546318054,-0.073417991399765,-0.5879053473472595,3.0321030616760254,78.30998992919922,25.31,0
-0.1287781447172165,-0.8889304399490356,-0.0471154414117336,-0.3056322932243347,3.031883716583252,78.30998992919922,25.31,0
-0.1330223679542541,-0.9231241941452026,-0.0302359778434038,0.1871983706951141,3.0354151725769043,78.30998992919922,25.31,0
-0.1357460618019104,-0.9506655335426332,-0.0194037109613418,0.7220057845115662,3.0376813411712646,78.30998992919922,25.31,0
-0.1374939829111099,-1.0355132818222046,-0.0348432809114456,1.126118302345276,3.039135694503784,78.30998992919922,25.31,0
-0.1330179125070572,-1.1683324575424194,-0.061544831842184,1.3102203607559204,3.040069103240967,78.30998992919922,25.31,0
-0.1749276369810104,-1.2423726320266724,-0.0562892518937587,1.2349073886871338,3.04066801071167,78.49270629882812,25.31,0
-0.235409528017044,-1.1891274452209473,0.0086589949205517,1.061185598373413,3.0410523414611816,78.6099624633789,25.31,0
-0.2574299871921539,-1.110175609588623,0.0671323612332344,0.9998570680618286,3.041299104690552,78.68521118164062,25.31,0
-0.176399290561676,-1.031519889831543,0.0822661072015762,0.9927431344985962,3.041457414627075,78.7334976196289,25.31,0
-0.0684207156300544,-1.0034343004226685,0.0695869773626327,0.8663702607154846,3.042936086654663,78.76448822021484,25.31,0
0.0232648141682147,-0.996606171131134,0.0446569174528121,0.6312206387519836,3.0438849925994877,78.78437805175781,25.31,0
0.0149300182238221,-0.9586375951766968,0.0342560149729251,0.3943333625793457,3.0444939136505127,78.7971420288086,25.31,0
-0.0072120963595807,-0.9174782633781432,0.0387768633663654,0.2315649986267089,3.04488468170166,78.80532836914062,25.31,0
-0.060606051236391,-0.8798689842224121,0.0528736300766468,0.1199444904923439,3.045135498046875,78.81058502197266,25.31,0
-0.0892734453082084,-0.8501357436180115,0.0675178989768028,-0.0627469792962074,3.045296430587769,78.81395721435547,25.31,0
-0.1076705306768417,-0.8142613768577576,0.0657202005386352,-0.3447863161563873,3.0453996658325195,78.81612396240234,25.31,0
-0.1138789430260658,-0.7856414914131165,0.0533709898591041,-0.5687738656997681,3.0454659461975098,78.81751251220703,25.31,0
-0.11226537078619,-0.78406822681427,0.04544597864151,-0.6659426689147949,3.042295455932617,78.81840515136719,25.31,0
-0.1112298741936683,-0.7998518943786621,0.0515557117760181,-0.731882631778717,3.0402607917785645,78.81897735595703,25.31,0
-0.1105653494596481,-0.8323720693588257,0.0666721314191818,-0.8386853933334351,3.038954973220825,78.81934356689453,25.31,0
-0.1661166399717331,-0.9036216139793396,0.0539818853139877,-1.014702558517456,3.038116931915283,78.819580078125,25.31,0
-0.2073640376329422,-0.9549432396888732,0.0346424654126167,-1.2566330432891846,3.037579298019409,78.81973266601562,25.31,0
-0.2282364666461944,-1.0214651823043823,0.0110359918326139,-1.2972476482391355,3.037234306335449,78.81983184814453,25.31,0
-0.2640222907066345,-1.1873061656951904,-0.0321021564304828,-0.7715951204299927,3.037012815475464,78.81989288330078,25.31,0
-0.3149764537811279,-1.2993310689926147,-0.0485901869833469,0.1102899238467216,3.03687071800232,78.81993103027344,25.31,0
-0.330882579088211,-1.124920129776001,-0.0255846120417118,0.6224943399429321,3.038156747817993,78.81995391845703,25.31,0
-0.2907102406024933,-1.052177667617798,-0.0556031540036201,0.5248711705207825,3.038981914520264,78.8199691772461,25.31,0
-0.2425388395786285,-1.0614734888076782,-0.102856196463108,0.3225018084049225,3.039511442184448,78.81997680664062,25.31,0
-0.183636337518692,-1.123416781425476,-0.1611693501472473,0.346683531999588,3.039851427078247,78.81998443603516,25.31,0
-0.1514338701963424,-1.1071906089782717,-0.2041891515254974,0.3084633350372314,3.040069580078125,78.81999206542969,25.31,0
-0.1475615054368972,-1.0240066051483154,-0.1926123648881912,-0.0635740160942077,3.0402095317840576,78.81999206542969,25.31,0
-0.1282831281423568,-0.9818193912506104,-0.1627919524908065,-0.6140102744102478,3.040299415588379,78.81999206542969,25.31,0
-0.1383024752140045,-0.9491482973098756,-0.1380571573972702,-0.9994917511940002,3.0403568744659424,78.81999206542969,25.31,0
-0.1783189624547958,-0.916986346244812,-0.1277815550565719,-1.014004111289978,3.0422298908233643,78.81999206542969,25.31,0
-0.198401466012001,-0.8907488584518433,-0.1211872696876525,-0.6614772081375122,3.0434317588806152,78.81999206542969,25.31,0
-0.2112892568111419,-0.879508912563324,-0.1057598888874054,-0.1701351553201675,3.044203042984009,78.81999206542969,25.31,0
-0.2251576781272888,-0.8834913372993469,-0.0790661573410034,0.1344321966171264,3.044697999954224,78.81999206542969,25.31,0
-0.2340576350688934,-0.8916447758674622,-0.061935655772686,0.0826882645487785,3.045015811920166,78.81999206542969,25.31,0
-0.2397691011428833,-0.9024749994277954,-0.0509422868490219,-0.143977090716362,3.045219659805298,79.0421142578125,25.31,0
-0.2378366291522979,-0.9150229692459106,-0.0438873767852783,-0.1962908953428268,3.0453505516052246,79.18466186523438,25.31,0
-0.2477920204401016,-0.9454666376113892,-0.0561532638967037,-0.036403801292181,3.0454344749450684,79.27613830566406,25.31,0
-0.2821696996688843,-0.9650036096572876,-0.0752203539013862,0.0232116188853979,3.0514562129974365,79.33484649658203,25.31,0
-0.3042313158512115,-0.9775413274765016,-0.093054287135601,-0.1391548812389373,3.0553207397460938,79.37252044677734,25.31,0
-0.2792047560214996,-1.0135761499404907,-0.1212924048304557,-0.2146917432546615,3.057800769805908,79.39669799804688,25.31,0
-0.2575463950634002,-1.0926790237426758,-0.1730006486177444,0.0556822940707206,3.059392213821411,79.4122085571289,25.31,0
-0.2380495220422744,-1.19942045211792,-0.2341728955507278,0.4943033456802368,3.0604135990142822,79.42216491699219,25.31,0
-0.2759175300598144,-1.055205464363098,-0.1894631087779998,0.707716166973114,3.0610690116882324,79.42855834960938,25.31,0
-0.3114145696163177,-0.957058846950531,-0.1439776122570037,0.5079101324081421,3.061489582061768,79.43265533447266,25.31,0
-0.2782167792320251,-1.006029486656189,-0.1259831935167312,0.0787497907876968,3.0617594718933105,79.43528747558594,25.31,0
-0.1953368335962295,-1.0206626653671265,-0.1200331822037696,-0.2503992617130279,3.0669820308685303,79.43697357177734,25.31,0
-0.1197581589221954,-0.9740756750106812,-0.0826281607151031,-0.3541509211063385,3.070333480834961,79.43805694580078,25.31,0
-0.0936472192406654,-0.8993966579437256,-0.0418304502964019,-0.252351701259613,3.072484254837036,79.43875122070312,25.31,0
-0.0768907144665718,-0.857069730758667,-0.0156488269567489,-0.0329720675945282,3.073864459991455,79.43920135498047,25.31,0
-0.0941262319684028,-0.8690911531448364,-0.01564029045403,0.0075010294094681,3.0747501850128174,79.43949127197266,25.31,0
-0.1051869913935661,-0.87680584192276,-0.010037038475275,-0.3426961004734039,3.0753188133239746,79.4396743774414,25.31,0
-0.0898940563201904,-0.8649633526802063,0.0103521300479769,-0.8074650168418884,3.07568359375,79.43978881835938,25.31,0
-0.0912754759192466,-0.8741568326950073,0.029034499078989,-0.9373459219932556,3.0759177207946777,79.43986511230469,25.31,0
-0.1033575385808944,-0.874458909034729,0.0410237684845924,-0.7305073738098145,3.080658197402954,79.43991088867188,25.31,0
-0.1223066598176956,-0.863457202911377,0.0487177893519401,-0.4938756227493286,3.08370041847229,79.43994140625,25.31,0
-0.1288693398237228,-0.8843858242034912,0.0424598231911659,-0.3348538279533386,3.0856528282165527,79.4399642944336,25.31,0
-0.1274831146001815,-0.9258054494857788,0.0272482708096504,-0.032178558409214,3.0869057178497314,79.43997955322266,25.31,0
-0.1265935152769088,-0.9691795110702516,0.0062908227555453,0.7066125273704529,3.087709665298462,79.43998718261719,25.31,0
-0.1260226219892501,-0.9970145225524902,-0.012756235897541,1.811259388923645,3.0882256031036377,79.43999481201172,25.31,0
-0.131254032254219,-1.0876485109329224,-0.0193817671388387,2.6598784923553467,3.0885567665100098,79.43999481201172,25.31,0
-0.1626001298427581,-1.2353765964508057,-0.0236336514353752,2.684999942779541,3.0887691974639893,79.43999481201172,25.31,0
-0.2219006717205047,-1.1062690019607544,-0.0263622663915157,2.1279094219207764,3.0907421112060547,79.43999481201172,25.31,0
-0.1983808279037475,-1.0178173780441284,-0.005722236353904,1.6342629194259644,3.092008113861084,79.43999481201172,25.31,0
-0.1497004926204681,-1.0618141889572144,-0.0036722018849104,1.3640425205230713,3.092820644378662,79.43999481201172,25.31,0
-0.0960691571235656,-1.106842041015625,-0.0695299059152603,1.0473276376724243,3.093342065811157,79.43999481201172,25.31,0
-0.0672494322061538,-1.1021517515182495,-0.1173913553357124,0.6004630327224731,3.0936765670776367,79.43999481201172,25.31,0
-0.0767434611916542,-1.0319684743881226,-0.1033238843083381,0.1488926261663437,3.0938913822174072,79.43999481201172,25.31,0
-0.1108250543475151,-0.9981244206428528,-0.0775028690695762,-0.2161333709955215,3.094029188156128,79.60121154785156,25.31,0
-0.1382944285869598,-0.9820030331611632,-0.0609324276447296,-0.4862118065357208,3.0941176414489746,79.70467376708984,25.31,0
-0.1391293704509735,-0.9604617357254028,-0.0558962486684322,-0.7777575850486755,3.093715190887451,79.77106475830078,25.31,0
-0.1396651864051818,-0.946637749671936,-0.047066543251276,-1.1726442575454712,3.093456745147705,79.81367492675781,25.31,0
-0.1456068158149719,-0.9265707731246948,-0.0246068257838487,-1.494128704071045,3.093291044235229,79.84101867675781,25.31,0
-0.1382242739200592,-0.9024973511695862,0.0010020781774073,-1.5822139978408811,3.09318470954895,79.85856628417969,25.31,0
-0.1334865838289261,-0.8758528828620911,0.0174364000558853,-1.495439052581787,3.093116283416748,79.86982727050781,25.31,0
-0.1416417509317398,-0.8643518090248108,0.0391785502433776,-1.2642056941986084,3.0930724143981934,79.8770523071289,25.31,0
-0.1636685878038406,-0.8625688552856445,0.0531314089894294,-0.8578678965568542,3.09304428100586,79.8816909790039,25.31,0
-0.1945974677801132,-0.872620165348053,0.0620855502784252,-0.3964794874191284,3.093026161193848,79.8846664428711,25.31,0
-0.2256413996219635,-0.901461660861969,0.0734295770525932,0.0608289390802383,3.091637372970581,79.8865737915039,25.31,0
-0.2399658262729644,-0.9367637634277344,0.0807095244526863,0.6659872531890869,3.0907461643218994,79.88780212402344,25.31,0
-0.2267673164606094,-0.9650164246559144,0.0629902780055999,1.362444519996643,3.0901741981506348,79.88858795166016,25.31,0
-0.1903084069490432,-1.0279295444488523,0.0180324371904134,1.7843126058578491,3.089807271957397,79.88909149169922,25.31,0
-0.1613133996725082,-1.2474323511123655,-0.0556011088192462,1.664542555809021,3.089571714401245,79.88941955566406,25.31,0
-0.1818905025720596,-1.153190016746521,-0.0524749159812927,1.1470242738723757,3.0894205570220947,79.8896255493164,25.31,0
-0.1950957030057907,-1.003146409988403,-0.0224798321723938,0.6286168694496155,3.0893235206604004,79.88976287841797,25.31,0
-0.2035700380802154,-0.979628086090088,-0.0256218109279871,0.3210108876228332,3.089261293411255,79.88984680175781,25.31,0
-0.1922150552272796,-0.992524266242981,-0.038833700120449,-0.0161133799701929,3.091975688934326,79.88990020751953,25.29,0
-0.1513414233922958,-0.9952024817466736,-0.0473123304545879,-0.6838648319244385,3.093717575073242,79.88993835449219,25.29,0
-0.1307088583707809,-0.9353457093238832,-0.0135690057650208,-1.5279680490493774,3.0948355197906494,79.88996124267578,25.29,0
-0.1062725186347961,-0.8801397681236267,0.0304766129702329,-2.1054906845092773,3.095552921295166,79.88997650146484,25.29,0
-0.1073840036988258,-0.8391140103340149,0.058742556720972,-2.271904706954956,3.096013307571411,79.88998413085938,25.29,0
-0.1080972924828529,-0.8183838129043579,0.0768820121884346,-2.174492835998535,3.096308708190918,79.8899917602539,25.29,0
-0.1029572635889053,-0.8162758946418762,0.0885228738188743,-1.8397036790847776,3.096498250961304,79.8899917602539,25.29,0
-0.0940609201788902,-0.8317164778709412,0.1015910804271698,-1.2486848831176758,3.0966200828552246,79.8899917602539,25.29,0
-0.0827539786696434,-0.8416253328323364,0.1155752763152122,-0.6329529881477356,3.093484878540039,79.8899917602539,25.29,0
-0.0978889316320419,-0.8759731650352478,0.1301473081111908,-0.1625776439905166,3.091472864151001,79.8899917602539,25.29,0
-0.1187972277402877,-0.8980156183242798,0.1450965702533722,0.3542366921901703,3.090181827545166,79.8899917602539,25.29,0
-0.1490082889795303,-0.9569433927536012,0.154690146446228,0.9545915722846984,3.089353322982788,79.8899917602539,25.29,0
-0.173993781208992,-1.0283465385437012,0.1720422953367233,1.2825435400009155,3.0888214111328125,79.8899917602539,25.29,0
-0.190028041601181,-1.0741689205169678,0.1887756884098053,1.285214900970459,3.088480234146118,79.8899917602539,25.29,0
-0.1835245788097381,-1.1483572721481323,0.1995142102241516,1.2690162658691406,3.088261127471924,79.8899917602539,25.29,0
-0.1681554764509201,-1.1959670782089231,0.2008078098297119,1.1690565347671509,3.088120698928833,79.96522521972656,25.29,0
-0.1638902425765991,-1.3216824531555176,0.1792468577623367,0.7609809041023254,3.0880305767059326,80.01351165771484,25.29,0
-0.2171308100223541,-1.296001672744751,0.1542147397994995,0.32713782787323,3.087972640991211,80.04449462890625,25.29,0
-0.2456997632980346,-1.2067501544952393,0.1325527876615524,0.1526170223951339,3.087935447692871,80.06437683105469,25.29,0
-0.2304470390081405,-1.0599092245101929,0.1130536198616027,0.0262893065810203,3.087911605834961,80.07714080810547,25.29,0
-0.2262564897537231,-0.9936640858650208,0.0893446281552314,-0.1694229543209076,3.0878963470458984,80.0853271484375,25.29,0
-0.2459583282470703,-0.9959339499473572,0.062934011220932,-0.1803774088621139,3.0878865718841557,80.09058380126953,25.29,0
-0.2586018443107605,-0.9582062363624572,0.0347896516323089,-0.0154437255114316,3.0878801345825195,80.09395599365234,25.29,0
-0.2499223947525024,-0.906005859375,0.011130447499454,-0.0027457436081022,3.087876081466675,80.09612274169922,25.29,0
-0.2163635492324829,-0.8725066781044006,-0.020845990628004,-0.1952211558818817,3.085578203201294,80.0975112915039,25.29,0
-0.1948274224996566,-0.8566066026687622,-0.0469644032418727,-0.3079930543899536,3.084103584289551,80.09840393066406,25.29,0
-0.2033978700637817,-0.8464028239250183,-0.0693234726786613,-0.2549734115600586,3.0831573009490967,80.0989761352539,25.29,0
-0.2033001184463501,-0.8510501980781555,-0.1116611063480377,-0.2639393806457519,3.082549810409546,80.0993423461914,25.29,0
-0.203237384557724,-0.8708259463310242,-0.1444287449121475,-0.3986659348011017,3.082159996032715,80.09957885742188,25.29,0
-0.208794891834259,-0.8667235374450684,-0.1374682486057281,-0.4457173347473144,3.0819098949432373,80.0997314453125,25.29,0
-0.2179591655731201,-0.8696886301040649,-0.1218058541417121,-0.3254440724849701,3.081749439239502,80.0998306274414,25.29,0
-0.2294380366802215,-0.8883848190307617,-0.1173524037003517,-0.2195989936590194,3.08164644241333,80.09989166259766,25.29,0
-0.2480000704526901,-0.9227740168571472,-0.1088966652750969,-0.2627335786819458,3.0811214447021484,80.09992980957031,25.31,0
-0.2655098736286163,-0.9392452836036682,-0.0922747105360031,-0.3584837913513183,3.080784559249878,80.0999526977539,25.31,0
-0.2823444306850433,-1.0337822437286377,-0.0872054696083068,-0.2228891104459762,3.080568313598633,80.09996795654297,25.31,0
-0.304343432188034,-1.1728193759918213,-0.083952322602272,0.3441928625106811,3.080429553985596,80.0999755859375,25.31,0
-0.3856344223022461,-1.1332966089248655,-0.0090935733169317,1.0771188735961914,3.080340385437012,80.09998321533203,25.31,0
-0.4098134338855743,-1.0575531721115112,0.0445442348718643,1.3934177160263062,3.080283164978028,80.09999084472656,25.31,0
-0.3749501705169678,-1.031336545944214,0.0453792475163936,1.0697615146636963,3.0802464485168457,80.09999084472656,25.31,0
-0.2630125284194946,-1.0872832536697388,-0.0212581828236579,0.4428961873054504,3.080222845077514,80.09999084472656,25.31,0
-0.1575907468795776,-1.123186707496643,-0.0584244728088378,-0.1098580658435821,3.083880424499512,80.09999084472656,25.31,0
-0.0787415727972984,-1.0678585767745972,-0.0430912375450134,-0.5434005856513977,3.0862276554107666,80.09999084472656,25.31,0
-0.0617273561656475,-0.9987655282020568,-0.0164579264819622,-0.9291004538536072,3.0877339839935303,80.09999084472656,25.31,0
-0.0731997117400169,-0.954425573348999,-0.021757299080491,-1.2733500003814695,3.088700532913208,80.09999084472656,25.31,0
-0.1197464242577552,-0.925970733165741,-0.0755380988121032,-1.5372604131698608,3.0893208980560303,80.09999084472656,25.31,0
-0.1776062995195388,-0.907710075378418,-0.1324426233768463,-1.613476037979126,3.089718818664551,80.09999084472656,25.31,0
-0.2539218664169311,-0.8959914445877075,-0.1969495415687561,-1.3650330305099487,3.089974403381348,80.09999084472656,25.31,0
-0.2861034870147705,-0.8940688967704773,-0.2439441382884979,-0.8545041680335999,3.0901381969451904,80.09999084472656,25.31,0
-0.2843647003173828,-0.8984328508377075,-0.268504798412323,-0.3943208456039428,3.086570978164673,80.23612976074219,25.31,0
-0.2496621906757354,-0.9012333750724792,-0.2506797611713409,-0.1742357462644577,3.08428168296814,80.32350158691406,25.31,0
-0.2273921221494674,-0.9030306339263916,-0.2224473655223846,-0.0580758415162563,3.082812547683716,80.37957000732422,25.31,0
-0.2075026929378509,-0.915379524230957,-0.1819383352994918,0.2063454091548919,3.081869840621948,80.4155502319336,25.31,0
-0.2115321308374405,-0.9344999194145204,-0.1335508674383163,0.7092152833938599,3.0812647342681885,80.43864440917969,25.31,0
-0.2197157591581344,-0.9579657912254332,-0.0913030356168747,1.314951777458191,3.080876350402832,80.45346069335938,25.31,0
-0.2249675393104553,-0.9842203855514526,-0.0473974831402301,1.8720594644546509,3.080627202987671,80.46296691894531,25.31,0
-0.2115445137023925,-0.984275758266449,-0.0136236548423767,2.290482997894287,3.0804672241210938,80.46907043457031,25.31,0
-0.1861370652914047,-1.040289044380188,0.019245995208621,2.4192826747894287,3.083577871322632,80.47298431396484,25.31,0
-0.2034186720848083,-1.1602017879486084,0.05153539031744,2.168759346008301,3.085574150085449,80.47550201416016,25.31,0
-0.2592912018299103,-1.1867748498916626,0.0778546407818794,1.6712257862091064,3.086855173110962,80.47711181640625,25.31,0
-0.2895492017269134,-1.1086658239364624,0.0499626286327838,1.1548957824707031,3.087677240371704,80.4781494140625,25.31,0
-0.3033692836761474,-1.1313109397888184,-0.0015235060127452,0.7232327461242676,3.088204860687256,80.47881317138672,25.31,0
-0.3066404461860657,-1.1794300079345703,-0.0569554418325424,0.3423215746879577,3.08854341506958,80.47924041748047,25.31,0
-0.2863485813140869,-1.1207456588745115,-0.0981262400746345,-0.0346805788576602,3.0887606143951416,80.4795150756836,25.31,0
-0.2621308863162994,-1.0271075963974,-0.1301450580358505,-0.3805135488510132,3.088900089263916,80.47969055175781,25.31,0
-0.2297960370779037,-0.9614183306694032,-0.1674862205982208,-0.7135090827941895,3.089448928833008,80.47980499267578,25.33,0
-0.2146431654691696,-0.9192627668380736,-0.1970474123954773,-1.1672390699386597,3.089801073074341,80.47987365722656,25.33,0
-0.2385055720806121,-0.8978075385093689,-0.2272136211395263,-1.648293375968933,3.090027093887329,80.47991943359375,25.33,0
-0.2818079590797424,-0.8728432655334473,-0.2577681243419647,-1.7742949724197388,3.090172052383423,80.47994995117188,25.33,0
-0.2984013855457306,-0.862420380115509,-0.2829740047454834,-1.4431593418121338,3.090265274047852,80.47997283935547,25.33,0
-0.2978545427322387,-0.8893182277679443,-0.2767585813999176,-1.0336138010025024,3.090324878692627,80.47998046875,25.33,0
-0.3031013906002044,-0.9177752733230592,-0.2559765577316284,-0.9069289565086364,3.0903632640838623,80.47998809814453,25.33,0
-0.2896751761436462,-0.9472329020500184,-0.2202487587928772,-1.065662503242493,3.0903878211975098,80.47999572753906,25.33,0
-0.258667916059494,-1.0053215026855469,-0.1973207145929336,-1.1603634357452393,3.087649345397949,80.47999572753906,25.33,0
-0.2275736927986145,-1.0705883502960205,-0.182606816291809,-0.7339067459106445,3.085891962051392,80.47999572753906,25.33,0
-0.1796303391456604,-1.0900816917419434,-0.1507731825113296,0.2168754488229751,3.084764242172241,80.47999572753906,25.33,0
-0.1320697367191314,-1.0969936847686768,-0.1303441971540451,1.077812910079956,3.084040403366089,80.47999572753906,25.33,0
-0.1351347267627716,-1.1574071645736694,-0.1004407256841659,1.304298758506775,3.083575963973999,80.47999572753906,25.33,0
-0.2322638183832168,-1.112210392951965,-0.0308704301714897,0.9982397556304932,3.083277940750122,80.47999572753906,25.33,0
-0.2889979183673858,-1.0496190786361694,0.0081780068576335,0.5976219177246094,3.0830867290496826,80.47999572753906,25.33,0
-0.252635508775711,-1.0038537979125977,-0.0059473747387528,0.3691890239715576,3.0829639434814453,80.47999572753906,25.33,0
-0.1789202541112899,-1.013668656349182,-0.037403330206871,0.3694795668125152,3.085639476776123,80.47999572753906,25.33,0
-0.0756362974643707,-1.0479562282562256,-0.063187725841999,0.6383591890335083,3.0873563289642334,80.61613464355469,25.33,0
-0.0261479243636131,-1.0083844661712646,-0.0629413425922393,1.0581083297729492,3.088458299636841,80.70349884033203,25.33,0
-0.0167802330106496,-0.9550006985664368,-0.0627832263708114,1.2307496070861816,3.089165449142456,80.75956726074219,25.33,0
-0.0555507838726043,-0.9207420945167542,-0.0850728526711463,0.8650583624839783,3.0896191596984863,80.79554748535156,25.33,0
-0.0972248166799545,-0.8987568616867065,-0.1161703765392303,0.2004696577787399,3.0899102687835693,80.81864166259766,25.33,0
-0.1463599056005478,-0.890245795249939,-0.1585180759429931,-0.3084243237972259,3.090097188949585,80.83345794677734,25.33,0
-0.1946852952241897,-0.8959794044494629,-0.1856943964958191,-0.5740993618965149,3.090217113494873,80.84296417236328,25.33,0
-0.2200999855995178,-0.905256688594818,-0.1975368112325668,-0.794750452041626,3.083867311477661,80.84906768798828,25.33,0
-0.2196163386106491,-0.9000147581100464,-0.1827455013990402,-1.004420518875122,3.0797924995422363,80.85298156738281,25.33,0
-0.2137081921100616,-0.8910530209541321,-0.1620577424764633,-1.1174793243408203,3.0771775245666504,80.85549926757812,25.33,0
-0.1987211406230926,-0.8964974284172058,-0.1207926571369171,-1.1685384511947632,3.0754992961883545,80.85710906982422,25.33,0
-0.200298860669136,-0.9167847037315368,-0.0663222223520279,-1.1726446151733398,3.0744223594665527,80.85814666748047,25.33,0
-0.2013113498687744,-0.9354016780853271,-0.0257684607058763,-1.0104812383651731,3.0737311840057373,80.85881042480469,25.33,0
-0.1851677745580673,-1.0089244842529297,-0.0165367145091295,-0.6233906745910645,3.0732877254486084,80.85923767089844,25.33,0
-0.1748077571392059,-1.1344760656356812,-0.0162100866436958,-0.1421107947826385,3.073003053665161,80.85951232910156,25.33,0
-0.1905504018068313,-1.187058925628662,-0.0104027008637785,0.3064673840999603,3.0728204250335693,80.85968780517578,25.29,0
-0.2062508910894394,-1.148032546043396,-0.0122736291959881,0.6624079346656799,3.072703123092652,80.85980224609375,25.29,0
-0.2107287943363189,-1.1173899173736572,-0.0246698316186666,0.905160427093506,3.0726277828216557,80.85987091064453,25.29,0
-0.2136024534702301,-1.1201162338256836,-0.0774071961641311,1.1469268798828125,3.0725796222686768,80.85991668701172,25.29,0
-0.2210443764925003,-1.0938769578933716,-0.133642092347145,1.4847899675369265,3.0725486278533936,80.85994720458984,25.29,0
-0.2258201688528061,-1.021060347557068,-0.1865237355232238,1.6729503870010376,3.072528839111328,80.85997009277344,25.29,0
-0.2232872247695922,-0.951939821243286,-0.2204601317644119,1.3745396137237549,3.0725159645080566,80.85997772216797,25.29,0
-0.2104661762714386,-0.9075822234153748,-0.2590318918228149,0.6958065032958984,3.072507858276367,80.8599853515625,25.29,0
-0.196640595793724,-0.8791160583496094,-0.2949805557727813,0.0381149463355541,3.0669939517974854,80.85999298095703,25.29,0
-0.1877681314945221,-0.8608481287956238,-0.3124525845050812,-0.4197793900966644,3.06345534324646,80.85999298095703,25.29,0
-0.1596831977367401,-0.8491248488426208,-0.3124695718288421,-0.7960288524627686,3.0611846446990967,80.85999298095703,25.29,0
-0.1528554558753967,-0.8471992611885071,-0.301284909248352,-1.1485439538955688,3.059727430343628,80.85999298095703,25.29,0
-0.1540715843439102,-0.8571590781211853,-0.2717161476612091,-1.285203456878662,3.0587921142578125,80.85999298095703,25.29,0
-0.1548520177602768,-0.880344033241272,-0.230349525809288,-1.064802169799805,3.058192014694214,80.85999298095703,25.29,0
-0.1553528606891632,-0.9008206129074096,-0.1926072686910629,-0.7263196706771851,3.057806968688965,80.85999298095703,25.29,0
-0.1388809382915496,-0.9475479125976562,-0.1627886742353439,-0.6524040699005127,3.0575597286224365,80.85999298095703,25.29,0
-0.1227124407887458,-0.9831326007843018,-0.1436528265476226,-0.8557496070861816,3.057401180267334,80.85999298095703,25.29,0
-0.1067386493086814,-1.000370979309082,-0.1089814379811286,-0.9969927668571472,3.0572993755340576,80.85999298095703,25.29,0
-0.0964875966310501,-1.0786069631576538,-0.1091224327683448,-0.732959508895874,3.057234048843384,80.97105407714844,25.29,0
-0.0955068320035934,-1.1847920417785645,-0.1260062456130981,0.0670151188969612,3.057192087173462,81.04232788085938,25.29,0
-0.1228663027286529,-1.2305443286895752,-0.1088524237275123,1.1106139421463013,3.0571651458740234,81.08806610107422,25.29,0
-0.1572173684835434,-1.2263189554214478,-0.081050768494606,1.629867434501648,3.057147979736328,81.11741638183594,25.29,0
-0.1288819313049316,-1.1508362293243408,-0.0408181697130203,1.1677626371383667,3.0571367740631104,81.1362533569336,25.29,0
0.0180509351193904,-1.1135913133621216,-0.0429880768060684,0.3266589343547821,3.0571296215057373,81.14834594726562,25.29,0
0.1683217287063598,-1.0952874422073364,-0.0499783717095851,-0.0483145639300346,3.059420347213745,81.1561050415039,25.29,0
0.1975835859775543,-1.072345495223999,-0.0656598880887031,0.0048202509060502,3.0608904361724854,81.16107940673828,25.29,0
0.1827755123376846,-1.02963387966156,-0.0701256096363067,0.0532494150102138,3.0618338584899902,81.16427612304688,25.29,0
0.1172948032617569,-0.9630395770072936,-0.0506003536283969,0.1201542243361473,3.062439441680908,81.16632843017578,25.29,0
0.0472841821610927,-0.8923143148422241,-0.0212768465280532,0.3350535333156585,3.062828063964844,81.16764068603516,25.29,0
-0.0144379306584596,-0.8469269275665283,-0.002458706498146,0.4371377527713775,3.063077449798584,81.16848754882812,25.29,0
-0.0652431771159172,-0.823397696018219,0.0040199179202318,0.2697821259498596,3.063237428665161,81.16902923583984,25.29,0
-0.0978470593690872,-0.8027001619338989,0.0025797518901526,0.0441579110920429,3.063340187072754,81.16937255859375,25.29,0
-0.1075748056173324,-0.7894176840782166,0.0240466333925724,-0.1113824397325515,3.0606517791748047,81.16959381103516,25.33,0
-0.1362086087465286,-0.7808938026428223,0.0378228425979614,-0.3222591280937195,3.058926582336426,81.16973876953125,25.33,0
-0.1657796800136566,-0.7866191864013672,0.0522613935172557,-0.6689596176147461,3.057819366455078,81.16983032226562,25.33,0
-0.2183433473110199,-0.8518689274787903,0.0783205479383468,-1.031172513961792,3.0571088790893555,81.16989135742188,25.33,0
-0.257673442363739,-0.9161335825920104,0.0894460380077362,-1.1848032474517822,3.056652784347534,81.16992950439453,25.33,0
-0.2549243867397308,-0.951777160167694,0.0965857356786727,-0.9143892526626588,3.056360244750977,81.16995239257812,25.33,0
-0.2419646382331848,-1.0250310897827148,0.0787764862179756,-0.1927190572023391,3.0561723709106445,81.16996765136719,25.33,0
-0.2504411339759826,-1.1560078859329224,0.0449564382433891,0.6394126415252686,3.056051731109619,81.16997528076172,25.33,0
-0.3398474752902984,-1.2792456150054932,0.0232526790350675,1.1626790761947632,3.061483144760132,81.16998291015625,25.33,0
-0.3860277831554413,-1.2127903699874878,0.0205200053751468,1.333682894706726,3.0649685859680176,81.16999053955078,25.33,0
-0.2925125956535339,-1.0805789232254028,0.0131685584783554,1.346693754196167,3.0672054290771484,81.16999053955078,25.33,0
-0.1933155208826065,-1.0741020441055298,-0.0083425007760524,1.2798092365264893,3.068640947341919,81.16999053955078,25.33,0
-0.1408520936965942,-1.0755432844161987,-0.0389403812587261,1.0864185094833374,3.0695619583129883,81.16999053955078,25.33,0
-0.1183796375989914,-1.0652726888656616,-0.0865652114152908,0.7079485654830933,3.07015323638916,81.16999053955078,25.33,0
-0.1039581075310707,-1.025094985961914,-0.1059325411915779,0.142636552453041,3.0705325603485107,81.16999053955078,25.33,0
-0.117094300687313,-0.988115668296814,-0.0959702804684639,-0.4637632668018341,3.070775985717773,81.16999053955078,25.33,0
-0.1479154527187347,-0.9643844366073608,-0.0895770713686943,-0.9496453404426576,3.066800832748413,81.16999053955078,25.33,0
-0.1788902431726455,-0.9379595518112184,-0.085474282503128,-1.325942873954773,3.0642497539520264,81.16999053955078,25.33,0
-0.1875725239515304,-0.8986104726791382,-0.0716457962989807,-1.52085542678833,3.062612533569336,81.16999053955078,25.33,0
-0.1931443214416504,-0.8789563179016113,-0.0571736954152584,-1.3414201736450195,3.061561822891236,81.27388763427734,25.33,0
-0.2247088402509689,-0.8775389194488525,-0.0366907864809036,-0.9181674718856812,3.060887575149536,81.34056091308594,25.33,0
-0.2561606764793396,-0.8710315823554993,-0.0179482605308294,-0.6143050789833069,3.060454845428467,81.38335418701172,25.33,0
-0.2931379973888397,-0.8612577319145203,-0.0059203854762017,-0.5052855014801025,3.0601773262023926,81.41081237792969,25.33,0
-0.3504545390605926,-0.8493877053260803,-0.0037993625737726,-0.4604010283946991,3.059999227523804,81.42843627929688,25.33,0
-0.3984325528144836,-0.8473679423332214,-0.0024382122792303,-0.4351793229579925,3.0612618923187256,81.43974304199219,25.33,0
-0.4348198473453522,-0.8516695499420166,0.0040330700576305,-0.3043510615825653,3.062072277069092,81.4469985961914,25.33,0
-0.4525733590126037,-0.8768211603164673,0.0193815156817436,0.184438019990921,3.0625922679901123,81.45165252685547,25.33,0
-0.4527709782123565,-0.8985598087310791,0.0292312651872634,1.0104230642318726,3.0629260540008545,81.45464324951172,25.33,0
-0.4305067062377929,-0.9404993057250975,0.0131611693650484,1.7267866134643557,3.063140392303467,81.45655822753906,25.33,0
-0.3994254469871521,-1.0177936553955078,-0.0251405648887157,1.8927363157272337,3.0632777214050293,81.45779418945312,25.33,0
-0.3906748592853546,-1.1457655429840088,-0.0497204139828681,1.569324254989624,3.063365936279297,81.45858764648438,25.33,0
-0.3962547779083252,-1.0431640148162842,-0.0095166023820638,1.171900510787964,3.063422679901123,81.45909118652344,25.33,0
-0.3830423057079315,-0.9829179644584656,0.0162838902324438,0.9347696304321288,3.064836025238037,81.45941925048828,25.31,0
-0.3185855746269226,-1.039417743682861,0.021645613014698,0.7324366569519043,3.0657432079315186,81.45962524414062,25.31,0
-0.2436342984437942,-1.0476871728897097,0.0306842308491468,0.4019667506217956,3.066325426101685,81.45976257324219,25.31,0
-0.1283615976572036,-0.9970162510871888,0.0364846959710121,-0.0537249371409416,3.0666990280151367,81.45984649658203,25.31,0
-0.0879728570580482,-0.9365096688270568,0.0458048768341541,-0.5109601616859436,3.066938638687134,81.45989990234375,25.31,0
-0.0844447910785675,-0.8920822739601135,0.0517860315740108,-0.8366305232048035,3.0670924186706543,81.4599380493164,25.31,0
-0.1269628703594207,-0.835582435131073,0.0500266179442405,-0.9739755392074584,3.0671911239624023,81.4599609375,25.31,0
-0.1710418462753296,-0.7937263250350952,0.0544953010976314,-1.0227073431015017,3.067254543304444,81.45997619628906,25.31,0
-0.1993291974067688,-0.7892565727233887,0.0685585960745811,-1.1220495700836182,3.06821346282959,81.4599838256836,25.31,0
-0.2174824029207229,-0.7863881587982178,0.0887791588902473,-1.2789485454559326,3.068828821182251,81.45999145507812,25.31,0
-0.2347298562526703,-0.7845473885536194,0.1073533222079277,-1.365307092666626,3.069223642349243,81.45999145507812,25.31,0
-0.2513960599899292,-0.8225504755973816,0.1360664814710617,-1.2415982484817505,3.069477081298828,81.45999145507812,25.31,0
-0.2676892280578613,-0.8637320399284363,0.1600906997919082,-0.9329241514205932,3.0696396827697754,81.45999145507812,25.31,0
-0.2837430238723755,-0.9125510454177856,0.1755080670118332,-0.5377932786941528,3.069744110107422,81.45999145507812,25.31,0
-0.2884476482868194,-0.9494780898094176,0.1742064952850341,0.0704539865255355,3.0698111057281494,81.45999145507812,25.31,0
-0.2970645725727081,-0.9843712449073792,0.1621756702661514,1.012508749961853,3.069854021072388,81.45999145507812,25.31,0
-0.3193877637386322,-1.045948147773743,0.1488572061061859,1.8284372091293333,3.0717177391052246,81.45999145507812,25.31,0
-0.3449090421199798,-1.119051218032837,0.1347124129533767,1.8576576709747317,3.072913646697998,81.45999145507812,25.31,0
-0.4004715383052826,-1.193953514099121,0.1088417693972587,1.1993029117584229,3.073681116104126,81.45999145507812,25.31,0
-0.3969439268112182,-1.090881586074829,0.064250610768795,0.5511064529418945,3.07417368888855,81.45999145507812,25.31,0
-0.3778868019580841,-0.9911493062973022,0.0356345698237419,0.2354433834552765,3.0744898319244385,81.55313873291016,25.31,0
-0.3152770698070526,-0.9719290137290956,-0.005120656453073,0.1725894659757614,3.074692726135254,81.6129150390625,25.31,0
-0.2527066469192505,-0.9875834584236144,-0.0424705632030963,0.3364602327346802,3.074822902679444,81.65128326416016,25.31,0
-0.2069547772407531,-1.0480095148086548,-0.1112217828631401,0.5670132040977478,3.074906349182129,81.6759033203125,25.31,0
-0.1943871825933456,-1.0252119302749634,-0.1441468000411987,0.4641885459423065,3.0731239318847656,81.69170379638672,25.31,0
-0.1975175738334655,-0.993788480758667,-0.1428850889205932,-0.0496203675866127,3.0719799995422363,81.70184326171875,25.31,0
-0.2219175696372985,-0.9624271392822266,-0.1196842938661575,-0.4904131591320038,3.0712459087371826,81.7083511352539,25.31,0
-0.2487716376781463,-0.9367035031318665,-0.0991975888609886,-0.4508568048477173,3.070774793624878,81.7125244140625,25.31,0
-0.2548094689846039,-0.8922066688537598,-0.0860503986477851,-0.1424483507871627,3.070472478866577,81.71520233154297,25.31,0
-0.2474886626005172,-0.8524556159973145,-0.0608199685811996,-0.0591719709336757,3.0702784061431885,81.7169189453125,25.31,0
-0.2371928244829177,-0.8213478922843933,-0.0334329791367054,-0.2636754214763641,3.070153951644897,81.71802520751953,25.31,0
-0.241781085729599,-0.8125802874565125,-0.0102598136290907,-0.4199919998645782,3.0700740814208984,81.71873474121094,25.31,0
-0.2503233551979065,-0.8125514984130859,-0.0009863830637186,-0.4952289462089538,3.0741539001464844,81.71918487548828,25.31,0
-0.2837941646575928,-0.8293263912200928,-0.0118285529315471,-0.7190579175949097,3.076771974563598,81.71947479248047,25.31,0
-0.3220671117305755,-0.8624826073646545,-0.018786434084177,-0.9415151476860046,3.078452110290528,81.71966552734375,25.31,0
-0.3522262573242187,-0.9005537033081055,-0.0232516005635261,-0.7510958313941956,3.079530477523804,81.71978759765625,25.31,0
-0.3659828901290893,-0.9473766684532166,-0.0317148603498935,-0.1165873855352401,3.0802223682403564,81.71986389160156,25.31,0
-0.3636155724525451,-0.9662293791770936,-0.0315483212471008,0.5807923078536987,3.0806665420532227,81.71990966796875,25.31,0
-0.3397052586078644,-1.011914610862732,-0.0538325421512126,0.9065228700637816,3.080951452255249,81.71994018554688,25.31,0
-0.3131654560565948,-1.1979703903198242,-0.1073176935315132,0.7358049750328064,3.08113431930542,81.71996307373047,25.31,0
-0.3297203779220581,-1.2837836742401123,-0.1304458379745483,0.4256238043308258,3.0794155597686768,81.71997833251953,25.31,0
-0.3795287907123565,-1.1037471294403076,-0.0781148523092269,0.344792366027832,3.078312635421753,81.71998596191406,25.31,0
-0.4114929735660553,-0.9770145416259766,-0.0333362929522991,0.3072496950626373,3.0776047706604004,81.7199935913086,25.31,0
-0.4040168523788452,-1.002042531967163,0.000997785013169,0.0359592586755752,3.077150583267212,81.7199935913086,25.31,0
-0.3488391637802124,-0.9789196848869324,0.0118358694016933,-0.3172681033611297,3.07685923576355,81.7199935913086,25.31,0
-0.2686471045017242,-0.9472874402999878,0.018791127949953,-0.5582793951034546,3.076672077178955,81.7199935913086,25.31,0
-0.1612066924571991,-0.9101943969726562,0.0456457138061523,-0.7810154557228088,3.076552152633667,81.7199935913086,25.31,0
-0.0922576263546943,-0.886390209197998,0.0684772133827209,-1.049344778060913,3.076475143432617,81.7199935913086,25.31,0
-0.0592056326568126,-0.8655162453651428,0.0775313824415206,-1.2322908639907837,3.0759668350219727,81.7199935913086,25.31,0
-0.0603858642280101,-0.8465227484703064,0.0777440518140792,-1.2708784341812134,3.0756404399871826,81.7199935913086,25.31,0
-0.0779365897178649,-0.8287360668182373,0.0778805315494537,-1.1917470693588257,3.0754311084747314,81.7199935913086,25.31,0
-0.1171885132789611,-0.8117238283157349,0.0891636610031127,-0.9331757426261902,3.075296640396118,81.7199935913086,25.31,0
-0.153573676943779,-0.8008063435554504,0.1020023003220558,-0.4376425743103027,3.0752105712890625,81.7199935913086,25.31,0
-0.1657280325889587,-0.8161912560462952,0.1270347237586975,0.0809863209724426,3.075155258178711,81.73790740966797,25.31,0
-0.1847235560417175,-0.8596510291099548,0.1486968696117401,0.2812571823596954,3.075119733810425,81.74940490722656,25.31,0
-0.2025115638971328,-0.9099321365356444,0.1625983864068985,0.2664764821529388,3.075096845626831,81.75678253173828,25.31,0
-0.2083291113376617,-0.9981773495674132,0.1659218072891235,0.6009183526039124,3.0732462406158447,81.76152038574219,25.31,0
-0.2064646929502487,-1.071601390838623,0.1680545806884765,1.449659824371338,3.0720584392547607,81.76455688476562,25.31,0
-0.2108660042285919,-1.118720769882202,0.1358366310596466,2.209287643432617,3.071296215057373,81.7665023803711,25.31,0
-0.2304838299751281,-1.171350359916687,0.0983676761388778,2.2955245971679688,3.070807218551636,81.76775360107422,25.31,0
-0.2598667442798614,-1.199527144432068,0.074322260916233,1.845723390579224,3.070493221282959,81.7685546875,25.31,0
-0.3011141121387481,-1.2232072353363037,0.0588912963867187,1.2668782472610474,3.070291757583618,81.76907348632812,25.31,0
-0.32758429646492,-1.2104148864746094,0.0489885918796062,0.737775444984436,3.070162534713745,81.76940155029297,25.31,0
-0.3389735519886017,-1.1182388067245483,0.0594269298017025,0.4233057498931885,3.0700795650482178,81.76961517333984,25.31,0
-0.3015003204345703,-1.025498867034912,0.054930105805397,0.475860059261322,3.0686492919921875,81.7697525024414,25.31,0
-0.2662566304206848,-0.9827770590782166,0.0408487543463707,0.6528894305229187,3.0677313804626465,81.76983642578125,25.31,0
-0.2548348009586334,-0.988947331905365,0.0262143798172473,0.583785355091095,3.0671422481536865,81.7698974609375,25.31,0
-0.2475049197673797,-0.9873092770576476,0.0112251052632927,0.3101534843444824,3.0667641162872314,81.76993560791016,25.31,0
-0.2316054850816726,-0.9526714086532592,0.0016058523906394,0.0449878983199596,3.066521644592285,81.76995849609375,25.31,0
-0.2102065831422805,-0.9248450398445128,-0.0101650059223175,-0.2326573878526687,3.066365957260132,81.76997375488281,25.31,0
-0.1964740008115768,-0.9013898968696594,-0.012121089734137,-0.5899629592895508,3.0662660598754883,81.76998138427734,25.31,0
-0.2044545412063598,-0.8583488464355469,-0.0077786175534129,-0.9374860525131226,3.06620192527771,81.76998901367188,25.31,0
-0.2207715511322021,-0.8307275772094727,-0.0049918689765036,-1.2106624841690063,3.063406229019165,81.76998901367188,25.31,0
-0.2368406355381012,-0.8130018711090088,-0.0032034942414611,-1.3644758462905884,3.0616118907928467,81.76998901367188,25.31,0
-0.2247617542743683,-0.8072242736816406,0.0035419561900198,-1.337794303894043,3.060460567474365,81.76998901367188,25.31,0
-0.2114124447107315,-0.8147121071815491,0.0078707979992032,-1.2346898317337036,3.059721708297729,81.76998901367188,25.31,0
-0.1916500777006149,-0.8419084548950195,0.0106487991288304,-1.233009696006775,3.0592474937438965,81.76998901367188,25.31,0
-0.1789677292108535,-0.8705570697784424,0.0068337861448526,-1.21043598651886,3.058943271636963,81.76998901367188,25.31,0
-0.1820244789123535,-0.9281265139579772,-0.0012122438056394,-0.8878479599952698,3.0587480068206787,81.76998901367188,25.31,0
-0.2063772231340408,-0.9874624013900756,0.0048198257572948,-0.3906409442424774,3.0586225986480717,81.76998901367188,25.31,0
-0.2276031821966171,-1.0535296201705933,0.0030930866487324,-0.1324658691883087,3.059001445770264,81.76998901367188,25.31,0
-0.2580181062221527,-1.168698787689209,0.0131805138662457,-0.1387476027011871,3.0592446327209477,81.76998901367188,25.31,0
-0.2999277412891388,-1.192227840423584,0.0476429164409637,-0.0173887051641941,3.05940055847168,81.76998901367188,25.31,0
-0.3436162769794464,-1.0953718423843384,0.1145410984754562,0.2575340867042541,3.0595006942749023,81.76998901367188,25.31,0
-0.3324686288833618,-1.0500086545944214,0.1238858550786972,0.2476697862148285,3.0595648288726807,81.76998901367188,25.31,0
-0.2917280793190002,-1.0376904010772705,0.1074916794896125,-0.2172302156686782,3.059606075286865,81.76998901367188,25.31,0
-0.2040076106786728,-1.0297852754592896,0.0745797455310821,-0.8236777782440186,3.059632539749145,81.77357482910156,25.31,0
-0.136518120765686,-1.0135166645050049,0.0590565353631973,-1.263016939163208,3.0596494674682617,81.77587890625,25.31,0
-0.1155983433127403,-0.9582942724227904,0.0658879578113555,-1.469725489616394,3.0633327960968018,81.77735137939453,25.31,0
-0.1357598751783371,-0.911660134792328,0.0422830991446971,-1.4769890308380127,3.0656967163085938,81.7782974243164,25.31,0
-0.1598939448595047,-0.8929286003112793,0.0047437599860131,-1.4350768327713013,3.067213773727417,81.7789077758789,25.31,0
-0.2089684456586837,-0.8753100037574768,-0.0361401513218879,-1.5335701704025269,3.0681872367858887,81.779296875,25.31,0
-0.257254958152771,-0.8640034198760986,-0.0679748654365539,-1.7364978790283203,3.0688118934631348,81.77954864501953,25.31,0
-0.2994379997253418,-0.8567475080490112,-0.094002328813076,-1.8129866123199463,3.069212913513184,81.77970886230469,25.31,0
-0.2873242497444153,-0.8520910739898682,-0.1051074787974357,-1.618457555770874,3.069470167160034,81.77981567382812,25.31,0
-0.2627570033073425,-0.8547006249427795,-0.1066363528370857,-1.1389449834823608,3.069635391235352,81.7798843383789,25.31,0
-0.2357956171035766,-0.8787663578987122,-0.0908241719007492,-0.480129063129425,3.0669870376586914,81.77992248535156,25.31,0
-0.2184933423995971,-0.8998081088066101,-0.0806768238544464,0.2077716886997223,3.0652873516082764,81.77995300292969,25.31,0
-0.2241830676794052,-0.935702621936798,-0.0629692897200584,1.0182321071624756,3.0641965866088867,81.77996826171875,25.31,0
-0.227834403514862,-0.9699332118034364,-0.0460078381001949,2.118716239929199,3.0634965896606445,81.77997589111328,25.31,0
-0.2189820706844329,-1.0254870653152466,-0.0351229570806026,3.2942609786987305,3.063047409057617,81.77998352050781,25.31,0
-0.2244967073202133,-1.1339093446731567,-0.0169421173632144,4.098814010620117,3.0627591609954834,81.77999114990234,25.31,0
-0.2504267692565918,-1.2314774990081787,0.0059208460152149,4.364349365234375,3.0625741481781006,81.77999114990234,25.31,0
-0.289458304643631,-1.1373534202575684,0.0149952070787549,4.190827369689941,3.062455415725708,81.77999114990234,25.31,0
-0.2865176200866699,-1.0937433242797852,-0.0183658115565776,3.764204502105713,3.063756465911865,81.77999114990234,25.31,0
-0.2790326774120331,-1.1105390787124634,-0.0453727655112743,3.304128646850586,3.064591407775879,81.77999114990234,25.31,0
-0.2686314880847931,-1.0933287143707275,-0.073899820446968,2.887070894241333,3.06512713432312,81.77999114990234,25.31,0
-0.2563588321208954,-1.0542951822280884,-0.1034023985266685,2.3077430725097656,3.065470933914185,81.77999114990234,25.31,0
-0.2484829574823379,-0.9844635725021362,-0.1335310041904449,1.423655390739441,3.0656917095184326,81.77999114990234,25.31,0
-0.2490264475345611,-0.9340518712997437,-0.164061352610588,0.4263897836208343,3.065833330154419,81.77999114990234,25.31,0
-0.260570764541626,-0.9017005562782288,-0.1836539804935455,-0.3927266597747803,3.0659241676330566,81.77999114990234,25.31,0
-0.2847725749015808,-0.8865371346473694,-0.2018251717090606,-0.950631618499756,3.0659825801849365,81.77999114990234,25.31,0
-0.3003039062023163,-0.8824038505554199,-0.2190841734409332,-1.3337409496307373,3.062347412109375,81.77999114990234,25.31,0
-0.3102710247039795,-0.8853491544723511,-0.2245622277259826,-1.661997675895691,3.0600147247314453,81.77999114990234,25.31,0
-0.3110695779323578,-0.9152281284332277,-0.2224799543619156,-2.037452459335327,3.0585176944732666,81.77999114990234,25.31,0
-0.3115820288658142,-0.9344027638435364,-0.2155458927154541,-2.425283193588257,3.0575568675994877,81.77999114990234,25.31,0
-0.29511758685112,-0.9467079043388368,-0.1999004632234573,-2.5666935443878174,3.0569403171539307,81.77999114990234,25.31,0
-0.27895388007164,-0.96020245552063,-0.1786645799875259,-2.23828125,3.056544780731201,81.77999114990234,25.31,0
-0.2741787135601043,-1.0192424058914185,-0.1594388335943222,-1.5761204957962036,3.056290864944458,81.77999114990234,25.31,0
-0.2711142897605896,-1.0627286434173584,-0.1582964062690735,-0.8968209624290466,3.0561277866363525,81.80865478515625,25.31,0
-0.2747454941272735,-1.146613359451294,-0.1743565946817398,-0.2674265801906585,3.0541868209838867,81.8270492553711,25.31,0
-0.3274557590484619,-1.183652400970459,-0.139880895614624,0.3084461688995361,3.05294132232666,81.83885192871094,25.31,0
-0.3892710506916046,-1.1122597455978394,-0.0897675082087516,0.5454528331756592,3.0521419048309326,81.84642791748047,25.31,0
-0.3617672324180603,-1.0328574180603027,-0.0799987167119979,0.3321273624897003,3.051628828048706,81.85128784179688,25.31,0
-0.2657480239868164,-1.0658681392669678,-0.1073163151741027,0.1773144751787185,3.051299571990967,81.85440826416016,25.31,0
-0.181737333536148,-1.1038459539413452,-0.119249403476715,0.4433871805667877,3.051088333129883,81.85641479492188,25.31,0
-0.1278241127729416,-1.0834356546401978,-0.1101140528917312,0.7072842717170715,3.050952672958374,81.85769653320312,25.31,0
-0.1212145760655403,-1.0311530828475952,-0.1042515039443969,0.5362935662269592,3.050865650177002,81.8585205078125,25.31,0
-0.1505596041679382,-0.986405611038208,-0.1284781396389007,0.2044418901205063,3.0475966930389404,81.85905456542969,25.31,0
-0.1805870980024337,-0.9352981448173524,-0.1832098066806793,0.1670247912406921,3.045498847961426,81.85939025878906,25.31,0
-0.205454796552658,-0.8969025611877441,-0.2295289933681488,0.3830452263355255,3.0441524982452397,81.85961151123047,25.31,0
-0.2214134484529495,-0.8834580183029175,-0.259253978729248,0.5718307495117188,3.043288469314575,81.85974884033203,25.31,0
-0.2372525781393051,-0.8860256671905518,-0.2783297598361969,0.5783399939537048,3.042734146118164,81.8598403930664,25.31,0
-0.2474172115325927,-0.90446674823761,-0.2961692810058594,0.3711453080177307,3.042378187179565,81.85990142822266,25.31,0
-0.2371469736099243,-0.9107033610343932,-0.2964221239089966,0.0017296945443376,3.042149782180786,81.85993957519531,25.31,0
-0.2081650197505951,-0.9091079235076904,-0.2853888273239136,-0.414468765258789,3.0420033931732178,81.8599624633789,25.31,0
-0.1671749800443649,-0.9080840349197388,-0.2503194212913513,-0.8105337023735046,3.041450500488281,81.85997772216797,25.31,0
-0.1296743750572204,-0.901829183101654,-0.2110205590724945,-1.1650174856185913,3.041095733642578,81.8599853515625,25.31,0
-0.1056086495518684,-0.8922173976898193,-0.1634097248315811,-1.3459312915802002,3.040868043899536,81.85999298095703,25.31,0
-0.1069579720497131,-0.9084402322769164,-0.116062507033348,-1.132434368133545,3.040721893310547,81.85999298095703,25.31,0
-0.1246172115206718,-0.9244489073753356,-0.0856777876615524,-0.4257948696613312,3.04062819480896,81.85999298095703,25.31,0
-0.135949894785881,-0.962711215019226,-0.0661786198616027,0.5435765981674194,3.0405678749084477,81.85999298095703,25.31,0
-0.1488203406333923,-1.0432435274124146,-0.0536651760339736,1.1764111518859863,3.040529251098633,81.85999298095703,25.31,0
-0.1850687116384506,-1.20687997341156,-0.0456347689032554,1.07021963596344,3.0405044555664062,81.85999298095703,25.31,0
-0.213928610086441,-1.24471914768219,-0.0460790917277336,0.6008235216140747,3.042324542999268,81.85999298095703,25.31,0
-0.2268514633178711,-1.1682422161102295,-0.0687553286552429,0.4106519818305969,3.043492555618286,81.85999298095703,25.31,0
-0.2295468300580978,-1.169543743133545,-0.1001009568572044,0.4856525063514709,3.044242143630981,81.85999298095703,25.31,0
-0.2256787866353988,-1.159183382987976,-0.1426078677177429,0.440636545419693,3.0447232723236084,81.85999298095703,25.31,0
-0.2120009511709213,-1.079763650894165,-0.1866796910762787,0.2505320012569427,3.045032024383545,81.85999298095703,25.31,0
-0.2032233029603958,-0.9896122217178344,-0.214962437748909,-0.0147692020982503,3.0452301502227783,81.85999298095703,25.31,0
-0.2031880915164947,-0.926160454750061,-0.2611015439033508,-0.4286393523216247,3.0453572273254395,81.85999298095703,25.31,0
-0.2087632566690445,-0.9022340774536132,-0.3075042963027954,-0.8160449862480164,3.045438766479492,81.85999298095703,25.31,0
-0.2235366255044937,-0.8868795037269592,-0.3372829258441925,-0.8747830986976624,3.041359663009644,81.89940643310547,25.31,0
-0.2274195551872253,-0.8770257830619812,-0.3451975882053375,-0.7440968155860901,3.0387420654296875,81.92469787597656,25.31,0
-0.2131180763244629,-0.8707022666931152,-0.339081197977066,-0.7318813800811768,3.037062168121338,81.94092559814453,25.31,0
-0.203940212726593,-0.8834375143051147,-0.312764972448349,-0.8207717537879944,3.0359840393066406,81.95133972167969,25.31,0
-0.1868548393249511,-0.9028058052062988,-0.2734856307506561,-0.8563210368156433,3.035292148590088,81.95802307128906,25.31,0
-0.1702926456928253,-0.9152352809906006,-0.2370828539133072,-0.7644920945167542,3.034848213195801,81.96231079101562,25.31,0
-0.1484684348106384,-0.912016212940216,-0.2025260925292968,-0.3974600732326507,3.0345633029937744,81.9650650024414,25.31,0
-0.1288651376962661,-0.926743745803833,-0.1747517883777618,0.3432231247425079,3.0343804359436035,81.96683502197266,25.31,0
-0.1330782026052475,-0.9641839265823364,-0.1625256091356277,1.1481479406356812,3.0383944511413574,81.96797180175781,25.33,0
-0.1637707650661468,-1.0050041675567627,-0.1434839963912964,1.496321201324463,3.04097056388855,81.96869659423828,25.33,0
-0.1834674924612045,-1.0256024599075315,-0.1312641948461532,1.2396937608718872,3.04262375831604,81.96916198730469,25.33,0
-0.1737166196107864,-1.1059945821762085,-0.1346177756786346,0.8027292490005493,3.043684720993042,81.9694595336914,25.33,0
-0.1618613004684448,-1.1967700719833374,-0.1367699056863784,0.6262052655220032,3.044365406036377,81.96965026855469,25.33,0
-0.1598510146141052,-1.1934490203857422,-0.110162153840065,0.7314594388008118,3.044802188873291,81.96977233886719,25.33,0
-0.1249742805957794,-1.1129488945007324,-0.0818912759423255,0.927978217601776,3.0450825691223145,81.96985626220703,25.33,0
-0.0690057501196861,-1.061288595199585,-0.0749442055821418,1.0433449745178225,3.045262575149536,81.96990966796875,25.33,0
0.0452804751694202,-1.044929265975952,-0.1096703931689262,0.8916784524917603,3.044919013977051,81.96994018554688,25.33,0
0.124220572412014,-1.0400285720825195,-0.1431512087583542,0.4110120236873626,3.044698715209961,81.96996307373047,25.33,0
0.1189020350575447,-1.0144925117492676,-0.1478439569473266,-0.0694156661629676,3.0445573329925537,81.96997833251953,25.33,0
0.076304480433464,-0.9365293979644777,-0.1284643858671188,-0.1520242542028427,3.044466495513916,81.96998596191406,25.33,0
0.0265767257660627,-0.8864971399307251,-0.1160276979207992,0.0600729174911975,3.0444083213806152,81.9699935913086,25.33,0
-0.0333245582878589,-0.8599870800971985,-0.1136443167924881,0.0851248204708099,3.0443708896636963,81.9699935913086,25.33,0
-0.0549724288284778,-0.854170024394989,-0.1121148020029068,-0.2821338772773742,3.044346809387207,81.9699935913086,25.33,0
-0.0632670149207115,-0.8448392152786255,-0.0999376997351646,-0.8187557458877563,3.0443315505981445,81.9699935913086,25.33,0
-0.0853833258152008,-0.8388512134552002,-0.0697320401668548,-1.2706060409545898,3.0420262813568115,81.9699935913086,25.33,0
-0.105174072086811,-0.835008442401886,-0.0447500087320804,-1.5856555700302124,3.0405468940734863,81.9699935913086,25.33,0
-0.1122768595814704,-0.8269446492195129,-0.0231202058494091,-1.8164968490600584,3.039597511291504,81.9699935913086,25.33,0
-0.1112372428178787,-0.8273675441741943,-0.0148372175171971,-1.9897154569625852,3.0389883518218994,81.9699935913086,25.33,0
-0.1105700805783271,-0.8500300049781799,-0.0151194464415311,-1.957574248313904,3.038597345352173,81.9699935913086,25.33,0
-0.1213374808430671,-0.8645734786987305,-0.0041050161235034,-1.3888137340545654,3.038346529006958,81.9699935913086,25.33,0
-0.1338451504707336,-0.8906999826431274,0.0029634116217494,-0.2463971227407455,3.0381855964660645,81.9699935913086,25.33,0
-0.147469624876976,-0.991433084011078,-0.0204893499612808,0.873658299446106,3.038082361221313,81.9699935913086,25.33,0
-0.1506152600049972,-1.168033242225647,-0.0691266283392906,1.3810733556747437,3.041229486465454,81.9699935913086,25.33,0
-0.197416141629219,-1.320549488067627,-0.083545908331871,1.4236797094345093,3.0432491302490234,81.99149322509766,25.33,0
-0.1658747345209121,-1.093754768371582,-0.0592127293348312,1.4653522968292236,3.0445451736450195,82.00528717041016,25.33,0
-0.1120466291904449,-0.96500426530838,-0.0379993207752704,1.5637469291687012,3.045377016067505,82.0141372680664,25.33,0
-0.0327206552028656,-0.9831395149230956,-0.0691679716110229,1.480005383491516,3.0459108352661133,82.01982116699219,25.33,0
0.0013928646221756,-1.0171687602996826,-0.1227568611502647,1.0823376178741455,3.0462534427642822,82.02346801757812,25.33,0
-0.0438883379101753,-1.0446045398712158,-0.1627449095249176,0.3793153166770935,3.046473264694214,82.02581024169922,25.33,0
-0.1009360775351524,-1.0286246538162231,-0.1380269676446914,-0.4014408886432647,3.046614170074463,82.02731323242188,25.33,0
-0.13754603266716,-1.0351629257202148,-0.1053710877895355,-0.8881549835205078,3.0444095134735107,82.02827453613281,25.31,0
-0.1498446464538574,-1.0113699436187744,-0.0844144225120544,-0.9353894591331482,3.042994499206543,82.02889251708984,25.31,0
-0.1689327359199524,-0.9793077111244202,-0.0765634179115295,-0.7328343987464905,3.042086601257324,82.02928924560547,25.31,0
-0.1923779249191284,-0.9307431578636168,-0.0603295415639877,-0.5562727451324463,3.04150390625,82.029541015625,25.31,0
-0.218619242310524,-0.8883816599845886,-0.0387160256505012,-0.5719383955001831,3.0411300659179688,82.02970123291016,25.31,0
-0.235459417104721,-0.866794228553772,-0.0192479416728019,-0.7396249771118164,3.040889978408813,82.0298080444336,25.31,0
-0.2574620246887207,-0.8473429083824158,-0.0011566722532734,-0.8149934411048889,3.040735960006714,82.02987670898438,25.31,0
-0.2771798074245453,-0.8348601460456848,0.010453263297677,-0.6949794888496399,3.0406370162963867,82.02992248535156,25.31,0
-0.3010290861129761,-0.8380450010299683,0.0123060774058103,-0.5498925447463989,3.041491746902466,82.02995300292969,25.31,0
-0.333127498626709,-0.851284384727478,0.0078973323106765,-0.4102105796337127,3.0420403480529785,82.02996826171875,25.31,0
-0.3537264168262481,-0.8653784394264221,0.0050680534914135,0.0269390773028135,3.0423924922943115,82.02997589111328,25.31,0
-0.3501522839069366,-0.9080098867416382,-0.0079431636258959,0.8556106090545654,3.0426185131073,82.02998352050781,25.31,0
-0.3366630673408508,-0.9465638399124146,-0.0218907874077558,1.6704277992248535,3.0427634716033936,82.02999114990234,25.31,0
-0.3112131357192993,-1.0384788513183594,-0.0532326661050319,2.0034539699554443,3.042856454849243,82.02999114990234,25.31,0
-0.3060763776302337,-1.1534422636032104,-0.0845416262745857,1.72277569770813,3.0429160594940186,82.02999114990234,25.31,0
-0.3195732235908508,-1.1824370622634888,-0.0822428241372108,1.0661699771881104,3.042954444885254,82.02999114990234,25.31,0
-0.3394302725791931,-1.1170775890350342,-0.0471809357404708,0.4799997210502624,3.042060852050781,82.02999114990234,25.31,0
-0.3129889667034149,-1.058340311050415,-0.0190824605524539,0.2650452852249145,3.041487455368042,82.02999114990234,25.31,0
-0.1840649843215942,-1.0486350059509275,-0.0346371233463287,0.2739855051040649,3.041119337081909,82.02999114990234,25.31,0
-0.0509490184485912,-1.0032222270965576,-0.0614125318825244,0.1686629652976989,3.0408830642700195,82.02999114990234,25.31,0
0.0120860496535897,-0.9572856426239014,-0.0729976743459701,-0.124629221856594,3.040731430053711,82.02999114990234,25.31,0
-0.009037191979587,-0.8942195177078247,-0.0692368000745773,-0.4776457548141479,3.040634155273437,82.02999114990234,25.31,0
-0.0561795160174369,-0.8369539976119995,-0.0612255148589611,-0.8869028091430664,3.040571689605713,82.02999114990234,25.31,0
-0.1088238433003425,-0.7890087366104126,-0.0504865609109401,-1.332251787185669,3.040531635284424,82.02999114990234,25.31,0
-0.1426079422235489,-0.7526424527168274,-0.0379971414804458,-1.5571473836898804,3.04142427444458,82.02999114990234,25.31,0
-0.1698864102363586,-0.7405002117156982,-0.0299821533262729,-1.3647102117538452,3.041996955871582,82.02999114990234,25.31,0
-0.2041854858398437,-0.7495013475418091,-0.008045271039009,-1.0370084047317505,3.0423645973205566,82.05506896972656,25.31,0
-0.2317944318056106,-0.7664732933044434,0.0116303311660885,-0.9807589650154114,3.042600631713867,82.0711669921875,25.31,0
-0.2551100254058838,-0.8053538203239441,0.0410503223538398,-1.156033277511597,3.0427520275115967,82.08149719238281,25.31,0
-0.264474868774414,-0.8750872611999512,0.0655281543731689,-1.2183581590652466,3.042849063873291,82.08812713623047,25.31,0
-0.2648869156837463,-0.931033730506897,0.0812366157770156,-0.8606888055801392,3.042911529541016,82.09237670898438,25.31,0
-0.2483580112457275,-1.000523567199707,0.0969151780009269,0.1462617665529251,3.0429515838623047,82.09510803222656,25.31,0
-0.2321529388427734,-1.0563137531280518,0.1013790071010589,1.4695714712142944,3.048485279083252,82.09686279296875,25.31,0
-0.1937645822763443,-1.0977144241333008,0.0650592148303985,2.1253364086151123,3.0520365238189697,82.09798431396484,25.31,0
-0.1803247034549713,-1.2474340200424194,0.0137623874470591,1.664854884147644,3.0543155670166016,82.09870910644531,25.31,0
-0.2052863985300064,-1.3547110557556152,-0.0079614156857132,0.7459762096405029,3.0557780265808105,82.09917449951172,25.31,0
-0.2101098299026489,-1.166057586669922,-0.0051091783680021,0.0488154999911785,3.0567166805267334,82.09947204589844,25.31,0
-0.1740208119153976,-1.0170018672943115,-0.0088765509426593,-0.3161828517913818,3.057318925857544,82.09966278076172,25.31,0
-0.0892854407429695,-1.0165085792541504,-0.0448808819055557,-0.2745594680309295,3.057705402374268,82.09978485107422,25.31,0
-0.0293093863874673,-1.0665719509124756,-0.1183663606643676,0.1999739706516266,3.0579535961151123,82.09986114501953,25.31,0
-0.0076135289855301,-1.093101978302002,-0.1767206490039825,0.6728832721710205,3.05444073677063,82.09990692138672,25.31,0
-0.0216792486608028,-1.0429542064666748,-0.2029735296964645,0.6754329204559326,3.052186250686645,82.09993743896484,25.31,0
-0.0307058170437812,-1.0051743984222412,-0.2142233401536941,0.2973161041736603,3.050739526748657,82.09996032714844,25.31,0
-0.0476940982043743,-0.9753317832946776,-0.2102472782135009,-0.0492322221398353,3.049811124801636,82.0999755859375,25.31,0
-0.092182844877243,-0.9393871426582336,-0.1853045672178268,-0.2071406245231628,3.049215316772461,82.09998321533203,25.31,0
-0.1319287121295929,-0.9107221961021424,-0.1581022292375564,-0.3371377289295196,3.048832893371582,82.09999084472656,25.31,0
-0.1630330979824066,-0.8923266530036926,-0.1238520070910453,-0.5172919034957886,3.0485875606536865,82.09999084472656,25.31,0
-0.188591867685318,-0.8805214762687683,-0.1074699610471725,-0.5540878772735596,3.0484299659729004,82.09999084472656,25.31,0
-0.2273851186037063,-0.8785433769226074,-0.1081524565815925,-0.3269211053848266,3.044197559356689,82.09999084472656,25.31,0
-0.2634759545326233,-0.8716761469841003,-0.1085904389619827,-0.1703908145427703,3.0414814949035645,82.09999084472656,25.31,0
-0.2922347486019134,-0.8672691583633423,-0.1088715121150016,-0.4425265491008758,3.039738416671753,82.09999084472656,25.31,0
-0.3218860328197479,-0.8756365776062012,-0.1034541130065918,-0.8715304732322693,3.0386197566986084,82.09999084472656,25.31,0
-0.3409145176410675,-0.892201840877533,-0.0999775379896164,-0.7921655178070068,3.0379018783569336,82.09999084472656,25.31,0
-0.3419303596019745,-0.9028324484825134,-0.1089420244097709,-0.0354662723839283,3.0374412536621094,82.09999084472656,25.31,0
-0.3313867151737213,-0.9320456981658936,-0.1258904635906219,0.8334753513336182,3.0371456146240234,82.09999084472656,25.31,0
-0.3078270852565765,-0.989977478981018,-0.1591580957174301,1.2048181295394895,3.0369558334350586,82.09999084472656,25.31,0
-0.2927078604698181,-1.1726969480514526,-0.1973006725311279,1.0347110033035278,3.0391294956207275,82.09999084472656,25.31,0
-0.3053963184356689,-1.239575743675232,-0.1937895119190216,0.6102793216705322,3.040524482727051,82.09999084472656,25.31,0
-0.3303323686122894,-1.1201592683792114,-0.152351826429367,0.1408618241548538,3.041419744491577,82.09999084472656,25.31,0
-0.2623682618141174,-1.1106979846954346,-0.0977706313133239,-0.2535302340984344,3.041994094848633,82.07491302490234,25.31,0
-0.1515795290470123,-1.1046262979507446,-0.062743566930294,-0.4779677391052246,3.042362689971924,82.05882263183594,25.31,0
-0.0077106258831918,-1.0279587507247925,-0.0458629839122295,-0.6542420387268066,3.0425992012023926,82.04850006103516,25.31,0
0.062225054949522,-0.956366777420044,-0.0350299961864948,-1.0145623683929443,3.0427510738372803,82.0418701171875,25.31,0
0.0231391340494155,-0.8992276191711426,-0.0280780103057622,-1.4822452068328855,3.042848587036133,82.0376205444336,25.31,0
-0.0355306044220924,-0.8625590205192566,-0.0292143989354372,-1.750133991241455,3.041074752807617,82.0348892211914,25.31,0
-0.073181465268135,-0.8278316855430603,-0.0299436692148447,-1.7393382787704468,3.0399363040924072,82.03313446044922,25.31,0
-0.1029413938522338,-0.8055456876754761,-0.0192161239683628,-1.6356806755065918,3.03920578956604,82.03201293945312,25.31,0
-0.1332351565361023,-0.7912437915802002,-0.0067340279929339,-1.6264803409576416,3.0387370586395264,82.03128814697266,25.31,0
-0.169469267129898,-0.7932612299919128,0.0124718118458986,-1.7567139863967896,3.0384361743927,82.03082275390625,25.31,0
-0.2095155566930771,-0.8001536726951599,0.0303947888314723,-1.8976117372512815,3.038243055343628,82.03052520751953,25.31,0
-0.2408127337694168,-0.8101745843887329,0.0418967232108116,-1.823233246803284,3.038119077682495,82.03033447265625,25.31,0
-0.2720930278301239,-0.850192129611969,0.043680228292942,-1.3599226474761963,3.038039445877075,82.03021240234375,25.31,0
-0.2865691184997558,-0.903861939907074,0.0392270050942897,-0.4320632815361023,3.0412018299102783,82.03013610839844,25.31,0
-0.2958590388298034,-0.9718907475471495,0.0363691821694374,0.8512380123138428,3.04323148727417,82.03009033203125,25.31,0
-0.2906252443790436,-1.0211454629898071,0.0289374217391014,1.979305863380432,3.0445339679718018,82.03005981445312,25.31,0
-0.2760709524154663,-1.0639499425888062,0.0185703709721565,2.28765606880188,3.045369863510132,82.03003692626953,25.31,0
-0.2667308449745178,-1.1417993307113647,0.0007218463579192,1.7690223455429075,3.0459060668945312,82.03002166748047,25.31,0
-0.2775302231311798,-1.2477363348007202,-0.010732308961451,1.2463165521621704,3.046250343322754,82.03001403808594,25.31,0
-0.2956561744213104,-1.198167324066162,-0.0068873781710863,1.3551133871078491,3.046471118927002,82.0300064086914,25.31,0
-0.2401150912046432,-1.0488035678863523,0.0123733999207615,1.8906677961349487,3.0466129779815674,82.0300064086914,25.31,0
-0.170885369181633,-0.9809393286705016,0.013538310304284,2.3812413215637207,3.0462446212768555,82.0300064086914,25.31,0
-0.1152621656656265,-1.0045613050460815,-0.0193007625639438,2.6566550731658936,3.046008348464966,82.0300064086914,25.31,0
-0.0851641744375228,-1.0365138053894043,-0.0571683160960674,2.661436080932617,3.045856714248657,82.0300064086914,25.31,0
-0.1050334349274635,-1.045823574066162,-0.0814695283770561,2.302664041519165,3.045759439468384,82.0300064086914,25.31,0
-0.1233821585774421,-1.0238091945648191,-0.0858691036701202,1.6210201978683472,3.045696973800659,82.0300064086914,25.31,0
-0.1295595318078994,-0.9928882718086244,-0.0774969458580017,0.7894971966743469,3.04565691947937,82.0300064086914,25.31,0
-0.1447193622589111,-0.9562516808509828,-0.0721241757273674,-0.0199847482144832,3.045631170272827,82.0300064086914,25.31,0
-0.1600458472967147,-0.9271426796913148,-0.0630784705281257,-0.5860371589660645,3.04561448097229,82.0300064086914,25.31,0
-0.1810770481824875,-0.9140599370002748,-0.0516756810247898,-0.7128469944000244,3.04422664642334,82.0300064086914,25.31,0
-0.177780345082283,-0.9000664353370667,-0.0387602522969245,-0.5147853493690491,3.0433361530303955,82.0300064086914,25.31,0
-0.1756647080183029,-0.891086220741272,-0.0304718725383281,-0.3016990125179291,3.042764663696289,82.0300064086914,25.31,0
-0.1855025589466095,-0.879725456237793,-0.0195550937205553,-0.2473516911268234,3.042397975921631,82.0300064086914,25.31,0
-0.208609253168106,-0.8724347352981567,-0.0125493332743644,-0.3629428744316101,3.0421626567840576,81.97626495361328,25.31,0
-0.262622207403183,-0.8677560091018677,-0.008053439669311,-0.5625128149986267,3.0420114994049072,81.94178009033203,25.31,0
-0.3308712840080261,-0.8759490251541138,-0.0051682339981198,-0.4756307601928711,3.041914463043213,81.91964721679688,25.31,0
-0.37466961145401,-0.8924023509025574,0.0022810990922152,0.2142410427331924,3.0418522357940674,81.90544128417969,25.31,0
-0.3971790671348572,-0.9141566753387452,0.018257200717926,1.1298609972000122,3.042271614074707,81.89632415771484,25.33,0
-0.4116243422031402,-0.9337151646614076,0.0341075174510479,1.606393337249756,3.0425407886505127,81.89047241210938,25.33,0
-0.4096989333629608,-0.9518644213676452,0.0442793406546115,1.5933551788330078,3.0427136421203613,81.88671875,25.33,0
-0.3804744482040405,-0.991500437259674,0.0396114811301231,1.4058592319488523,3.042824506759644,81.88430786132812,25.33,0
-0.356122076511383,-1.0449254512786863,0.0254203677177429,1.009676814079285,3.042895555496216,81.88276672363281,25.33,0
-0.3628852367401123,-1.1575794219970703,0.0163133293390274,0.3255206644535064,3.0429413318634038,81.88177490234375,25.33,0
-0.3784209787845611,-1.1906898021697998,0.0328600518405437,-0.3571465313434601,3.042970657348633,81.88114166259766,25.33,0
-0.3827931582927704,-1.105580449104309,0.0602721087634563,-0.8095733523368835,3.042989492416382,81.88072967529297,25.33,0
-0.3128279149532318,-1.056559920310974,0.061070267111063,-1.1321580410003662,3.0393290519714355,81.8804702758789,25.33,0
-0.2119504958391189,-1.036296844482422,0.0503869317471981,-1.375,3.036979913711548,81.88030242919922,25.33,0
-0.1136265322566032,-0.989706575870514,0.0379332080483436,-1.4090344905853271,3.0354723930358887,81.88019561767578,25.33,0
-0.0785167440772056,-0.9598076343536376,0.0243433490395545,-1.2553296089172363,3.0345048904418945,81.880126953125,25.33,0
-0.1175608187913894,-0.9350224137306212,0.0100243855267763,-1.1925164461135864,3.033884048461914,81.88008117675781,25.33,0
-0.1650081574916839,-0.9023233652114868,-0.0159580241888761,-1.3277528285980225,3.033485651016236,81.88005065917969,25.33,0
-0.2010549008846283,-0.8757412433624268,-0.0382298119366169,-1.43603515625,3.0332300662994385,81.8800277709961,25.33,0
-0.1961987614631652,-0.8698779344558716,-0.0581203401088714,-1.304900288581848,3.0330660343170166,81.88002014160156,25.33,0
-0.1874845921993255,-0.8549196124076843,-0.0652871578931808,-0.991460621356964,3.033419609069824,81.88001251220703,25.33,0
-0.1762945652008056,-0.8565157651901245,-0.0530930869281291,-0.6756706833839417,3.033646583557129,81.8800048828125,25.33,0
-0.1915045529603958,-0.868735671043396,-0.0396698601543903,-0.4085285365581512,3.03379225730896,81.8800048828125,25.33,0
-0.2068632096052169,-0.8765776753425598,-0.0254578329622745,-0.0006420613499358,3.033885717391968,81.8800048828125,25.33,0
-0.2167195230722427,-0.8648169040679932,-0.0051418230868875,0.6193735599517822,3.0339455604553223,81.8800048828125,25.33,0
-0.2174469530582428,-0.8684650659561157,0.0134935975074768,0.995768427848816,3.0339841842651367,81.8800048828125,25.33,0
-0.206718236207962,-0.9211862087249756,0.0310505125671625,0.6605223417282104,3.0340089797973637,81.8800048828125,25.33,0
-0.1886376142501831,-0.966215193271637,0.0311219803988933,-0.0203541629016399,3.034024715423584,81.8800048828125,25.33,0
-0.1714367270469665,-1.045492172241211,0.0143745215609669,-0.2925030291080475,3.030362606048584,81.8800048828125,25.33,0
-0.1603982001543045,-1.1971274614334106,-0.0075685824267566,-0.0730691775679588,3.02801251411438,81.8800048828125,25.33,0
-0.1701076179742813,-1.2888405323028564,-0.010454854927957,0.2325492948293686,3.0265045166015625,81.8800048828125,25.33,0
-0.1875341236591339,-1.1853612661361694,-0.0123070981353521,0.4752511382102966,3.0255367755889893,81.8800048828125,25.33,0
-0.1763263493776321,-1.074172019958496,-0.0414846315979957,0.6775766611099243,3.0249156951904297,81.8800048828125,25.33,0
-0.1635360717773437,-1.036403775215149,-0.0714046433568,0.6999403238296509,3.024517059326172,81.8370132446289,25.33,0
-0.1777191013097763,-1.0401551723480225,-0.1073989048600196,0.4312685132026672,3.024261236190796,81.8094253540039,25.33,0
-0.2092120498418808,-1.0201715230941772,-0.1193024069070816,0.0295655895024538,3.024096965789795,81.79171752929688,25.33,0
-0.2574113011360168,-0.9513694047927856,-0.1269413828849792,-0.2353893667459488,3.023073434829712,81.78035736083984,25.31,0
-0.2491583675146103,-0.8960205912590027,-0.1542347371578216,-0.3158578276634216,3.022416591644287,81.77306365966797,25.31,0
-0.2438621073961258,-0.8660987019538879,-0.1661522686481475,-0.3567501306533813,3.0219950675964355,81.76838684082031,25.31,0
-0.2348655015230178,-0.8692876696586609,-0.1570069342851638,-0.4438962340354919,3.0217244625091557,81.765380859375,25.31,0
-0.229092001914978,-0.87693190574646,-0.1455402076244354,-0.5607253909111023,3.0215508937835693,81.7634506225586,25.31,0
-0.2197891324758529,-0.8986308574676514,-0.1325837522745132,-0.7001859545707703,3.021439552307129,81.76221466064453,25.31,0
-0.2082213014364242,-0.9069582223892212,-0.1130734905600547,-0.8111791610717773,3.0213680267333984,81.76142120361328,25.31,0
-0.195199966430664,-0.917900025844574,-0.0949551537632942,-0.7677658200263977,3.021322250366211,81.76091003417969,25.31,0
-0.1700502932071685,-0.9305196404457092,-0.0777300745248794,-0.5715245604515076,3.019456624984741,81.76058197021484,25.31,0
-0.1427151411771774,-0.949813723564148,-0.0610782355070114,-0.4133450388908386,3.0182595252990723,81.7603759765625,25.31,0
-0.1251730024814605,-0.9565978050231934,-0.0280009470880031,-0.4013989269733429,3.017491102218628,81.76023864746094,25.31,0
-0.1083177030086517,-0.955353617668152,-0.001176071469672,-0.307750791311264,3.016998052597046,81.7601547241211,25.31,0
-0.0919031649827957,-1.0105329751968384,-0.0063525093719363,0.1930040270090103,3.016681671142578,81.76010131835938,25.31,0
-0.0757714807987213,-1.1299104690551758,-0.0264677722007036,0.9980072975158693,3.016478538513184,81.76006317138672,25.31,0
-0.0710168704390525,-1.150542378425598,-0.0113877188414335,1.575515866279602,3.016348361968994,81.76004028320312,25.31,0
-0.0903567373752594,-1.029436111450195,0.0374742150306701,1.6022003889083862,3.016264677047729,81.76002502441406,25.31,0
-0.1195612698793411,-0.9964993000030518,0.0688309893012046,1.218076467514038,3.0203425884246826,81.76001739501953,25.31,0
-0.1327052861452102,-1.0033512115478516,0.0833561867475509,0.6777966618537903,3.0229594707489014,81.760009765625,25.31,0
-0.0907603874802589,-1.030139446258545,0.0814820751547813,0.1985208839178085,3.0246388912200928,81.760009765625,25.31,0
