acc_x,acc_y,acc_z,bvp,eda,hr,temp,label
0.0,0.0,0.0,0.0,0.0,0.0,28.79,0
-0.0208333320915699,-0.1067708283662796,0.1197916567325592,-49.873329162597656,0.5994263291358948,8.666666030883789,28.79,0
-0.0487804897129535,-0.2625762224197387,0.2804878056049347,-107.28438568115234,1.4035348892211914,20.29268264770508,28.79,0
-0.0581395365297794,-0.3931167125701904,0.435215950012207,-142.02796936035156,2.102970838546753,30.40531539916992,28.79,0
-0.0863202661275863,-0.5043676495552063,0.5320838689804077,-157.81265258789062,2.6132471561431885,37.78302764892578,28.79,0
-0.1493175774812698,-0.5577303171157837,0.5866881012916565,-162.60401916503906,2.958725690841675,42.77804946899414,28.79,0
-0.2184182554483413,-0.6205092668533325,0.6003040075302124,-157.605712890625,3.1854093074798584,46.05550003051758,28.79,0
-0.2241160422563552,-0.6444301605224609,0.6147017478942871,-143.88833618164062,3.332221269607544,48.17814636230469,28.79,0
-0.2445569187402725,-0.6486589312553406,0.6127960085868835,-130.5941619873047,3.570948600769043,49.54549407958984,28.79,0
-0.2409112155437469,-0.6681609153747559,0.617165744304657,-121.19725036621094,3.724388837814331,50.424346923828125,28.79,0
-0.2385701090097427,-0.6862806677818298,0.6143752932548523,-111.82479095458984,3.82292103767395,50.98870468139648,28.79,0
-0.24826180934906,-0.6979119181632996,0.6069868206977844,-95.31255340576172,3.8861701488494873,51.35097503662109,28.79,0
-0.2544820606708526,-0.7053770422935486,0.5966472625732422,-68.38963317871094,3.926764249801636,51.5834846496582,28.79,0
-0.258474051952362,-0.7101679444313049,0.5900116562843323,-29.71648597717285,3.952816247940064,51.73270034790039,28.79,0
-0.2610359191894531,-0.7076447606086731,0.5801554918289185,22.967262268066406,3.969535350799561,51.828460693359375,28.79,0
-0.2626799941062927,-0.700427770614624,0.568232536315918,85.72046661376953,3.980264663696289,51.889915466308594,28.79,0
-0.2581372857093811,-0.6957963109016418,0.5437877178192139,150.64007568359375,3.986092567443848,51.92935562133789,28.79,0
-0.2440264970064163,-0.6816285252571106,0.5057093501091003,212.0991058349609,3.989832639694214,51.95466613769531,28.79,0
-0.2237754613161087,-0.6725364923477173,0.4588817358016968,277.4921569824219,3.992232799530029,51.97090911865234,28.79,0
-0.193986177444458,-0.6499084234237671,0.3840482831001282,351.553955078125,3.9937729835510254,51.98133087158203,28.79,0
-0.1748691350221634,-0.6297892332077026,0.313633382320404,421.7602844238281,3.994761466979981,51.98801803588867,28.79,0
-0.2073831111192703,-0.6504645347595215,0.262847363948822,466.4599914550781,3.995395660400391,51.9923095703125,28.79,0
-0.3066175580024719,-0.7253082990646362,0.2358535975217819,480.1275024414063,3.995802640914917,51.99506378173828,28.79,0
-0.3814960420131683,-0.7901320457458496,0.2073350101709365,479.3832092285156,3.996063947677612,51.99683380126953,28.79,0
-0.3903643488883972,-0.8541232943534851,0.2114245146512985,478.5759887695313,3.922784090042114,51.99796676635742,28.81,0
-0.3680666387081146,-0.9119824767112732,0.2252444773912429,482.5110778808594,3.8757574558258057,51.99869537353516,28.81,0
-0.2977795004844665,-0.971504271030426,0.234113335609436,453.3270263671875,3.84557843208313,51.99916458129883,28.81,0
-0.2414777129888534,-1.0320930480957031,0.2118159830570221,342.7304077148437,3.826211214065552,51.99946212768555,28.81,0
-0.2165420204401016,-1.0765732526779177,0.1807135045528412,174.95823669433594,3.8137824535369873,51.999656677246094,28.81,0
-0.2285285890102386,-1.1219114065170288,0.1663514971733093,6.541977882385254,3.805806398391724,51.999778747558594,28.81,0
-0.2418186515569687,-1.156604528427124,0.1571347862482071,-127.55095672607422,3.800687789916992,51.99985885620117,28.81,0
-0.2615430057048797,-1.17327082157135,0.1456222534179687,-214.44955444335935,3.797402858734131,51.999908447265625,28.81,0
-0.2686031758785248,-1.150379657745361,0.1326363980770111,-253.446044921875,3.7627029418945312,55.70074081420898,28.81,0
-0.2619384527206421,-1.1188961267471311,0.1187050491571426,-257.9686889648437,3.740434408187866,58.07572555541992,28.81,0
-0.2464658617973327,-1.093093991279602,0.0985691621899604,-246.15740966796875,3.7261438369750977,59.599853515625,28.81,0
-0.23653644323349,-1.082133412361145,0.0856471136212349,-230.77476501464844,3.716972827911377,60.57794952392578,28.81,0
-0.2357620894908905,-1.0583062171936035,0.0773544833064079,-211.01873779296875,3.711087465286255,61.20563507080078,28.81,0
-0.2240696102380752,-1.0318198204040527,0.0608372017741203,-184.4830474853516,3.707310676574707,61.60844802856445,28.81,0
-0.2165660411119461,-1.0148223638534546,0.0502373613417148,-157.00718688964844,3.704886913299561,61.86695098876953,28.81,0
-0.2173484563827514,-0.9927188158035278,0.0434349961578846,-137.80917358398438,3.703331470489502,62.032840728759766,28.81,0
-0.2122527956962585,-0.9729362726211548,0.0334718562662601,-131.69760131835938,3.655051469802856,62.13930130004883,28.81,0
-0.1865915954113006,-0.9490454196929932,0.0326758585870265,-136.13726806640625,3.624068021774292,62.20762252807617,28.81,0
-0.1477326154708862,-0.9169203042984008,0.0377628095448017,-143.42520141601562,3.604184627532959,62.25146484375,28.81,0
-0.1115996092557907,-0.9019020199775696,0.0410273224115371,-136.7955780029297,3.5914247035980225,62.27960205078125,28.81,0
-0.0940093025565147,-0.9034597277641296,0.0375245213508605,-101.4693832397461,3.5832362174987797,62.29765701293945,28.81,0
-0.0939164087176323,-0.8988615870475769,0.0352766253054142,-52.8074836730957,3.5779812335968018,62.30924606323242,28.81,0
-0.1162478923797607,-0.907106339931488,0.0394318290054798,-26.83112907409668,3.57460880279541,62.316680908203125,28.81,0
-0.1473722755908966,-0.9291906356811525,0.0532939508557319,-37.191532135009766,3.5724446773529053,62.32145309448242,28.81,0
-0.172943890094757,-0.9489608407020568,0.0621898621320724,-64.37556457519531,3.567383289337158,62.32451629638672,28.81,0
-0.194952055811882,-0.9728437662124634,0.0455076470971107,-87.7606201171875,3.5641353130340576,62.32648086547852,28.81,0
-0.2370644956827163,-1.0273548364639282,0.0124108651652932,-102.0906982421875,3.5620508193969727,62.32774353027344,28.81,0
-0.2696876227855682,-1.0903258323669434,-0.0032309696543961,-107.0057373046875,3.560713052749634,62.32855224609375,28.81,0
-0.2906232476234436,-1.125139236450195,-0.0076712248846888,-101.72654724121094,3.559854745864868,62.32907104492188,28.81,0
-0.2984607517719269,-1.1194915771484375,-0.0049229506403207,-91.8147964477539,3.5593037605285645,62.329402923583984,28.81,0
-0.3034904301166534,-1.0822806358337402,0.0024385079741477,-84.8163070678711,3.558950185775757,62.32961654663086,28.81,0
-0.3123159408569336,-1.0528029203414917,0.0071626682765781,-78.61619567871094,3.558723211288452,62.32975387573242,28.81,0
-0.2955885529518127,-1.039483666419983,-0.0010011860867962,-66.38306427001953,3.5489377975463867,62.32984161376953,28.81,0
-0.2792561054229736,-1.0365339517593384,-0.0230336003005504,-47.85288619995117,3.5426580905914307,62.32989883422852,28.81,0
-0.2799704372882843,-1.0458364486694336,-0.0315749607980251,-30.239910125732425,3.538628101348877,62.32993698120117,28.81,0
-0.2972221672534942,-1.0630018711090088,-0.0314585417509079,-18.51058959960937,3.536041736602783,62.329959869384766,28.81,0
-0.308293342590332,-1.0628221035003662,-0.0369816049933433,-11.424043655395508,3.534382104873657,62.32997512817383,28.81,0
-0.3098004162311554,-1.0347177982330322,-0.0405259877443313,-6.016488552093506,3.5333170890808105,62.329986572265625,28.81,0
-0.3107675611972809,-0.9830954670906068,-0.0260072462260723,-0.2426343560218811,3.5326335430145264,62.32999038696289,28.81,0
-0.3057904541492462,-0.938771665096283,-0.0222877282649278,7.955242156982422,3.5321948528289795,62.32999420166016,28.81,0
-0.313791960477829,-0.8879361152648926,-0.0254985298961401,18.29267692565918,3.53053617477417,64.18218994140625,28.81,0
-0.3245246410369873,-0.8609105348587036,-0.0275590382516384,26.148305892944336,3.529471635818481,65.37081909179688,28.81,0
-0.3370100557804107,-0.8435670733451843,-0.0120880296453833,27.22368621826172,3.5287885665893555,66.13361358642578,28.81,0
-0.3282291293144226,-0.82683926820755,-0.0077574015595018,22.07420539855957,3.528350114822388,66.62313079833984,28.81,0
-0.3113985061645508,-0.8105065822601318,-0.0049782539717853,13.657228469848633,3.528068780899048,66.9372787475586,28.81,0
-0.3005975782871246,-0.805622935295105,-0.0031947568058967,3.70224404335022,3.527888298034668,67.13887786865234,28.81,0
-0.2936661541461944,-0.8080866932868958,-0.0020502109546214,-6.369179725646973,3.5277724266052246,67.26824951171875,28.81,0
-0.2892179787158966,-0.8376566767692566,-0.0069134817458689,-13.56328582763672,3.527698040008545,67.35127258300781,28.81,0
-0.2919611632823944,-0.8734263181686401,-0.0100344493985176,-16.302778244018555,3.523977756500244,67.40455627441406,28.81,0
-0.2881238162517547,-0.8851856589317322,-0.0120373060926795,-17.021881103515625,3.5215904712677,67.43875122070312,28.81,0
-0.2632701098918915,-0.9039276838302612,-0.0189203992486,-18.525888442993164,3.5200583934783936,67.460693359375,28.81,0
-0.2417226731777191,-0.932748556137085,-0.0289353467524051,-20.526439666748047,3.5190751552581787,67.47477722167969,28.81,0
-0.2334925383329391,-0.9400485754013062,-0.024166814982891,-22.0288143157959,3.518444299697876,67.48381042480469,28.81,0
-0.2394064664840698,-0.911146640777588,0.0068822270259261,-23.68080711364746,3.518039464950561,67.48960876464844,28.81,0
-0.2432016730308532,-0.9037945866584778,0.0156121654435992,-25.31058883666992,3.517779588699341,67.49333190917969,28.81,0
-0.2400394529104232,-0.9382609128952026,-0.0011765600647777,-24.42548179626465,3.5176126956939697,67.49571990966797,28.81,0
-0.2324123382568359,-0.988368272781372,-0.011950597167015,-19.03890609741211,3.500062227249145,67.49725341796875,28.81,0
-0.23311547935009,-1.0597087144851685,0.0035263434983789,-10.362299919128418,3.488799333572388,67.49823760986328,28.81,0
-0.2279689311981201,-1.0439153909683228,0.0302518755197525,-1.9567537307739256,3.4815714359283447,67.49887084960938,28.81,0
-0.2134706377983093,-1.0113890171051023,0.0474027842283248,2.824821949005127,3.476933002471924,67.49927520751953,28.81,0
-0.2041664570569992,-0.9793199300765992,0.0472137033939361,3.3425679206848145,3.473956346511841,67.4995346069336,28.81,0
-0.2037933468818664,-0.9587398767471312,0.0470923595130443,2.367187261581421,3.472046136856079,67.49970245361328,28.81,0
-0.2203472256660461,-0.9567282795906068,0.0414167158305645,3.858546495437622,3.470820188522339,67.49980926513672,28.81,0
-0.2197750061750412,-0.961035132408142,0.0321766398847103,9.007227897644045,3.470033407211304,67.4998779296875,28.81,0
-0.2194077968597412,-0.9582012891769408,0.026246890425682,13.876941680908203,3.4754960536956787,67.49992370605469,28.83,0
-0.2247699052095413,-0.9507849216461182,0.0280392915010452,11.753569602966309,3.479001522064209,67.49995422363281,28.83,0
-0.2338087707757949,-0.9348299503326416,0.0291895512491464,-0.4571265876293182,3.4812512397766118,67.49996948242188,28.83,0
-0.2564027309417724,-0.9357865452766418,0.0299277231097221,-17.876638412475586,3.4826948642730717,67.4999771118164,28.83,0
-0.2709022164344787,-0.9867803454399108,0.0304014384746551,-30.2950496673584,3.48362135887146,67.49998474121094,28.83,0
-0.2690116167068481,-1.0307008028030396,0.0307054426521062,-29.27220726013184,3.4842159748077397,67.49999237060547,28.83,0
-0.2398094683885574,-1.0756797790527344,0.0141072105616331,-14.195938110351562,3.4845974445343018,67.49999237060547,28.83,0
-0.2210692018270492,-1.1381312608718872,0.0034554211888462,6.5958757400512695,3.484842300415039,67.49999237060547,28.83,0
-0.2538249790668487,-1.20619797706604,0.007815265096724,22.08124542236328,3.5065743923187256,68.03738403320312,28.83,0
-0.3028346300125122,-1.149119257926941,0.0106131620705127,26.94593620300293,3.5205209255218506,68.38224792480469,28.83,0
-0.3230906426906585,-1.0733050107955933,-0.009982407093048,21.61651992797852,3.529470920562744,68.60356140136719,28.83,0
-0.2801120579242706,-1.047042965888977,-0.045590553432703,7.724538326263428,3.535214424133301,68.74559020996094,28.83,0
-0.2581286430358886,-1.0581783056259155,-0.0572462640702724,-9.018462181091309,3.538900375366211,68.83673095703125,28.83,0
-0.255216509103775,-1.1045087575912476,-0.0647262260317802,-16.961584091186523,3.541265726089477,68.89522552490234,28.83,0
-0.2421521097421646,-1.078263282775879,-0.0863197594881057,-10.36191177368164,3.542783737182617,68.9327621459961,28.83,0
-0.2281703501939773,-1.044627070426941,-0.1001772508025169,1.8553565740585327,3.543757915496826,68.95684814453125,28.83,0
-0.247186541557312,-1.0174435377120972,-0.1090701892971992,8.144440650939941,3.559990882873535,68.97230529785156,28.83,0
-0.2649877965450287,-1.0055965185165403,-0.1091793924570083,8.605002403259277,3.570408344268799,68.98222351074219,28.83,0
-0.2708138525485992,-0.981200397014618,-0.1148472428321838,10.322846412658691,3.577093601226806,68.98859405517578,28.83,0
-0.2577593624591827,-0.9431533217430116,-0.1128867715597152,16.433700561523438,3.5813839435577397,68.99268341064453,28.83,0
-0.2381861954927444,-0.9075413346290588,-0.1116286516189575,25.17386054992676,3.584137201309204,68.99530792236328,28.83,0
-0.2200274765491485,-0.8678942918777466,-0.1052234917879104,33.03981399536133,3.585904121398926,68.99698638916016,28.83,0
-0.2083742618560791,-0.8312555551528931,-0.1011130288243293,36.22478866577149,3.587038040161133,68.9980697631836,28.83,0
-0.2120914459228515,-0.8077428936958313,-0.0928773954510688,34.05561447143555,3.587765693664551,68.99876403808594,28.83,0
-0.208879142999649,-0.8150449395179749,-0.0931900143623352,29.46432304382324,3.602921962738037,68.99920654296875,28.83,0
-0.2068176716566085,-0.8421220779418945,-0.0933906361460685,21.14045143127441,3.612648248672485,68.9994888305664,28.83,0
-0.1998969763517379,-0.8594986200332642,-0.087921604514122,2.475071668624878,3.618890047073364,68.99967193603516,28.83,0
-0.1842601150274276,-0.8874431848526001,-0.0900096744298935,-23.575653076171875,3.6228957176208496,68.99978637695312,28.83,0
-0.1630297303199768,-0.9557563662528992,-0.1025452241301536,-38.74583435058594,3.625466346740722,68.99986267089844,28.83,0
-0.1885897070169448,-0.9660091996192932,-0.0714053958654403,-30.296030044555664,3.6271159648895264,68.99990844726562,28.83,0
-0.2049926370382309,-0.9725888967514038,-0.0402260981500148,-9.346550941467283,3.628174543380737,68.99993896484375,28.83,0
-0.2155190855264663,-0.9936046600341796,-0.0146192442625761,2.858048677444458,3.6288540363311768,68.99996185302734,28.83,0
-0.2110788077116012,-1.0294824838638306,-0.0037840150762349,1.368396282196045,3.6302082538604736,68.9999771118164,28.81,0
-0.1970337480306625,-1.0693001747131348,-0.0080261379480361,-0.117798127233982,3.631077289581299,68.99998474121094,28.81,0
-0.1824226677417755,-1.0332772731781006,0.0116426097229123,10.303125381469728,3.6316349506378174,68.99999237060547,28.81,0
-0.1786438822746276,-0.9821709990501404,0.03546042740345,30.2784481048584,3.631992816925049,68.99999237060547,28.81,0
-0.1874144226312637,-0.9381784200668336,0.0563431084156036,49.979583740234375,3.632222414016724,68.99999237060547,28.81,0
-0.1986406296491623,-0.9155442714691162,0.0641466379165649,61.472633361816406,3.632369756698608,68.99999237060547,28.81,0
-0.2170405089855194,-0.9234100580215454,0.0579589419066906,60.86265182495117,3.632464408874512,68.99999237060547,28.81,0
-0.2344462722539901,-0.9340556859970092,0.0483902618288993,50.12113952636719,3.632525205612183,68.99999237060547,28.81,0
-0.2456162869930267,-0.9408873915672302,0.0422496348619461,38.47019577026367,3.6371545791625977,67.86431884765625,28.81,0
-0.2639801204204559,-0.945271611213684,0.0495044812560081,35.69363021850586,3.6401255130767822,67.13550567626953,28.81,0
-0.2813627421855926,-0.9368895888328552,0.0541602224111557,43.49159622192383,3.6420319080352783,66.66780090332031,28.81,0
-0.2869201302528381,-0.9539015889167786,0.0459524616599082,56.76446914672852,3.643255472183228,66.3676528930664,28.81,0
-0.2848887741565704,-1.0207966566085815,0.0406851917505264,70.97853088378906,3.644040584564209,66.17503356933594,28.81,0
-0.277987390756607,-1.0637260675430298,0.0373049639165401,82.97710418701172,3.6445443630218506,66.05142211914062,28.81,0
-0.2511673867702484,-1.1024712324142456,0.0071468539535999,87.79312133789062,3.644867658615112,65.97209930419922,28.81,0
-0.2507491707801819,-1.172117829322815,-0.0178046561777591,85.1301498413086,3.6450753211975098,65.92118835449219,28.81,0
-0.312056303024292,-1.222410798072815,-0.0002304546505911,86.88197326660156,3.65255355834961,65.88851928710938,28.81,0
-0.340204119682312,-1.1539260149002075,-0.0225389897823333,105.56439971923828,3.6573526859283447,65.8675537109375,28.81,0
-0.3302789032459259,-1.1155741214752195,-0.0536486469209194,137.6161346435547,3.6604323387146,65.8541030883789,28.81,0
-0.2847250699996948,-1.1189509630203247,-0.0680152624845504,167.09495544433594,3.662408828735352,65.84546661376953,28.81,0
-0.249893456697464,-1.1379114389419556,-0.0660393759608268,179.69309997558594,3.663677215576172,65.83992767333984,28.81,0
-0.2051494270563125,-1.116492509841919,-0.0759669169783592,169.83631896972656,3.6644911766052246,65.83637237548828,28.81,0
-0.1876308321952819,-1.0579649209976196,-0.0935333892703056,145.09996032714844,3.665013551712036,65.83409118652344,28.81,0
-0.1875839531421661,-1.0204051733016968,-0.1048065423965454,122.73037719726562,3.665348768234253,65.83262634277344,28.81,0
-0.1931516528129577,-1.0018993616104126,-0.1120410040020942,110.91848754882812,3.699532985687256,65.8316879272461,28.81,0
-0.1967246830463409,-0.973230004310608,-0.1166836619377136,98.6379623413086,3.721470594406128,65.83108520507812,28.81,0
-0.1878221035003662,-0.915647268295288,-0.1252608299255371,72.49663543701172,3.735548734664917,65.83069610595703,28.81,0
-0.1765111535787582,-0.8619006276130676,-0.1251673847436905,34.84855270385742,3.744583368301392,65.8304443359375,28.81,0
-0.1692524403333664,-0.8162136077880859,-0.1251074224710464,-1.8329194784164429,3.750381231307984,65.83028411865234,28.81,0
-0.1925830841064453,-0.7756987810134888,-0.1194711625576019,-30.07690048217773,3.7541019916534415,65.83018493652344,28.81,0
-0.2131531238555908,-0.7552964687347412,-0.1102563589811325,-52.26848220825195,3.756489753723145,65.83011627197266,28.81,0
-0.2263537943363189,-0.7925834059715271,-0.104342833161354,-76.54814147949219,3.7580220699310303,65.830078125,28.81,0
-0.2180318981409073,-0.855696439743042,-0.0949500948190689,-110.3074188232422,3.772317886352539,65.83004760742188,28.81,0
-0.2014958411455154,-0.9017965197563172,-0.0889223739504814,-155.69241333007812,3.781492233276367,65.83003234863281,28.81,0
-0.1628950834274292,-0.9929563999176024,-0.1018474549055099,-212.92320251464844,3.787379741668701,65.83002471923828,28.81,0
-0.1493188887834549,-1.0570553541183472,-0.0989464819431305,-286.3075256347656,3.791157960891724,65.83001708984375,28.81,0
-0.1797908842563629,-1.0142236948013306,-0.0467048324644565,-374.9305725097656,3.7935826778411865,65.83000946044922,28.81,0
-0.2217371612787246,-1.0035301446914673,-0.0075813769362866,-457.0466003417969,3.7951385974884033,65.83000946044922,28.81,0
-0.2318625301122665,-1.0190588235855105,0.0063302568159997,-501.3177185058594,3.7961370944976807,65.83000946044922,28.81,0
-0.2271648645401001,-1.0738064050674438,-0.0015353801427409,-496.3459167480469,3.7967779636383057,65.83000946044922,28.81,0
-0.2185523957014084,-1.097744703292847,-0.0009853185620158,-454.4921569824219,3.798107147216797,66.04496002197266,28.81,0
-0.1906343102455139,-1.0459336042404177,0.0161610022187232,-390.3811950683594,3.7989602088928223,66.18290710449219,28.81,0
-0.1783158779144287,-0.9958909153938292,0.0383600741624832,-312.8968200683594,3.79950761795044,66.27143096923828,28.81,0
-0.1816061586141586,-0.969374179840088,0.0526061579585075,-231.9030914306641,3.799858808517456,66.32823944091797,28.81,0
-0.1949132233858108,-0.9635527729988098,0.0561507008969783,-153.93797302246094,3.800084114074707,66.36469268798828,28.81,0
-0.2090507000684738,-0.9542191624641418,0.0528276115655899,-74.74586486816406,3.8002288341522217,66.38809204101562,28.81,0
-0.2181233167648315,-0.9370338320732116,0.0450972691178321,11.825591087341309,3.800321578979492,66.40310668945312,28.81,0
-0.22394560277462,-0.9316030740737916,0.040136381983757,103.44795989990234,3.800381183624268,66.4127426147461,28.81,0
-0.2332797944545745,-0.9225201606750488,0.0369527675211429,194.4711761474609,3.8132729530334473,66.4189224243164,28.81,0
-0.2504654824733734,-0.9110934734344482,0.0349097065627574,281.0830993652344,3.821546077728272,66.42288970947266,28.81,0
-0.2670920491218567,-0.914956033229828,0.0335985906422138,355.9363098144531,3.826855421066284,66.4254379272461,28.81,0
-0.2721642553806305,-0.9566192030906676,0.0327571891248226,409.4004211425781,3.8302626609802246,66.42707061767578,28.81,0
-0.2642237544059753,-0.9945517778396606,0.0210216790437698,436.8786315917969,3.832449197769165,66.4281234741211,28.81,0
-0.2367368936538696,-1.0580791234970093,-0.0033028195612132,435.1666564941406,3.8338522911071777,66.42879486083984,28.81,0
-0.2470862716436386,-1.1660206317901611,-0.0189128816127777,404.74462890625,3.834752798080444,66.42922973632812,28.81,0
-0.2929123342037201,-1.1905090808868408,-0.0065394244156777,365.83978271484375,3.8353307247161865,66.42950439453125,28.81,0
-0.3335164189338684,-1.1446489095687866,-0.0209899507462978,347.5722961425781,3.850390911102295,66.42967987060547,28.81,0
-0.3091937899589538,-1.1096206903457642,-0.0638501122593879,353.97711181640625,3.860055685043335,66.42979431152344,28.81,0
-0.2823894023895263,-1.098337173461914,-0.0857575237751007,365.5104675292969,3.866257905960083,66.42987060546875,28.81,0
-0.2539923191070556,-1.1246826648712158,-0.0942186638712883,368.9567260742188,3.870238065719605,66.42991638183594,28.81,0
-0.2357687205076217,-1.1247963905334473,-0.0996485352516174,361.6709289550781,3.872792482376098,66.42994689941406,28.81,0
-0.2408671826124191,-1.085684895515442,-0.0975353419780731,340.2718811035156,3.874431610107422,66.42996978759766,28.81,0
-0.244139090180397,-1.0549876689910889,-0.1017769873142242,306.8207092285156,3.875483512878418,66.42997741699219,28.81,0
-0.2406410276889801,-1.029690146446228,-0.1044990345835685,272.9830322265625,3.8761587142944336,66.42998504638672,28.81,0
-0.2272006273269653,-0.9910645484924316,-0.1062458828091621,246.14845275878903,3.866951942443848,66.42999267578125,28.81,0
-0.2073798030614853,-0.955081343650818,-0.1017691418528556,221.2572784423828,3.861043691635132,66.42999267578125,28.81,0
-0.1946599334478378,-0.9095982909202576,-0.0988962203264236,189.9465484619141,3.85725212097168,66.42999267578125,28.81,0
-0.1864970624446869,-0.8636165261268616,-0.0970525443553924,149.81219482421875,3.854818820953369,66.42999267578125,28.81,0
-0.1868563741445541,-0.8229125738143921,-0.0902716070413589,100.9665756225586,3.853257179260254,66.42999267578125,28.81,0
-0.2038802802562713,-0.7911933064460754,-0.0803222209215164,39.3725814819336,3.85225510597229,66.42999267578125,28.81,0
-0.2148052453994751,-0.7876310348510742,-0.0795350521802902,-39.39126586914063,3.851612091064453,66.42999267578125,28.81,0
-0.2162184864282608,-0.8189316391944885,-0.0790298879146575,-131.4056854248047,3.851199388504028,66.42999267578125,28.81,0
-0.2115276455879211,-0.8614096641540527,-0.0731079280376434,-225.97288513183597,3.840376615524292,66.45507049560547,28.81,0
-0.1973217874765396,-0.9110606908798218,-0.0805031061172485,-316.1954345703125,3.833431243896485,66.4711685180664,28.81,0
-0.1938030570745468,-0.9877060651779176,-0.0908466801047325,-404.847900390625,3.8289740085601807,66.48149871826172,28.81,0
-0.2139360308647155,-0.997708261013031,-0.069495715200901,-500.69329833984375,3.826113700866699,66.48812866210938,28.81,0
-0.2492473125457763,-0.9649426341056824,-0.0166094806045293,-605.4251708984375,3.824278116226196,66.49237823486328,28.81,0
-0.255114734172821,-0.9886977672576904,0.0005365408724173,-700.415283203125,3.823100090026856,66.49510955810547,28.81,0
-0.2476845681667328,-1.0431268215179443,-0.0052534532733261,-755.75341796875,3.822344064712525,66.49686431884766,28.81,0
-0.2149274498224258,-1.0948495864868164,-0.0145669132471084,-758.1812133789062,3.8218588829040527,66.49798583984375,28.81,0
-0.1827102601528167,-1.088857889175415,-0.0037504320498555,-719.5462646484375,3.80410361289978,66.49871063232422,28.81,0
-0.1676328927278518,-1.023437261581421,0.0311798341572284,-657.5296630859375,3.7927093505859375,66.49917602539062,28.81,0
-0.1747504323720932,-0.9758562445640564,0.0535960718989372,-583.0982055664062,3.785397291183472,66.49947357177734,28.81,0
-0.1849158406257629,-0.950919270515442,0.0623837448656559,-504.6260986328125,3.7807047367095943,66.49966430664062,28.81,0
-0.2026349604129791,-0.9405139684677124,0.0624253936111927,-427.308349609375,3.777693271636963,66.49978637695312,28.81,0
-0.2196038514375686,-0.922640860080719,0.0624521225690841,-348.7072448730469,3.7757606506347656,66.49986267089844,28.81,0
-0.2248957306146621,-0.9111709594726562,0.0568714998662471,-265.0085144042969,3.7745203971862793,66.49990844726562,28.81,0
-0.2338895201683044,-0.8982124328613281,0.0588879510760307,-179.65060424804688,3.7737245559692383,66.49993896484375,28.81,0
-0.2396612167358398,-0.8842986226081848,0.0545842200517654,-99.3791961669922,3.759901762008667,66.49996185302734,28.81,0
-0.2433651685714721,-0.9089561700820924,0.0462245605885982,-24.21704864501953,3.7510311603546143,66.4999771118164,28.81,0
-0.2457421422004699,-0.952768862247467,0.0408598110079765,52.10508346557617,3.7453384399414062,66.49998474121094,28.81,0
-0.2416697740554809,-1.0200697183609009,0.031819250434637,132.05201721191406,3.741685152053833,66.49999237060547,28.81,0
-0.2334585934877395,-1.0744551420211792,-0.0019713356159627,210.7533264160156,3.7393407821655273,66.49999237060547,28.81,0
-0.2337868958711624,-1.1317476034164429,-0.0348517373204231,283.7005310058594,3.7378361225128174,66.49999237060547,28.81,0
-0.2899753451347351,-1.168514609336853,-0.0279636140912771,353.5354919433594,3.736870527267456,66.49999237060547,28.81,0
-0.3540227115154266,-1.12493634223938,-0.012347662821412,428.889404296875,3.736250877380371,66.49999237060547,28.81,0
-0.3615379929542541,-1.0409924983978271,-0.0527062155306339,515.7742309570312,3.7239179611206055,66.49999237060547,28.83,0
-0.3271764516830444,-1.059893250465393,-0.0786060094833374,603.8790283203125,3.71600341796875,66.49999237060547,28.83,0
-0.2995274066925049,-1.0888160467147827,-0.0840314552187919,665.0626220703125,3.710924386978149,66.49999237060547,28.83,0
-0.2649905085563659,-1.0905836820602417,-0.0931109711527824,676.7551879882812,3.707664966583252,66.49999237060547,28.83,0
-0.2316311746835708,-1.0693269968032837,-0.1045354604721069,642.7045288085938,3.705573081970215,66.49999237060547,28.83,0
-0.2046252936124801,-1.0053056478500366,-0.1006714850664138,581.8385009765625,3.704230785369873,66.49999237060547,28.83,0
-0.198490023612976,-0.9698182344436646,-0.098191812634468,507.1602478027344,3.703369379043579,66.49999237060547,28.83,0
-0.1945527642965316,-0.9526422023773192,-0.1021982729434967,424.8397521972656,3.7028164863586426,66.49999237060547,28.83,0
-0.1864282786846161,-0.941619634628296,-0.1103671640157699,341.3515014648437,3.694657802581787,66.79734802246094,28.83,0
-0.1812144517898559,-0.9233503937721252,-0.1212072595953941,260.4707336425781,3.6894218921661377,66.98817443847656,28.83,0
-0.1722707450389862,-0.8892351984977722,-0.1225660368800163,179.6762237548828,3.6860618591308594,67.11063385009766,28.83,0
-0.1777267456054687,-0.8561464548110962,-0.1178402453660965,95.48705291748048,3.683905601501465,67.18922424316406,28.83,0
-0.1980214118957519,-0.8349120020866394,-0.1148075088858604,9.635266304016112,3.68252182006836,67.23966217041016,28.83,0
-0.2222409099340438,-0.8324804902076721,-0.1072634980082511,-73.38206481933594,3.681633710861206,67.27202606201172,28.83,0
-0.2433813661336898,-0.8533111810684204,-0.1080199629068374,-152.6063995361328,3.681063890457153,67.29279327392578,28.83,0
-0.2513503134250641,-0.8946679830551147,-0.1085054129362106,-231.66079711914065,3.680698156356812,67.30612182617188,28.83,0
-0.245268777012825,-0.9435995221138,-0.103219173848629,-316.707275390625,3.674954891204834,67.3146743774414,28.83,0
-0.2357682287693023,-0.986196517944336,-0.099826768040657,-414.0611572265625,3.671269178390503,67.3201675415039,28.83,0
-0.2576601803302765,-1.041521668434143,-0.0808563977479934,-518.9979248046875,3.668903827667236,67.32369232177734,28.83,0
-0.2996980547904968,-1.0546350479125977,-0.0462912060320377,-606.6679077148438,3.6673858165740967,67.3259506225586,28.83,0
-0.326675534248352,-0.9846816658973694,0.0094773881137371,-649.401611328125,3.666411638259888,67.32740020751953,28.83,0
-0.304803729057312,-0.9621806740760804,0.0340709127485752,-643.4754638671875,3.6657865047454834,67.32833099365234,28.83,0
-0.2739743292331695,-0.9925230741500854,0.0330603010952472,-606.3222045898438,3.6653854846954346,67.32892608642578,28.83,0
-0.2150053679943084,-1.0735706090927124,0.0212161988019943,-553.804443359375,3.665127992630005,67.32931518554688,28.83,0
-0.1771624833345413,-1.1031911373138428,0.0192131102085113,-493.1427001953125,3.6589953899383545,67.32955932617188,28.83,0
-0.164072647690773,-1.0550265312194824,0.040318738669157,-429.0172119140625,3.655059814453125,67.32971954345703,28.83,0
-0.1724656671285629,-1.0185195207595823,0.081851989030838,-364.3240661621094,3.652534246444702,67.32981872558594,28.83,0
-0.133069634437561,-0.9727003574371338,0.1252989619970321,-298.97283935546875,3.6509134769439697,67.32988739013672,28.83,0
-0.1021897569298744,-0.9265029430389404,0.1195940822362899,-232.4541473388672,3.6498732566833496,67.32992553710938,28.83,0
-0.1159594729542732,-0.9024538397789,0.1047374680638313,-165.75942993164062,3.649205684661865,67.3299560546875,28.83,0
-0.2143604755401611,-0.8982160687446594,0.0728122517466545,-100.47077941894533,3.64877724647522,67.32997131347656,28.83,0
-0.2495197057723999,-0.8731054067611694,0.0131400628015398,-37.46374130249024,3.648502349853516,67.3299789428711,28.83,0
-0.3056695163249969,-0.8737841844558716,-0.030751883983612,23.86771011352539,3.652916431427002,67.32998657226562,28.83,0
-0.3864854276180267,-0.8630242347717285,-0.0645169839262962,85.94023895263672,3.655749082565308,67.32999420166016,28.83,0
-0.4383484423160553,-0.8617168664932251,-0.1085765808820724,152.1748046875,3.657566785812378,67.32999420166016,28.83,0
-0.3876644968986511,-0.905660092830658,-0.0528848767280578,223.0364227294922,3.658733367919922,67.32999420166016,28.83,0
-0.371931791305542,-0.950653612613678,-0.0171451456844806,290.99200439453125,3.659482002258301,67.32999420166016,28.83,0
-0.311455488204956,-0.9795278906822203,-0.0110027678310871,345.331787109375,3.6599624156951904,67.32999420166016,28.83,0
-0.3286230266094208,-0.9644711017608644,-0.0462453663349151,387.1828002929688,3.6602706909179688,67.32999420166016,28.83,0
-0.3452379405498504,-0.9156240820884703,-0.0912531316280365,434.1708679199219,3.660468578338623,67.32999420166016,28.83,0
-0.3167160153388977,-0.8450924754142761,-0.1593209505081176,501.1253051757813,3.5871481895446777,67.49837493896484,28.83,0
-0.3264011442661285,-0.805427074432373,-0.2421873807907104,576.8805541992188,3.540095329284668,67.60643768310547,28.83,0
-0.3326165080070495,-0.7855699062347412,-0.3177573680877685,629.6767578125,3.509899616241455,67.67578125,28.83,0
-0.3478007018566131,-0.7952178120613098,-0.3774493932723999,637.692138671875,3.4905216693878174,67.72028350830078,28.83,0
-0.3463495075702667,-0.8070070743560791,-0.4045607447624206,605.587890625,3.478085994720459,67.74884033203125,28.83,0
-0.3678093254566192,-0.8033772110939026,-0.3939703702926636,550.1232299804688,3.4701054096221924,67.76716613769531,28.83,0
-0.3535921275615692,-0.7842544317245483,-0.3815763294696808,483.1028137207031,3.464983940124512,67.7789306640625,28.83,0
-0.3276750147342682,-0.7775803208351135,-0.3736225366592407,412.3208618164063,3.4616973400115967,67.78648376464844,28.83,0
-0.333433985710144,-0.7676994800567627,-0.3461271524429321,344.3125305175781,3.435717821121216,67.79132843017578,28.83,0
-0.3315320014953613,-0.7669562697410583,-0.3452755212783813,279.02276611328125,3.4190456867218018,67.79443359375,28.83,0
-0.32471364736557,-0.755283772945404,-0.3279356658458709,210.30796813964844,3.40834641456604,67.79643249511719,28.83,0
-0.2867513597011566,-0.758988618850708,-0.2832213044166565,135.432861328125,3.401480197906494,67.79771423339844,28.83,0
-0.2847804427146911,-0.7613661289215088,-0.2321351021528244,58.8112907409668,3.397073984146118,67.79853057861328,28.83,0
-0.3394933640956878,-0.7852830290794373,-0.1937531381845474,-14.940075874328612,3.3942463397979736,67.79905700683594,28.83,0
-0.346616119146347,-0.8062292337417603,-0.1691218018531799,-87.78456115722656,3.3924314975738525,67.79939270019531,28.83,0
-0.3959692716598511,-0.8140735626220703,-0.1589126139879226,-166.1840057373047,3.3912670612335205,67.79961395263672,28.83,0
-0.4052501916885376,-0.8359009027481079,-0.1579587161540985,-257.029541015625,3.5081753730773926,67.79975128173828,28.83,0
-0.4447928071022033,-0.8667017817497253,-0.1293576806783676,-360.77392578125,3.583200454711914,67.79984283447266,28.83,0
-0.4365823268890381,-0.8976635336875916,-0.0830143168568611,-460.2033081054688,3.631347179412842,67.7999038696289,28.83,0
-0.3977266550064087,-0.8839463591575623,-0.0756649076938629,-525.62353515625,3.662245035171509,67.79994201660156,28.83,0
-0.3727913498878479,-0.8471546173095703,-0.0709484815597534,-539.9812622070312,3.682073593139648,67.79996490478516,28.83,0
-0.4071692526340484,-0.9075103998184204,-0.0567261986434459,-511.08734130859375,3.694798231124878,67.79998016357422,28.83,0
-0.418035477399826,-0.9518410563468932,-0.0084147360175848,-454.6698913574219,3.7029643058776855,67.79998779296875,28.83,0
-0.4697909951210022,-0.9634965658187866,0.0113932304084301,-382.30908203125,3.708204746246338,67.79999542236328,28.83,0
-0.4470269680023193,-0.948585331439972,0.024104842916131,-304.3847961425781,3.796950340270996,67.79999542236328,28.81,0
-0.4660049676895141,-0.9166250824928284,0.071446843445301,-228.9340362548828,3.853902101516724,67.79999542236328,28.81,0
-0.4893794953823089,-0.9241036772727966,0.1186215430498123,-156.514404296875,3.8904504776000977,67.79999542236328,28.81,0
-0.4707932770252228,-0.9009141325950624,0.1432977765798568,-85.42378234863281,3.913905143737793,67.79999542236328,28.81,0
-0.475659042596817,-0.8636413216590881,0.0863624885678291,-21.387474060058597,3.928956985473633,67.79999542236328,28.81,0
-0.5067704916000366,-0.8397217988967896,0.0274336040019989,26.560810089111328,3.9386162757873535,67.79999542236328,28.81,0
-0.4987471401691437,-0.8691537976264954,0.0232030823826789,47.95207595825195,3.944815158843994,67.79999542236328,28.81,0
-0.4544138014316559,-0.8824437856674194,0.0820636972784996,37.22151947021485,3.948793172836304,67.79999542236328,28.81,0
-0.4987342655658722,-0.9469502568244934,0.1030437275767326,5.2249908447265625,3.971404552459717,68.1331787109375,28.81,0
-0.4823943972587585,-0.9491624236106871,0.1780830174684524,-34.73326110839844,3.985915184020996,68.34699249267578,28.81,0
-0.4663106501102447,-0.9617775678634644,0.2318366914987564,-74.19058227539062,3.995227336883545,68.48420715332031,28.81,0
-0.4391956925392151,-0.975471019744873,0.2495393902063369,-106.662841796875,4.001203536987305,68.572265625,28.81,0
-0.4273926615715027,-0.9786609411239624,0.238508865237236,-127.00369262695312,4.005038738250732,68.62877655029297,28.81,0
-0.4366114735603332,-0.986305832862854,0.2258323282003402,-135.1885528564453,4.007499694824219,68.6650390625,28.81,0
-0.4201364815235138,-0.9576252102851868,0.2065017074346542,-134.62660217285156,4.009078979492188,68.68831634521484,28.81,0
-0.4207593202590942,-0.9448174238204956,0.1717053353786468,-128.07887268066406,4.010092735290527,68.70325469970703,28.81,0
-0.4827345311641693,-0.8862181305885315,0.110190600156784,-115.03511810302734,3.999267101287842,68.71283721923828,28.81,0
-0.5896799564361572,-0.8486124873161316,0.0875073075294494,-96.13520050048828,3.992319822311402,68.71898651123047,28.81,0
-0.6639091372489929,-0.824479341506958,0.0673527047038078,-75.18601989746094,3.987861394882202,68.72293090820312,28.81,0
-0.74513179063797,-0.7921987771987915,0.0432230904698371,-55.927520751953125,3.985000133514404,68.7254638671875,28.81,0
-0.7020936608314514,-0.7714829444885254,0.0613247379660606,-38.989990234375,3.983164072036743,68.72708892822266,28.81,0
-0.652083158493042,-0.7413954138755798,0.0785391107201576,-22.80749893188477,3.9819858074188232,68.72813415527344,28.81,0
-0.9558557868003844,-0.6493158936500549,0.0783907547593116,-7.320919990539551,3.981229543685913,68.72880554199219,28.81,0
-1.329928278923035,-0.4950624108314514,-7.329289655899629e-05,5.902696132659912,3.9807443618774414,68.72923278808594,28.81,0
-1.0941756963729858,-0.6143845915794373,0.044735163450241,16.459579467773438,3.980891942977905,68.72950744628906,28.81,0
-0.8981010913848877,-0.6741653680801392,0.101479522883892,26.74888801574707,3.9809865951538086,68.72968292236328,28.81,0
-0.8562383055686951,-0.6845403909683228,-0.052429549396038,39.15216064453125,3.98104739189148,68.72979736328125,28.81,0
-0.8237754106521606,-0.691198468208313,-0.1567973047494888,52.81533050537109,3.981086254119873,68.72987365722656,28.81,0
-0.8309314846992493,-0.6786779165267944,-0.2125789672136306,65.2807846069336,3.981111288070679,68.72991943359375,28.81,0
-0.8299260139465332,-0.609067440032959,-0.214789792895317,76.88446807861328,3.9811272621154794,68.72994995117188,28.81,0
-0.8516718745231628,-0.5699931979179382,-0.2274041175842285,90.9408950805664,3.98113751411438,68.72997283935547,28.81,0
-0.8488337993621826,-0.5169287323951721,-0.2019126117229461,108.7889633178711,3.9811441898345943,68.72998046875,28.81,0
-0.8414146900177002,-0.4716794788837433,-0.2023469656705856,128.14956665039062,3.757592916488648,68.72998809814453,28.83,0
-0.8590446710586548,-0.4314455389976501,-0.2362123429775238,148.11541748046875,3.61413049697876,68.72999572753906,28.83,0
-0.9207385182380676,-0.4224190413951874,-0.3083251714706421,172.33885192871094,3.522064447402954,68.72999572753906,28.83,0
-0.9435367584228516,-0.416626363992691,-0.3266141712665558,205.8291778564453,3.462981939315796,68.72999572753906,28.83,0
-0.946971833705902,-0.4241045117378235,-0.287971019744873,250.9735107421875,3.4250659942626958,68.72999572753906,28.83,0
-0.8876007199287415,-0.4345013201236725,-0.2239876389503479,303.81524658203125,3.4007339477539062,68.72999572753906,28.83,0
-0.8550975322723389,-0.4355756342411041,-0.1661334782838821,351.67657470703125,3.3851189613342285,68.72999572753906,28.83,0
-0.8566299676895142,-0.4474605917930603,-0.1290059983730316,381.3558654785156,3.37509822845459,68.72999572753906,28.83,0
-0.8576133847236633,-0.466283231973648,-0.1051797196269035,392.5851440429688,3.559311389923096,69.27455139160156,28.83,0
-0.8470489382743835,-0.4727647304534912,-0.0842916145920753,393.8407897949219,3.6775288581848153,69.62401580810547,28.83,0
-0.8290737271308899,-0.4825219810009002,-0.065289057791233,385.6256713867188,3.753393888473511,69.84828186035156,28.83,0
-0.8343316316604614,-0.4831858277320862,-0.0586920827627182,360.5921936035156,3.802079677581787,69.99220275878906,28.83,0
-0.8600969314575195,-0.4836118519306183,-0.0488607473671436,317.2959899902344,3.8333234786987305,70.08456420898438,28.83,0
-0.8822293877601624,-0.4894830286502838,-0.0481493398547172,261.3447570800781,3.8533740043640137,70.14382934570312,28.83,0
-0.907628297805786,-0.4932508170604706,-0.0364972501993179,196.16525268554688,3.866241216659546,70.18186950683594,28.83,0
-0.8847433924674988,-0.4844732284545898,-0.0178240593522787,125.03849792480467,3.874498605728149,70.2062759399414,28.83,0
-0.8644594550132751,-0.4732424914836883,-0.0058406800962984,58.90827178955078,3.908258438110352,70.22193908691406,28.83,0
-0.8962245583534241,-0.4772307872772217,-0.0205415356904268,10.71250057220459,3.929923534393311,70.23199462890625,28.83,0
-0.9334028959274292,-0.4797902703285217,-0.0299756992608308,-18.679845809936523,3.943826913833618,70.23844146728516,28.83,0
-0.934870719909668,-0.4814327955245971,-0.036030001938343,-39.31195068359375,3.952749490737915,70.24258422851562,28.83,0
-0.9022260308265686,-0.4712913036346435,-0.0343175306916236,-57.34593963623047,3.958475351333618,70.2452392578125,28.83,0
-0.881276547908783,-0.453587532043457,-0.0276207905262708,-74.117431640625,3.962149858474731,70.2469482421875,28.83,0
-0.8790279030799866,-0.4422262907028198,-0.0233232080936431,-93.8511734008789,3.964508056640625,70.24803924560547,28.83,0
-0.888780415058136,-0.4517286121845245,-0.0205652676522731,-118.78189849853516,3.966021299362183,70.24874114990234,28.83,0
-0.8950390219688416,-0.4522288739681244,-0.0243931543081998,-140.21934509277344,4.03157901763916,70.24919128417969,28.83,0
-0.8990554213523865,-0.4469521343708038,-0.0212518963962793,-151.716064453125,4.073649883270264,70.24948120117188,28.83,0
-0.9016329050064088,-0.4547613859176636,-0.013638244010508,-160.62017822265625,4.100648403167725,70.24966430664062,28.83,0
-0.9144825339317322,-0.4653706848621368,-0.0143500147387385,-175.4627227783203,4.117974758148193,70.24978637695312,28.83,0
-0.9171309471130372,-0.4665813446044922,-0.009209013544023,-190.03924560546875,4.129093647003174,70.24986267089844,28.83,0
-0.9132327437400818,-0.4729560613632202,-0.0003120400651823,-184.5653381347656,4.136229038238525,70.24990844726562,28.83,0
-0.899535596370697,-0.4770469963550567,0.0109952995553612,-141.9630126953125,4.14080810546875,70.24993896484375,28.83,0
-0.8907455205917358,-0.4740745425224304,0.012653924524784,-65.29122924804688,4.143746852874756,70.24996185302734,28.83,0
-0.8907023668289185,-0.4665692150592804,0.0081205600872635,15.335073471069336,4.161240100860596,70.2499771118164,28.83,0
-0.8906746506690979,-0.4673504829406738,0.0108090825378894,68.40911102294922,4.172466278076172,70.24998474121094,28.83,0
-0.8962546586990356,-0.4678518772125244,0.0181321948766708,84.4557876586914,4.179670333862305,70.24999237060547,28.83,0
-0.9054333567619324,-0.468173623085022,0.0116361984983086,61.74734878540039,4.184293746948242,70.24999237060547,28.83,0
-0.9113237261772156,-0.4739778935909271,0.0074674421921372,16.42871856689453,4.187260627746582,70.24999237060547,28.83,0
-0.9039082527160645,-0.4721049666404724,0.0103899491950869,-28.94772720336914,4.189164638519287,70.24999237060547,28.83,0
-0.8991494178771973,-0.4765008091926574,0.012265445664525,-60.91228103637695,4.190386295318604,70.24999237060547,28.83,0
-0.9016932845115662,-0.4737240374088287,0.0134690310806036,-77.95735931396484,4.1911702156066895,70.24999237060547,28.83,0
-0.8977279663085938,-0.4719420373439789,0.0142414234578609,-82.81269836425781,4.196722984313965,71.0130844116211,28.83,0
-0.9007810354232788,-0.4707984626293182,0.0147371003404259,-78.2188720703125,4.200286388397217,71.50279235839844,28.83,0
-0.9083381295204164,-0.4700645804405212,0.0150551972910761,-65.70533752441406,4.202573299407959,71.81705474853516,28.83,0
-0.9075900316238404,-0.4695936143398285,0.0152593329548835,-48.438995361328125,4.204041004180908,72.01873016357422,28.83,0
-0.8959144353866577,-0.4748891592025757,0.0153903355821967,-30.436912536621094,4.204982757568359,72.14815521240234,28.83,0
-0.8996172547340393,-0.4726897478103637,0.0154744060710072,-14.087142944335938,4.205587387084961,72.23121643066406,28.83,0
-0.8963956832885742,-0.4712783098220825,0.0155283575877547,0.2063093334436416,4.20597505569458,72.28451538085938,28.83,0
-0.888730525970459,-0.4703725278377533,0.0155629804357886,13.402257919311523,4.206223964691162,72.3187255859375,28.83,0
-0.8894092440605164,-0.4697912335395813,0.0211829729378223,26.026445388793945,4.205924987792969,72.3406753540039,28.83,0
-0.8842470049858093,-0.4694181978702545,0.024789560586214,38.81393051147461,4.205732822418213,72.3547592163086,28.83,0
-0.8921297192573547,-0.4747765958309173,0.0215062871575355,52.078800201416016,4.2056097984313965,72.36380004882812,28.83,0
-0.8971884250640869,-0.48381307721138,0.0249970462173223,66.18383026123047,4.205530643463135,72.3696060180664,28.83,0
-0.8948370218276978,-0.4784166216850281,0.0216394402086734,81.35466766357422,4.205480098724365,72.37332916259766,28.83,0
-0.89892578125,-0.4749534726142883,0.0194847211241722,97.65013122558594,4.205447673797607,72.37571716308594,28.83,0
-0.901549756526947,-0.4783287942409515,0.0181019473820924,114.17292785644533,4.205426692962647,72.37725067138672,28.83,0
-0.892038106918335,-0.480494886636734,0.0172145627439022,129.26168823242188,4.205413341522217,72.37823486328125,28.83,0
-0.8915318250656128,-0.4818849563598633,0.0166450906544923,140.54977416992188,4.201732158660889,72.37886810302734,28.83,0
-0.8856091499328613,-0.4827770292758941,0.0162796359509229,144.82386779785156,4.19936990737915,72.3792724609375,28.83,0
-0.881808340549469,-0.4833495020866394,0.0104473335668444,142.99179077148438,4.1978535652160645,72.37953186035156,28.83,0
-0.8849669694900513,-0.4837169051170349,0.0123022720217704,136.10902404785156,4.19688081741333,72.37969970703125,28.83,0
-0.8925917744636536,-0.4839526712894439,0.013492664322257,125.02130126953124,4.196256637573242,72.37980651855469,28.83,0
-0.8974849581718445,-0.4841039776802063,0.0086588151752948,111.18134307861328,4.195856094360352,72.37987518310547,28.83,0
-0.9006251096725464,-0.4786033034324646,0.0111545035615563,96.61769104003906,4.195598602294922,72.37992095947266,28.83,0
-0.8970425128936768,-0.4750732779502868,0.0127560924738645,81.87263488769531,4.195433616638184,72.37995147705078,28.83,0
-0.9003411531448364,-0.472807914018631,0.0137839000672101,66.09044647216797,4.192114353179932,72.37996673583984,28.83,0
-0.9024580717086792,-0.4713541269302368,0.0144434878602623,48.81868743896485,4.189984321594238,72.37997436523438,28.83,0
-0.9038165807724,-0.47042116522789,0.0148667739704251,31.382762908935547,4.188617706298828,72.3799819946289,28.83,0
-0.899090588092804,-0.4698224663734436,0.0151384137570858,14.858933448791504,4.187740325927734,72.37998962402344,28.83,0
-0.8960577249526978,-0.4750360250473022,0.0209105107933282,-2.286890983581543,4.187177658081055,72.37998962402344,28.83,0
-0.8941113948822021,-0.4783817827701568,0.0190169364213943,-22.32893180847168,4.186816215515137,72.37998962402344,28.83,0
-0.8984601497650146,-0.4749311208724975,0.0122039755806326,-44.5699462890625,4.18658447265625,72.37998962402344,28.83,0
-0.8956531286239624,-0.4727166891098022,0.0134295830503106,-65.78239440917969,4.186435699462891,72.37998962402344,28.83,0
-0.8938517570495605,-0.4712955951690674,0.0142161073163151,-85.57884979248047,4.180372714996338,73.03560638427734,28.83,0
-0.8926957249641418,-0.4703836143016815,0.0147208534181118,-107.55835723876952,4.1764817237854,73.45634460449219,28.83,0
-0.8975516557693481,-0.4697983562946319,0.0150447711348533,-133.7869873046875,4.173984527587891,73.72634887695312,28.83,0
-0.9006679058074951,-0.475020557641983,0.0208504162728786,-161.29150390625,4.172382354736328,73.89962005615234,28.83,0
-0.902667760848999,-0.4783718585968017,0.0189783722162246,-187.00311279296875,4.171353816986084,74.01081848144531,28.83,0
-0.903951108455658,-0.4805225431919098,0.0177770014852285,-212.9828338623047,4.170693874359131,74.0821762084961,28.83,0
-0.8991769552230835,-0.4819027185440063,0.01700603030622,-244.5478973388672,4.170270442962647,74.12796783447266,28.83,0
-0.8961131572723389,-0.4771906435489654,0.0165112651884555,-285.74468994140625,4.169998645782471,74.15735626220703,28.83,0
-0.8941469788551331,-0.4741667211055755,0.0161937531083822,-332.0155639648437,4.162020206451416,74.17621612548828,28.83,0
-0.8928852081298828,-0.4722261428833008,0.0159899927675724,-364.8335571289063,4.156900405883789,74.18831634521484,28.83,0
-0.8976732492446899,-0.4709807932376861,0.015859231352806,-365.448486328125,4.153614521026611,74.19608306884766,28.83,0
-0.900745928287506,-0.4701815843582153,0.0157753154635429,-335.6312561035156,4.151505947113037,74.20106506347656,28.83,0
-0.8971200585365295,-0.4752664864063263,0.0157214645296335,-291.24627685546875,4.150152683258057,74.20426940917969,28.83,0
-0.9003909230232239,-0.4729318916797638,0.0156869050115346,-241.13812255859372,4.149284362792969,74.2063217163086,28.83,0
-0.902489960193634,-0.4714336991310119,0.0156647264957427,-186.7158966064453,4.148726940155029,74.2076416015625,28.83,0
-0.898239254951477,-0.4704722464084625,0.0156504940241575,-132.52374267578125,4.148369312286377,74.20848846435547,28.83,0
-0.9011091589927672,-0.46985524892807,0.0156413614749908,-85.26822662353516,4.1426310539245605,74.20903015136719,28.83,0
-0.902950882911682,-0.4750570654869079,0.0212332736700773,-49.80852890014648,4.138948917388916,74.2093734741211,28.83,0
-0.904132843017578,-0.4727975130081177,0.0192240662872791,-28.532140731811523,4.136585712432861,74.2095947265625,28.83,0
-0.904891312122345,-0.471347451210022,0.0179346743971109,-19.553438186645508,4.135069370269775,74.2097396850586,28.83,0
-0.9053780436515808,-0.4704169034957886,0.0171072166413068,-17.424156188964844,4.134096145629883,74.20983123779297,28.83,0
-0.9056904315948486,-0.4698197245597839,0.016576200723648,-15.907238006591797,4.133471488952637,74.20989227294922,28.83,0
-0.9002931118011475,-0.4694364964962005,0.0162354260683059,-9.921744346618652,4.133070945739746,74.20993041992188,28.83,0
-0.9024271965026855,-0.4691905677318573,0.016016736626625,-1.5450576543807983,4.132813453674316,74.20995330810547,28.83,0
-0.9037967324256896,-0.4746305048465729,0.0158763937652111,-1.779695749282837,4.126680850982666,74.20996856689453,28.83,0
-0.9046756625175476,-0.4781215488910675,0.0157863292843103,-15.952473640441896,4.122745513916016,74.20997619628906,28.83,0
-0.9052397012710572,-0.4803619086742401,0.0213263053447008,-33.21243667602539,4.120220184326172,74.2099838256836,28.83,0
-0.9000038504600525,-0.4817996323108673,0.0192837696522474,-41.39058303833008,4.11859941482544,74.20999145507812,28.83,0
-0.8966438174247742,-0.4771245121955871,0.0179729871451854,-42.2537727355957,4.117559432983398,74.20999145507812,28.83,0
-0.8944875597953796,-0.4741242825984955,0.0171318035572767,-40.67608642578125,4.116891860961914,74.20999145507812,28.83,0
-0.898701548576355,-0.4721989035606384,0.0165919791907072,-31.083351135253903,4.1164631843566895,74.20999145507812,28.83,0
-0.9014058113098145,-0.4709632992744446,0.0162455514073371,-8.04260540008545,4.1161885261535645,74.20999145507812,28.83,0
-0.9031412601470948,-0.4701703786849975,0.0216210093349218,20.181856155395508,4.109585285186768,74.77962493896484,28.83,0
-0.9042549729347228,-0.4696615040302276,0.0194728933274745,41.493934631347656,4.105347633361816,75.14517974853516,28.83,0
-0.9049696922302246,-0.4693349599838257,0.0180943571031093,56.263484954833984,4.102628231048584,75.37977600097656,28.83,0
-0.9054283499717712,-0.4691253900527954,0.0172096919268369,72.01482391357422,4.1008830070495605,75.53032684326172,28.83,0
-0.9001249670982361,-0.4689908921718597,0.0166419632732868,88.11318969726562,4.099762916564941,75.62693786621094,28.83,0
-0.8967215418815613,-0.468904584646225,0.0218754038214683,98.42628479003906,4.099044322967529,75.6889419555664,28.83,0
-0.9001351594924927,-0.4688492119312286,0.0196361485868692,102.99181365966795,4.098583221435547,75.72872924804688,28.83,0
-0.8967280983924866,-0.4688136577606201,0.0237968992441892,105.01890563964844,4.098287105560303,75.75426483154297,28.83,0
-0.9001393914222717,-0.4687908589839935,0.026467029005289,102.5652313232422,4.092588424682617,75.7706527709961,28.83,0
-0.9023285508155824,-0.4687762260437011,0.0281805638223886,92.3458480834961,4.088931560516357,75.78116607666016,28.83,0
-0.8981356620788574,-0.468766838312149,0.0292802117764949,75.63819885253906,4.086584568023682,75.78791809082031,28.83,0
-0.895444929599762,-0.4687608182430267,0.0299859028309583,56.11022186279297,4.085078716278076,75.79224395751953,28.83,0
-0.8937181830406189,-0.4743547141551971,0.0304387751966714,37.6133041381836,4.084112167358398,75.7950210571289,28.83,0
-0.8926100134849548,-0.4723467826843261,0.0251316279172897,24.990707397460938,4.083491802215576,75.79680633544922,28.83,0
-0.8974966406822205,-0.4710582196712494,0.0273235812783241,21.74105834960937,4.083093643188477,75.7979507446289,28.83,0
-0.9006326198577881,-0.4758290648460388,0.0231324769556522,26.111421585083008,4.08283805847168,75.7986831665039,28.83,0
-0.9026451110839844,-0.4732929468154907,0.0260406415909528,31.95767593383789,4.079002380371094,75.79915618896484,28.83,0
-0.9039365649223328,-0.4772631824016571,0.027906933799386,33.864437103271484,4.076540946960449,75.7994613647461,28.83,0
-0.8991675972938538,-0.4798110425472259,0.0235068388283252,31.12575912475586,4.074961185455322,75.79965209960938,28.83,0
-0.8961071372032166,-0.4814461171627044,0.0206831097602844,26.985820770263672,4.073947429656982,75.79977416992188,28.83,0
-0.8941431045532227,-0.4824953973293304,0.0244687777012586,24.590574264526367,4.073296546936035,75.79985809326172,28.83,0
-0.8984804749488831,-0.4831687808036804,0.0213004276156425,24.08522605895996,4.072878837585449,75.79991149902344,28.83,0
-0.901263952255249,-0.4780031442642212,0.0192671623080968,23.384750366210938,4.072610855102539,75.79994201660156,28.83,0
-0.9030502438545228,-0.4746881425380707,0.0179623309522867,20.97914123535156,4.072439193725586,75.79996490478516,28.83,0
-0.904196560382843,-0.4781585335731506,0.0171249639242887,17.038616180419922,4.067738056182861,75.79998016357422,28.81,0
-0.9049322009086608,-0.4803856313228607,0.0165875907987356,12.532232284545898,4.06472110748291,75.79998779296875,28.81,0
-0.9054043292999268,-0.4762170910835266,0.0162427350878715,9.120820999145508,4.0627851486206055,75.79999542236328,28.81,0
-0.9001095294952393,-0.4735419452190399,0.0160214267671108,8.712113380432129,4.061542510986328,75.79999542236328,28.81,0
-0.8967116475105286,-0.4718251824378967,0.0158794037997722,11.09018611907959,4.0607452392578125,75.79999542236328,28.81,0
-0.8945310711860657,-0.4707234799861908,0.01578826084733,12.924397468566896,4.0602335929870605,75.79999542236328,28.81,0
-0.893131673336029,-0.4700164794921875,0.015729771926999,10.662217140197754,4.059905052185059,75.79999542236328,28.81,0
-0.8978314399719238,-0.4695627391338348,0.0156922359019517,4.080231189727783,4.059694290161133,75.79999542236328,28.81,0
-0.9008474349975586,-0.469271570444107,0.0156681481748819,-2.8127269744873047,4.056804656982422,76.25140380859375,28.81,0
-0.8971851468086243,-0.4690847098827362,0.0156526900827884,-4.939799785614014,4.05495023727417,76.54109191894531,28.81,0
-0.8948349356651306,-0.4745625853538513,0.0156427696347236,-1.5471723079681396,4.053760528564453,76.72699737548828,28.81,0
-0.8989244699478149,-0.4780779480934143,0.0156364031136035,3.392186403274536,4.05299711227417,76.84629821777344,28.81,0
-0.9015489220619202,-0.480333924293518,0.0156323183327913,6.551234722137451,4.052506923675537,76.92285919189453,28.81,0
-0.9032331109046936,-0.4817816615104675,0.0156296957284212,7.364037036895752,4.052192211151123,76.97199249267578,28.81,0
-0.898716151714325,-0.4827107489109039,0.0156280137598514,6.108689308166504,4.051990509033203,77.00352478027344,28.81,0
-0.8958174586296082,-0.4833069741725921,0.0156269334256649,4.554320812225342,4.051860809326172,77.02375793457031,28.81,0
-0.8939571976661682,-0.4836896061897278,0.0156262405216693,5.946394443511963,4.046728610992432,77.0367431640625,28.81,0
-0.8927634358406067,-0.4783373773097992,0.0156257953494787,11.235568046569824,4.043435096740723,77.04507446289062,28.81,0
-0.8975951075553894,-0.4749026298522949,0.0156255103647708,18.47395896911621,4.041321277618408,77.05042266845703,28.81,0
-0.90069580078125,-0.4726983904838562,0.0156253278255462,26.31838035583496,4.03996467590332,77.0538558959961,28.81,0
-0.9026856422424316,-0.4712838530540466,0.0156252104789018,33.727725982666016,4.0390944480896,77.0560531616211,28.81,0
-0.8983648419380188,-0.4703760743141174,0.0156251359730958,36.91344833374024,4.0385355949401855,77.05746459960938,28.81,0
-0.9011897444725036,-0.4753912985324859,0.015625087544322,31.89302444458008,4.038177013397217,77.0583724975586,28.81,0
-0.8974048495292664,-0.4786097705364227,0.0156250558793544,20.24856948852539,4.037947177886963,77.05895233154297,28.81,0
-0.8949759006500244,-0.4806752204895019,0.0156250353902578,8.211627006530762,4.033208847045898,77.059326171875,28.81,0
-0.8934171795845032,-0.4764029085636139,0.0156250223517417,0.2433960437774658,4.030168056488037,77.0595703125,28.81,0
-0.8980146050453186,-0.4736611843109131,0.0212227888405323,-3.723731756210327,4.02821683883667,77.05972290039062,28.81,0
-0.9009649753570556,-0.4774994850158691,0.0248151123523712,-5.524430274963379,4.0269646644592285,77.05982208251953,28.81,0
-0.9028583765029908,-0.4799626767635345,0.0271204598248004,-6.339670181274414,4.026160717010498,77.05988311767578,28.81,0
-0.9040734767913818,-0.4815434217453003,0.0285998992621898,-7.088546752929688,4.025644779205322,77.05992126464844,28.81,0
-0.9048532247543336,-0.482557862997055,0.023951543495059,-8.228326797485352,4.025313854217529,77.05995178222656,28.81,0
-0.9053536057472228,-0.477611094713211,0.0209684967994689,-8.537027359008789,4.025101661682129,77.05996704101562,28.81,0
-0.9000769853591919,-0.4744365513324737,0.0246519222855567,-7.4991455078125,4.023129463195801,77.05997467041016,28.79,0
-0.8966907262802124,-0.4723992943763733,0.0270157326012849,-8.190888404846191,4.021863460540772,77.05998229980469,28.79,0
-0.900115430355072,-0.4710918962955475,0.0229349173605442,-12.418008804321287,4.021050930023193,77.05998992919922,28.79,0
-0.9023131728172302,-0.4702529013156891,0.0259138587862253,-15.603631973266602,4.020529747009277,77.05998992919922,28.79,0
-0.9037235975265504,-0.4697144627571106,0.0278255715966224,-13.857616424560549,4.020195484161377,77.05998992919922,28.79,0
-0.9046286940574646,-0.4693689346313476,0.0290523990988731,-11.081974029541016,4.0199809074401855,77.05998992919922,28.79,0
-0.89961177110672,-0.4691472053527832,0.0298397056758403,-11.70821762084961,4.019843101501465,77.05998992919922,28.79,0
-0.8963921666145325,-0.4690048992633819,0.0303449537605047,-13.71868133544922,4.019754409790039,77.05998992919922,28.79,0
-0.8999238014221191,-0.468913584947586,0.0306691937148571,-13.683327674865724,4.017861843109131,77.41825103759766,28.79,0
-0.8965924382209778,-0.4688549935817718,0.0252794977277517,-11.113429069519045,4.016646862030029,77.64816284179688,28.79,0
-0.8944545388221741,-0.4688173830509186,0.0274184755980968,-5.7275896072387695,4.015867233276367,77.79570770263672,28.79,0
-0.8930825591087341,-0.4743910133838653,0.0287911482155323,3.131256103515625,4.015367031097412,77.89038848876953,28.79,0
-0.8977999091148376,-0.4723700881004333,0.0296720508486032,13.692238807678224,4.015046119689941,77.9511489868164,28.79,0
-0.8952294588088989,-0.4710731506347656,0.0302373636513948,22.00301170349121,4.014840126037598,77.99014282226562,28.79,0
-0.8991776704788208,-0.4702408611774444,0.0306001491844654,25.520021438598636,4.014708042144775,78.01516723632812,28.79,0
-0.8961136341094971,-0.4697067439556122,0.0308329630643129,25.434032440185547,4.014623165130615,78.0312271118164,28.79,0
-0.8941472768783569,-0.4693639874458313,0.030982369557023,25.059999465942383,4.010437488555908,78.04153442382812,28.79,0
-0.8928853869438171,-0.4691440165042877,0.0310782510787248,25.880409240722656,4.007750988006592,78.04814910888672,28.79,0
-0.8920755982398987,-0.4690028429031372,0.0311397816985845,26.080886840820312,4.006027221679688,78.0523910522461,28.79,0
-0.891555905342102,-0.468912273645401,0.0311792679131031,22.949398040771484,4.004920959472656,78.05511474609375,28.79,0
-0.8912224173545837,-0.4688541293144226,0.0312046073377132,15.415456771850586,4.004210948944092,78.0568618774414,28.79,0
-0.8966061472892761,-0.474414587020874,0.0312208700925111,5.722634315490723,4.003755569458008,78.0579833984375,28.79,0
-0.9000611305236816,-0.4779829680919647,0.0312313064932823,-0.6803722977638245,4.003463268280029,78.05870819091797,28.79,0
-0.8966805934906006,-0.474675178527832,0.0312380027025938,-0.0317927114665508,4.003275394439697,78.05917358398438,28.79,0
-0.9001089334487915,-0.4725524485111236,0.0312423016875982,4.923551559448242,4.00085973739624,78.0594711303711,28.79,0
-0.902309000492096,-0.4711901843547821,0.0256472844630479,8.630245208740234,3.999309301376343,78.05966186523438,28.79,0
-0.8981231451034546,-0.4703159630298614,0.0220567248761653,9.396828651428224,3.998314380645752,78.05978393554688,28.79,0
-0.8954368829727173,-0.4753527045249939,0.0253502856940031,8.616963386535645,3.997675895690918,78.05986022949219,28.79,0
-0.8993107676506042,-0.4729872345924377,0.0274639036506414,6.859006881713867,3.9972660541534415,78.05990600585938,28.79,0
-0.901796817779541,-0.4714692234992981,0.0288203004747629,5.000005722045898,3.997003078460693,78.0599365234375,28.79,0
-0.8977944254875183,-0.4760928153991699,0.035288531333208,5.630537033081055,3.9968342781066895,78.0599594116211,28.79,0
-0.900823712348938,-0.4790599644184112,0.0338416956365108,9.241580963134766,3.996726036071777,78.05997467041016,28.79,0
-0.8971699476242065,-0.4809641242027282,0.0329132005572319,11.913616180419922,3.990229845046997,78.05998229980469,28.81,0
-0.8948251605033875,-0.4765883088111877,0.0267195720225572,10.167606353759766,3.986060857772827,78.05998992919922,28.81,0
-0.8989182114601135,-0.4737801849842071,0.0283426325768232,5.246005058288574,3.983385562896729,78.05998992919922,28.81,0
-0.8959470987319946,-0.4719780683517456,0.0293842181563377,-0.5599188208580017,3.981668710708618,78.05998992919922,28.81,0
-0.8996381759643555,-0.4764193594455719,0.0300526488572359,-8.427284240722656,3.9805667400360103,78.05998992919922,28.81,0
-0.9020069241523744,-0.4792695343494415,0.0304816085845232,-19.75636100769043,3.979859590530396,78.05998992919922,28.81,0
-0.8979292511940002,-0.4810985922813415,0.0307568907737731,-31.311471939086918,3.979405879974365,78.05998992919922,28.81,0
-0.8953124284744263,-0.4822723865509033,0.0309335514903068,-38.031856536865234,3.979114770889282,78.05998992919922,28.81,0
-0.8936331272125244,-0.4830256700515747,0.0310469213873147,-38.27122497558594,3.975255727767944,78.39675903320312,28.81,0
-0.8925554156303406,-0.4835090637207031,0.0311196763068437,-32.69629669189453,3.972779273986816,78.61287689208984,28.81,0
-0.8974615931510925,-0.483819305896759,0.0311663653701543,-22.71298599243164,3.971189975738525,78.7515640258789,28.81,0
-0.8950123190879822,-0.478420615196228,0.0311963278800249,-13.210926055908203,3.970170021057129,78.84056854248047,28.81,0
-0.8990383148193359,-0.4749560356140136,0.0368133299052715,-8.879260063171387,3.969515562057495,78.89768981933594,28.81,0
-0.8960241675376892,-0.472732663154602,0.0348202250897884,-5.6444597244262695,3.969095468521118,78.93434143066406,28.81,0
-0.8940898776054382,-0.4713058471679687,0.033541165292263,4.309532642364502,3.9688258171081534,78.9578628540039,28.81,0
-0.8984463214874268,-0.4703902006149292,0.0327203385531902,19.42816925048828,3.9686529636383057,78.97296142578125,28.81,0
-0.8956442475318909,-0.469802588224411,0.0321935787796974,31.717060089111328,3.965787649154663,78.98265075683594,28.81,0
-0.8938460350036621,-0.4750232696533203,0.031855534762144,38.74354553222656,3.9639487266540527,78.9888687133789,28.81,0
-0.8926920890808105,-0.4783735871315002,0.0316385962069034,42.410831451416016,3.962768793106079,78.99285888671875,28.81,0
-0.8919515609741211,-0.4805236458778381,0.0314993783831596,42.27081298828125,3.962011575698853,78.99541473388672,28.81,0
-0.8970741033554077,-0.4819034337997436,0.037007812410593,37.57376480102539,3.961525678634644,78.99705505371094,28.81,0
-0.9003614187240601,-0.4771911203861236,0.0405428074300289,30.37143898010254,3.9612138271331783,78.99810791015625,28.81,0
-0.9024710655212402,-0.4741670191287994,0.0428113639354705,23.06963348388672,3.961013555526733,78.99878692626953,28.81,0
-0.9038249254226683,-0.4722263216972351,0.0442671924829483,16.682031631469727,3.9608850479125977,78.99922180175781,28.81,0
-0.8990959525108337,-0.4765786826610565,0.0452014580368995,11.90573024749756,3.959884405136109,78.99950408935547,28.81,0
-0.8960611820220947,-0.4793717861175537,0.0458010174334049,9.1235990524292,3.959242343902588,78.99967956542969,28.81,0
-0.888515830039978,-0.4755664467811584,0.0405880063772201,7.789591789245605,3.958830118179321,78.99979400634766,28.81,0
-0.8892714381217957,-0.4731244146823883,0.0428403690457344,7.388489723205566,3.9585657119750977,78.99987030029297,28.81,0
-0.895354151725769,-0.4715572595596313,0.0442858077585697,7.897756576538086,3.958395957946777,78.99991607666016,28.81,0
-0.8992576599121094,-0.476149320602417,0.0396156311035156,8.22457504272461,3.958287000656128,78.99994659423828,28.81,0
-0.8961649537086487,-0.4734984636306762,0.047814130783081,5.364040374755859,3.958217144012451,78.99996948242188,28.81,0
-0.8941802382469177,-0.4717972874641418,0.0530754551291465,-3.167520046234131,3.95817232131958,78.9999771118164,28.81,0
-0.8929065465927124,-0.4707055687904358,0.0508540943264961,-15.818483352661133,3.954930305480957,78.99998474121094,28.81,0
-0.8864914178848267,-0.4700049757957458,0.055026326328516,-25.84307289123535,3.952849864959717,78.99999237060547,28.81,0
-0.8823745250701904,-0.4751531481742859,0.0577038265764713,-26.472505569458008,3.951514720916748,78.99999237060547,28.81,0
-0.885330319404602,-0.4784569442272186,0.0594220906496048,-19.782939910888672,3.950657844543457,78.99999237060547,28.81,0
-0.8872271776199341,-0.4861749112606048,0.0549269989132881,-16.027347564697266,3.950108051300049,78.99999237060547,28.81,0
-0.8828467130661011,-0.4855300784111023,0.0520423091948032,-20.936426162719727,3.9497551918029785,78.99999237060547,28.81,0
-0.891231119632721,-0.4851162731647491,0.050191082060337,-30.026700973510746,3.949528694152832,78.99999237060547,28.81,0
-0.8910139799118042,-0.4848507046699524,0.0490030720829963,-37.33633804321289,3.94938325881958,78.99999237060547,28.81,0
-0.8908746242523193,-0.4846802651882171,0.0426428988575935,-41.457611083984375,3.94653582572937,79.3582534790039,28.81,0
-0.8907852172851562,-0.4845708906650543,0.0441590808331966,-42.52607345581055,3.9447083473205566,79.58816528320312,28.81,0
-0.8907278180122375,-0.4845007061958313,0.045132078230381,-40.610801696777344,3.943535566329956,79.73571014404297,28.81,0
-0.8962887525558472,-0.4844556748867035,0.0401587188243866,-36.44397735595703,3.942783117294312,79.83039093017578,28.81,0
-0.8998574614524841,-0.4844267666339874,0.0425648763775825,-30.746257781982425,3.942300081253052,79.89115142822266,28.81,0
-0.902147650718689,-0.4788104593753814,0.044109009206295,-23.940704345703125,3.94199013710022,79.93014526367188,28.81,0
-0.9036173224449158,-0.4752062261104584,0.0450999476015567,-16.327478408813477,3.941791296005249,79.95516967773438,28.81,0
-0.8989627361297607,-0.4728932380676269,0.0457358732819557,-8.178022384643555,3.9416637420654297,79.97122955322266,28.81,0
-0.895975649356842,-0.4770066738128662,0.0461439751088619,-0.8559462428092957,3.936073303222656,79.98153686523438,28.81,0
-0.8940587639808655,-0.4796464443206787,0.0464058704674243,3.771289348602295,3.932485580444336,79.98815155029297,28.81,0
-0.8928285837173462,-0.4813404977321625,0.0465739406645298,6.6476359367370605,3.930183172225952,79.99239349365234,28.81,0
-0.8920391201972961,-0.4824276268482208,0.0410840213298797,10.92249584197998,3.92870569229126,79.9951171875,28.81,0
-0.8915324807167053,-0.4831252992153168,0.0375609099864959,17.126623153686523,3.927757501602173,79.99686431884766,28.81,0
-0.8912073969841003,-0.4835730195045471,0.0352999791502952,22.756059646606445,3.9271490573883057,79.99798583984375,28.81,0
-0.8909987211227417,-0.4838603436946869,0.0394468195736408,26.744876861572266,3.926758527755737,79.99871063232422,28.81,0
-0.8908648490905762,-0.4784469604492187,0.0421080216765403,30.583650588989254,3.9265079498291016,79.99917602539062,28.81,0
-0.8907788991928101,-0.4749729633331299,0.043815828859806,34.77753829956055,3.9235928058624263,79.99947357177734,28.81,0
-0.8963215351104736,-0.4783413112163543,0.0449118018150329,36.813323974609375,3.921721935272217,79.99966430664062,28.81,0
-0.894280731678009,-0.4805029332637787,0.0456151328980922,33.845760345458984,3.92052149772644,79.99978637695312,28.81,0
-0.8929710388183594,-0.4818901419639587,0.0460664890706539,26.703622817993164,3.9197511672973633,79.99986267089844,28.81,0
-0.8921305537223816,-0.4771825969219208,0.0463561452925205,18.72751235961914,3.919256687164306,79.99990844726562,28.81,0
-0.8915911912918091,-0.4741615653038025,0.0465420298278331,11.792537689208984,3.9189393520355225,79.99993896484375,28.81,0
-0.8912450671195984,-0.4778206050395965,0.0466613173484802,7.306243896484375,3.9187357425689697,79.99996185302734,28.81,0
-0.8910229206085205,-0.4801687598228454,0.0467378720641136,7.060391902923584,3.918605089187622,79.9999771118164,28.81,0
-0.8908803462982178,-0.4816756844520569,0.0467869974672794,7.84125280380249,3.9180619716644287,79.99998474121094,28.77,0
-0.8907888531684875,-0.4826427400112152,0.0412207506597042,3.659938097000122,3.9177134037017822,79.99999237060547,28.77,0
-0.8907301425933838,-0.4832633435726166,0.043246429413557,-3.1254377365112305,3.917489767074585,79.99999237060547,28.77,0
-0.8906924724578857,-0.4780638217926025,0.038948617875576,-5.563223838806152,3.917346239089966,79.99999237060547,28.77,0
-0.8906682729721069,-0.4803248345851898,0.036190528422594,-4.050221920013428,3.9172539710998535,79.99999237060547,28.77,0
-0.8962505459785461,-0.4817758500576019,0.0400183200836181,-0.7756680846214294,3.917194843292236,79.99999237060547,28.77,0
-0.8998329043388367,-0.4827070236206054,0.0424747765064239,6.782013893127441,3.917156934738159,79.99999237060547,28.77,0
-0.8965340852737427,-0.4777068197727203,0.0384534150362014,17.01312828063965,3.917132616043091,79.99999237060547,28.77,0
-0.8944171071052551,-0.4800957441329956,0.0358727388083934,23.95503807067871,3.913444757461548,80.28660583496094,28.77,0
-0.8930585384368896,-0.481628805398941,0.034216608852148,27.897647857666016,3.9110782146453857,80.47053527832031,28.77,0
-0.8977844715118408,-0.4826126396656036,0.033153798431158,30.825454711914062,3.909559488296509,80.58856964111328,28.77,0
-0.900817334651947,-0.4832440316677093,0.0380695238709449,27.667251586914062,3.9085848331451416,80.66431427001953,28.77,0
-0.902763605117798,-0.4836492240428924,0.0356263779103755,14.90710163116455,3.907959222793579,80.71292877197266,28.77,0
-0.9040126204490662,-0.4783114790916443,0.0340585075318813,-2.6572275161743164,3.907557964324951,80.74412536621094,28.77,0
-0.8992164134979248,-0.4748860001564026,0.0330523401498794,-20.599760055541992,3.9073002338409424,80.76414489746094,28.77,0
-0.8905407190322876,-0.4670899510383606,0.0380044132471084,-38.80649566650391,3.907135009765625,80.77699279785156,28.77,0
-0.8961687088012695,-0.4676846861839294,0.0411823689937591,-54.54958724975586,3.905192852020264,80.78524017333984,28.77,0
-0.8997803926467896,-0.4736641049385071,0.0432217977941036,-62.255855560302734,3.9039466381073,80.79052734375,28.77,0
-0.9020981788635254,-0.4830991327762604,0.0445305854082107,-61.63039016723633,3.903146743774414,80.7939224243164,28.77,0
-0.9035856127738952,-0.4835562109947204,0.0453704893589019,-58.91823959350586,3.902633428573608,80.79610443115234,28.77,0
-0.8989423513412476,-0.4838495552539825,0.0403117164969444,-59.60314178466797,3.902304172515869,80.79750061035156,28.77,0
-0.8959625959396362,-0.4840377867221832,0.0370652861893177,-63.29206848144531,3.902092695236206,80.79840087890625,28.77,0
-0.8940503597259521,-0.4841586053371429,0.0349819175899028,-65.05754089355469,3.901957035064697,80.7989730834961,28.77,0
-0.8928232192993164,-0.4786383509635925,0.0336449295282363,-60.52288055419922,3.901870012283325,80.7993392944336,28.77,0
-0.8976334929466248,-0.4750957787036896,0.0383847020566463,-50.71992111206055,3.900437116622925,80.79957580566406,28.77,0
-0.8951226472854614,-0.472822368144989,0.0358286425471305,-40.875030517578125,3.89951753616333,80.79972839355469,28.77,0
-0.8991091251373291,-0.4713634252548218,0.039786085486412,-34.098575592041016,3.8989272117614746,80.7998275756836,28.77,0
-0.9016674160957336,-0.4704271554946899,0.0423257425427436,-29.645944595336918,3.898548364639282,80.79988861083984,28.77,0
-0.903309166431427,-0.4698263108730316,0.0439555495977401,-26.054075241088867,3.8983054161071777,80.7999267578125,28.77,0
-0.898764967918396,-0.4694407284259796,0.0450014658272266,-21.61380386352539,3.898149490356445,80.79995727539062,28.77,0
-0.8958487510681152,-0.4691932797431946,0.0456726737320423,-13.963642120361328,3.898049354553223,80.79997253417969,28.77,0
-0.8883795142173767,-0.4746322333812713,0.0461034178733825,-3.4009041786193848,3.897985219955444,80.79998016357422,28.77,0
-0.8891839981079102,-0.4781226515769958,0.046379841864109,6.2043046951293945,3.89702582359314,80.79998779296875,28.79,0
-0.8897002339363098,-0.4747648239135742,0.0521550104022026,12.561835289001465,3.89640998840332,80.79999542236328,28.79,0
-0.8900315165519714,-0.4782077372074127,0.0502634085714817,17.591114044189453,3.896014928817749,80.79999542236328,28.79,0
-0.8958418965339661,-0.4804171919822693,0.0490494854748249,23.69184112548828,3.895761251449585,80.79999542236328,28.79,0
-0.8939729332923889,-0.4762373268604278,0.0538682341575622,30.77393341064453,3.8955986499786377,80.79999542236328,28.79,0
-0.8983712792396545,-0.4735549390316009,0.0513628534972667,37.547176361083984,3.895494222640991,80.79999542236328,28.79,0
-0.901193916797638,-0.4718335270881653,0.0497550442814827,42.3201789855957,3.895427227020264,80.79999542236328,28.79,0
-0.8974075317382812,-0.4707288444042206,0.0487232469022274,42.05500411987305,3.8953840732574463,80.79999542236328,28.79,0
-0.8949776291847229,-0.4700199067592621,0.0480610989034175,35.25706481933594,3.892143249511719,81.05793762207031,28.79,0
-0.8934182524681091,-0.4695649445056915,0.0476361699402332,25.911176681518555,3.890063524246216,81.22347259521484,28.79,0
-0.8980153203010559,-0.4748707711696625,0.0473634749650955,19.41912841796875,3.888728857040405,81.32970428466797,28.79,0
-0.900965452194214,-0.4726779460906982,0.0471884757280349,16.14496612548828,3.887872219085693,81.39788055419922,28.79,0
-0.9028586745262146,-0.471270740032196,0.0414783954620361,12.689583778381348,3.887322664260864,81.4416275024414,28.79,0
-0.9040736556053162,-0.4703676700592041,0.0434117689728736,6.5456156730651855,3.886969804763794,81.4697036743164,28.79,0
-0.8992555737495422,-0.4753859043121338,0.0446524992585182,-2.369844436645508,3.8867435455322266,81.48772430419922,28.79,0
-0.8961635828018188,-0.4786063134670257,0.0454487279057502,-11.605779647827148,3.8865983486175537,81.49928283691406,28.79,0
-0.8885815739631653,-0.4806729853153229,0.0403619259595871,-17.840972900390625,3.886964082717896,81.50670623779297,28.79,0
-0.8837158679962158,-0.4819992482662201,0.0426952838897705,-19.87552833557129,3.887198686599731,81.51146697998047,28.79,0
-0.8805933594703674,-0.4828503727912903,0.049790471792221,-18.05718231201172,3.887349367141724,81.5145263671875,28.79,0
-0.8897850513458252,-0.4889943599700928,0.05434375628829,-13.307696342468262,3.88744592666626,81.51648712158203,28.79,0
-0.895683765411377,-0.487339437007904,0.0516680181026458,-8.762232780456543,3.887507915496826,81.51774597167969,28.79,0
-0.8994691967964172,-0.4862774014472961,0.0499508827924728,-6.396933078765869,3.887547731399536,81.5185546875,28.79,0
-0.9018984436988832,-0.4855958521366119,0.0488489232957363,-2.1311843395233154,3.8875732421875,81.51907348632812,28.79,0
-0.8978596329689026,-0.4907562434673309,0.0481417514383792,8.212135314941406,3.887589693069458,81.51940155029297,28.79,0
-0.8952677845954895,-0.4884701073169708,0.0420901551842689,21.25552749633789,3.885304927825928,81.51961517333984,28.79,0
-0.8992022275924683,-0.4814052283763885,0.0326088145375251,31.471052169799805,3.883838653564453,81.5197525024414,28.79,0
-0.8961293697357178,-0.4768714010715484,0.0377197824418544,37.85124206542969,3.8828976154327393,81.51983642578125,28.79,0
-0.8941574096679688,-0.4795596301555633,0.0409997068345546,40.77059555053711,3.882293701171875,81.5198974609375,28.79,0
-0.8928918838500977,-0.4812847673892975,0.0431045740842819,40.473026275634766,3.881906270980835,81.51993560791016,28.79,0
-0.8976775407791138,-0.4767940938472748,0.0444553568959236,40.53643035888672,3.881657600402832,81.51995849609375,28.79,0
-0.9007486701011658,-0.4795100092887878,0.0453222133219242,44.80813980102539,3.881497859954834,81.51997375488281,28.79,0
-0.897121787071228,-0.4756551682949066,0.0458785109221935,50.82753372192383,3.88139533996582,81.51998138427734,28.79,0
-0.8947942852973938,-0.4731813371181488,0.0518332868814468,53.415035247802734,3.875821113586426,81.51998901367188,28.81,0
-0.8933005928993225,-0.4715937674045563,0.0556547157466411,52.50325775146485,3.872243881225586,81.51998901367188,28.81,0
-0.8923420310020447,-0.4761727452278137,0.0525093153119087,50.09101867675781,3.869948148727417,81.51998901367188,28.81,0
-0.8917269110679626,-0.4791112542152405,0.050490777939558,42.96491241455078,3.868474960327149,81.51998901367188,28.81,0
-0.8913321495056152,-0.4753992557525635,0.049195397645235,27.92708396911621,3.867529392242432,81.51998901367188,28.81,0
-0.8910788297653198,-0.4786148965358734,0.0539618730545043,10.835659980773926,3.866922616958618,81.51998901367188,28.81,0
-0.8965139985084534,-0.4750807285308838,0.0514229461550712,-0.1577102243900299,3.866533279418945,81.51998901367188,28.81,0
-0.8944042325019836,-0.472812682390213,0.0497936084866523,-5.02366828918457,3.866283416748047,81.51998901367188,28.81,0
-0.8930503129959106,-0.4713571965694427,0.0543457679450511,-7.354610919952393,3.861532688140869,81.69195556640625,28.81,0
-0.892181396484375,-0.4760209321975708,0.0572670847177505,-8.771658897399902,3.8584840297698975,81.80231475830078,28.81,0
-0.8916237950325012,-0.4790138304233551,0.0535440407693386,-11.9989652633667,3.85652756690979,81.87313842773438,28.81,0
-0.8912659883499146,-0.4809345006942749,0.0511548072099685,-18.55544853210449,3.855272054672241,81.91858673095703,28.81,0
-0.891036331653595,-0.4821670949459076,0.0496215336024761,-24.05275154113769,3.854466438293457,81.94775390625,28.81,0
-0.8908889889717102,-0.4829581081867218,0.048637568950653,-24.646472930908203,3.8539493083953857,81.96646881103516,28.81,0
-0.8963921666145325,-0.4834657311439514,0.0480061136186122,-22.62716484069824,3.853617429733277,81.97848510742188,28.81,0
-0.8943260312080383,-0.4837914705276489,0.0531986579298973,-20.69359016418457,3.8534045219421382,81.98619079589844,28.81,0
-0.8930001258850098,-0.4840005338191986,0.0509331598877906,-19.32017707824707,3.851890802383423,81.99113464355469,28.81,0
-0.8921492099761963,-0.484134703874588,0.0494792945683002,-19.90049171447754,3.850919246673584,81.99430847167969,28.81,0
-0.8916031718254089,-0.484220802783966,0.0485462881624698,-23.095972061157227,3.8502957820892334,81.99634552001953,28.81,0
-0.8912527561187744,-0.4842760562896728,0.0479475371539592,-27.80133628845215,3.849895715713501,81.9976577758789,28.81,0
-0.8910278677940369,-0.4843114912509918,0.0475632920861244,-35.16663360595703,3.8496389389038086,81.99849700927734,28.81,0
-0.8908835649490356,-0.4843342304229736,0.0473167076706886,-46.58909225463867,3.8494741916656494,81.99903869628906,28.81,0
-0.8963887095451355,-0.4843488335609436,0.0471584610641002,-58.8310775756836,3.849368333816528,81.99938201904297,28.81,0
-0.8999215960502625,-0.4843582212924957,0.0470569096505641,-69.481689453125,3.849300622940064,81.99960327148438,28.81,0
-0.8965910077095032,-0.484364241361618,0.0469917394220829,-82.35327911376953,3.846043825149536,81.99974822998047,28.81,0
-0.8944536447525024,-0.4787703156471252,0.0413521416485309,-100.6089096069336,3.843953847885132,81.99983978271484,28.81,0
-0.8930820226669312,-0.4807782471179962,0.0433307476341724,-123.8960418701172,3.8426125049591056,81.9999008178711,28.81,0
-0.8922017812728882,-0.482066810131073,0.0446005016565322,-152.09591674804688,3.84175181388855,81.99993896484375,28.81,0
-0.8916369080543518,-0.4828937351703644,0.0454153567552566,-177.48350524902344,3.841199398040772,81.99996185302734,28.81,0
-0.8968721628189087,-0.4834243953227997,0.0459382832050323,-179.50999450683594,3.840844869613648,81.9999771118164,28.81,0
-0.9002318382263184,-0.4837649464607239,0.0518716424703598,-144.12847900390625,3.840617418289185,81.99998474121094,28.81,0
-0.9023879170417786,-0.4839835166931152,0.0500815585255622,-78.90465545654297,3.8404715061187744,81.99999237060547,28.81,0
-0.8981737494468689,-0.4841237664222717,0.0489327833056449,2.403564453125,3.839918613433838,81.99999237060547,28.79,0
-0.8954693675041199,-0.4842137694358825,0.0481955669820308,92.13147735595705,3.839563608169556,81.99999237060547,28.79,0
-0.8937338590621948,-0.4842715263366699,0.0477224625647068,177.2923583984375,3.8393359184265137,81.99999237060547,28.79,0
-0.8926200866699219,-0.4787108302116394,0.0474188514053821,237.8764495849609,3.839189767837525,81.99999237060547,28.79,0
-0.8975030779838562,-0.4751423001289367,0.047224011272192,263.3426513671875,3.8390960693359375,81.99999237060547,28.79,0
-0.9006367325782776,-0.4728522002696991,0.0470989756286144,255.52810668945312,3.839035749435425,81.99999237060547,28.79,0
-0.9026477336883544,-0.4713825583457947,0.0470187328755855,219.6743621826172,3.8389971256256095,81.99999237060547,28.79,0
-0.8983405232429504,-0.4760372042655945,0.0469672381877899,168.3273162841797,3.838972330093384,81.99999237060547,28.79,0
-0.8955763578414917,-0.4678287208080292,0.0469341948628425,122.61460876464844,3.8384974002838135,82.15404510498047,28.79,0
-0.8938025236129761,-0.4681587815284729,0.0469129867851734,92.9169921875,3.8381927013397217,82.2529067993164,28.79,0
-0.8926641345024109,-0.4683705866336822,0.0468993782997131,71.00703430175781,3.8379971981048575,82.31635284423828,28.79,0
-0.8975313901901245,-0.4741042852401733,0.0524884201586246,49.64878082275391,3.837871789932251,82.35707092285156,28.79,0
-0.8950571417808533,-0.4777838587760925,0.0504773706197738,31.517803192138672,3.837791204452514,82.3832015991211,28.79,0
-0.887871503829956,-0.4801451861858368,0.054784569889307,16.38578987121582,3.8377394676208496,82.39997100830078,28.79,0
-0.883260190486908,-0.4816605448722839,0.0519509054720401,0.3982632756233215,3.8377063274383545,82.41072845458984,28.79,0
-0.8803009390830994,-0.4826330244541168,0.0501324236392974,-13.917086601257324,3.8376851081848153,82.41763305664062,28.79,0
-0.8784018158912659,-0.4776593148708343,0.0489654280245304,-23.44419860839844,3.834917068481445,82.42206573486328,28.79,0
-0.8827808499336243,-0.480065256357193,0.0482165180146694,-32.2594108581543,3.8331408500671382,82.42491149902344,28.79,0
-0.8911888599395752,-0.4816092550754547,0.0477359108626842,-42.70283126831055,3.832000970840454,82.4267349243164,28.79,0
-0.8965846300125122,-0.4826000928878784,0.0474274829030036,-50.522579193115234,3.8312695026397705,82.42790222167969,28.79,0
-0.9000473022460938,-0.4832359552383423,0.0472295507788658,-53.79254913330078,3.83080005645752,82.42865753173828,28.79,0
-0.896671712398529,-0.483644038438797,0.0471025295555591,-55.27840423583984,3.830498695373535,82.42913818359375,28.79,0
-0.8889076709747314,-0.4839059114456177,0.0470210164785385,-56.38957595825195,3.830305337905884,82.429443359375,28.79,0
-0.889522910118103,-0.4784761965274811,0.0413709320127964,-56.55810928344727,3.830181121826172,82.42964172363281,28.79,0
-0.8899177312850952,-0.4749917089939117,0.0377450324594974,-54.90363693237305,3.8305604457855225,82.42977142333984,28.79,0
-0.8901711106300354,-0.478353351354599,0.0410159118473529,-49.53563690185547,3.830803871154785,82.42985534667969,28.79,0
-0.8959314823150635,-0.4805106520652771,0.0431149750947952,-40.401634216308594,3.8309600353240967,82.4299087524414,28.79,0
-0.8996281623840332,-0.4762973189353943,0.0444620326161384,-31.802867889404297,3.8310604095458975,82.42993927001953,28.79,0
-0.9020004868507384,-0.4791912138462066,0.0453264974057674,-27.07642364501953,3.831124782562256,82.42996215820312,28.79,0
-0.9035229086875916,-0.4810483455657959,0.0458812601864337,-24.52332878112793,3.83116602897644,82.42997741699219,28.79,0
-0.8989021182060242,-0.4822401404380798,0.0406395010650157,-22.08598518371582,3.8311924934387207,82.42998504638672,28.79,0
-0.8959367871284485,-0.4830049574375152,0.042873416095972,-19.98803329467773,3.831209421157837,82.42999267578125,28.79,0
-0.8940337896347046,-0.4778980016708374,0.0387092381715774,-17.072521209716797,3.830302476882935,82.42999267578125,28.79,0
-0.8984103202819824,-0.4802184402942657,0.0416346825659275,-11.131707191467283,3.829720497131348,82.42999267578125,28.79,0
-0.9012189507484436,-0.4817075729370117,0.0435120649635791,-3.704415798187256,3.829346895217896,82.42999267578125,28.79,0
-0.9030213356018066,-0.4826631844043731,0.0447168610990047,0.6285000443458557,3.8291072845458975,82.42999267578125,28.79,0
-0.904178023338318,-0.4832764565944671,0.0454900301992893,0.6075419783592224,3.828953504562378,82.42999267578125,28.79,0
-0.9049203395843506,-0.483670026063919,0.0459862053394317,0.2680779099464416,3.82885479927063,82.42999267578125,28.79,0
-0.8997989296913147,-0.4839226007461548,0.0407068468630313,3.134827136993408,3.828791379928589,82.42999267578125,28.79,0
-0.8965123295783997,-0.4840846657752991,0.0429166331887245,7.837019920349121,3.8287506103515625,82.42999267578125,28.79,0
-0.8944031596183777,-0.4841886758804321,0.0443347468972206,11.875650405883787,3.826888084411621,82.55896759033203,28.79,0
-0.8930495977401733,-0.4842554330825805,0.045244812965393,15.961344718933104,3.825692892074585,82.64173889160156,28.79,0
-0.8921809792518616,-0.4842982590198517,0.0514266155660152,21.309648513793945,3.8249258995056152,82.69485473632812,28.79,0
-0.8972213268280029,-0.4787279665470123,0.0497959665954113,26.615568161010746,3.8244335651397705,82.72894287109375,28.79,0
-0.8948581218719482,-0.4751532971858978,0.0487495064735412,29.723249435424805,3.824117660522461,82.75081634521484,28.79,0
-0.8989393711090088,-0.4784570336341858,0.0480779521167278,28.665225982666016,3.8239150047302246,82.76485443115234,28.79,0
-0.9015584588050842,-0.4749794006347656,0.0476469844579696,21.501785278320312,3.823784828186035,82.77386474609375,28.79,0
-0.8976414799690247,-0.4727476835250854,0.0473704151809215,9.076773643493652,3.8237013816833496,82.77964782714844,28.79,0
-0.8951277732849121,-0.4713154733181,0.0471929274499416,-4.252833843231201,3.82227087020874,82.78335571289062,28.79,0
-0.8935146331787109,-0.4703963696956634,0.0470790266990661,-15.794877052307127,3.82135272026062,82.78573608398438,28.79,0
-0.8980771899223328,-0.4698065519332886,0.04700593277812,-26.08587074279785,3.82076358795166,82.78726196289062,28.79,0
-0.9010051488876344,-0.4694280326366424,0.0469590239226818,-33.0017204284668,3.820385456085205,82.78824615478516,28.79,0
-0.9028841853141784,-0.4691851139068603,0.0469289235770702,-30.80856704711914,3.82014274597168,82.78887176513672,28.79,0
-0.9040899872779846,-0.4690292179584503,0.0469096042215824,-18.814617156982425,3.8199870586395264,82.78927612304688,28.79,0
-0.9048638343811036,-0.474526971578598,0.0524949803948402,-5.306653022766113,3.819887161254883,82.78953552246094,28.79,0
-0.8997626900672913,-0.4724573194980621,0.0504815801978111,1.4524682760238647,3.819823026657105,82.78970336914062,28.79,0
-0.8964890241622925,-0.4655313789844513,0.0547872707247734,1.476662039756775,3.8202412128448486,82.78981018066406,28.79,0
-0.8999859690666199,-0.4666844606399536,0.0575504153966903,-0.8758943676948547,3.820509433746338,82.78987884521484,28.79,0
-0.9022300839424132,-0.4730222225189209,0.0593236424028873,-3.130805253982544,3.820681571960449,82.78992462158203,28.79,0
-0.8980724811553955,-0.4770894348621368,0.0548638217151165,-3.0015439987182617,3.820792198181152,82.78995513916016,28.79,0
-0.8898065686225891,-0.4796995520591736,0.0575995407998561,2.684556722640991,3.8208630084991455,82.78997039794922,28.79,0
-0.8900997638702393,-0.4813745617866516,0.0593551658093929,12.040611267089844,3.820908546447754,82.78997802734375,28.79,0
-0.8902879357337952,-0.4824495017528534,0.0548840537667274,17.872825622558594,3.820937871932984,82.78998565673828,28.79,0
-0.8904086947441101,-0.4775415658950805,0.0520147494971752,18.058107376098636,3.820956468582153,82.78999328613281,28.79,0
-0.8904861807823181,-0.474391907453537,0.0501733943819999,18.184175491333008,3.820509195327759,82.78999328613281,28.77,0
-0.8961336612701416,-0.4723706543445587,0.0489917211234569,20.848115921020508,3.820222139358521,82.78999328613281,28.77,0
-0.8997579216957092,-0.4710735380649566,0.0538311637938022,21.998798370361328,3.820038080215454,82.78999328613281,28.77,0
-0.9020837545394896,-0.4702410995960235,0.0569368414580822,19.724292755126957,3.81991982460022,82.78999328613281,28.77,0
-0.9035763144493104,-0.4697068929672241,0.0533321090042591,17.422740936279297,3.8198440074920654,82.78999328613281,28.77,0
-0.9045341610908508,-0.4693640768527984,0.051018800586462,17.78001594543457,3.8197953701019287,82.78999328613281,28.77,0
-0.9051488637924194,-0.4691440761089325,0.0495342537760734,20.28064727783203,3.8197641372680655,82.78999328613281,28.77,0
-0.8999455571174622,-0.469002902507782,0.0485815554857254,22.974512100219727,3.819744110107422,82.78999328613281,28.77,0
-0.8910086154937744,-0.4633145332336426,0.0535679422318935,22.60747337341309,3.81881332397461,82.92255401611328,28.77,0
-0.8908711671829224,-0.4652618169784546,0.0567679181694984,16.550243377685547,3.81821608543396,83.00762176513672,28.77,0
-0.8963807225227356,-0.4721092581748962,0.0588214807212352,6.809133529663086,3.8178327083587646,83.06221008300781,28.77,0
-0.8999164700508118,-0.4765035510063171,0.0601393394172191,-1.5272091627120972,3.817586660385132,83.09724426269531,28.77,0
-0.9021854996681212,-0.4793235659599304,0.0553872883319854,-5.999263286590576,3.817428827285767,83.1197280883789,28.77,0
-0.903641641139984,-0.47553551197052,0.0523376949131488,-7.24626350402832,3.817327499389648,83.1341552734375,28.77,0
-0.8989783525466919,-0.4731045365333557,0.0503806434571743,-6.33404541015625,3.8172624111175537,83.14341735839844,28.77,0
-0.8903879523277283,-0.4659467041492462,0.0491247214376926,-5.164676666259766,3.817220687866211,83.14936065673828,28.77,0
-0.8848751187324524,-0.4613532423973083,0.0539165176451206,-5.8651862144470215,3.815357446670532,83.1531753540039,28.77,0
-0.8869350552558899,-0.464003175497055,0.0569916144013404,-7.923308849334717,3.814161777496338,83.15562438964844,28.77,0
-0.8938547968864441,-0.4713015258312225,0.0533672608435153,-9.480544090270996,3.813394546508789,83.15719604492188,28.77,0
-0.8982954621315002,-0.4703874289989471,0.0510413609445095,-10.909796714782717,3.812902212142944,83.158203125,28.77,0
-0.9011452198028564,-0.4698008000850677,0.0495487302541732,-13.13106632232666,3.812586069107056,83.15885162353516,28.77,0
-0.9029740691184998,-0.4750221073627472,0.0485908463597297,-14.649696350097656,3.81238317489624,83.15926361083984,28.77,0
-0.8985499143600464,-0.4727750718593597,0.0479761324822902,-13.632353782653809,3.812252998352051,83.15953063964844,28.77,0
-0.8957107663154602,-0.4713330566883087,0.0475816428661346,-10.26388931274414,3.812169551849365,83.15969848632812,28.77,0
-0.8938887715339661,-0.4760054349899292,0.047328483313322,-6.085212707519531,3.8111982345581055,83.15980529785156,28.77,0
-0.8927195072174072,-0.47900390625,0.0471660196781158,-3.2316150665283203,3.810574769973755,83.15987396240234,28.77,0
-0.8975669145584106,-0.4809281527996063,0.0470617599785327,-3.395834922790528,3.8101747035980233,83.15991973876953,28.77,0
-0.9006776809692383,-0.4821630120277405,0.0525926277041435,-5.04531192779541,3.80991792678833,83.15995025634766,28.77,0
-0.9026740193367004,-0.4829554855823517,0.0505442433059215,-3.660534620285034,3.809753179550171,83.15997314453125,28.77,0
-0.8983573913574219,-0.4778662621974945,0.0492297075688838,1.4412446022033691,3.80964732170105,83.15998077392578,28.77,0
-0.88998943567276,-0.4746002852916717,0.042788341641426,5.2419114112854,3.809579610824585,83.15998840332031,28.77,0
-0.890217125415802,-0.4725043773651123,0.0386546440422534,5.886090278625488,3.80953598022461,83.15999603271484,28.77,0
-0.8959610462188721,-0.4711593389511108,0.0360018759965896,7.00167179107666,3.809967041015625,83.15999603271484,28.77,0
-0.8996471166610718,-0.470296174287796,0.0398972555994987,9.351243019104004,3.810243606567383,83.15999603271484,28.77,0
-0.9020126461982728,-0.4753400087356567,0.0423970855772495,10.916383743286133,3.8104209899902335,83.15999603271484,28.77,0
-0.8979329466819763,-0.4785768687725067,0.0384035594761371,14.059597969055176,3.810534954071045,83.15999603271484,28.77,0
-0.8953148126602173,-0.4750563204288482,0.0358407422900199,20.769906997680664,3.810608148574829,83.15999603271484,28.77,0
-0.8880369067192078,-0.4727970361709595,0.039793848991394,25.58492088317871,3.810655117034912,83.15999603271484,28.77,0
-0.8833663463592529,-0.4713471531867981,0.0479285009205341,22.96429443359375,3.810685157775879,83.15999603271484,28.77,0
-0.8859668374061584,-0.4816122651100158,0.0531488507986068,15.034516334533691,3.810704469680786,83.15999603271484,28.77,0
-0.8932334184646606,-0.4881998002529144,0.0564989708364009,7.616966247558594,3.807962656021118,83.29613494873047,28.77,0
-0.8978967070579529,-0.486829549074173,0.0530511103570461,4.350744247436523,3.8062031269073486,83.38349914550781,28.77,0
-0.8952915668487549,-0.4859502017498016,0.0508384704589843,4.988176345825195,3.805073738098145,83.43956756591797,28.77,0
-0.89361971616745,-0.4853858649730682,0.0438207536935806,6.937750816345215,3.804349184036255,83.47554779052734,28.77,0
-0.8869490623474121,-0.4794259369373321,0.0393171869218349,8.6331148147583,3.803884029388428,83.49864196777344,28.77,0
-0.8882659673690796,-0.4756011962890625,0.0420248322188854,8.692902565002441,3.8035855293273926,83.51345825195312,28.77,0
-0.8947088718414307,-0.4731467068195343,0.0437624417245388,3.479215383529663,3.803394079208374,83.52296447753906,28.77,0
-0.8988435864448547,-0.4715715646743774,0.044877540320158,-7.264647960662842,3.8032710552215576,83.52906799316406,28.77,0
-0.9014970064163208,-0.4705607295036316,0.0455931462347507,-16.49527931213379,3.802273988723755,83.5329818725586,28.77,0
-0.8976020216941833,-0.4699120223522186,0.0460523813962936,-18.983278274536133,3.8016340732574463,83.5354995727539,28.77,0
-0.8951024413108826,-0.4694957137107849,0.0463470891118049,-16.710750579833984,3.8012235164642334,83.537109375,28.77,0
-0.8934983611106873,-0.4692285656929016,0.0409384444355964,-11.186149597167969,3.800960063934326,83.53814697265625,28.77,0
-0.8868711590766907,-0.4690571129322052,0.0430652610957622,-2.234672784805298,3.800791025161743,83.53881072998047,28.77,0
-0.8882160186767578,-0.4745448529720306,0.0444301292300224,4.860500812530518,3.800682544708252,83.53923797607422,28.77,0
-0.8946768045425415,-0.4780665636062622,0.045306023210287,5.0215373039245605,3.8006129264831534,83.53951263427734,28.77,0
-0.8988229632377625,-0.4747288227081299,0.0458681210875511,3.4768965244293213,3.800568103790283,83.53968811035156,28.77,0
-0.9014837741851808,-0.4725868701934814,0.0462288446724414,6.766812801361084,3.8009986877441406,83.53980255126953,28.77,0
-0.8975935578346252,-0.4712122678756714,0.0464603342115879,10.837759971618652,3.8012750148773193,83.53987121582031,28.77,0
-0.895097017288208,-0.470330148935318,0.0466088913381099,10.469557762145996,3.801452398300171,83.5399169921875,28.77,0
-0.8990926742553711,-0.4697640538215637,0.0467042252421379,9.473760604858398,3.8015661239624015,83.53994750976562,28.77,0
-0.9016568660736084,-0.4694007635116577,0.0467654056847095,10.747810363769531,3.801639080047608,83.53997039794922,28.77,0
-0.9033023715019226,-0.4747653901576996,0.0468046702444553,8.878490447998047,3.8016860485076895,83.53997802734375,28.77,0
-0.9043583869934082,-0.4726103246212005,0.0468298681080341,0.3381713032722473,3.801716089248657,83.53998565673828,28.77,0
-0.9050360918045044,-0.4712273478507995,0.0468460358679294,-10.684759140014648,3.801735401153565,83.53999328613281,28.77,0
-0.8998731970787048,-0.4703398048877716,0.0468564108014106,-19.786378860473636,3.7999112606048575,83.53999328613281,28.77,0
-0.8965599536895752,-0.4697702527046203,0.0468630716204643,-26.24706077575684,3.7987406253814697,83.53999328613281,28.77,0
-0.8944337368011475,-0.4694047272205353,0.0468673445284366,-30.38240623474121,3.7979893684387207,83.53999328613281,28.77,0
-0.8986669778823853,-0.4691701531410217,0.0468700863420963,-33.122215270996094,3.797507286071777,83.53999328613281,28.77,0
-0.901383638381958,-0.4690196216106415,0.0524696223437786,-35.489505767822266,3.7971980571746826,83.53999328613281,28.77,0
-0.8975293040275574,-0.4745208024978637,0.0560630820691585,-36.87972259521485,3.796999454498291,83.53999328613281,28.77,0
-0.8950557708740234,-0.4780511558055877,0.058369155973196,-36.600379943847656,3.796872138977051,83.53999328613281,28.77,0
-0.89346843957901,-0.4747189581394195,0.0542512871325016,-35.375003814697266,3.796790361404419,83.53999328613281,28.77,0
-0.8924497365951538,-0.4725805222988128,0.0516086779534816,-33.34547424316406,3.7967379093170166,83.74420166015625,28.77,0
-0.8973937630653381,-0.4712082147598266,0.0499128028750419,-29.972309112548828,3.7967042922973633,83.87525177001953,28.77,0
-0.900566577911377,-0.4759253263473511,0.0544222630560398,-25.42877578735352,3.796682596206665,83.9593505859375,28.77,0
-0.9026027321815492,-0.4789524972438812,0.0573161728680133,-18.948335647583008,3.796668767929077,84.01332092285156,28.77,0
-0.8983116149902344,-0.4752973616123199,0.0535755455493927,-8.820990562438965,3.7966599464416495,84.04795837402344,28.77,0
-0.8955578207969666,-0.4729517102241516,0.0511750243604183,4.2772603034973145,3.796654224395752,84.07018280029297,28.77,0
-0.893790602684021,-0.4714464247226715,0.0496345087885856,16.656042098999023,3.7966506481170654,84.0844497680664,28.77,0
-0.8926565051078796,-0.4704804122447967,0.0486458949744701,23.19207763671875,3.7966482639312735,84.0936050415039,28.77,0
-0.8919287323951721,-0.4698604643344879,0.0480114594101905,19.80938148498535,3.79526948928833,84.09947967529297,28.77,0
-0.897059440612793,-0.4694626331329345,0.0532020889222621,8.603306770324707,3.794384717941284,84.1032485961914,28.77,0
-0.9003520011901855,-0.47480508685112,0.0565331354737281,-1.242795705795288,3.7938170433044434,84.10566711425781,28.77,0
-0.9024649858474731,-0.4782335758209228,0.0530730336904525,-2.244915246963501,3.793452739715576,84.10721588134766,28.77,0
-0.8982232213020325,-0.4748360216617584,0.0508525408804416,3.9582839012146,3.7932188510894775,84.10821533203125,28.77,0
-0.8899033069610596,-0.4726556539535522,0.0550253316760063,10.242735862731934,3.793068885803223,84.10885620117188,28.77,0
-0.8901618719100952,-0.4768542051315307,0.0521054118871688,11.30219841003418,3.7929725646972656,84.10926818847656,28.77,0
-0.8903278112411499,-0.4739508032798767,0.0558293499052524,6.2284836769104,3.7929108142852783,84.10952758789062,28.77,0
-0.8960320353507996,-0.4776853621006012,0.0582191608846187,-1.9929836988449097,3.788739681243897,84.10969543457031,28.77,0
-0.899692714214325,-0.4800819754600525,0.0597528032958507,-8.200518608093262,3.7860629558563232,84.10980224609375,28.77,0
-0.8964441418647766,-0.4760222136974334,0.0607370063662529,-8.916848182678223,3.784345149993897,84.10987091064453,28.77,0
-0.8943594098091125,-0.4734168946743011,0.0557708367705345,-5.421383380889893,3.783242702484131,84.10991668701172,28.77,0
-0.8930215239524841,-0.4773427248001098,0.0525838360190391,-2.23956036567688,3.782535314559937,84.10994720458984,28.77,0
-0.8921629786491394,-0.4742643237113952,0.0505386032164096,-2.988476037979126,3.782081365585327,84.10997009277344,28.77,0
-0.8972097635269165,-0.4722887873649597,0.049226090312004,-7.975967407226562,3.781790018081665,84.10997772216797,28.77,0
-0.9004485011100769,-0.4710209965705871,0.0483837947249412,-14.282745361328123,3.7816028594970703,84.1099853515625,28.77,0
-0.9025269150733948,-0.4702073931694031,0.0534410327672958,-17.599227905273438,3.7833192348480233,84.10999298095703,28.79,0
-0.8982629776000977,-0.4696852564811706,0.0566864758729934,-15.392638206481934,3.784420728683472,84.10999298095703,28.79,0
-0.8955265879631042,-0.463752418756485,0.0587692148983478,-8.892900466918945,3.785127639770508,84.10999298095703,28.79,0
-0.8937705755233765,-0.4655428528785705,0.0601057969033718,-1.4150261878967283,3.785581350326538,84.10999298095703,28.79,0
-0.8926436305046082,-0.4666918516159057,0.060963537544012,4.634162425994873,3.785872459411621,84.10999298095703,28.79,0
-0.8919204473495483,-0.4674291908740997,0.0559162124991416,8.172255516052246,3.7860593795776367,84.10999298095703,28.79,0
-0.8914563655853271,-0.4735001623630523,0.0526771284639835,8.812728881835938,3.786179304122925,84.10999298095703,28.79,0
-0.8911585211753845,-0.4717983901500702,0.0561962462961673,8.027167320251465,3.786256074905396,84.10999298095703,28.79,0
-0.8909673690795898,-0.4763040542602539,0.0528568401932716,8.479586601257324,3.7863054275512695,84.26404571533203,28.79,0
-0.8908447027206421,-0.473597764968872,0.050713799893856,10.51463794708252,3.78633713722229,84.36290740966797,28.79,0
-0.8907659649848938,-0.4774588048458099,0.0493385195732116,12.48697566986084,3.7863574028015137,84.42635345458984,28.79,0
-0.890715479850769,-0.4799365699291229,0.0484559461474418,14.848976135253906,3.786370515823364,84.46707153320312,28.79,0
-0.896280825138092,-0.4815266728401184,0.0478895604610443,19.746723175048828,3.786378860473633,84.49320220947266,28.79,0
-0.8942545652389526,-0.4825471043586731,0.0475260876119136,27.09217643737793,3.786384344100952,84.50997161865234,28.79,0
-0.8929542303085327,-0.4832019507884979,0.0472928322851657,34.0451774597168,3.78638768196106,84.5207290649414,28.79,0
-0.8921197652816772,-0.4836221933364868,0.0471431389451026,37.55424499511719,3.786389827728272,84.52763366699219,28.79,0
-0.8915842771530151,-0.4782941043376922,0.0470470748841762,36.384803771972656,3.7827188968658447,84.53206634521484,28.79,0
-0.8912405967712402,-0.4748748540878296,0.0469854287803173,31.21700859069824,3.780363082885742,84.534912109375,28.79,0
-0.8910200595855713,-0.4726805686950683,0.0469458661973476,23.27909278869629,3.778851270675659,84.53673553466797,28.79,0
-0.8964763283729553,-0.4712724089622497,0.0469204783439636,14.383882522583008,3.777881145477295,84.53790283203125,28.79,0
-0.8999778032302856,-0.4759665131568908,0.0469041839241981,8.206130981445312,3.7772583961486816,84.53865814208984,28.79,0
-0.9022248387336732,-0.4789789319038391,0.0468937270343303,7.917328357696533,3.7768588066101074,84.53913879394531,28.79,0
-0.903666853904724,-0.4753143489360809,0.0468870177865028,11.90927505493164,3.776602506637573,84.53944396972656,28.79,0
-0.898994505405426,-0.4729626178741455,0.0468827113509178,15.606752395629885,3.776437997817993,84.53964233398438,28.79,0
-0.89599609375,-0.4714534282684326,0.0468799471855163,17.20216178894043,3.775414228439331,84.5397720336914,28.79,0
-0.8940718770027161,-0.4704849123954773,0.0468781739473342,17.67786979675293,3.774757146835327,84.53985595703125,28.79,0
-0.8872392177581787,-0.4698633551597595,0.0468770377337932,17.628477096557617,3.774335384368897,84.53990936279297,28.79,0
-0.8940500020980835,-0.4750622510910034,0.0468763075768947,18.63930892944336,3.774064779281616,84.5399398803711,28.79,0
-0.8984207510948181,-0.4783986210823059,0.0524736121296882,23.23958396911621,3.7738912105560303,84.53996276855469,28.79,0
-0.9012256264686584,-0.4805397093296051,0.0560656413435936,29.222633361816406,3.7737796306610103,84.53997802734375,28.79,0
-0.9030256271362304,-0.4763159453868866,0.0527730248868465,29.991943359375,3.77370810508728,84.53998565673828,28.79,0
-0.8985829949378967,-0.4736053943634033,0.0506600141525268,23.51753234863281,3.7736623287200928,84.53999328613281,28.79,0
-0.8957319855690002,-0.4718659222126007,0.0493040047585964,14.465248107910156,3.773632764816284,84.53999328613281,28.79,0
-0.8939023613929749,-0.4707496166229248,0.0540315695106983,7.008028030395508,3.773613929748535,84.53999328613281,28.79,0
-0.8927282094955444,-0.4700332283973694,0.0514676757156848,2.354969024658203,3.773601770401001,84.53999328613281,28.79,0
-0.8863769173622131,-0.4695734977722168,0.0554200895130634,1.7692290544509888,3.77359390258789,84.53999328613281,28.79,0
-0.8878988027572632,-0.469278484582901,0.0579565204679966,5.420149803161621,3.7735888957977295,84.53999328613281,28.79,0
-0.8944732546806335,-0.469089150428772,0.0595842562615871,10.410624504089355,3.773585796356201,84.53999328613281,28.79,0
-0.8986923694610596,-0.4689676463603973,0.060628842562437,14.3118257522583,3.773583650588989,84.53999328613281,28.79,0
-0.8958021998405457,-0.4632919132709503,0.0612991973757743,16.3245792388916,3.7735824584960938,84.53999328613281,28.79,0
-0.8883496522903442,-0.4652473032474518,0.0617293938994407,13.811553001403809,3.770827531814575,84.69404602050781,28.79,0
-0.8835670351982117,-0.4665021598339081,0.0620054677128791,5.85409688949585,3.769059658050537,84.79290771484375,28.79,0
-0.8804978132247925,-0.4729052484035492,0.0621826387941837,-1.0760722160339355,3.767925262451172,84.85635375976562,28.79,0
-0.8897237181663513,-0.4714165925979614,0.0622963346540927,-1.2960164546966553,3.767197132110596,84.8970718383789,28.79,0
-0.8956443667411804,-0.4760590493679046,0.0623692981898784,0.6120691895484924,3.7667298316955566,84.92320251464844,28.79,0
-0.8994439244270325,-0.4734405279159546,0.0624161213636398,-1.6958507299423218,3.766430139541626,84.93997192382812,28.79,0
-0.9018822312355042,-0.4717601239681244,0.0624461732804775,-6.254373550415039,3.766237735748291,84.95072937011719,28.79,0
-0.8978492617607117,-0.4818772673606872,0.0680632293224334,-9.00422477722168,3.766114234924317,84.95763397216797,28.79,0
-0.8952611088752747,-0.4827721118927002,0.0604723840951919,-11.00537109375,3.766035079956055,84.96206665039062,28.79,0
-0.8936001658439636,-0.4833463728427887,0.0556010194122791,-14.313746452331545,3.765984058380127,84.96491241455078,28.79,0
-0.8925343155860901,-0.4837148785591125,0.0524748563766479,-17.665695190429688,3.76595139503479,84.96673583984375,28.79,0
-0.8918502926826477,-0.4783535897731781,0.0504686646163463,-18.68827247619629,3.765930414199829,84.96790313720703,28.79,0
-0.8970090746879578,-0.4749130308628082,0.0491812080144882,-16.596668243408203,3.7659170627594,84.96865844726562,28.79,0
-0.9003196954727173,-0.472705066204071,0.0483549907803535,-13.036781311035156,3.765908479690552,84.9691390991211,28.79,0
-0.9024442434310912,-0.4712881445884704,0.0534225478768348,-11.769702911376951,3.765902996063232,84.96944427490234,28.79,0
-0.9038076996803284,-0.4759766161441803,0.0566746145486831,-15.327306747436523,3.765899419784546,84.96964263916016,28.79,0
-0.9046826958656312,-0.4733876287937164,0.0531638301908969,-21.72675132751465,3.7649788856506343,84.96977233886719,28.79,0
-0.8996464014053345,-0.4717261493206024,0.0509108081459999,-26.829504013061523,3.764388084411621,84.96985626220703,28.79,0
-0.8908166289329529,-0.4706599116325378,0.0494649484753608,-29.04013061523437,3.7640089988708496,84.96990966796875,28.79,0
-0.8907479643821716,-0.4699756801128387,0.048537079244852,-29.53089714050293,3.763765811920166,84.96994018554688,28.79,0
-0.8963016867637634,-0.4695365726947784,0.0479416251182556,-29.605810165405277,3.7636096477508554,84.96996307373047,28.79,0
-0.8998657464981079,-0.4692547917366028,0.0475594997406005,-29.78285789489746,3.763509511947632,84.96997833251953,28.79,0
-0.902152955532074,-0.474671721458435,0.0529120452702045,-29.452238082885746,3.7634451389312735,84.96998596191406,28.79,0
-0.8980229496955872,-0.4781479835510254,0.0563470013439655,-26.614036560058597,3.76340389251709,84.9699935913086,28.79,0
-0.8953725695610046,-0.4803788661956787,0.0529535859823226,-20.669097900390625,3.7615408897399902,84.9699935913086,28.79,0
-0.8880739212036133,-0.4818105101585388,0.0507758855819702,-14.754589080810549,3.760345458984375,84.9699935913086,28.79,0
-0.8889878392219543,-0.4827292561531067,0.049378365278244,-12.298880577087402,3.759578227996826,84.9699935913086,28.79,0
-0.8895743489265442,-0.477721095085144,0.0484815165400505,-13.402714729309082,3.759085893630981,84.9699935913086,28.79,0
-0.8955485224723816,-0.4745071232318878,0.0535037443041801,-17.012977600097656,3.758769989013672,84.9699935913086,28.79,0
-0.8993824124336243,-0.4780423641204834,0.0567267201840877,-22.281879425048828,3.758567094802856,84.9699935913086,28.79,0
-0.9018427729606628,-0.4803110659122467,0.058795042335987,-25.218917846679688,3.758436918258667,84.9699935913086,28.79,0
-0.9034217000007628,-0.476169228553772,0.0545245967805385,-19.795286178588867,3.758353471755981,84.9699935913086,28.79,0
-0.8988372087478638,-0.4679134488105774,0.0517840720713138,-5.910911560058594,3.759218215942383,85.11329650878906,28.79,0
-0.9014928936958312,-0.4570176005363464,0.0444275848567485,8.932025909423828,3.759773015975952,85.20526123046875,28.79,0
-0.903197169303894,-0.455623060464859,0.0509021654725074,19.57871627807617,3.76012921333313,85.2642822265625,28.79,0
-0.8930953145027161,-0.4603258967399597,0.0550571791827678,28.635927200317383,3.760357618331909,85.30215454101562,28.79,0
-0.8922103047370911,-0.4633438885211944,0.0577236264944076,36.15362930297852,3.7605042457580566,85.32646179199219,28.79,0
-0.8972401022911072,-0.465280681848526,0.0594347976148128,33.809326171875,3.7605984210968018,85.3420639038086,28.79,0
-0.8892723917961121,-0.4665235877037048,0.0605329312384128,19.876930236816406,3.7606587409973145,85.3520736694336,28.79,0
-0.889756977558136,-0.4673212170600891,0.0612376481294631,8.073443412780762,3.760697603225708,85.3584976196289,28.79,0
-0.8844701647758484,-0.473430871963501,0.0616898946464061,10.117860794067385,3.7598042488098153,85.36261749267578,28.79,0
-0.8810774087905884,-0.4773516952991485,0.0619801208376884,22.030689239501957,3.759230852127075,85.36526489257812,28.79,0
-0.884497880935669,-0.4742700755596161,0.0621663704514503,33.70964050292969,3.7588629722595215,85.36695861816406,28.79,0
-0.8922907710075378,-0.4778902530670166,0.0622858963906765,37.74733352661133,3.758626937866211,85.36804962158203,28.79,0
-0.8972917795181274,-0.480213463306427,0.0623626001179218,28.5159912109375,3.7584753036499023,85.3687515258789,28.79,0
-0.9005011320114136,-0.476106584072113,0.0568140484392643,8.168397903442383,3.758378028869629,85.36920166015625,28.79,0
-0.8969629406929016,-0.4734710454940796,0.0588510818779468,-9.528952598571776,3.758315563201904,85.36949157714844,28.79,0
-0.9002900719642639,-0.4717797040939331,0.060158334672451,-14.136519432067873,3.7582755088806152,85.36967468261719,28.79,0
-0.8968274593353271,-0.4706943035125732,0.0553994812071323,-10.71640682220459,3.75457763671875,85.36978912353516,28.79,0
-0.9002031683921814,-0.4699977338314056,0.0523455217480659,-9.288246154785156,3.752204656600952,85.36986541748047,28.79,0
-0.8967717289924622,-0.4695507287979126,0.0503856651484966,-12.058205604553224,3.7506818771362314,85.36991119384766,28.79,0
-0.8945696353912354,-0.4692638516426086,0.0491279438138008,-16.730527877807617,3.749704599380493,85.36994171142578,28.79,0
-0.8987542390823364,-0.4746775329113006,0.0483208112418651,-21.90715980529785,3.749077320098877,85.36996459960938,28.79,0
-0.9014396667480468,-0.472553938627243,0.0478028394281864,-25.361780166625977,3.7486748695373535,85.36997985839844,28.79,0
-0.8975652456283569,-0.4711911380290985,0.0474704355001449,-25.23217010498047,3.7484166622161865,85.36998748779297,28.79,0
-0.9006766080856323,-0.4703165888786316,0.041659340262413,-23.62281608581543,3.748250961303711,85.3699951171875,28.79,0
-0.9026733040809632,-0.4697553515434265,0.043527889996767,-23.227724075317383,3.747226238250733,85.3699951171875,28.77,0
-0.9039546847343444,-0.474992960691452,0.0447270162403583,-23.060157775878903,3.7465686798095694,85.3699951171875,28.77,0
-0.9047769904136658,-0.4783541560173034,0.0454965494573116,-21.157752990722656,3.746146678924561,85.3699951171875,28.77,0
-0.9053047299385072,-0.4749133884906769,0.0403926149010658,-18.26383781433105,3.745875835418701,85.3699951171875,28.77,0
-0.90004563331604,-0.4783030748367309,0.0483127534389495,-16.47834014892578,3.745702028274536,85.3699951171875,28.77,0
-0.8966706395149231,-0.4804783761501312,0.0477976687252521,-16.414447784423828,3.7455904483795166,85.3699951171875,28.77,0
-0.894504725933075,-0.4762766063213348,0.047467116266489,-16.609895706176758,3.745518922805786,85.3699951171875,28.77,0
-0.8931148052215576,-0.4735801517963409,0.0472549870610237,-15.241389274597168,3.745473146438599,85.3699951171875,28.77,0
-0.8922228217124939,-0.4718497097492218,0.047118853777647,-12.038068771362305,3.7472798824310303,85.4810562133789,28.77,0
-0.8972481489181519,-0.4763369858264923,0.0526292659342289,-7.868642330169678,3.748439311981201,85.55233001708984,28.77,0
-0.9004731178283691,-0.4792166650295257,0.0561655312776565,-2.763958692550659,3.749183177947998,85.59806823730469,28.77,0
-0.9025427103042604,-0.4754669070243835,0.0528371296823024,2.84419059753418,3.7496607303619385,85.6274185180664,28.77,0
-0.9038708806037904,-0.4730605185031891,0.0507011525332927,5.579776763916016,3.749967098236084,85.64625549316406,28.77,0
-0.8991254568099976,-0.4771140217781067,0.0493304058909416,2.778282642364502,3.7501637935638423,85.6583480834961,28.77,0
-0.8960800766944885,-0.4741175472736358,0.0484507381916046,-2.064743995666504,3.750289916992188,85.66610717773438,28.77,0
-0.894125759601593,-0.4665968120098114,0.0478862188756465,-3.259624719619751,3.750370979309082,85.67108154296875,28.77,0
-0.8984693884849548,-0.4617704451084137,0.0475239418447017,-0.0927624329924583,3.749963998794556,85.67427825927734,28.77,0
-0.9012568593025208,-0.4642709195613861,0.0528892278671264,2.802947998046875,3.749702692031861,85.67633056640625,28.77,0
-0.9030457139015198,-0.4658755958080292,0.0563323609530925,-0.780683696269989,3.749535083770752,85.67764282226562,28.77,0
-0.9041936993598938,-0.4613075852394104,0.058541964739561,-12.226767539978027,3.749427556991577,85.6784896850586,28.77,0
-0.9049304127693176,-0.4639738798141479,0.0599599592387676,-22.43826484680176,3.749358654022217,85.67903137207031,28.77,0
-0.8998053669929504,-0.4656849503517151,0.0552721731364727,-20.411148071289062,3.749314308166504,85.67937469482422,28.77,0
-0.8965164422988892,-0.4723807871341705,0.0522638224065303,-8.394777297973633,3.749285936355591,85.67959594726562,28.77,0
-0.8944057822227478,-0.476677805185318,0.050333235412836,2.580363273620605,3.749267578125,85.67974090576172,28.77,0
-0.893051266670227,-0.4738376140594482,0.0490942969918251,9.283231735229492,3.752010107040405,85.6798324584961,28.77,0
-0.8921820521354675,-0.4720149338245392,0.053896989673376,16.783987045288086,3.753770112991333,85.67989349365234,28.77,0
-0.8916242122650146,-0.4708452522754669,0.0569790825247764,27.59119033813477,3.754899740219116,85.679931640625,28.77,0
-0.8968639969825745,-0.470094621181488,0.053359217941761,37.15982437133789,3.755624532699585,85.6799545288086,28.77,0
-0.9002265930175781,-0.4696128964424133,0.0510361976921558,39.28793716430664,3.756089687347412,85.67996978759766,28.77,0
-0.9023845195770264,-0.4693037569522857,0.0495454184710979,34.84270095825195,3.7563881874084473,85.67997741699219,28.77,0
-0.898171603679657,-0.4691053628921509,0.0485887192189693,30.62504196166992,3.756579875946045,85.67998504638672,28.77,0
-0.89546799659729,-0.4689780473709106,0.0479747653007507,28.634906768798828,3.756702899932861,85.67999267578125,28.77,0
-0.899330735206604,-0.4688963592052459,0.0475807674229145,25.71693229675293,3.757699966430664,85.67999267578125,28.77,0
-0.9018096327781676,-0.468843936920166,0.047327920794487,21.99573516845703,3.7583398818969727,85.67999267578125,28.77,0
-0.8978026509284973,-0.4688102900981903,0.0471656583249568,18.24272346496582,3.7587504386901855,85.67999267578125,28.77,0
-0.8952311873435974,-0.4687886834144592,0.0470615290105342,12.344828605651855,3.7590138912200928,85.67999267578125,28.77,0
-0.8991787433624268,-0.4743725955486297,0.0525924786925315,6.772193431854248,3.759182929992676,85.67999267578125,28.77,0
-0.9017120599746704,-0.4723582565784454,0.050544150173664,6.649600028991699,3.759291410446167,85.67999267578125,28.77,0
-0.903337836265564,-0.4710655808448791,0.0492296479642391,8.59508228302002,3.7593610286712646,85.67999267578125,28.77,0
-0.8931856155395508,-0.4702360033988952,0.0483860783278942,5.573150157928467,3.759405851364136,85.67999267578125,28.77,0
-0.8866704702377319,-0.4697036445140838,0.047844722867012,-1.3745925426483154,3.756680250167847,85.80538177490234,28.77,0
-0.8880872130393982,-0.4693619906902313,0.0530950874090194,-7.266284465789795,3.7549312114715576,85.88584899902344,28.77,0
-0.8945941925048828,-0.4747405052185058,0.0508666932582855,-10.420281410217283,3.753808736801148,85.93749237060547,28.77,0
-0.8987699747085571,-0.4781921505928039,0.0494366399943828,-9.270174026489258,3.753088235855103,85.97063446044922,28.77,0
-0.901449739933014,-0.4748094379901886,0.0485189147293567,-2.4882960319519043,3.7526259422302246,85.99190521240234,28.77,0
-0.8975716829299927,-0.4726386070251465,0.0479299686849117,5.1240668296813965,3.7523293495178223,86.00555419921875,28.77,0
-0.8950830101966858,-0.4712454974651336,0.0531497932970523,6.638039588928223,3.75213885307312,86.01431274414062,28.77,0
-0.8934859037399292,-0.4703514575958252,0.0509018003940582,3.231712579727173,3.75201678276062,86.01993560791016,28.77,0
-0.8924609422683716,-0.4697777330875397,0.055056944489479,1.6547658443450928,3.7528562545776367,86.02354431152344,28.77,0
-0.897400975227356,-0.4750073254108429,0.0577234737575054,3.0072720050811768,3.7533950805664062,86.0258560180664,28.77,0
-0.9005712270736694,-0.4783633649349212,0.059434700757265,3.925388813018799,3.753740787506104,86.02734375,28.77,0
-0.9026057124137878,-0.4749192893505096,0.0605328679084777,6.241384983062744,3.753962516784668,86.0282974243164,28.77,0
-0.8983135223388672,-0.4671113193035126,0.0556398332118988,14.301684379577637,3.754104852676392,86.0289077758789,28.77,0
-0.8955590724945068,-0.462100625038147,0.0524997636675834,25.86205291748047,3.754196166992188,86.029296875,28.77,0
-0.8993892073631287,-0.4588850438594818,0.050484649837017,35.33723068237305,3.7542548179626474,86.02954864501953,28.77,0
-0.9018471240997314,-0.456821471452713,0.0491914637386798,41.03810119628906,3.754292488098145,86.02970886230469,28.77,0
-0.9034245014190674,-0.4554971754550934,0.0483615733683109,42.33567428588867,3.756612062454224,86.02981567382812,28.77,0
-0.9044367671012878,-0.4546473324298858,0.0478289984166622,37.93065643310547,3.7581005096435542,86.0298843383789,28.77,0
-0.9050863981246948,-0.4596997201442718,0.0474872216582298,31.30982208251953,3.759055852890015,86.02992248535156,28.77,0
-0.905503273010254,-0.4629420638084411,0.0528656616806983,28.78417015075684,3.7596688270568848,86.02995300292969,28.77,0
-0.905770778656006,-0.4650228023529053,0.0507194623351097,31.247488021850582,3.7600622177124015,86.02996826171875,28.77,0
-0.9003446698188782,-0.4663580954074859,0.0493421554565429,34.96352005004883,3.760314702987671,86.02997589111328,28.77,0
-0.8968625068664551,-0.4672150015830993,0.0484582781791687,37.1547966003418,3.76047682762146,86.02998352050781,28.77,0
-0.8890300989151001,-0.4677649140357971,0.0534888319671154,35.816776275634766,3.760580778121948,86.02999114990234,28.77,0
-0.889601469039917,-0.4681178331375122,0.0511193759739398,29.777708053588867,3.759270429611206,86.02999114990234,28.75,0
-0.895565927028656,-0.4683443009853363,0.0495987944304943,20.779098510742188,3.758429527282715,86.02999114990234,28.75,0
-0.8993935585021973,-0.4740874171257019,0.0542207472026348,10.132007598876951,3.757889747619629,86.02999114990234,28.75,0
-0.901849925518036,-0.4777730107307434,0.0515890792012214,-4.037798881530762,3.7575433254241934,86.02999114990234,28.75,0
