acc_x,acc_y,acc_z,bvp,eda,hr,temp,label
0.0,0.0,0.0,0.0,0.0,0.0,25.21,2
-0.0494791641831398,-0.1328124850988388,0.0859374925494194,0.1933333128690719,0.0834949985146522,12.499999046325684,25.21,2
-0.1158536598086357,-0.2983993887901306,0.1970274299383163,0.7558536529541016,0.1955004930496215,29.268293380737305,25.21,2
-0.1686046570539474,-0.4723318219184875,0.3036233186721802,1.6119269132614136,0.2929259836673736,43.85382080078125,25.21,2
-0.1910747587680816,-0.583210289478302,0.376052588224411,2.280892372131348,0.3640031516551971,54.4947509765625,25.21,2
-0.2117776721715927,-0.6527900099754333,0.4086211025714874,2.29111909866333,0.4121253788471222,61.6991081237793,25.21,2
-0.2309148460626602,-0.7151035070419312,0.4466499388217926,1.0255085229873655,0.4437004923820495,66.42620086669922,25.21,2
-0.2544677257537842,-0.7443022727966309,0.4545413553714752,-1.9509122371673584,0.4641501307487488,69.48770904541016,25.21,2
-0.2808201611042022,-0.7854719758033752,0.4484444558620453,-6.183018207550049,0.4796154797077179,71.45984649658203,25.21,2
-0.3145419359207153,-0.8566906452178955,0.5116614103317261,-10.84742259979248,0.489555686712265,72.72742462158203,25.21,2
-0.319407045841217,-0.8520556092262268,0.4739056825637817,-15.905776977539062,0.4959388375282287,73.5414047241211,25.21,2
-0.3337244987487793,-0.8546775579452515,0.4440725743770599,-21.896787643432617,0.5000362396240234,74.06391143798828,25.21,2
-0.3261209726333618,-0.8451652526855469,0.4361204504966736,-28.86935806274414,0.5026660561561584,74.39926147460938,25.21,2
-0.3156435489654541,-0.8446582555770874,0.4254193007946014,-36.37137985229492,0.5043537616729736,74.6144790649414,25.21,2
-0.3257128298282623,-0.8275396823883057,0.4129540622234344,-44.54268646240234,0.5054368376731873,74.75259399414062,25.21,2
-0.3377725183963775,-0.8445426821708679,0.4049545228481293,-54.36153411865234,0.5061319470405579,74.84123229980469,25.21,2
-0.3455117642879486,-0.8554542064666748,0.4054186344146728,-66.27661895751953,0.505659818649292,74.89810943603516,25.21,2
-0.333685040473938,-0.8512610793113708,0.4057164788246155,-79.22883605957031,0.5053567886352539,74.93461608886719,25.21,2
-0.3428886532783508,-0.8597657084465027,0.3891142904758453,-92.02979278564452,0.5051623582839966,74.95803833007812,25.21,2
-0.343197226524353,-0.8540279865264893,0.3840577304363251,-105.24598693847656,0.5050375461578369,74.97306823730469,25.21,2
-0.3433952629566192,-0.8503457903862,0.3808127343654632,-120.56293487548828,0.5049574971199036,74.98271942138672,25.21,2
-0.3435223400592804,-0.8479828238487244,0.3787302672863006,-139.33099365234375,0.5049061179161072,74.98890686035156,25.21,2
-0.3380061388015747,-0.8408685922622681,0.3717961013317108,-161.11270141601562,0.5048730969429016,74.99288177490234,25.21,2
-0.3344661593437195,-0.8419008851051331,0.3617483675479889,-179.8987579345703,0.5048519372940063,74.99542999267578,25.21,2
-0.3321943879127502,-0.8369655609130859,0.3553003072738647,-183.43878173828125,0.5039204955101013,74.9970703125,25.21,2
-0.3307364881038666,-0.8282005786895752,0.3455645442008972,-161.8828582763672,0.5033227205276489,74.99812316894531,25.21,2
-0.3242031335830688,-0.8169779777526855,0.3393166959285736,-115.04682159423828,0.5029391050338745,74.99879455566406,25.21,2
-0.3144126236438751,-0.8153737187385559,0.3241116404533386,-48.97093200683594,0.5026929378509521,74.99922943115234,25.21,2
-0.2969340980052948,-0.8255397081375122,0.3087561428546905,26.39604377746582,0.5025349855422974,74.99950408935547,25.21,2
-0.2801195979118347,-0.8376614451408386,0.2989018559455871,94.8927230834961,0.5024335980415344,74.99967956542969,25.21,2
-0.2805245816707611,-0.8454405069351196,0.2813823819160461,141.4903106689453,0.5023685097694397,74.99979400634766,25.21,2
-0.2863822281360626,-0.8560304045677185,0.2701393961906433,164.3004608154297,0.5023267865180969,74.99987030029297,25.21,2
-0.306934654712677,-0.8684241771697998,0.2685220837593078,171.98492431640625,0.502299964427948,72.25208282470703,25.19,2
-0.3201240301132202,-0.8651822209358215,0.2618864178657532,172.4703826904297,0.5022827982902527,70.48870849609375,25.19,2
-0.3285882174968719,-0.8686994910240173,0.2576280236244201,170.0663299560547,0.5022717714309692,69.3570785522461,25.19,2
-0.3284222781658172,-0.9269344210624696,0.2548952400684356,167.78912353515625,0.502264678478241,68.630859375,25.19,2
-0.3227179944515228,-0.953110694885254,0.2643370330333709,166.68959045410156,0.502260148525238,68.1648178100586,25.19,2
-0.3134595453739166,-0.9531158208847046,0.2815917730331421,166.4353790283203,0.502257227897644,67.86573791503906,25.19,2
-0.2907246947288513,-0.958716869354248,0.3150559663772583,168.131591796875,0.5022553205490112,67.6738052368164,25.19,2
-0.2705369889736175,-0.9455180168151855,0.3477269113063812,173.64102172851562,0.5022541284561157,67.5506362915039,25.19,2
-0.2463861405849456,-0.9034610986709596,0.3518999218940735,182.0776214599609,0.5013351440429688,67.47159576416016,25.19,2
-0.2364852875471115,-0.8540802597999573,0.3489801585674286,190.20733642578125,0.500745415687561,67.42086791992188,25.19,2
-0.2693158984184265,-0.8223904967308044,0.3079220056533813,196.4742126464844,0.5003669261932373,67.38831329345703,25.19,2
-0.3295691311359405,-0.8300427198410034,0.2423888146877288,202.3123016357422,0.5001240372657776,67.36742401123047,25.19,2
-0.3906272649765014,-0.8517467975616455,0.1891378313302993,209.8133850097656,0.4999682009220123,67.35401916503906,25.19,2
-0.4522019624710083,-0.860077440738678,0.1437688767910003,218.1954040527344,0.4998681843280792,67.34541320800781,25.19,2
-0.4861193001270294,-0.8542280197143555,0.1202514618635177,220.7944183349609,0.4998039901256561,67.33988952636719,25.19,2
-0.4742988348007202,-0.8616697192192078,0.1275504380464553,207.50506591796875,0.4997628033161163,67.33634948730469,25.19,2
-0.4107353985309601,-0.8720431923866272,0.1546255946159362,172.96363830566406,0.5011135339736938,67.33407592773438,25.19,2
-0.3475529551506042,-0.9010913372039796,0.1775986403226852,119.2201156616211,0.5019803047180176,67.3326187133789,25.19,2
-0.2790172100067138,-0.958917200565338,0.1923414319753646,50.00471115112305,0.5025365948677063,67.33168029785156,25.19,2
-0.2350349277257919,-1.007222056388855,0.1962047219276428,-28.767066955566406,0.5028935670852661,67.3310775756836,25.19,2
-0.2403962761163711,-1.1501768827438354,0.1818906366825103,-102.2825698852539,0.5031226277351379,67.3306884765625,25.19,2
-0.2942168414592743,-1.135559320449829,0.1615091413259506,-153.0682373046875,0.5032696723937988,67.3304443359375,25.19,2
-0.3399513363838196,-1.1597652435302734,0.1372339129447937,-176.4774169921875,0.5033640265464783,67.33028411865234,25.19,2
-0.3804966509342193,-1.1361148357391355,0.116057701408863,-181.0855407714844,0.5034245848655701,67.33018493652344,25.19,2
-0.417711853981018,-1.0873507261276243,0.0968702509999275,-175.53773498535156,0.5039223432540894,67.33011627197266,25.19,2
-0.4303988814353943,-1.044861078262329,0.0677635222673416,-163.71604919433594,0.5042418241500854,67.330078125,25.19,2
-0.4105518162250519,-1.0175937414169312,0.0546822771430015,-149.2331085205078,0.504446804523468,67.33004760742188,25.19,2
-0.3754239976406097,-1.0112906694412231,0.0462874881923198,-135.3029327392578,0.5045783519744873,67.33003234863281,25.19,2
-0.32489213347435,-1.0296367406845093,0.0520957447588443,-121.61643981933594,0.504662811756134,67.33002471923828,25.19,2
-0.2700725793838501,-1.0078235864639282,0.0726164728403091,-106.53865051269533,0.5047169923782349,67.33001708984375,25.19,2
-0.2180992364883422,-0.9434452056884766,0.0913832709193229,-90.99791717529295,0.5047517418861389,67.33000946044922,25.19,2
-0.2183323800563812,-0.8797397613525391,0.1034267172217369,-77.34905242919922,0.5047740340232849,67.33000946044922,25.19,2
-0.235275313258171,-0.8388572931289673,0.105557732284069,-65.9639663696289,0.5043294429779053,65.77874755859375,25.19,2
-0.2685394287109375,-0.8014256954193115,0.1013275235891342,-55.4011116027832,0.5040441155433655,64.78324127197266,25.19,2
-0.295484185218811,-0.777404248714447,0.093015044927597,-45.125885009765625,0.5038610100746155,64.14437866210938,25.19,2
-0.2959824502468109,-0.7787820100784302,0.0932783484458923,-36.18166732788086,0.5037435293197632,63.7343978881836,25.19,2
-0.279508888721466,-0.7964594960212708,0.0990450978279113,-29.27744674682617,0.5036681294441223,63.47129440307617,25.19,2
-0.2689371109008789,-0.8301950097084045,0.1083436384797096,-23.71103858947754,0.5036197304725647,63.30244827270508,25.19,2
-0.2565549612045288,-0.9078222513198853,0.119908683001995,-18.569669723510746,0.5035886764526367,63.194095611572266,25.19,2
-0.2486088275909423,-0.9912256002426147,0.1329282373189926,-13.901692390441896,0.503568708896637,63.12455749511719,25.19,2
-0.2435094565153122,-1.0895313024520874,0.1244901120662689,-10.18953800201416,0.5035558938980103,63.07993316650391,25.19,2
-0.2346391975879669,-1.197400450706482,0.0966839119791984,-7.370216369628906,0.5035476684570312,63.05129623413086,25.19,2
-0.2569356560707092,-1.2050490379333496,0.0788394957780838,-4.951900482177734,0.503542423248291,63.03292083740234,25.19,2
-0.3160264194011688,-1.159577488899231,0.0953768491744995,-2.762265920639038,0.5035390257835388,63.02112579345703,25.19,2
-0.3707408010959625,-1.057625412940979,0.1227828934788703,-1.1349648237228394,0.5035368800163269,63.01355743408203,25.19,2
-0.4226466715335846,-0.9642096161842346,0.1347727328538894,-0.2733679413795471,0.5035355091094971,63.00870132446289,25.19,2
-0.3440013825893402,-0.9490429162979126,0.1032827049493789,0.2222341150045395,0.5035346150398254,63.00558471679688,25.19,2
-0.2375536113977432,-0.9393097758293152,0.0662808939814567,0.9272011518478394,0.5035340189933777,63.00358581542969,25.19,2
-0.1468504667282104,-0.9162703156471252,0.0649263635277748,1.9169946908950808,0.5021564960479736,63.00230026245117,25.19,2
-0.1110334992408752,-0.8734960556030273,0.0752526521682739,2.81371545791626,0.5012724995613098,63.0014762878418,25.19,2
-0.1496237516403198,-0.7956660389900208,0.076281689107418,3.0201737880706787,0.5007051825523376,63.00094604492188,25.19,2
-0.2135731726884842,-0.7401214241981506,0.0489531978964805,2.002660036087036,0.5003411173820496,63.000606536865234,25.19,2
-0.2602100074291229,-0.721269428730011,0.0258175693452358,-0.008117826655507,0.50010746717453,63.00038909912109,25.19,2
-0.3125299513339996,-0.7371601462364197,0.0165682304650545,-1.9612959623336792,0.4999575614929199,63.000247955322266,25.19,2
-0.3684969544410705,-0.7697489857673645,0.0106325363740324,-3.1502468585968018,0.4998613595962524,63.00016021728516,25.19,2
-0.4212066829204559,-0.7906626462936401,0.0404099971055984,-3.741283416748047,0.4997996091842651,63.00010299682617,25.19,2
-0.4494349956512451,-0.8432682156562805,0.0595194548368454,-3.9593605995178223,0.4997600018978119,63.00006484985352,25.19,2
-0.4451591968536377,-0.9609940648078918,0.0605872571468353,-3.669401168823242,0.4997345805168152,63.00004196166992,25.19,2
-0.4312196969985962,-1.1540969610214231,0.0556747391819953,-2.8277103900909424,0.4997182488441467,63.00002670288086,25.19,2
-0.422274112701416,-1.2724215984344482,0.0693154856562614,-1.6928541660308838,0.4997077882289886,63.00001525878906,25.19,2
-0.3885444700717926,-1.2755844593048096,0.1172537505626678,-0.5382422804832458,0.499701052904129,63.0000114440918,25.19,2
-0.4004853963851928,-1.1824519634246826,0.1424199938774109,0.4320060312747955,0.4996967315673828,63.00000762939453,25.19,2
-0.4305394887924194,-1.12828266620636,0.1417769193649292,1.0510729551315308,0.4996939599514007,63.00000381469727,25.19,2
-0.4554242491722107,-1.188682198524475,0.0853864923119545,1.226234793663025,0.4996922016143799,63.00000381469727,25.19,2
-0.4546005129814148,-1.1490741968154907,0.0324050411581993,0.9875511527061462,0.5001499652862549,66.79753112792969,25.19,2
-0.4260830283164978,-1.123656153678894,0.0096001410856843,0.4689550101757049,0.5004437565803528,69.23456573486328,25.19,2
-0.3406088650226593,-1.0905508995056152,0.0397474654018878,-0.1003001481294632,0.5006322860717773,70.79851531982422,25.19,2
-0.2689631283283233,-1.0357192754745483,0.0758876055479049,-0.4942759275436401,0.5007532835006714,71.80216979980469,25.19,2
-0.1949961483478546,-0.9333581924438475,0.1158735901117324,-0.686203122138977,0.5008309483528137,72.44625854492188,25.19,2
-0.1475283950567245,-0.8620709776878357,0.1359365135431289,-0.7842929363250732,0.500880777835846,72.8595962524414,25.19,2
-0.1618485301733017,-0.816322922706604,0.1208228766918182,-0.8042504191398621,0.5009127259254456,73.12484741210938,25.19,2
-0.1990272402763366,-0.7701711654663086,0.0943304896354675,-0.7059981226921082,0.5009332299232483,73.29507446289062,25.19,2
-0.2228863984346389,-0.740553617477417,0.0717314258217811,-0.5247204899787903,0.5004875063896179,73.40431213378906,25.19,2
-0.2214045077562332,-0.7495356202125549,0.057228647172451,-0.3653959929943084,0.5002014636993408,73.47441864013672,25.19,2
-0.2148557305335998,-0.7888864278793335,0.0535193756222724,-0.402871161699295,0.5000178813934326,73.5194091796875,25.19,2
-0.1938597857952118,-0.9037038683891296,0.0567367523908615,-0.7386046648025513,0.499900072813034,73.54827880859375,25.19,2
-0.1747880280017852,-0.9885826706886292,0.069997027516365,-1.1725962162017822,0.4998244643211365,73.56681060791016,25.19,2
-0.1625488698482513,-1.0710418224334717,0.0617133863270282,-1.314969182014465,0.4997759461402893,73.57869720458984,25.19,2
-0.1602922528982162,-1.1183615922927856,0.0396040976047515,-0.9656791090965272,0.4997448027133941,73.5863265991211,25.19,2
-0.1868329644203186,-1.1151421070098877,0.0198178552091121,-0.1611475795507431,0.499724805355072,73.59122467041016,25.19,2
-0.2542452216148376,-1.0850871801376345,0.035109058022499,0.8423847556114197,0.4992530345916748,73.59436798095703,25.19,2
-0.3758753836154938,-1.116179585456848,0.0673131644725799,1.6153666973114014,0.4989503026008606,73.59638214111328,25.19,2
-0.4315395057201385,-1.130535125732422,0.0879799127578735,1.968119025230408,0.4987560212612152,73.5976791381836,25.19,2
-0.3609038293361664,-1.078172206878662,0.0676559954881668,2.1622519493103027,0.4986313283443451,73.5985107421875,25.19,2
-0.2595961689949035,-1.050166368484497,0.0714065954089164,2.4193906784057617,0.4985513091087341,73.59904479980469,25.19,2
-0.1498005539178848,-0.9594228267669678,0.129791259765625,2.591572523117065,0.4984999597072601,73.5993881225586,25.19,2
-0.14091557264328,-0.8564066290855408,0.1504658460617065,2.5623486042022705,0.4984669983386993,73.599609375,25.19,2
-0.1576047986745834,-0.7902967929840088,0.1469402909278869,2.471942901611328,0.4984458684921264,73.59974670410156,25.19,2
-0.2354882806539535,-0.7702623605728149,0.1054933667182922,2.2347967624664307,0.4988912343978882,73.59983825683594,25.19,2
-0.3022627234458923,-0.7686010003089905,0.0676995739340782,1.4055033922195437,0.4991770386695862,73.59989929199219,25.19,2
-0.3395169377326965,-0.7675348520278931,0.0602390132844448,-0.2157923430204391,0.4993604719638824,73.59993743896484,25.19,2
-0.3466312289237976,-0.8172305822372437,0.0610490292310714,-2.1160647869110107,0.4994781613349914,73.59996032714844,25.19,2
-0.3455989956855774,-0.8659157752990723,0.0671666264533996,-3.607826232910156,0.4995537102222442,73.5999755859375,25.19,2
-0.3785232305526733,-0.98672354221344,0.0654947757720947,-4.572318077087402,0.4996021687984466,73.59998321533203,25.19,2
-0.4164454340934753,-1.1202287673950195,0.058824099600315,-5.2127685546875,0.4996332824230194,73.59999084472656,25.19,2
-0.4575750231742859,-1.2226980924606323,0.0489454716444015,-5.437479019165039,0.4996532499790191,73.59999084472656,25.19,2
-0.4447852075099945,-1.232479214668274,0.0649970322847366,-4.951151847839356,0.500124990940094,76.36932373046875,25.21,2
-0.4309796690940857,-1.2331583499908447,0.0864935517311096,-3.643099069595337,0.5004277229309082,78.14652252197266,25.21,2
-0.4389134049415588,-1.18321430683136,0.08909323066473,-1.6500768661499023,0.5006219744682312,79.28702545166016,25.21,2
-0.4552003741264343,-1.1959452629089355,0.073968231678009,0.685789942741394,0.5007466673851013,80.01893615722656,25.21,2
-0.4544568657875061,-1.1593329906463623,0.0474685542285442,2.890582323074341,0.5008266568183899,80.48863220214844,25.21,2
-0.4371863901615143,-1.1246418952941897,0.0024737124331295,4.5777668952941895,0.5008780360221863,80.7900619506836,25.21,2
-0.392516553401947,-1.1135746240615845,-0.0208036117255687,5.456297874450684,0.5009109973907471,80.9834976196289,25.21,2
-0.2798834145069122,-1.061690092086792,0.0426271855831146,5.292825698852539,0.5009321570396423,81.10763549804688,25.21,2
-0.2076019346714019,-1.000404715538025,0.0833334177732467,4.249283790588379,0.5000278353691101,81.18730163574219,25.21,2
-0.0884447768330574,-0.9106953144073486,0.1150541082024574,2.931152582168579,0.4994475245475769,81.2384262084961,25.21,2
-0.0847476422786712,-0.8587228059768677,0.1074217483401298,1.863132119178772,0.4990751147270202,81.27123260498047,25.21,2
-0.1215594485402107,-0.8253698348999023,0.0913281887769699,1.202816128730774,0.4988361001014709,81.29228973388672,25.21,2
-0.1955631226301193,-0.7871724963188171,0.0586091727018356,0.9008708596229552,0.4986827373504638,81.30580139160156,25.21,2
-0.2430544197559356,-0.7682573795318604,0.0320142172276973,0.7321777939796448,0.4985843002796173,81.31446838378906,25.21,2
-0.2567382752895355,-0.7841076254844666,0.0149471070617437,0.2979059517383575,0.4985211491584778,81.32003021240234,25.21,2
-0.237530916929245,-0.9062349200248718,0.0039944183081388,-0.6578914523124695,0.4984806180000305,81.32360076904297,25.21,2
-0.2084114104509353,-1.0125980377197266,0.0081611620262265,-1.898217916488648,0.4993724524974823,81.32589721679688,25.21,2
-0.1953219622373581,-1.0920512676239014,0.0276284627616405,-2.812412977218628,0.4999447762966156,81.3273696899414,25.21,2
-0.1869219094514846,-1.176626443862915,0.040121454745531,-2.997842311859131,0.500312089920044,81.32831573486328,25.21,2
-0.1927267909049987,-1.1469353437423706,0.0537365116178989,-2.6152796745300293,0.5005477666854858,81.32891845703125,25.21,2
-0.2468319982290268,-1.0607080459594729,0.0848649740219116,-2.0795843601226807,0.5006990432739258,81.32930755615234,25.21,2
-0.3151402473449707,-1.0389589071273804,0.1216347515583038,-1.656989336013794,0.5007961392402649,81.32955932617188,25.21,2
-0.3757698833942413,-1.0753815174102783,0.1508292555809021,-1.4108701944351196,0.5008584260940552,81.32971954345703,25.21,2
-0.381091833114624,-1.065168857574463,0.1527712792158126,-1.2027690410614014,0.5008984208106995,81.32981872558594,25.21,2
-0.2725516855716705,-1.0418215990066528,0.1372242271900177,-0.7897807955741882,0.4995472729206085,81.32988739013672,25.21,2
-0.1469191163778305,-0.9596654176712036,0.1664314568042755,-0.1342479884624481,0.4986802041530609,81.32992553710938,25.21,2
-0.083088681101799,-0.8565623164176941,0.1907727420330047,0.5694587230682373,0.4981237649917602,81.3299560546875,25.21,2
-0.0981037244200706,-0.7736033797264099,0.1784047037363052,1.2539246082305908,0.4977666735649109,81.32997131347656,25.21,2
-0.1357283890247345,-0.7371584177017212,0.148076519370079,2.037102699279785,0.4975374937057495,81.3299789428711,25.21,2
-0.2270470261573791,-0.7417590022087097,0.1006247624754905,2.779733896255493,0.4973904192447662,81.32998657226562,25.21,2
-0.3024433851242065,-0.7391136288642883,0.0645751804113388,2.941045045852661,0.4972960352897644,81.32999420166016,25.21,2
-0.339632898569107,-0.7374159693717957,0.0526361837983131,2.116678237915039,0.4972354769706726,81.32999420166016,25.21,2
-0.3634989857673645,-0.7867065072059631,0.0729632973670959,0.5307872891426086,0.4976555407047272,83.3111572265625,25.21,2
-0.3844126462936401,-0.8743160367012024,0.0860080644488334,-1.1568878889083862,0.4979251027107239,84.58255767822266,25.21,2
-0.4258226752281189,-1.0648853778839111,0.0943794474005699,-2.3724958896636963,0.4980981051921844,85.39846801757812,25.21,2
-0.4579950273036957,-1.1703884601593018,0.088556170463562,-2.9089879989624023,0.4982091188430786,85.92207336425781,25.21,2
-0.4562503099441528,-1.2604854106903076,0.0960146710276603,-2.837699174880981,0.4982803761959076,86.25809478759766,25.21,2
-0.4215439856052398,-1.2399356365203855,0.1231922060251236,-2.28322434425354,0.4983260929584503,86.4737319946289,25.21,2
-0.3992714881896972,-1.232345700263977,0.1518287360668182,-1.3147737979888916,0.4983554184436798,86.61211395263672,25.21,2
-0.4129671454429626,-1.1770949363708496,0.142217144370079,-0.0448317714035511,0.4983742535114288,86.70092010498047,25.21,2
-0.421756237745285,-1.1304426193237305,0.108060099184513,1.2466264963150024,0.4988452792167663,86.7579116821289,25.21,2
-0.4273965656757355,-1.083710551261902,0.0749445259571075,2.276034355163574,0.4991475641727447,86.79448699951172,25.21,2
-0.4254184365272522,-1.1041005849838257,0.0480950810015201,2.922318696975708,0.4993415474891662,86.81795501708984,25.21,2
-0.4073556363582611,-1.1283812522888184,0.0364624299108982,3.0218000411987305,0.4994660317897796,86.83301544189453,25.21,2
-0.3341884613037109,-1.0879855155944824,0.0569861344993114,2.3547961711883545,0.4995459020137787,86.84268188476562,25.21,2
-0.2144629210233688,-1.0452685356140137,0.0813526138663292,1.11350679397583,0.4995971620082855,86.84888458251953,25.21,2
-0.1208366304636001,-1.0010619163513184,0.1025873944163322,-0.0485040843486785,0.4996300637722015,86.85286712646484,25.21,2
-0.1055348664522171,-0.939105987548828,0.1106168776750564,-0.6007566452026367,0.4996511936187744,86.85542297363281,25.21,2
-0.1237039491534233,-0.8881506323814392,0.1045741885900497,-0.4894257187843323,0.5010418891906738,86.85706329345703,25.21,2
-0.1745482385158538,-0.8274616003036499,0.0839030146598815,-0.00598372425884,0.5019343495368958,86.85811614990234,25.21,2
-0.2015794068574905,-0.7885148525238037,0.0650396719574928,0.3400872349739074,0.5025070905685425,86.8587875366211,25.21,2
-0.2021331340074539,-0.8027054667472839,0.0529342666268348,0.0677802264690399,0.5028746128082275,86.85922241210938,25.21,2
-0.1800973862409591,-0.9069743752479552,0.0451657138764858,-0.8521464467048645,0.5031104683876038,86.85950469970703,25.21,2
-0.1491627842187881,-0.9738881587982178,0.0401803031563758,-1.9655585289001465,0.5032618641853333,86.85968017578125,25.21,2
-0.129310742020607,-1.0280251502990725,0.0369809530675411,-2.7481513023376465,0.5033590197563171,86.85979461669922,25.21,2
-0.1445597112178802,-1.0515716075897217,0.046123344451189,-2.9207773208618164,0.5034213662147522,86.85987091064453,25.21,2
-0.1711389422416687,-1.0834757089614868,0.0519904047250747,-2.540745735168457,0.503002405166626,86.85991668701172,25.21,2
-0.2385759353637695,-1.0423743724822998,0.1005377396941185,-1.9708490371704104,0.502733588218689,86.85994720458984,25.21,2
-0.3210375308990478,-0.9768134355545044,0.1540837287902832,-1.6230350732803345,0.5025610327720642,86.85997009277344,25.21,2
-0.3739566504955292,-0.9963157176971436,0.1884464621543884,-1.5288007259368896,0.5024502873420715,86.85997772216797,25.21,2
-0.3183526992797851,-1.0704066753387451,0.1377274096012115,-1.28919780254364,0.5023792386054993,86.8599853515625,25.21,2
-0.2322893142700195,-1.10675847530365,0.0939833000302314,-0.5658048987388611,0.5023336410522461,86.85999298095703,25.21,2
-0.1322765946388244,-1.0853047370910645,0.1106930449604988,0.5612034797668457,0.5023043751716614,86.85999298095703,25.21,2
-0.0736919566988945,-1.0379503965377808,0.1494052708148956,1.7537699937820437,0.5022855997085571,86.85999298095703,25.21,2
-0.0976712256669998,-0.9515833258628844,0.1686507761478424,2.7627058029174805,0.5041096210479736,88.30018615722656,25.21,2
-0.1410486102104187,-0.901755690574646,0.1586103290319442,3.460338592529297,0.5052801966667175,89.22442626953125,25.21,2
-0.2192656844854354,-0.892170250415802,0.1017869785428047,3.639346122741699,0.5060313940048218,89.81755065917969,25.21,2
-0.2862542271614074,-0.8804211020469666,0.0429299287497997,2.958890914916992,0.5065134763717651,90.19818115234376,25.21,2
-0.3292436301708221,-0.8672834038734436,-0.0004389162058942,1.257564902305603,0.5068228244781494,90.44244384765624,25.21,2
-0.351233959197998,-0.8308635354042053,-0.0058794454671442,-1.0272459983825684,0.5070213675498962,90.59919738769533,25.21,2
-0.3709438741207123,-0.81308913230896,0.0074224597774446,-2.9950666427612305,0.507148802280426,90.69979858398438,25.21,2
-0.4003858864307403,-0.852062463760376,0.0383499525487422,-4.039363384246826,0.5072305798530579,90.7643585205078,25.21,2
-0.447268933057785,-0.9386488795280457,0.0525996647775173,-4.1972246170043945,0.5082008838653564,90.8057861328125,25.21,2
-0.4605624675750732,-1.066986083984375,0.0449509844183921,-3.789805173873901,0.508823573589325,90.8323745727539,25.21,2
-0.4131157398223877,-1.138149976730347,0.0344447270035743,-3.0017082691192627,0.5092231631278992,90.84943389892578,25.21,2
-0.3658738434314728,-1.183818817138672,0.0333001911640167,-1.808098673820496,0.5094796419143677,90.86038208007812,25.21,2
-0.3243611752986908,-1.1179643869400024,0.0661523416638374,-0.1106390133500099,0.5096442103385925,90.8674087524414,25.21,2
-0.3145140409469604,-1.0533117055892944,0.0704416334629058,1.9065799713134768,0.5097498297691345,90.87191772460938,25.21,2
-0.3081947267055511,-1.0622012615203855,0.0564009360969066,3.7062580585479736,0.5098176002502441,90.87480926513672,25.21,2
-0.3209326863288879,-1.1350793838500977,0.0305970981717109,4.746545791625977,0.5098611116409302,90.87667083740234,25.21,2
-0.3347049355506897,-1.221032738685608,-0.0027556412387639,4.826600074768066,0.5103479623794556,90.87786102294922,25.21,2
-0.3379454016685486,-1.2873882055282593,-0.0577461570501327,4.147128582000732,0.5106603503227234,90.87862396240234,25.21,2
-0.1944828033447265,-1.3187757730484009,-0.0426559336483478,3.145035982131958,0.5108608603477478,90.87911224365234,25.21,2
-0.1248078718781471,-1.299734115600586,-0.0385696701705455,2.1866841316223145,0.5109895467758179,90.87943267822266,25.21,2
0.0150676546618342,-1.192352056503296,0.0144326277077198,1.414035677909851,0.5110720992088318,90.879638671875,25.21,2
0.1104294881224632,-1.0562671422958374,0.0596420019865036,0.9289421439170836,0.5111250877380371,90.87976837158205,25.21,2
0.0540739633142948,-0.9241535067558287,0.0326770283281803,0.7681052088737488,0.5111590623855591,90.87985229492188,25.21,2
-0.0324717350304126,-0.8841527700424194,-0.0126164089888334,0.6469764709472656,0.5111808776855469,90.8799057006836,25.21,2
-0.127196192741394,-0.8584825992584229,-0.0584764555096626,0.1679945141077041,0.5116541981697083,90.87993621826172,25.21,2
-0.2271693348884582,-0.8420090079307556,-0.0935045704245567,-0.6911051273345947,0.5119579434394836,90.87995910644533,25.21,2
-0.2969241142272949,-0.8482304811477661,-0.1047880426049232,-1.6365091800689695,0.5121528506278992,90.87997436523438,25.21,2
-0.3696775734424591,-0.9082008600234984,-0.1064313575625419,-2.365022659301758,0.5122779607772827,90.8799819946289,25.21,2
-0.3995732367038727,-0.9858707785606384,-0.0738992914557457,-2.6749074459075928,0.5123582482337952,90.87998962402344,25.21,2
-0.4299541115760803,-1.0469104051589966,-0.0250332113355398,-2.572837352752685,0.5124097466468811,90.87998962402344,25.21,2
-0.4158641695976257,-0.9797244071960448,0.0231195446103811,-2.349701166152954,0.5124428272247314,90.87998962402344,25.21,2
-0.4068220555782318,-0.8918261528015137,0.0428256653249263,-2.267408847808838,0.5124640464782715,90.87998962402344,25.21,2
-0.4737904071807861,-0.8242225646972656,0.0106897223740816,-2.1823554039001465,0.5115594267845154,91.87953186035156,25.19,2
-0.5671468377113342,-0.8368161916732788,-0.0043354998342692,-1.6906986236572266,0.5109788775444031,92.52098083496094,25.19,2
-0.6158620715141296,-0.8616913557052612,-0.0083800489082932,-0.5476067066192627,0.5106063485145569,92.93262481689452,25.19,2
-0.6079402565956116,-0.8496659398078918,0.0002199410519097,1.0851904153823853,0.5103672742843628,93.19679260253906,25.19,2
-0.5916609168052673,-0.8251554369926453,0.011336694471538,2.763558864593506,0.5102138519287109,93.36632537841795,25.19,2
-0.5980071425437927,-0.8262193202972412,0.0464596599340438,4.11649751663208,0.510115385055542,93.4751205444336,25.19,2
-0.6412642002105713,-0.7933154106140137,0.0801951065659523,4.9524922370910645,0.5100522041320801,93.54493713378906,25.19,2
-0.6298396587371826,-0.7442107200622559,0.0906490236520767,5.102067470550537,0.5100116729736328,93.5897445678711,25.19,2
-0.5161503553390503,-0.7071003317832947,0.0805644243955612,4.492289066314697,0.5113627910614014,93.61849975585938,25.19,2
-0.4879732728004455,-0.6720895171165466,0.0628971606492996,3.23398494720459,0.512229859828949,93.63694763183594,25.19,2
-0.5090752840042114,-0.6216326951980591,0.0347660034894943,1.4735127687454224,0.5127862691879272,93.64878845214844,25.19,2
-0.5170195698738098,-0.6452301740646362,0.1398640722036361,-0.4909971952438354,0.5131433606147766,93.65638732910156,25.19,2
-0.3877711296081543,-0.6939603090286255,0.364047646522522,-2.056225538253784,0.5133724808692932,93.66126251220705,25.19,2
-0.4447712898254394,-0.7308302521705627,0.3511780798435211,-2.852909564971924,0.5135195255279541,93.66439056396484,25.19,2
-0.5261328816413879,-0.7153068780899048,0.236561432480812,-3.0596566200256348,0.5136138796806335,93.66639709472656,25.19,2
-0.5055750012397766,-0.7165403962135315,0.095833770930767,-3.0096235275268555,0.5136744379997253,93.66768646240234,25.19,2
-0.5259687900543213,-0.7285275459289551,-7.492331496905535e-05,-2.798386573791504,0.5132544040679932,93.66851806640624,25.19,2
-0.544654130935669,-0.7474157810211182,-0.0448302775621414,-2.351142644882202,0.5129848718643188,93.66905212402344,25.19,2
-0.6126230955123901,-0.7483416199684143,-0.1183338835835456,-1.6879568099975586,0.5128118991851807,93.6693878173828,25.19,2
-0.7290127277374268,-0.7657290697097778,-0.1711020469665527,-1.1298069953918457,0.5127008557319641,93.66960906982422,25.19,2
-0.7981070876121521,-0.7656917572021484,-0.1098034456372261,-1.0438942909240725,0.5126296281814575,93.66974639892578,25.19,2
-0.8760344982147217,-0.7544723153114319,-0.0872588530182838,-1.3613483905792236,0.5125839114189148,93.66983795166016,25.19,2
-0.909250557422638,-0.7136856317520142,-0.0951821282505989,-1.7155402898788452,0.5125545859336853,93.6698989868164,25.19,2
-0.930566668510437,-0.665120005607605,-0.0834735110402107,-2.0574827194213867,0.5125357508659363,93.66993713378906,25.19,2
-0.95544171333313,-0.6395511627197266,-0.0591662675142288,-2.7390739917755127,0.5129826068878174,93.66996002197266,25.19,2
-0.9770028591156006,-0.6063492298126221,-0.0379695035517215,-4.004055023193359,0.5132693648338318,93.66997528076172,25.19,2
-1.002035140991211,-0.5682488083839417,-0.0243666414171457,-5.568187713623047,0.5134533643722534,93.66998291015624,25.19,2
-1.0348926782608032,-0.5493959188461304,0.0123517634347081,-7.001867294311523,0.5135714411735535,93.66999053955078,25.19,2
-1.0391854047775269,-0.5205039381980896,0.0471110716462135,-8.548871040344238,0.513647198677063,93.66999053955078,25.19,2
-1.1035157442092896,-0.4795716106891632,0.0302331745624542,-10.892279624938965,0.5136958360671997,93.66999053955078,25.19,2
-1.1895815134048462,-0.453303575515747,-0.0141847357153892,-13.8793306350708,0.513727068901062,93.66999053955078,25.19,2
-1.1552491188049316,-0.4196529388427734,-0.0035051724407821,-16.584415435791016,0.5137470960617065,93.66999053955078,25.19,2
-1.1052277088165283,-0.3868623673915863,0.0145439058542251,-19.180200576782227,0.5128417611122131,94.46891021728516,25.21,2
-1.0171490907669067,-0.3490259349346161,0.0597134120762348,-23.282176971435547,0.5122607350349426,94.98161315917967,25.21,2
-0.9326364398002625,-0.3191469311714172,0.1110916957259178,-29.28579330444336,0.5118878483772278,95.31063079833984,25.21,2
-0.8839988708496094,-0.2775811851024627,0.1664544194936752,-34.91910934448242,0.5116485953330994,95.5217742919922,25.21,2
-0.8919705152511597,-0.2453089207410812,0.2019830346107483,-38.41602325439453,0.511495053768158,95.65727996826172,25.21,2
-0.9082818031311036,-0.2190006673336029,0.2359787970781326,-42.010772705078125,0.5113965272903442,95.7442398071289,25.21,2
-0.9355427622795104,-0.1909219920635223,0.2689908742904663,-49.279541015625,0.5113332867622375,95.80004119873048,25.21,2
-0.9530372619628906,-0.1729027181863784,0.290176123380661,-59.40764617919922,0.5112926959991455,95.83585357666016,25.21,2
-0.9698620438575744,-0.155741199851036,0.3093693554401397,-67.79888153076172,0.5117259621620178,95.85883331298828,25.21,2
-0.9526703357696532,-0.1391301602125167,0.3328820168972015,-73.21971893310547,0.512004017829895,95.8735809326172,25.21,2
-0.9192465543746948,-0.1284701526165008,0.3535688817501068,-80.35630798339844,0.5121824145317078,95.88304901123048,25.21,2
-0.8921993374824524,-0.1160313934087753,0.3724423050880432,-93.26206970214844,0.5122969150543213,95.88912200927734,25.21,2
-0.8748419880867004,-0.1024511381983757,0.3957497179508209,-108.52310180664062,0.5123704075813293,95.8930206298828,25.21,2
-0.8637030720710754,-0.0993338897824287,0.433098167181015,-115.16050720214844,0.5124175548553467,95.89552307128906,25.21,2
-0.8621525168418884,-0.1197245195508003,0.4682618081569671,-102.34545135498048,0.5124478340148926,95.89712524414062,25.21,2
-0.8499618768692017,-0.138407826423645,0.5020233392715454,-71.6981430053711,0.5124672651290894,95.89815521240234,25.21,2
-0.8085520267486572,-0.1559954732656479,0.5236895680427551,-39.13677597045898,0.5124797224998474,95.89881896972656,25.21,2
-0.7819775342941284,-0.1728799790143966,0.531995952129364,-15.582494735717772,0.5124877095222473,95.89924621582033,25.21,2
-0.7649235725402832,-0.1781177073717117,0.5149353742599487,8.514803886413574,0.512492835521698,95.8995132446289,25.21,2
-0.7595770955085754,-0.1758812069892883,0.5039868950843811,45.98682403564453,0.5124961137771606,95.89968872070312,25.21,2
-0.7673415541648865,-0.1688481718301773,0.4969607889652252,89.01469421386719,0.5124981999397278,95.8998031616211,25.21,2
-0.8115087747573853,-0.1755303293466568,0.5204406976699829,118.64807891845705,0.5124995708465576,95.89987182617188,25.21,2
-0.8342549800872803,-0.1910140961408615,0.5746932029724121,129.16004943847656,0.5125004649162292,95.89991760253906,25.21,2
-0.8488522171974182,-0.1897551417350769,0.609509289264679,127.97419738769533,0.5125010013580322,95.8999481201172,25.21,2
-0.8526220917701721,-0.177751675248146,0.5814722776412964,121.0690689086914,0.511583149433136,95.89997100830078,25.21,2
-0.8550413846969604,-0.1700485348701477,0.5634797811508179,111.74395751953124,0.5109941363334656,95.89997863769533,25.21,2
-0.856593906879425,-0.1707028746604919,0.551933228969574,105.53752136230467,0.5106161236763,95.89998626708984,25.21,2
-0.8575902581214905,-0.1655250191688537,0.5557188391685486,105.61363983154295,0.5103735327720642,95.89999389648438,25.21,2
-0.830240786075592,-0.1622021794319152,0.5917348861694336,108.10939025878906,0.5102178454399109,95.89999389648438,25.21,2
-0.7679072618484497,-0.1600697636604309,0.6204456686973572,108.0916976928711,0.5101179480552673,95.89999389648438,25.21,2
-0.7391007542610168,-0.1587013006210327,0.6332728266716003,106.3786163330078,0.5100538730621338,95.89999389648438,25.21,2
-0.7821899056434631,-0.1690186560153961,0.6079179048538208,106.64422607421876,0.5100127458572388,95.89999389648438,25.21,2
-0.8042442798614502,-0.181237518787384,0.5860488414764404,109.14334869384766,0.5109045505523682,96.58785247802734,25.21,2
-0.8127997517585754,-0.1946766525506973,0.5720145106315613,111.30602264404295,0.5114768743515015,97.02928161621094,25.21,2
-0.8126923441886902,-0.20330111682415,0.5630080699920654,112.55776977539062,0.5118441581726074,97.31256103515624,25.21,2
-0.8126234412193298,-0.2088357955217361,0.5572282671928406,113.74798583984376,0.5120798349380493,97.49435424804688,25.21,2
-0.8181769847869873,-0.2123876363039016,0.5535191297531128,111.66006469726562,0.5122311115264893,97.61102294921876,25.21,2
-0.8217409253120422,-0.2090692222118377,0.5511388182640076,100.2746124267578,0.5123281478881836,97.6858901977539,25.21,2
-0.8240280747413635,-0.2069396525621414,0.5552090406417847,80.06006622314453,0.5123904347419739,97.7339324951172,25.21,2
-0.8254958391189575,-0.20557302236557,0.5634188652038574,57.47548675537109,0.5124304294586182,97.7647705078125,25.21,2
-0.8208400011062622,-0.2046959996223449,0.5686874389648438,33.63506317138672,0.5115378499031067,97.78455352783205,25.21,2
-0.8178521394729614,-0.1985353976488113,0.5608729720115662,4.639466285705566,0.5109650492668152,97.79724884033205,25.21,2
-0.8159347176551819,-0.1945818811655044,0.5558580756187439,-27.886547088623047,0.5105974674224854,97.8053970336914,25.21,2
-0.8203019499778748,-0.1920447498559951,0.5526398420333862,-58.39341735839844,0.5103615522384644,97.81063079833984,25.21,2
-0.8287023901939392,-0.1904165595769882,0.550574541091919,-85.23284912109375,0.5102101564407349,97.8139877319336,25.21,2
-0.8284955620765686,-0.1893716752529144,0.5492491722106934,-107.28257751464844,0.510113000869751,97.8161392211914,25.21,2
-0.822765052318573,-0.1942989081144333,0.5483986139297485,-120.20758819580078,0.5100506544113159,97.81752014160156,25.21,2
-0.8190875053405762,-0.1974609196186065,0.5478527545928955,-123.26797485351562,0.5100106596946716,97.8184051513672,25.21,2
-0.8223252296447754,-0.1994901150465011,0.5531002283096313,-122.09719848632812,0.5113621354103088,97.81897735595705,25.21,2
-0.8244030475616455,-0.2007923424243927,0.5508700013160706,-121.12732696533205,0.5122294425964355,97.81934356689452,25.21,2
-0.8257364630699158,-0.201628029346466,0.5494387745857239,-119.5806121826172,0.5127860307693481,97.819580078125,25.21,2
-0.8209943771362305,-0.2021643370389938,0.5485202670097351,-116.0193099975586,0.5131431818008423,97.81973266601562,25.21,2
-0.8235489726066589,-0.2025085091590881,0.5479308366775513,-111.86735534667967,0.5133724212646484,97.81983184814452,25.21,2
-0.825188398361206,-0.2027293741703033,0.5475525856018066,-108.14601135253906,0.5135195255279541,97.81989288330078,25.21,2
-0.8206427097320557,-0.2028711140155792,0.5473098158836365,-102.39740753173828,0.5136138796806335,97.81993103027344,25.21,2
-0.8177255392074585,-0.2029620707035064,0.5471540689468384,-92.54625701904295,0.5136744379997253,97.81995391845705,25.21,2
-0.8214512467384338,-0.2030204385519027,0.54705411195755,-81.7103042602539,0.5141722559928894,97.8199691772461,25.21,2
-0.8238421678543091,-0.1974601298570633,0.546989917755127,-75.13258361816406,0.5144917368888855,97.81997680664062,25.21,2
-0.8253765106201172,-0.1938918381929397,0.5413509607315063,-73.68071746826172,0.5146967768669128,97.81998443603516,25.21,2
-0.8263611793518066,-0.1916019171476364,0.5377322435379028,-73.3293685913086,0.5148283243179321,97.81999206542967,25.21,2
-0.8269931077957153,-0.1957301497459411,0.5354099273681641,-67.55806732177734,0.5149127840995789,97.81999206542967,25.21,2
-0.8273985981941223,-0.1983794122934341,0.5339195728302002,-50.03279876708984,0.5149669647216797,97.81999206542967,25.21,2
-0.8276588320732117,-0.1944817751646042,0.5329631567001343,-21.8046817779541,0.5150017142295837,97.81999206542967,25.21,2
-0.8278258442878723,-0.1919804960489273,0.5323494076728821,6.520838260650635,0.5150240063667297,97.81999206542967,25.21,2
-0.8335307836532593,-0.1903753280639648,0.5319555401802063,27.743715286254883,0.5150383114814758,98.39320373535156,25.19,2
-0.8427896499633789,-0.1949429959058761,0.5317027568817139,46.80168914794922,0.5150474905967712,98.76106262207033,25.19,2
-0.8375359177589417,-0.1978742629289627,0.53154057264328,69.86570739746094,0.515053391456604,98.99713134765624,25.19,2
-0.8341643810272217,-0.194157600402832,0.5314364433288574,94.65150451660156,0.5150572061538696,99.14862823486328,25.19,2
-0.8375985026359558,-0.1917724609375,0.5313696265220642,116.9417495727539,0.5150596499443054,99.245849609375,25.19,2
-0.8398023247718811,-0.1902418136596679,0.5313267707824707,135.47378540039062,0.5150611996650696,99.30824279785156,25.19,2
-0.8412166237831116,-0.1892595440149307,0.5312992930412292,145.00924682617188,0.5150622129440308,99.34828186035156,25.19,2
-0.8421242237091064,-0.1886291801929474,0.5256838798522949,135.83096313476562,0.5150628685951233,99.3739776611328,25.19,2
-0.8427066802978516,-0.1882246434688568,0.5220801830291748,107.10552978515624,0.5150632858276367,99.39046478271484,25.19,2
-0.843080461025238,-0.1879650354385376,0.5197675824165344,72.2164306640625,0.5150635242462158,99.40104675292967,25.19,2
-0.8433203101158142,-0.1877984255552292,0.518283486366272,44.54231262207031,0.5150637030601501,99.4078369140625,25.19,2
-0.843474268913269,-0.1876915097236633,0.5229288339614868,25.77595329284668,0.5150638222694397,99.41219329833984,25.19,2
-0.8491708040237427,-0.1876229047775268,0.5203121900558472,12.296171188354492,0.5150638818740845,99.41498565673828,25.19,2
-0.8528265357017517,-0.187578871846199,0.5186329483985901,3.129732131958008,0.5150639414787292,99.41677856445312,25.19,2
-0.8551725745201111,-0.1875506192445755,0.5175553560256958,-2.695439577102661,0.5150639414787292,99.41793060302734,25.19,2
-0.8510803580284119,-0.1875324845314026,0.5168637633323669,-8.171248435974121,0.5150639414787292,99.41867065429688,25.19,2
-0.8484541773796082,-0.1875208467245102,0.5164199471473694,-14.282674789428713,0.5169000029563904,99.4191436767578,25.19,2
-0.846768856048584,-0.187513381242752,0.5161351561546326,-18.641712188720703,0.5180783271789551,99.41944885253906,25.19,2
-0.8456873297691345,-0.1875085830688476,0.5159524083137512,-19.55107307434082,0.5188344717025757,99.41964721679688,25.19,2
-0.8505910634994507,-0.1875055134296417,0.5158351063728333,-18.540401458740234,0.5193197131156921,99.41976928710938,25.19,2
-0.8537379503250122,-0.1875035315752029,0.5157598257064819,-17.870315551757812,0.5196311473846436,99.41985321044922,25.19,2
-0.8501597046852112,-0.1875022649765014,0.5157115459442139,-17.56926727294922,0.5198310017585754,99.41990661621094,25.19,2
-0.8534611463546753,-0.181903675198555,0.5156805515289307,-16.355037689208984,0.5199592709541321,99.41993713378906,25.19,2
-0.8555798530578613,-0.1839085966348648,0.5156606435775757,-14.099793434143066,0.5200415849685669,99.41996002197266,25.19,2
-0.851341724395752,-0.1795974671840667,0.5156478881835938,-11.928826332092283,0.5191765427589417,99.41997528076172,25.19,2
-0.8486219048500061,-0.1768308281898498,0.5156396627426147,-10.47472095489502,0.5186213850975037,99.41998291015624,25.19,2
-0.8468765020370483,-0.1750553697347641,0.5156344175338745,-9.222710609436035,0.5182651281356812,99.41999053955078,25.19,2
-0.85135418176651,-0.1739159822463989,0.5156310200691223,-7.598832607269287,0.5180364847183228,99.41999053955078,25.19,2
-0.8542277216911316,-0.1731847822666168,0.5156288743019104,-5.854536533355713,0.5178897976875305,99.41999053955078,25.19,2
-0.8560717701911926,-0.1727155447006225,0.5156275033950806,-4.430628776550293,0.5177956223487854,99.41999053955078,25.19,2
-0.8516573905944824,-0.1724144071340561,0.5156266093254089,-3.2409884929656982,0.5177351832389832,99.41999053955078,25.19,2
-0.8544222712516785,-0.172221153974533,0.5156260132789612,-2.058384418487549,0.5176964402198792,99.41999053955078,25.19,2
-0.8561966419219971,-0.1720971465110778,0.5156256556510925,-0.962695062160492,0.518589437007904,99.84990692138672,25.23,2
-0.8573353290557861,-0.1720175594091415,0.5156254172325134,-0.0911636278033256,0.5191624760627747,100.12580108642578,25.23,2
-0.8580660820007324,-0.1719664931297302,0.5156252384185791,0.5290388464927673,0.5195302367210388,100.30284881591795,25.23,2
-0.8529372215270996,-0.1719337105751037,0.5156251788139343,0.8553975820541382,0.5197662115097046,100.41647338867188,25.23,2
-0.8552436232566833,-0.171912670135498,0.5100273489952087,0.9573585391044616,0.5199176669120789,100.48938751220705,25.23,2
-0.8567237257957458,-0.1718991696834564,0.5120327472686768,1.0836949348449707,0.5200148820877075,100.5361785888672,25.23,2
-0.8576735854148865,-0.1718905121088028,0.5133196711540222,1.2722476720809937,0.5200772285461426,100.5662078857422,25.23,2
-0.8582831025123596,-0.1718849539756775,0.51414555311203,1.271442413330078,0.5201172828674316,100.58547973632812,25.23,2
-0.8586742877960205,-0.1718813925981521,0.509077787399292,0.9413287043571472,0.5196840763092041,100.59784698486328,25.23,2
-0.8589253425598145,-0.1718790978193283,0.5114233493804932,0.4249617755413055,0.5194060206413269,100.60578155517578,25.23,2
-0.8590864539146423,-0.1718776226043701,0.5129286050796509,-0.0891241356730461,0.5192276239395142,100.61087799072266,25.23,2
-0.8591898083686829,-0.1718766838312149,0.5138946175575256,-0.5014341473579407,0.5191131234169006,100.61414337158205,25.23,2
-0.8592561483383179,-0.1718760877847671,0.5145145654678345,-0.7517006397247314,0.5190396308898926,100.61624145507812,25.23,2
-0.8592987060546875,-0.1718757003545761,0.5149123668670654,-0.8836466670036316,0.5189924836158752,100.61759185791016,25.23,2
-0.8593260645866394,-0.1718754470348358,0.5151676535606384,-1.0363909006118774,0.5189622044563293,100.6184539794922,25.23,2
-0.8593435883522034,-0.1718752831220626,0.515331506729126,-1.2060649394989014,0.5189427733421326,100.61901092529295,25.23,2
-0.8593548536300659,-0.1718751788139343,0.5154366493225098,-1.243300437927246,0.518471360206604,100.61936950683594,25.23,2
-0.8593620657920837,-0.1718751192092895,0.5099063515663147,-1.152553677558899,0.5181688666343689,100.61959838867188,25.23,2
-0.8593667149543762,-0.1718750745058059,0.5119550824165344,-1.11223042011261,0.5179747343063354,100.61974334716795,25.23,2
-0.859369695186615,-0.1718750447034835,0.51326984167099,-1.111431360244751,0.5178501605987549,100.61983489990234,25.23,2
-0.8593716025352478,-0.1718750298023224,0.5141136050224304,-0.9353723526000975,0.5177702307701111,100.6198959350586,25.23,2
-0.8593727946281433,-0.1718750149011612,0.5146550536155701,-0.6289287209510803,0.5177189111709595,100.61993408203124,25.23,2
-0.8537757992744446,-0.1718750149011612,0.5150025486946106,-0.5397481322288513,0.5176860094070435,100.61995697021484,25.23,2
-0.8557817339897156,-0.1718750149011612,0.5152255296707153,-0.8121141195297241,0.5176648497581482,100.6199722290039,25.23,2
-0.8570690751075745,-0.1718750149011612,0.515368640422821,-1.169614315032959,0.5185691118240356,100.61997985839844,25.23,2
-0.8522974252700806,-0.1718750149011612,0.5154604911804199,-1.3166381120681765,0.5191494226455688,100.61998748779295,25.23,2
-0.8492352366447449,-0.1718750149011612,0.5155194401741028,-1.2569386959075928,0.5195218324661255,100.6199951171875,25.23,2
-0.847270131111145,-0.1718750149011612,0.5155572295188904,-1.182801365852356,0.5197608470916748,100.6199951171875,25.23,2
-0.8516067862510681,-0.1718750149011612,0.515581488609314,-1.2068758010864258,0.5199142098426819,100.6199951171875,25.23,2
-0.8543897867202759,-0.177472785115242,0.5155971050262451,-1.2796465158462524,0.5200126767158508,100.6199951171875,25.23,2
-0.8505780100822449,-0.1754673421382904,0.5156071186065674,-1.3263466358184814,0.5200758576393127,100.6199951171875,25.23,2
-0.8481318354606628,-0.1797781288623809,0.5156134963035583,-1.3204903602600098,0.52011638879776,100.6199951171875,25.23,2
-0.8521597981452942,-0.1769467741250991,0.5156176090240479,-1.2522457838058472,0.5187652707099915,101.11439514160156,25.21,2
-0.8547446727752686,-0.1807275414466858,0.515620231628418,-1.1762070655822754,0.5178982019424438,101.43167114257812,25.21,2
-0.8564035296440125,-0.183153823018074,0.5156219601631165,-1.2277220487594604,0.5173417925834656,101.6352767944336,25.21,2
-0.8518702983856201,-0.1791131049394607,0.5156230330467224,-1.3360153436660769,0.5169847011566162,101.76594543457033,25.21,2
-0.8545588850975037,-0.1765200048685073,0.5156237483024597,-1.1977224349975586,0.5167555212974548,101.84980010986328,25.21,2
-0.8562843203544617,-0.180453673005104,0.5156242251396179,-0.7435512542724609,0.516608476638794,101.9036102294922,25.21,2
-0.8573915958404541,-0.1829780787229538,0.5156245231628418,-0.2801267504692077,0.5165141224861145,101.93814086914062,25.21,2
-0.8581021428108215,-0.1845980882644653,0.5156247019767761,-0.100952573120594,0.5164535641670227,101.9603042602539,25.21,2
-0.858558177947998,-0.1800399422645568,0.5156248211860657,-0.2904878258705139,0.5159557461738586,101.97452545166016,25.21,2
-0.8588508367538452,-0.1771147847175598,0.5156248807907104,-0.6593183279037476,0.5156362652778625,101.98365020751952,25.21,2
-0.8534408211708069,-0.1752375960350036,0.5156249403953552,-0.7634572386741638,0.5154312252998352,101.98950958251952,25.21,2
-0.8555667996406555,-0.179630696773529,0.5156249403953552,-0.3860481977462768,0.5152996778488159,101.99327087402344,25.21,2
-0.8569310903549194,-0.1824499368667602,0.5156249403953552,0.0818534269928932,0.5152152180671692,101.99568176269533,25.21,2
-0.8578066229820251,-0.1842591613531112,0.5156249403953552,0.1886666864156723,0.5151610374450684,101.99723052978516,25.21,2
-0.8583685159683228,-0.1854202151298523,0.5156249403953552,0.0135981412604451,0.5151262879371643,101.99822235107422,25.21,2
-0.8587291240692139,-0.1861653178930282,0.5156249403953552,-0.1130810678005218,0.5151039958000183,101.99885559082033,25.21,2
-0.8533627390861511,-0.1866434812545776,0.5156249403953552,-0.1263075619935989,0.5146307349205017,101.999267578125,25.21,2
-0.8499189019203186,-0.1813525557518005,0.5156249403953552,-0.1168826818466186,0.5143270492553711,101.99952697753906,25.21,2
-0.8533065915107727,-0.177957147359848,0.5156249403953552,-0.0893388763070106,0.5141321420669556,101.99969482421876,25.21,2
-0.8554806709289551,-0.1757781654596328,0.5156249403953552,-0.1110711842775344,0.514007031917572,101.9998016357422,25.21,2
-0.8568758368492126,-0.1799775958061218,0.5156249403953552,-0.3005639314651489,0.5139267444610596,101.99987030029295,25.21,2
-0.852173388004303,-0.1770747750997543,0.5156249403953552,-0.5260641574859619,0.5138752460479736,101.99991607666016,25.21,2
-0.8547534346580505,-0.1752119213342666,0.5156249403953552,-0.5310567617416382,0.5138421654701233,101.99994659423828,25.21,2
-0.8564091324806213,-0.1740164458751678,0.5156249403953552,-0.4267834722995758,0.5138209462165833,101.99996948242188,25.21,2
-0.8518738746643066,-0.1732492595911026,0.5156249403953552,-0.524665355682373,0.5151845216751099,101.9999771118164,25.21,2
-0.8489634394645691,-0.1727569252252578,0.5156249403953552,-0.8024348616600037,0.5160595774650574,101.99998474121094,25.21,2
-0.8470956683158875,-0.1724409759044647,0.5156249403953552,-0.9377003908157348,0.5166211128234863,101.99999237060548,25.21,2
-0.8514948487281799,-0.1778359860181808,0.5156249403953552,-0.8095515370368958,0.5169814825057983,101.99999237060548,25.21,2
-0.8543179631233215,-0.1757004112005233,0.5156249403953552,-0.5553493499755859,0.5172127485275269,101.99999237060548,25.21,2
-0.8505319356918335,-0.1743299216032028,0.5156249403953552,-0.3313132226467132,0.5173611640930176,101.99999237060548,25.21,2
-0.8481022715568542,-0.1734504252672195,0.5156249403953552,-0.2520260810852051,0.5174564123153687,101.99999237060548,25.21,2
-0.8521407842636108,-0.1728860139846801,0.5156249403953552,-0.348029762506485,0.5175175070762634,101.99999237060548,25.21,2
-0.8547325134277344,-0.1781215816736221,0.5156249403953552,-0.466960608959198,0.5166385173797607,102.40482330322266,25.21,2
-0.8507979512214661,-0.1758836954832077,0.5156249403953552,-0.3605722188949585,0.5160744190216064,102.66461944580078,25.21,2
-0.848272979259491,-0.174447551369667,0.5156249403953552,0.0014729117974638,0.5157124400138855,102.8313446044922,25.21,2
-0.852250337600708,-0.1735259145498275,0.5156249403953552,0.3484550714492798,0.5154801607131958,102.93833923339844,25.21,2
-0.8548027873039246,-0.1729344576597213,0.5156249403953552,0.3955820202827453,0.5153310894966125,103.00700378417967,25.21,2
-0.8564408421516418,-0.1725548952817917,0.5156249403953552,0.149967074394226,0.515235424041748,103.05106353759766,25.21,2
-0.8574920296669006,-0.172311320900917,0.5156249403953552,-0.1366271674633026,0.5151740312576294,103.079345703125,25.21,2
-0.8581666350364685,-0.1721550077199936,0.5156249403953552,-0.3062165677547455,0.5151346325874329,103.09748840332033,25.21,2
-0.8585995435714722,-0.1776524633169174,0.5156249403953552,-0.4186318516731262,0.5155682563781738,103.10913848876952,25.21,2
-0.8588773608207703,-0.1755826473236084,0.5156249403953552,-0.5516772866249084,0.5158465504646301,103.11660766601562,25.21,2
-0.8590556383132935,-0.1798521280288696,0.5156249403953552,-0.7194574475288391,0.5160251259803772,103.12140655517578,25.21,2
-0.8591700792312622,-0.1769942641258239,0.5156249403953552,-0.7984684705734253,0.5161397457122803,103.12448120117188,25.21,2
-0.8536457419395447,-0.1807580292224884,0.5156249403953552,-0.5768974423408508,0.5162132978439331,103.12645721435548,25.21,2
-0.8501005172729492,-0.1775756180286407,0.5156249403953552,-0.1266044229269027,0.5162605047225952,103.12772369384766,25.21,2
-0.8478254079818726,-0.1755333244800567,0.5156249403953552,0.1444548368453979,0.5162907838821411,103.1285400390625,25.21,2
-0.857560932636261,-0.174222707748413,0.5156249403953552,0.1428588628768921,0.5163102149963379,103.12905883789062,25.21,2
-0.8582108616828918,-0.1733816266059875,0.5156249403953552,0.242146760225296,0.5172408819198608,103.12939453125,25.21,2
-0.8530301451683044,-0.1728418618440628,0.5156249403953552,0.5996352434158325,0.5178381204605103,103.12960815429688,25.21,2
-0.8553032279014587,-0.1724954694509506,0.5156249403953552,0.9042848944664,0.5182214379310608,103.12974548339844,25.21,2
-0.8567619919776917,-0.172273188829422,0.5156249403953552,0.8848369121551514,0.5184674263000488,103.1298370361328,25.21,2
-0.8576981425285339,-0.1721305400133133,0.5156249403953552,0.5893328785896301,0.5186252593994141,103.12989807128906,25.21,2
-0.8582988977432251,-0.1720389872789383,0.5156249403953552,0.1811582595109939,0.5187265872955322,103.12993621826172,25.21,2
-0.8586844205856323,-0.1719802320003509,0.5156249403953552,-0.2205051630735397,0.5187916159629822,103.12995910644533,25.21,2
-0.858931839466095,-0.1719425320625305,0.5156249403953552,-0.5140953660011292,0.518833339214325,103.12997436523438,25.21,2
-0.8590906262397766,-0.1719183325767517,0.5156249403953552,-0.6236879825592041,0.5193189978599548,103.1299819946289,25.21,2
-0.8591924905776978,-0.1719028055667877,0.5156249403953552,-0.5757932662963867,0.5196306705474854,103.12998962402344,25.21,2
-0.8592578768730164,-0.171892836689949,0.5156249403953552,-0.5128139853477478,0.5198307037353516,103.12998962402344,25.21,2
-0.8592998385429382,-0.1718864440917968,0.5156249403953552,-0.5619618892669678,0.519959032535553,103.12998962402344,25.21,2
-0.8593267798423767,-0.1718823462724685,0.5156249403953552,-0.6902317404747009,0.5200414061546326,103.12998962402344,25.21,2
-0.8593440651893616,-0.1718797087669372,0.5156249403953552,-0.7080615758895874,0.5200942754745483,103.12998962402344,25.21,2
-0.8593551516532898,-0.1718780249357223,0.5156249403953552,-0.4615583121776581,0.5201281905174255,103.12998962402344,25.21,2
-0.8593622446060181,-0.1718769371509552,0.5156249403953552,-0.0597515664994716,0.5201499462127686,103.12998962402344,25.21,2
-0.8593668341636658,-0.1718762367963791,0.5156249403953552,0.2303480505943298,0.5206228494644165,103.44168090820312,25.19,2
-0.8593697547912598,-0.1718757897615432,0.5156249403953552,0.3663612306118011,0.5209263563156128,103.6417007446289,25.19,2
-0.8593716621398926,-0.1718755066394806,0.5156249403953552,0.4751421213150024,0.5211211442947388,103.7700653076172,25.19,2
-0.8593728542327881,-0.1718753278255462,0.5156249403953552,0.491212785243988,0.5212461352348328,103.8524398803711,25.19,2
-0.8593736290931702,-0.1718752086162567,0.5100271701812744,0.3331449627876282,0.5213263630867004,103.90530395507812,25.19,2
-0.8593741059303284,-0.1718751341104507,0.5064348578453064,0.1421417593955993,0.5213778018951416,103.9392318725586,25.19,2
-0.8593744039535522,-0.1718750894069671,0.5097272992134094,0.0088191535323858,0.5214108228683472,103.96100616455078,25.19,2
-0.8593746423721313,-0.1718750596046447,0.5118402242660522,-0.1125653758645057,0.5214320421218872,103.9749755859375,25.19,2
-0.8593747615814209,-0.1718750447034835,0.5075984001159668,-0.1331417709589004,0.5209867358207703,103.98394012451172,25.19,2
-0.8593748211860657,-0.1718750298023224,0.5048761963844299,0.0721905976533889,0.5207009315490723,103.98969268798828,25.19,2
-0.8593748807907104,-0.1718750149011612,0.5087270140647888,0.3830898702144623,0.5205175280570984,103.9933853149414,25.19,2
-0.8593749403953552,-0.1718750149011612,0.5111982822418213,0.557529091835022,0.520399808883667,103.99575805664062,25.19,2
-0.8593749403953552,-0.1718750149011612,0.5127841830253601,0.47959765791893,0.5203242897987366,103.99727630615234,25.19,2
-0.8593749403953552,-0.1718750149011612,0.5082041621208191,0.225378930568695,0.5202758312225342,103.99825286865234,25.19,2
-0.8593749403953552,-0.1718750149011612,0.505264937877655,0.0013321868609637,0.5202447175979614,103.9988784790039,25.19,2
-0.8593749403953552,-0.1718750149011612,0.5089765191078186,-0.0815443247556686,0.5202247500419617,103.99928283691406,25.19,2
-0.8593749403953552,-0.1718750149011612,0.511358380317688,-0.1311471164226532,0.5215891003608704,103.99954223632812,25.19,2
-0.8593749403953552,-0.1718750149011612,0.5128869414329529,-0.2668740153312683,0.5224646329879761,103.99970245361328,25.19,2
-0.8593749403953552,-0.1718750149011612,0.5138678550720215,-0.4327923953533172,0.5230265259742737,103.99980926513672,25.19,2
-0.8593749403953552,-0.1718750149011612,0.5088995695114136,-0.4712003469467163,0.5233871340751648,103.9998779296875,25.19,2
-0.8593749403953552,-0.1718750149011612,0.511309027671814,-0.3453801572322845,0.5236185193061829,103.99992370605467,25.19,2
-0.8593749403953552,-0.1718750149011612,0.5072574615478516,-0.1607413291931152,0.5237669944763184,103.9999542236328,25.19,2
-0.8593749403953552,-0.1718750149011612,0.5102552175521851,-0.0171727146953344,0.5238623023033142,103.99996948242188,25.19,2
-0.8593749403953552,-0.1718750149011612,0.50658118724823,0.021222723647952,0.5239234566688538,103.9999771118164,25.19,2
-0.8593749403953552,-0.1718750149011612,0.5098211765289307,-0.0616145655512809,0.5230444669723511,103.99998474121094,25.19,2
-0.8593749403953552,-0.1718750149011612,0.5063026547431946,-0.1219399273395538,0.5224804282188416,103.99999237060548,25.19,2
-0.8593749403953552,-0.1718750149011612,0.509642481803894,0.0507187023758888,0.5221184492111206,103.99999237060548,25.19,2
-0.8593749403953552,-0.1718750149011612,0.5117857456207275,0.3657278716564178,0.5218861699104309,103.99999237060548,25.19,2
-0.8593749403953552,-0.1718750149011612,0.5131611824035645,0.489065945148468,0.5217370986938477,103.99999237060548,25.19,2
-0.8593749403953552,-0.1718750149011612,0.5140438675880432,0.3568452894687652,0.5216414332389832,103.99999237060548,25.19,2
-0.8593749403953552,-0.1718750149011612,0.5146102905273438,0.1931770145893097,0.5215800404548645,103.99999237060548,25.19,2
-0.8593749403953552,-0.1718750149011612,0.5149738192558289,0.0773964077234268,0.521540641784668,103.99999237060548,25.19,2
-0.8593749403953552,-0.1718750149011612,0.5152071118354797,-0.1187124997377395,0.5219746232032776,104.29376983642578,25.21,2
-0.8593749403953552,-0.1718750149011612,0.5153568387031555,-0.3663714826107025,0.5222530961036682,104.48229217529295,25.21,2
-0.8593749403953552,-0.1718750149011612,0.5154529213905334,-0.4142449200153351,0.5224318504333496,104.60327911376952,25.21,2
-0.8593749403953552,-0.1718750149011612,0.5155145525932312,-0.1977695971727371,0.5225465297698975,104.68092346191406,25.21,2
-0.8593749403953552,-0.1718750149011612,0.5155541300773621,-0.0122747318819165,0.5226201415061951,104.73075103759766,25.21,2
-0.8593749403953552,-0.1718750149011612,0.5099817514419556,-0.0759461522102356,0.5226673483848572,104.76272583007812,25.21,2
-0.8593749403953552,-0.1718750149011612,0.512003481388092,-0.2063711881637573,0.5226976871490479,104.78324127197266,25.21,2
-0.8593749403953552,-0.1718750149011612,0.513300895690918,-0.1288545727729797,0.5227171182632446,104.7964096069336,25.21,2
-0.8593749403953552,-0.1718750149011612,0.5141335129737854,0.0964373350143432,0.5231885313987732,104.80486297607422,25.21,2
-0.8593749403953552,-0.1718750149011612,0.5146678686141968,0.208773523569107,0.5234910845756531,104.81028747558594,25.21,2
-0.8593749403953552,-0.1718750149011612,0.5150107741355896,0.1339788287878036,0.5236852169036865,104.8137664794922,25.21,2
-0.8537771701812744,-0.1718750149011612,0.5152308344841003,0.0752321705222129,0.5238097906112671,104.81600189208984,25.21,2
-0.8557826280593872,-0.1718750149011612,0.5153720378875732,0.2023304253816604,0.5238897800445557,104.81743621826172,25.21,2
-0.8570696115493774,-0.1718750149011612,0.5154626369476318,0.4486932456493377,0.5239410996437073,104.81835174560548,25.21,2
-0.85789555311203,-0.1718750149011612,0.5155208110809326,0.5960469841957092,0.5239740014076233,104.81893920898438,25.21,2
-0.8584255576133728,-0.1718750149011612,0.5099603533744812,0.5258116722106934,0.5239951610565186,104.81932067871094,25.21,2
-0.8531679511070251,-0.1718750149011612,0.5119897723197937,0.2872796058654785,0.5240086913108826,104.81956481933594,25.21,2
-0.8553916811943054,-0.1718750149011612,0.513292133808136,0.0231436155736446,0.5240173935890198,104.81971740722656,25.21,2
-0.8568187355995178,-0.1718750149011612,0.5141279101371765,-0.0997901782393455,0.5240229964256287,104.81981658935548,25.21,2
-0.8577345609664917,-0.1718750149011612,0.5146642327308655,0.0326899550855159,0.5240265727043152,104.81988525390624,25.21,2
-0.858322262763977,-0.1718750149011612,0.5094106793403625,0.286089152097702,0.5240288972854614,104.8199234008789,25.21,2
-0.8586994409561157,-0.1718750149011612,0.5116370320320129,0.3054031133651733,0.5240303874015808,104.81995391845705,25.21,2
-0.8589414358139038,-0.1718750149011612,0.513065755367279,0.013278785161674,0.5240313410758972,104.8199691772461,25.21,2
-0.8590967655181885,-0.1718750149011612,0.5139826536178589,-0.1992678195238113,0.524031937122345,104.81997680664062,25.21,2
-0.8591964244842529,-0.1718750149011612,0.508973240852356,-0.0741399750113487,0.5240322947502136,104.81998443603516,25.21,2
-0.8592603802680969,-0.1718750149011612,0.5113562941551208,0.1315499991178512,0.5240325331687927,104.81999206542967,25.21,2
-0.8593014478683472,-0.1718750149011612,0.5072878003120422,0.1811507642269134,0.524032711982727,104.81999206542967,25.21,2
-0.8593277931213379,-0.1718750149011612,0.504676878452301,0.1198347136378288,0.5240328311920166,104.81999206542967,25.21,2
-0.8593447208404541,-0.1718750149011612,0.5085991024971008,-0.0449045524001121,0.5240328907966614,104.81999206542967,25.21,2
-0.8593555688858032,-0.1718750149011612,0.5055184364318848,-0.3476663827896118,0.5240329504013062,104.81999206542967,25.21,2
-0.8593625426292419,-0.1718750149011612,0.5035414099693298,-0.5992826819419861,0.5240329504013062,104.81999206542967,25.21,2
-0.8593670129776001,-0.1718750149011612,0.5022726655006409,-0.5995396971702576,0.5240329504013062,104.81999206542967,25.21,2
-0.8593698740005493,-0.1718750149011612,0.501458466053009,-0.4241583943367004,0.5240329504013062,105.10301971435548,25.19,2
-0.8593717217445374,-0.1718750149011612,0.500935971736908,-0.2578701376914978,0.5240329504013062,105.28465270996094,25.19,2
-0.8593729138374329,-0.1718750149011612,0.5061984062194824,-0.0938347056508064,0.5240329504013062,105.40121459960938,25.19,2
-0.8593736886978149,-0.1718750149011612,0.5095755457878113,0.1547368317842483,0.5240329504013062,105.47601318359376,25.19,2
-0.864971935749054,-0.1718750149011612,0.5061450600624084,0.4002375304698944,0.5240329504013062,105.52401733398438,25.19,2
-0.862966775894165,-0.1718750149011612,0.5039435625076294,0.4037350118160248,0.5240329504013062,105.55482482910156,25.19,2
-0.8616799712181091,-0.1718750149011612,0.5025307536125183,0.1981901079416275,0.5240329504013062,105.57459259033205,25.19,2
-0.8608542084693909,-0.1718750149011612,0.5072218775749207,0.0698657855391502,0.5240329504013062,105.5872802734375,25.19,2
-0.8603242635726929,-0.1718750149011612,0.5046345591545105,0.0770790204405784,0.5244919061660767,105.59542083740234,25.19,2
-0.8599841594696045,-0.1718750149011612,0.508571982383728,0.0136391213163733,0.5247864127159119,105.60064697265624,25.19,2
-0.8597659468650818,-0.1718750149011612,0.5055010318756104,-0.1309676468372345,0.5249754190444946,105.60399627685548,25.19,2
-0.8596258759498596,-0.1718750149011612,0.5035302639007568,-0.1556990146636963,0.5250967144966125,105.60614776611328,25.19,2
-0.8595359921455383,-0.1718750149011612,0.5078632831573486,-0.0533451847732067,0.5251745581626892,105.60752868652344,25.19,2
-0.8594782948493958,-0.1718750149011612,0.5106439590454102,-0.077224776148796,0.525224506855011,105.60841369628906,25.19,2
-0.8594412803649902,-0.1718750149011612,0.5068306922912598,-0.3433296084403991,0.5252565741539001,105.6089859008789,25.19,2
-0.8594175577163696,-0.1718750149011612,0.5099813342094421,-0.6215776801109314,0.5252771377563477,105.6093521118164,25.19,2
-0.8594022989273071,-0.1718750149011612,0.5064054727554321,-0.6711685061454773,0.5248314142227173,105.60958099365234,25.19,2
-0.859392523765564,-0.1718750149011612,0.5041106343269348,-0.5166991353034973,0.5245453715324402,105.60973358154295,25.19,2
-0.8593862652778625,-0.1718750149011612,0.5026379823684692,-0.2599362432956695,0.524361789226532,105.60983276367188,25.19,2
-0.8593822121620178,-0.1718750149011612,0.5072906613349915,0.0015689351130276,0.5242440104484558,105.60989379882812,25.19,2
-0.8593796491622925,-0.1718750149011612,0.5046787261962891,0.0619106404483318,0.5241684317588806,105.60993194580078,25.19,2
-0.8593779802322388,-0.1718750149011612,0.5030025243759155,-0.1143200621008873,0.5241199135780334,105.60995483398438,25.19,2
-0.8593769073486328,-0.1718750149011612,0.501926839351654,-0.2417450845241546,0.5240887999534607,105.60997009277344,25.19,2
-0.8593762516975403,-0.1718750149011612,0.5012365579605103,-0.1300600469112396,0.5240688323974609,105.60997772216795,25.19,2
-0.8593757748603821,-0.1718750149011612,0.5063913464546204,0.077750839293003,0.5249738693237305,105.6099853515625,25.19,2
-0.8593754768371582,-0.1718750149011612,0.504101574420929,0.250520259141922,0.5255546569824219,105.60999298095705,25.19,2
-0.8593752980232239,-0.1718750149011612,0.5026321411132812,0.4366278052330017,0.5259273648262024,105.60999298095705,25.19,2
-0.8593751788139343,-0.1718750149011612,0.5016891360282898,0.599051833152771,0.526166558265686,105.60999298095705,25.19,2
-0.8593751192092896,-0.1718750149011612,0.5010839700698853,0.5958089232444763,0.5263200402259827,105.60999298095705,25.19,2
-0.8593750596046448,-0.1718750149011612,0.5062934160232544,0.4360944926738739,0.5264185667037964,105.60999298095705,25.19,2
-0.8593750596046448,-0.1718750149011612,0.5040387511253357,0.3228512406349182,0.5264817476272583,105.60999298095705,25.19,2
-0.8593750596046448,-0.1718750149011612,0.5081896185874939,0.3576555252075195,0.5265223383903503,105.60999298095705,25.19,2
-0.8649728298187256,-0.1718750149011612,0.5108534097671509,0.4767204523086548,0.525630533695221,105.84286499023438,25.19,2
-0.8685651421546936,-0.1718750149011612,0.5069651007652283,0.5925378203392029,0.5250582098960876,105.9923095703125,25.19,2
-0.8652727007865906,-0.1718750149011612,0.5044698119163513,0.5952112078666687,0.5246909260749817,106.08821105957033,25.19,2
-0.8631597757339478,-0.1718750149011612,0.5028684735298157,0.4106328785419464,0.5244552493095398,106.1497573852539,25.19,2
-0.8618038296699524,-0.1718750149011612,0.5018408298492432,0.2097819149494171,0.5243039727210999,106.1892547607422,25.19,2
-0.8609336614608765,-0.1718750149011612,0.5011813640594482,0.2886767089366913,0.5242068767547607,106.214599609375,25.19,2
-0.8603752851486206,-0.1718750149011612,0.5007581114768982,0.5829219818115234,0.5241445899009705,106.23086547851562,25.19,2
-0.860016942024231,-0.1718750149011612,0.5060842633247375,0.6821872591972351,0.5241045951843262,106.24130249023438,25.19,2
-0.8597869873046875,-0.1718750149011612,0.5039045214653015,0.4055453538894653,0.5236200094223022,106.2480010986328,25.19,2
-0.8596394062042236,-0.1718750149011612,0.5025057196617126,0.0918745994567871,0.523309051990509,106.25230407714844,25.19,2
-0.8595446944236755,-0.1718750149011612,0.5072057843208313,0.0195514969527721,0.523109495639801,106.25505828857422,25.19,2
-0.8650816679000854,-0.1662772297859192,0.5102220177650452,-0.016113581135869,0.5229814052581787,106.25682830810548,25.19,2
-0.8630372285842896,-0.1682826727628708,0.512157678604126,-0.2718687951564789,0.5228992104530334,106.25796508789062,25.19,2
-0.8617252111434937,-0.169569656252861,0.5078020691871643,-0.5649704933166504,0.5228464603424072,106.25869750976562,25.19,2
-0.8608832359313965,-0.1703955680131912,0.5050069093704224,-0.6097632646560669,0.5228126049041748,106.25916290283205,25.19,2
-0.8603429198265076,-0.1709255874156952,0.5088109374046326,-0.4808753430843353,0.5227909088134766,106.25946044921876,25.19,2
-0.8599961400032043,-0.1712657213211059,0.5112521052360535,-0.4304056763648987,0.5232359170913696,106.25965118408205,25.19,2
-0.8597736358642578,-0.1714839935302734,0.5072209239006042,-0.5305724740028381,0.5235214829444885,106.25977325439452,25.19,2
-0.859630823135376,-0.1716240793466568,0.5102317333221436,-0.6880007386207581,0.5237047672271729,106.25985717773438,25.19,2
-0.8595391511917114,-0.1717139780521392,0.5121639370918274,-0.7245427370071411,0.5238223671913147,106.2599105834961,25.19,2
-0.8594803214073181,-0.1717716604471206,0.507806122303009,-0.5079607367515564,0.5238978266716003,106.25994110107422,25.19,2
-0.8594425916671753,-0.1718086898326873,0.5050095319747925,-0.1468511521816253,0.5239462852478027,106.2599639892578,25.19,2
-0.8594183921813965,-0.1718324422836303,0.5032148361206055,0.1242965087294578,0.5239773392677307,106.25997924804688,25.19,2
-0.8594028353691101,-0.1718476861715316,0.5020630955696106,0.2768079936504364,0.5239973068237305,106.2599868774414,25.19,2
-0.8593928813934326,-0.171857476234436,0.5013239979743958,0.4212545752525329,0.5244690179824829,106.25999450683594,25.19,2
-0.8593865036964417,-0.1718637496232986,0.5008496642112732,0.5067869424819946,0.5247717499732971,106.25999450683594,25.19,2
-0.8593823909759521,-0.1718677729368209,0.5061430335044861,0.4685297012329101,0.5249660015106201,106.25999450683594,25.19,2
-0.859379768371582,-0.1718703657388687,0.5039422512054443,0.4260655343532562,0.5250906944274902,106.25999450683594,25.19,2
-0.8593780398368835,-0.1718720197677612,0.5081276893615723,0.4310576617717743,0.5251706838607788,106.25999450683594,25.19,2
-0.8649747371673584,-0.1718730926513672,0.5108136534690857,0.2658802568912506,0.5252220034599304,106.25999450683594,25.19,2
-0.8629685640335083,-0.1718737781047821,0.5069395899772644,-0.1912134736776352,0.5252549648284912,106.25999450683594,25.19,2
-0.8616811633110046,-0.1718742102384567,0.5044534206390381,-0.6386007070541382,0.5252761244773865,106.25999450683594,25.19,2
-0.860854983329773,-0.1718744933605194,0.5028579235076904,-0.7071709632873535,0.5239125490188599,106.45345306396484,25.17,2
-0.8603247404098511,-0.1718746721744537,0.5018340349197388,-0.5003951191902161,0.5230374932289124,106.57760620117188,25.17,2
-0.8599845170974731,-0.1718747913837433,0.5011769533157349,-0.3676982522010803,0.5224759578704834,106.65727996826172,25.17,2
-0.8597661256790161,-0.1718748658895492,0.5063530802726746,-0.3577751517295837,0.5221155881881714,106.70841217041016,25.17,2
-0.8596259951591492,-0.1718749105930328,0.5040770173072815,-0.2654252648353576,0.5218843221664429,106.74122619628906,25.17,2
-0.8595360517501831,-0.1718749403953552,0.5026164054870605,-0.1058482900261879,0.5217359066009521,106.76228332519533,25.17,2
-0.8594783544540405,-0.1718749552965164,0.5072768330574036,-0.0822576433420181,0.5216406583786011,106.77579498291016,25.17,2
-0.859441339969635,-0.1718749701976776,0.5046698451042175,-0.0921965539455413,0.5215795040130615,106.7844696044922,25.17,2
-0.8594175577163696,-0.1718749850988388,0.5029968619346619,0.0805540010333061,0.5219995379447937,106.79003143310548,25.17,2
-0.8594022989273071,-0.1718749850988388,0.5019232034683228,0.2308236956596374,0.5222691297531128,106.7936019897461,25.17,2
-0.859392523765564,-0.1718749850988388,0.5012341737747192,0.0943907275795936,0.522442102432251,106.7958984375,25.17,2
-0.8593862652778625,-0.1718749850988388,0.5063897967338562,-0.093476228415966,0.5225531458854675,106.79737091064452,25.17,2
-0.8593822121620178,-0.1718749850988388,0.5041006207466125,-0.1065611466765403,0.5226243734359741,106.7983169555664,25.17,2
-0.8593796491622925,-0.1718749850988388,0.5026315450668335,-0.1937749534845352,0.5226700901985168,106.79891967773438,25.17,2
-0.8593779802322388,-0.1718749850988388,0.507286548614502,-0.4646982848644256,0.5226994156837463,106.79930877685548,25.17,2
-0.8593769073486328,-0.1718749850988388,0.504676103591919,-0.6313961744308472,0.5227182507514954,106.799560546875,25.17,2
-0.8593762516975403,-0.1718749850988388,0.5030008554458618,-0.5879050493240356,0.5241070985794067,106.79972076416016,25.17,2
-0.8593757748603821,-0.1718749850988388,0.5075235366821289,-0.5349169373512268,0.5249984264373779,106.79981994628906,25.17,2
-0.8593754768371582,-0.1718749850988388,0.504828155040741,-0.59405916929245,0.5255703926086426,106.79988861083984,25.17,2
-0.8593752980232239,-0.1718749850988388,0.5086961984634399,-0.7359079718589783,0.5259374380111694,106.7999267578125,25.17,2
-0.8593751788139343,-0.1718749850988388,0.505580723285675,-0.8269383907318115,0.5261729955673218,106.79995727539062,25.17,2
-0.8593751192092896,-0.1718749850988388,0.5035814046859741,-0.6632367372512817,0.5263241529464722,106.79997253417967,25.17,2
-0.8593750596046448,-0.1718749850988388,0.5022983551025391,-0.2572461068630218,0.5264211893081665,106.79998016357422,25.17,2
-0.8593750596046448,-0.1718749850988388,0.5014749765396118,0.0606165304780006,0.5264834761619568,106.79998779296876,25.17,2
-0.8649728298187256,-0.166277214884758,0.500946581363678,0.0818911045789718,0.5260645151138306,106.79999542236328,25.17,2
-0.8629673719406128,-0.1682826578617096,0.5006074905395508,-0.0047682113945484,0.5257956385612488,106.79999542236328,25.17,2
-0.8616803884506226,-0.1695696413516998,0.5003898739814758,0.0506786704063415,0.525623083114624,106.79999542236328,25.17,2
-0.86085444688797,-0.17039555311203,0.5002502202987671,0.2833029329776764,0.5255123376846313,106.79999542236328,25.17,2
-0.8603244423866272,-0.170925572514534,0.5001605749130249,0.5866385698318481,0.5254412889480591,106.79999542236328,25.17,2
-0.859984278678894,-0.1712657064199447,0.5001030564308167,0.7777193188667297,0.5253956913948059,106.79999542236328,25.17,2
-0.8597660064697266,-0.1714839935302734,0.5000661611557007,0.7176325917243958,0.5253664255142212,106.79999542236328,25.17,2
-0.8596259355545044,-0.1716240793466568,0.5000424385070801,0.5465171337127686,0.5253476500511169,106.79999542236328,25.17,2
-0.8595360517501831,-0.1717139780521392,0.5000272393226624,0.4976088404655456,0.5290077328681946,106.98987579345705,25.21,2
-0.8594783544540405,-0.1717716604471206,0.5000174641609192,0.4984654784202575,0.5313565731048584,107.11172485351562,25.21,2
-0.859441339969635,-0.1718086898326873,0.5000112056732178,0.3628773689270019,0.5328639149665833,107.18992614746094,25.21,2
-0.8594175577163696,-0.1718324422836303,0.5000072121620178,0.161222293972969,0.5338312387466431,107.2401123046875,25.21,2
-0.8594022989273071,-0.1718476861715316,0.5000046491622925,0.0389768294990062,0.5344520211219788,107.2723159790039,25.21,2
-0.859392523765564,-0.171857476234436,0.5000029802322388,0.0035176323726773,0.5348504185676575,107.29298400878906,25.21,2
-0.8593862652778625,-0.1718637496232986,0.5000019073486328,0.0810740813612937,0.5351060628890991,107.30624389648438,25.21,2
-0.8593822121620178,-0.1718677729368209,0.5000012516975403,0.2920612692832947,0.535270094871521,107.31475830078124,25.21,2
-0.8593796491622925,-0.1718703657388687,0.5000007748603821,0.4847818911075592,0.5353754162788391,107.32022094726562,25.21,2
-0.8593779802322388,-0.1718720197677612,0.5000004768371582,0.493816465139389,0.5354430079460144,107.32372283935548,25.21,2
-0.8593769073486328,-0.1718730926513672,0.5000002980232239,0.3778067529201507,0.5354863405227661,107.3259735107422,25.21,2
-0.8593762516975403,-0.1718737781047821,0.5000001788139343,0.2997758388519287,0.5355141758918762,107.3274154663086,25.21,2
-0.8593757748603821,-0.1718742102384567,0.5000001192092896,0.2604478001594543,0.5355320572853088,107.32833862304688,25.21,2
-0.8593754768371582,-0.1718744933605194,0.5000000596046448,0.1384798139333725,0.5355435013771057,107.32893371582033,25.21,2
-0.8593752980232239,-0.1718746721744537,0.5000000596046448,-0.0723475292325019,0.5355508327484131,107.32931518554688,25.21,2
-0.8593751788139343,-0.1718747913837433,0.5000000596046448,-0.2183921039104461,0.5355555415153503,107.32955932617188,25.21,2
-0.8593751192092896,-0.1718748658895492,0.5000000596046448,-0.2655416131019592,0.5369357466697693,107.32971954345705,25.21,2
-0.8593750596046448,-0.1718749105930328,0.5000000596046448,-0.33162522315979,0.5378214716911316,107.32981872558594,25.21,2
-0.8593750596046448,-0.1718749403953552,0.5000000596046448,-0.4456853866577148,0.5383898615837097,107.32988739013672,25.21,2
-0.8593750596046448,-0.1718749552965164,0.5000000596046448,-0.5045523643493652,0.5387546420097351,107.32992553710938,25.21,2
-0.8649728298187256,-0.1718749701976776,0.5000000596046448,-0.5100865960121155,0.5389887094497681,107.3299560546875,25.21,2
-0.8629673719406128,-0.1718749850988388,0.5000000596046448,-0.5172207355499268,0.539138913154602,107.32997131347656,25.21,2
-0.8616803884506226,-0.1718749850988388,0.5000000596046448,-0.4071565866470337,0.5392353534698486,107.3299789428711,25.21,2
-0.86085444688797,-0.1718749850988388,0.5000000596046448,-0.049917709082365,0.5392972230911255,107.32998657226562,25.21,2
-0.8603244423866272,-0.166277214884758,0.5000000596046448,0.3656315803527832,0.538418710231781,107.32999420166016,25.21,2
-0.859984278678894,-0.1682826578617096,0.5000000596046448,0.4925867617130279,0.5378549098968506,107.32999420166016,25.21,2
-0.8597660064697266,-0.1695696413516998,0.5000000596046448,0.308948665857315,0.537493109703064,107.32999420166016,25.21,2
-0.8596259355545044,-0.17039555311203,0.5000000596046448,0.0800404697656631,0.5372609496116638,107.32999420166016,25.21,2
-0.8595360517501831,-0.170925572514534,0.5000000596046448,-0.0310338754206895,0.5371119379997253,107.32999420166016,25.21,2
-0.8650761246681213,-0.1712657064199447,0.5000000596046448,-0.0306634809821844,0.5370163321495056,107.32999420166016,25.21,2
-0.863033652305603,-0.1714839935302734,0.5000000596046448,0.059138610959053,0.536954939365387,107.32999420166016,25.21,2
-0.8617228865623474,-0.1716240793466568,0.5000000596046448,0.134681299328804,0.5369155406951904,107.32999420166016,25.21,2
-0.8608817458152771,-0.1717139780521392,0.5000000596046448,0.0434398017823696,0.5382674336433411,107.48762512207033,25.19,2
-0.8603419661521912,-0.1717716604471206,0.5000000596046448,-0.1440864503383636,0.5391349792480469,107.58878326416016,25.19,2
-0.8599955439567566,-0.1718086898326873,0.5000000596046448,-0.2142739593982696,0.539691686630249,107.65370178222656,25.19,2
-0.8597732186317444,-0.1718324422836303,0.5000000596046448,-0.1231783926486969,0.5400489568710327,107.69536590576172,25.19,2
-0.8596305251121521,-0.1718476861715316,0.5000000596046448,0.0391761995851993,0.5402782559394836,107.72209930419922,25.19,2
-0.8595389723777771,-0.171857476234436,0.5000000596046448,0.2150175273418426,0.5404254198074341,107.7392578125,25.19,2
-0.8594802021980286,-0.1718637496232986,0.5000000596046448,0.3206972181797027,0.5405198335647583,107.7502670288086,25.19,2
-0.8594425320625305,-0.1718677729368209,0.5000000596046448,0.2846216857433319,0.5405804514884949,107.75733184814452,25.19,2
-0.8594183325767517,-0.1718703657388687,0.5000000596046448,0.2220621407032013,0.5406193137168884,107.76187133789062,25.19,2
-0.8594028353691101,-0.1718720197677612,0.5000000596046448,0.2714794278144836,0.5406442880630493,107.76478576660156,25.19,2
-0.8593928813934326,-0.1718730926513672,0.5000000596046448,0.4178350269794464,0.5406603217124939,107.76665496826172,25.19,2
-0.8593865036964417,-0.1718737781047821,0.5000000596046448,0.5905742645263672,0.5406705737113953,107.76785278320312,25.19,2
-0.8593823909759521,-0.1718742102384567,0.5000000596046448,0.7121760845184326,0.5406771898269653,107.76862335205078,25.19,2
-0.859379768371582,-0.1718744933605194,0.5000000596046448,0.6182495355606079,0.5406814217567444,107.76911163330078,25.19,2
-0.8593780398368835,-0.1718746721744537,0.5000000596046448,0.2212107628583908,0.5406841039657593,107.7694320678711,25.19,2
-0.8649747371673584,-0.1718747913837433,0.5000000596046448,-0.2306275069713592,0.5406858325004578,107.76963806152344,25.19,2
-0.8629685640335083,-0.1718748658895492,0.5000000596046448,-0.3737057149410248,0.5397691130638123,107.76976776123048,25.19,2
-0.8616811633110046,-0.1718749105930328,0.5000000596046448,-0.2183273583650589,0.5391808152198792,107.76985168457033,25.19,2
-0.860854983329773,-0.1718749403953552,0.5000000596046448,-0.1329447776079177,0.5388032793998718,107.76990509033205,25.19,2
-0.8659225702285767,-0.1718749552965164,0.5000000596046448,-0.3181837201118469,0.5385609865188599,107.76993560791016,25.19,2
-0.869174599647522,-0.1718749701976776,0.5000000596046448,-0.5839449763298035,0.5384055376052856,107.76995849609376,25.19,2
-0.8656638264656067,-0.1718749850988388,0.5000000596046448,-0.6935914754867554,0.5383057594299316,107.7699737548828,25.19,2
-0.8634108304977417,-0.1718749850988388,0.5000000596046448,-0.5955752730369568,0.5382417440414429,107.76998138427734,25.19,2
-0.8619649410247803,-0.1718749850988388,0.5000000596046448,-0.3571279048919678,0.5382006168365479,107.76998901367188,25.19,2
-0.8666348457336426,-0.1718749850988388,0.5000000596046448,-0.0930462628602981,0.5390921235084534,107.76998901367188,25.19,2
-0.8640339374542236,-0.1718749850988388,0.5000000596046448,0.0800087004899978,0.5396642088890076,107.76998901367188,25.19,2
-0.8623648285865784,-0.1718749850988388,0.5000000596046448,0.1444919407367706,0.540031373500824,107.76998901367188,25.19,2
-0.8612936735153198,-0.1718749850988388,0.5000000596046448,0.1858735680580139,0.5402669906616211,107.76998901367188,25.19,2
-0.86060631275177,-0.1718749850988388,0.5000000596046448,0.2410905361175537,0.5404181480407715,107.76998901367188,25.19,2
-0.8601651787757874,-0.1718749850988388,0.5000000596046448,0.2442824244499206,0.5405151844024658,107.76998901367188,25.19,2
-0.859882116317749,-0.1718749850988388,0.5000000596046448,0.199757307767868,0.5405774712562561,107.76998901367188,25.19,2
-0.8597004413604736,-0.1718749850988388,0.5000000596046448,0.260748028755188,0.5406174063682556,107.76998901367188,25.19,2
-0.859583854675293,-0.1718749850988388,0.5000000596046448,0.4575217068195343,0.5401841402053833,107.8667221069336,25.19,2
-0.8595090508460999,-0.1718749850988388,0.5000000596046448,0.6267906427383423,0.5399060845375061,107.92880249023438,25.19,2
-0.8594610095024109,-0.1718749850988388,0.5000000596046448,0.670931339263916,0.5397276282310486,107.96864318847656,25.19,2
-0.859430193901062,-0.1718749850988388,0.5000000596046448,0.6061113476753235,0.5396131277084351,107.99420928955078,25.19,2
-0.8594104051589966,-0.1718749850988388,0.5000000596046448,0.4570363163948059,0.539539635181427,108.01061248779295,25.19,2
-0.8593977093696594,-0.1718749850988388,0.5000000596046448,0.3398730754852295,0.5394924879074097,108.0211410522461,25.19,2
-0.85938960313797,-0.1718749850988388,0.5000000596046448,0.3757443130016327,0.5394622087478638,108.02790069580078,25.19,2
-0.8593843579292297,-0.1718749850988388,0.5000000596046448,0.473998486995697,0.539442777633667,108.03223419189452,25.19,2
-0.8593810200691223,-0.1718749850988388,0.5000000596046448,0.522722065448761,0.5412663817405701,108.03501892089844,25.19,2
-0.8649766445159912,-0.1718749850988388,0.5000000596046448,0.6077286601066589,0.5424366593360901,108.03680419921876,25.19,2
-0.8629698157310486,-0.1774727702140808,0.5000000596046448,0.7554279565811157,0.54318767786026,108.03794860839844,25.19,2
-0.8616819381713867,-0.1754673272371292,0.5000000596046448,0.7570659518241882,0.5436696410179138,108.03868103027344,25.19,2
-0.8608554601669312,-0.1741803437471389,0.5000000596046448,0.4643459022045135,0.5439789295196533,108.03915405273438,25.19,2
-0.8603250980377197,-0.1733544319868087,0.5000000596046448,0.0794533416628837,0.5441774129867554,108.03945922851562,25.19,2
-0.8599846959114075,-0.1728244125843048,0.5000000596046448,-0.0851492956280708,0.5443047881126404,108.0396499633789,25.19,2
-0.8597662448883057,-0.172484278678894,0.5000000596046448,0.0170075986534357,0.5443865656852722,108.0397720336914,25.19,2
-0.859626054763794,-0.1722660064697265,0.5000000596046448,0.1363046467304229,0.5448979735374451,108.03985595703124,25.19,2
-0.8595361113548279,-0.1721259206533432,0.5000000596046448,0.0444815680384635,0.5452261567115784,108.03990936279295,25.19,2
-0.8594784140586853,-0.1720360219478607,0.5000000596046448,-0.1649133861064911,0.5454367399215698,108.0399398803711,25.19,2
-0.8650391101837158,-0.1719783395528793,0.5000000596046448,-0.1846485882997512,0.5455718636512756,108.03996276855467,25.19,2
-0.8630099296569824,-0.1719413101673126,0.5000000596046448,0.0140584586188197,0.5456585884094238,108.03997802734376,25.19,2
-0.8617076873779297,-0.1719175577163696,0.5000000596046448,0.0914211496710777,0.545714259147644,108.03998565673828,25.19,2
-0.8608719706535339,-0.1719023138284683,0.5000000596046448,-0.174198567867279,0.5457499623298645,108.0399932861328,25.19,2
-0.860335648059845,-0.1718925237655639,0.5000000596046448,-0.5775253772735596,0.545772910118103,108.0399932861328,25.19,2
-0.8599914908409119,-0.1718862503767013,0.5000000596046448,-0.8399399518966675,0.5453287363052368,108.0399932861328,25.19,2
-0.859770655632019,-0.171882227063179,0.5000000596046448,-0.8220486044883728,0.5450436472892761,108.0399932861328,25.19,2
-0.8596289157867432,-0.1718796342611313,0.5000000596046448,-0.4988828897476196,0.5448607206344604,108.0399932861328,25.19,2
-0.8595379590988159,-0.1718779802322387,0.5000000596046448,-0.1266952157020568,0.5447432994842529,108.0399932861328,25.19,2
-0.8594796061515808,-0.1718769073486328,0.5000000596046448,-0.0598102435469627,0.5446679592132568,108.0399932861328,25.19,2
-0.8594421148300171,-0.1718762218952179,0.5000000596046448,-0.2139289826154709,0.544619619846344,108.0399932861328,25.19,2
-0.8594180941581726,-0.1718757897615432,0.5000000596046448,-0.2232691198587417,0.544588565826416,108.0399932861328,25.19,2
-0.8594026565551758,-0.1718755066394806,0.5000000596046448,-0.0752123370766639,0.544568657875061,108.0399932861328,25.19,2
-0.8593927621841431,-0.1718753278255462,0.5000000596046448,0.0198019854724407,0.5445559024810791,108.14389038085938,25.19,2
-0.8593863844871521,-0.1718752086162567,0.5000000596046448,0.0879418551921844,0.5445476770401001,108.21056365966795,25.19,2
-0.8593823313713074,-0.1718751341104507,0.5000000596046448,0.1567481309175491,0.5445424318313599,108.25335693359376,25.19,2
-0.8593797087669373,-0.1718750894069671,0.5000000596046448,0.0289404150098562,0.5445390343666077,108.28081512451172,25.19,2
-0.8649758100509644,-0.1718750596046447,0.5000000596046448,-0.2501208782196045,0.5445368885993958,108.2984390258789,25.19,2
-0.8629692792892456,-0.1718750447034835,0.5000000596046448,-0.3109813630580902,0.5445355176925659,108.30974578857422,25.19,2
-0.8616815805435181,-0.1718750298023224,0.5000000596046448,-0.0885101035237312,0.5445346236228943,108.31700134277344,25.19,2
-0.860855221748352,-0.1718750149011612,0.5000000596046448,0.0865023359656333,0.5445340275764465,108.3216552734375,25.19,2
-0.8603249192237854,-0.1718750149011612,0.5000000596046448,0.0877554044127464,0.5449925661087036,108.32464599609376,25.19,2
-0.8599845767021179,-0.1718750149011612,0.5000000596046448,0.1351330280303955,0.5452868342399597,108.3265609741211,25.19,2
-0.8597661852836609,-0.1718750149011612,0.5000000596046448,0.308840274810791,0.5454756617546082,108.32779693603516,25.19,2
-0.859626054763794,-0.1718750149011612,0.5000000596046448,0.4024027287960052,0.5455968379974365,108.3285903930664,25.19,2
-0.8595361113548279,-0.1718750149011612,0.5000000596046448,0.2761517763137817,0.5456746220588684,108.32909393310548,25.19,2
-0.8650761842727661,-0.1662772297859192,0.5000000596046448,0.0769062042236328,0.5457245707511902,108.32942199707033,25.19,2
-0.8686314821243286,-0.1682826727628708,0.5000000596046448,-0.0151323890313506,0.5457565784454346,108.32962799072266,25.19,2
-0.8653152585029602,-0.169569656252861,0.5000000596046448,-0.0276239737868309,0.5457771420478821,108.32976531982422,25.19,2
-0.8631871342658997,-0.1703955680131912,0.5000000596046448,-0.1108744367957115,0.5467085242271423,108.32984924316406,25.19,2
-0.8674191832542419,-0.1709255874156952,0.5000000596046448,-0.3398460149765014,0.54730623960495,108.32990264892578,25.19,2
-0.8701350688934326,-0.1712657213211059,0.5000000596046448,-0.6587504148483276,0.5476898550987244,108.32994079589844,25.19,2
-0.866280198097229,-0.1714839935302734,0.5000000596046448,-0.9780473113059998,0.5479360222816467,108.32996368408205,25.19,2
-0.8638063669204712,-0.1716240793466568,0.5000000596046448,-1.1793711185455322,0.5480939745903015,108.3299789428711,25.19,2
-0.8678165674209595,-0.1717139780521392,0.5000000596046448,-1.09719717502594,0.5481953620910645,108.32998657226562,25.19,2
-0.8703900575637817,-0.1717716604471206,0.5000000596046448,-0.7614392042160034,0.5482604503631592,108.32999420166016,25.19,2
-0.8664438128471375,-0.1718086898326873,0.5000000596046448,-0.4635698199272156,0.548302173614502,108.32999420166016,25.19,2
-0.8639113306999207,-0.1718324422836303,0.5000000596046448,-0.3834742307662964,0.5483289957046509,108.32999420166016,25.19,2
-0.8678839206695557,-0.1718476861715316,0.5000000596046448,-0.4180553257465362,0.5483461618423462,108.32999420166016,25.19,2
-0.8648355603218079,-0.171857476234436,0.5000000596046448,-0.4832383990287781,0.5483571887016296,108.32999420166016,25.19,2
-0.8628792762756348,-0.1718637496232986,0.5000000596046448,-0.582390308380127,0.5483642816543579,108.32999420166016,25.19,2
-0.8616238236427307,-0.1718677729368209,0.5000000596046448,-0.6030294299125671,0.5483688116073608,108.32999420166016,25.19,2
-0.8608181476593018,-0.1718703657388687,0.5000000596046448,-0.4120675921440124,0.5483717322349548,108.32999420166016,25.19,2
-0.8658989071846008,-0.1718720197677612,0.5000000596046448,-0.0996427908539772,0.5483736395835876,108.32999420166016,25.19,2
-0.8635616898536682,-0.1718730926513672,0.5000000596046448,0.1545921117067337,0.5483748316764832,108.32999420166016,25.19,2
-0.8620617985725403,-0.1718737781047821,0.5000000596046448,0.3141628801822662,0.5488345623016357,108.44105529785156,25.21,2
-0.8610992431640625,-0.1718742102384567,0.5000000596046448,0.4488093554973602,0.5491295456886292,108.5123291015625,25.21,2
-0.8604815006256104,-0.1718744933605194,0.5000000596046448,0.574626088142395,0.5493188500404358,108.55806732177734,25.21,2
-0.86568284034729,-0.1718746721744537,0.5000000596046448,0.6589505672454834,0.549440324306488,108.58741760253906,25.21,2
-0.8634229898452759,-0.1718747913837433,0.5000000596046448,0.6844045519828796,0.5495182871818542,108.60625457763672,25.21,2
-0.8619727492332458,-0.1718748658895492,0.5000000596046448,0.6613311171531677,0.5495683550834656,108.61834716796876,25.21,2
-0.8610420823097229,-0.1718749105930328,0.5000000596046448,0.6393588185310364,0.5496004819869995,108.62610626220705,25.21,2
-0.8604448437690735,-0.1718749403953552,0.5000000596046448,0.6001802086830139,0.5496211051940918,108.6310806274414,25.21,2
-0.8600615859031677,-0.1718749552965164,0.5000000596046448,0.4496474862098694,0.548716127872467,108.63427734375,25.21,2
-0.8598155975341797,-0.1718749701976776,0.5000000596046448,0.1954109072685241,0.5481353402137756,108.6363296508789,25.21,2
-0.8596577644348145,-0.1718749850988388,0.5000000596046448,0.0071784825995564,0.5477626323699951,108.63764190673828,25.21,2
-0.8595564365386963,-0.1718749850988388,0.5000000596046448,-0.1064531058073043,0.5475234389305115,108.63848876953124,25.21,2
-0.8594914078712463,-0.1718749850988388,0.5000000596046448,-0.3011828660964966,0.5473699569702148,108.63903045654295,25.21,2
-0.8538519144058228,-0.1718749850988388,0.5055978298187256,-0.5837825536727905,0.5472714304924011,108.63937377929688,25.21,2
-0.8558306097984314,-0.1718749850988388,0.5035923719406128,-0.7579736709594727,0.5472082495689392,108.63959503173828,25.21,2
-0.8571004271507263,-0.1718749850988388,0.5023053884506226,-0.7121261358261108,0.5471676588058472,108.63973999023438,25.21,2
-0.8579152822494507,-0.1718749850988388,0.5070772171020508,-0.5143227577209473,0.5480598211288452,108.63983154296876,25.21,2
-0.8640360236167908,-0.1718749850988388,0.5045417547225952,-0.2834892570972442,0.5486323833465576,108.639892578125,25.21,2
-0.8623661994934082,-0.1718749850988388,0.5029146075248718,-0.0708672329783439,0.5489998459815979,108.63993072509766,25.21,2
-0.8612945675849915,-0.1718749850988388,0.5018704533576965,0.0870767906308174,0.5492356419563293,108.63995361328124,25.21,2
-0.860606849193573,-0.1718749850988388,0.5012003779411316,0.0737937539815902,0.5493869781494141,108.63996887207033,25.21,2
-0.860165536403656,-0.1718749850988388,0.5007703304290771,-0.1317722052335739,0.5494840741157532,108.63997650146484,25.21,2
-0.8654801249504089,-0.1718749850988388,0.5004943609237671,-0.3389266729354858,0.5495463609695435,108.63998413085938,25.21,2
-0.863292932510376,-0.1718749850988388,0.5003172755241394,-0.4037975668907165,0.5495863556861877,108.6399917602539,25.21,2
-0.8618893027305603,-0.1718749850988388,0.5002036094665527,-0.4203499257564544,0.5482348799705505,108.6399917602539,25.21,2
-0.8609885573387146,-0.1718749850988388,0.5001306533813477,-0.4381374418735504,0.5473675727844238,108.6399917602539,25.21,2
-0.8604105114936829,-0.1718749850988388,0.500083863735199,-0.3241623044013977,0.5468109846115112,108.6399917602539,25.21,2
-0.8656373023986816,-0.1718749850988388,0.5000538229942322,-0.0575605258345603,0.5464537739753723,108.6399917602539,25.21,2
-0.8633937835693359,-0.1718749850988388,0.500034511089325,0.1815980821847915,0.5462245345115662,108.6399917602539,25.21,2
-0.8619540333747864,-0.1718749850988388,0.4944243729114532,0.2347642034292221,0.5460774302482605,108.6399917602539,25.21,2
-0.861030101776123,-0.1718749850988388,0.4964218735694885,0.1470755785703659,0.545983076095581,108.6399917602539,25.21,2
-0.8604371547698975,-0.1718749850988388,0.4977037608623504,0.0872194916009903,0.5459225177764893,108.6399917602539,25.21,2
-0.8656544089317322,-0.1718749850988388,0.498526394367218,0.1097110882401466,0.5463425517082214,108.754638671875,25.17,2
-0.8634047508239746,-0.1718749850988388,0.4990543127059936,0.1133971661329269,0.5466121435165405,108.82820892333984,25.17,2
-0.8619610667228699,-0.1718749850988388,0.499393105506897,0.0835195034742355,0.5467851161956787,108.87542724609376,25.17,2
-0.866632342338562,-0.1718749850988388,0.4996105432510376,0.0679283142089843,0.5468961596488953,108.90572357177734,25.17,2
-0.8640323281288147,-0.1718749850988388,0.4997500777244568,-0.063884787261486,0.5469673871994019,108.9251708984375,25.17,2
-0.8623638153076172,-0.1718749850988388,0.4998396039009094,-0.417167991399765,0.5470131039619446,108.9376449584961,25.17,2
-0.8668908476829529,-0.1718749850988388,0.4998970627784729,-0.765692412853241,0.5470424294471741,108.9456558227539,25.17,2
-0.8697960376739502,-0.1718749850988388,0.4999339282512665,-0.8711302876472473,0.5470612645149231,108.95079803466795,25.17,2
-0.8716604113578796,-0.1718749850988388,0.4999575912952423,-0.7990738749504089,0.5475326180458069,108.95409393310548,25.17,2
-0.872856855392456,-0.1718749850988388,0.49997279047966,-0.6704329252243042,0.547835111618042,108.95620727539062,25.17,2
-0.868026852607727,-0.1718749850988388,0.4999825358390808,-0.5592179894447327,0.5480292439460754,108.9575653076172,25.17,2
-0.8649272322654724,-0.1718749850988388,0.4999887943267822,-0.6060716509819031,0.548153817653656,108.95843505859376,25.17,2
-0.8685358762741089,-0.1718749850988388,0.4999928176403045,-0.8116858005523682,0.5482337474822998,108.95899200439452,25.17,2
-0.8652539253234863,-0.1718749850988388,0.4999953806400299,-0.9400545358657836,0.5482850670814514,108.9593505859375,25.17,2
-0.8631477355957031,-0.1718749850988388,0.4999970495700836,-0.84688800573349,0.5483179688453674,108.95957946777344,25.17,2
-0.8673939108848572,-0.166277214884758,0.4999980926513672,-0.64737868309021,0.5483391284942627,108.95973205566406,25.17,2
-0.8701188564300537,-0.1682826578617096,0.4999987781047821,-0.4476935565471649,0.5474344491958618,108.95983123779295,25.17,2
-0.8662697672843933,-0.1695696413516998,0.4999992251396179,-0.2407304644584655,0.5468538999557495,108.95989227294922,25.17,2
-0.8637996912002563,-0.17039555311203,0.4999994933605194,-0.0756702944636344,0.5464813113212585,108.95993041992188,25.17,2
-0.8678122758865356,-0.170925572514534,0.4944019019603729,-0.1130472049117088,0.5462422370910645,108.95995330810548,25.17,2
-0.8703873157501221,-0.1656679362058639,0.4964074492454529,-0.4343873262405395,0.5460888147354126,108.95996856689452,25.17,2
-0.8720398545265198,-0.1622938960790634,0.4920967221260071,-0.7874904870986938,0.5459903478622437,108.95997619628906,25.17,2
-0.8675025701522827,-0.1657263934612274,0.4949281215667724,-0.7812243700027466,0.5459271669387817,108.9599838256836,25.17,2
-0.8701885938644409,-0.1623314023017883,0.4967451691627502,-0.3974501490592956,0.5458866357803345,108.95999145507812,25.17,2
-0.8719123005867004,-0.1657504737377166,0.4979112446308136,0.0422931425273418,0.547237753868103,108.95999145507812,25.17,2
-0.8730185031890869,-0.1679446250200271,0.4986595511436462,0.4427200555801391,0.5481048226356506,108.95999145507812,25.17,2
-0.868130624294281,-0.1693527102470398,0.4935420155525207,0.9074804186820984,0.5486612319946289,108.95999145507812,25.17,2
-0.8705916404724121,-0.1702563464641571,0.4902578592300415,1.230814814567566,0.5490183234214783,108.95999145507812,25.17,2
-0.8721709847450256,-0.1708362400531768,0.4881502687931061,1.108715295791626,0.5492475032806396,108.95999145507812,25.17,2
-0.8731845021247864,-0.171208381652832,0.4923955202102661,0.7222573757171631,0.5493945479393005,108.95999145507812,25.17,2
-0.8738349080085754,-0.1714472025632858,0.4951198697090149,0.5638153553009033,0.54948890209198,108.95999145507812,25.17,2
-0.8742523193359375,-0.1660026907920837,0.496868222951889,0.7451598644256592,0.5495494604110718,108.95999145507812,25.17,2
-0.8745201826095581,-0.1681064963340759,0.4979901909828186,1.0012567043304443,0.5491294264793396,109.05313873291016,25.19,2
-0.8690943121910095,-0.1694565862417221,0.4931124448776245,1.1799352169036863,0.5488598346710205,109.1129150390625,25.19,2
-0.865612268447876,-0.1703229993581771,0.4955799579620361,1.301766037940979,0.5486868619918823,109.15128326416016,25.19,2
-0.8633776903152466,-0.1708790212869644,0.4971634745597839,1.2509772777557373,0.5485758185386658,109.1759033203125,25.19,2
-0.867541491985321,-0.1712358444929123,0.4925819039344787,0.8816218972206116,0.5485045909881592,109.19170379638672,25.19,2
-0.8702135682106018,-0.1714648306369781,0.4952394962310791,0.3436544835567474,0.5484588742256165,109.20184326171876,25.19,2
-0.8663305640220642,-0.1716117709875106,0.4969449937343597,0.012748297303915,0.548429548740387,109.2083511352539,25.19,2
-0.8638386726379395,-0.1717060804367065,0.4980394840240478,-0.0025666025467216,0.5484107136726379,109.2125244140625,25.19,2
-0.8678373098373413,-0.1717665940523147,0.498741865158081,0.0019354776013642,0.548857569694519,109.21520233154295,25.19,2
-0.8704034090042114,-0.1718054264783859,0.4991925954818725,-0.1743041276931762,0.5491443276405334,109.2169189453125,25.19,2
-0.8664523959159851,-0.1718303561210632,0.4994818568229675,-0.3053174614906311,0.5493283271789551,109.21802520751952,25.19,2
-0.8639168739318848,-0.1718463450670242,0.4996674954891205,-0.1887700110673904,0.5494464635848999,109.21873474121094,25.19,2
-0.8622897267341614,-0.1718566119670868,0.4997866153717041,-0.0674030855298042,0.5495222210884094,109.21918487548828,25.19,2
-0.8668432831764221,-0.1718631982803344,0.4942652881145477,-0.211636483669281,0.5495708584785461,109.21947479248048,25.19,2
-0.8697654604911804,-0.1718674302101135,0.4963198006153106,-0.4367524683475494,0.5496020913124084,109.21966552734376,25.19,2
-0.866042971611023,-0.1718701422214508,0.4976382553577423,-0.4343333542346954,0.549622118473053,109.21978759765624,25.19,2
-0.8636541366577148,-0.1718718856573104,0.4984843730926513,-0.242904394865036,0.5496349930763245,109.21986389160156,25.19,2
-0.8677188754081726,-0.1718730032444,0.4990273714065552,-0.1272214502096176,0.5496432185173035,109.21990966796876,25.19,2
-0.8703274130821228,-0.1718737185001373,0.4993758201599121,-0.1640426516532898,0.5496485233306885,109.21994018554688,25.19,2
-0.8664036393165588,-0.1718741804361343,0.499599426984787,-0.2629064619541168,0.5496519207954407,109.21996307373048,25.19,2
-0.8638855814933777,-0.1718744784593582,0.4997429251670837,-0.4302462637424469,0.5496541261672974,109.21997833251952,25.19,2
-0.8678674101829529,-0.1718746721744537,0.4998350143432617,-0.6451125741004944,0.5496554970741272,109.21998596191406,25.19,2
-0.8648249506950378,-0.1718747913837433,0.4998941123485565,-0.6898544430732727,0.5496563911437988,109.2199935913086,25.19,2
-0.8628724813461304,-0.1718748658895492,0.499932050704956,-0.5501861572265625,0.5496569871902466,109.2199935913086,25.19,2
-0.8616194725036621,-0.1718749105930328,0.4999563992023468,-0.4605550765991211,0.5501163005828857,109.2199935913086,25.19,2
-0.8608153462409973,-0.1718749403953552,0.4999720156192779,-0.4209478795528412,0.5504110455513,109.2199935913086,25.19,2
-0.8602993488311768,-0.1718749552965164,0.4999820291996002,-0.1877408772706985,0.5506001710891724,109.2199935913086,25.19,2
-0.8599681854248047,-0.1718749701976776,0.4943906962871551,0.2341937124729156,0.5507215857505798,109.2199935913086,25.19,2
-0.8653534650802612,-0.1718749850988388,0.4964002668857574,0.6088617444038391,0.5507994890213013,109.2199935913086,25.19,2
-0.8632116317749023,-0.1718749850988388,0.4976899027824402,0.76332026720047,0.5508494973182678,109.2199935913086,25.19,2
-0.8618371486663818,-0.1718749850988388,0.4929197430610657,0.6474883556365967,0.550881564617157,109.2199935913086,25.19,2
-0.8609550595283508,-0.1718749850988388,0.4954563081264496,0.4191033244132995,0.5509021282196045,109.2199935913086,25.19,2
-0.8659867644309998,-0.1718749850988388,0.4970841109752655,0.3477730453014374,0.5522924661636353,109.32030487060548,25.17,2
-0.8692158460617065,-0.1718749850988388,0.498128741979599,0.4023095071315765,0.5531846880912781,109.38468170166016,25.17,2
-0.865690290927887,-0.1718749850988388,0.4987991452217102,0.3907343745231628,0.5537573099136353,109.42599487304688,25.17,2
-0.8634278178215027,-0.1718749850988388,0.499229371547699,0.3367326557636261,0.5541247725486755,109.45250701904295,25.17,2
-0.867573618888855,-0.1718749850988388,0.4995054602622986,0.3164077401161194,0.554360568523407,109.46952056884766,25.17,2
-0.8702341914176941,-0.1718749850988388,0.4996826350688934,0.2496257573366165,0.5545119047164917,109.48043823242188,25.17,2
-0.8719415664672852,-0.1718749850988388,0.4941985607147217,0.1530302911996841,0.5546090006828308,109.4874496459961,25.17,2
-0.8674395084381104,-0.1718749850988388,0.4906792044639587,0.1734401136636734,0.5546713471412659,109.491943359375,25.17,2
-0.8645503520965576,-0.1718749850988388,0.4940184354782104,0.286850094795227,0.5533342361450195,109.4948272705078,25.17,2
-0.8682940006256104,-0.1718749850988388,0.4961613714694977,0.3023088872432709,0.5524761080741882,109.4966812133789,25.17,2
-0.870696485042572,-0.1718749850988388,0.491938829421997,0.1259355098009109,0.5519254207611084,109.49787139892578,25.17,2
-0.8666404485702515,-0.1718749850988388,0.4948267936706543,-0.1305537819862365,0.5515720248222351,109.4986343383789,25.17,2
-0.8640375733375549,-0.1718749850988388,0.4966801404953003,-0.2593280971050262,0.5513452291488647,109.4991226196289,25.17,2
-0.8623671531677246,-0.1718749850988388,0.4922717213630676,-0.1950824558734893,0.5511996746063232,109.49943542480467,25.17,2
-0.8668929934501648,-0.1718749850988388,0.4950404465198517,-0.0822017788887023,0.5511062741279602,109.49964141845705,25.17,2
-0.86979740858078,-0.1718749850988388,0.4912194609642029,-0.0993258506059646,0.5510463714599609,109.49977111816406,25.17,2
-0.8716613054275513,-0.1718749850988388,0.4887673854827881,-0.2786961793899536,0.5523850321769714,109.4998550415039,25.17,2
-0.872857391834259,-0.1718749850988388,0.4927915632724762,-0.5156132578849792,0.5532441139221191,109.49990844726562,25.17,2
-0.8736249804496765,-0.1718749850988388,0.4897762537002563,-0.6604878902435303,0.5537953972816467,109.49993896484376,25.17,2
-0.8741176128387451,-0.1718749850988388,0.4878412187099457,-0.6065744757652283,0.5541492104530334,109.49996185302734,25.17,2
-0.8744337558746338,-0.1718749850988388,0.4865994155406952,-0.382099449634552,0.5543762445449829,109.4999771118164,25.17,2
-0.8746365904808044,-0.1718749850988388,0.4858025014400482,-0.1592276096343994,0.5545219779014587,109.49998474121094,25.17,2
-0.8747667670249939,-0.1718749850988388,0.4852910935878753,-0.1666694730520248,0.5546154975891113,109.49999237060548,25.17,2
-0.874850332736969,-0.1718749850988388,0.4905606806278229,-0.4258081018924713,0.5546755194664001,109.49999237060548,25.17,2
-0.869306206703186,-0.1718749850988388,0.493942379951477,-0.6207689642906189,0.5537958145141602,109.49999237060548,25.17,2
-0.8713460564613342,-0.1718749850988388,0.4905147850513458,-0.4879381656646728,0.5532312393188477,109.49999237060548,25.17,2
-0.8726550936698914,-0.1718749850988388,0.4883151650428772,-0.1340018510818481,0.5528689622879028,109.49999237060548,25.17,2
-0.8678973913192749,-0.1718749850988388,0.486903578042984,0.2722629010677337,0.552636444568634,109.49999237060548,25.17,2
-0.8648442029953003,-0.1718749850988388,0.4859977066516876,0.6691181063652039,0.5524872541427612,109.49999237060548,25.17,2
-0.8684825897216797,-0.1718749850988388,0.4910141229629516,0.8664757013320923,0.552391529083252,109.49999237060548,25.17,2
-0.8708174824714661,-0.1718749850988388,0.4886355996131897,0.6957746744155884,0.5523300766944885,109.49999237060548,25.17,2
-0.8723158836364746,-0.1718749850988388,0.4871092140674591,0.396352082490921,0.5522906184196472,109.49999237060548,25.17,2
-0.8676797151565552,-0.1718749850988388,0.4861296713352203,0.2400256544351577,0.5518063902854919,109.60388946533205,25.19,2
-0.8647044897079468,-0.1718749850988388,0.4910988211631775,0.0752179771661758,0.5514956712722778,109.67056274414062,25.19,2
-0.8683929443359375,-0.1718749850988388,0.4886899590492248,-0.2562483549118042,0.5512962341308594,109.7133560180664,25.19,2
-0.8707599639892578,-0.1718749850988388,0.4927418529987335,-0.5441984534263611,0.5511682629585266,109.74081420898438,25.19,2
-0.8666812181472778,-0.1718749850988388,0.4897443652153015,-0.5462769269943237,0.5510861277580261,109.75843811035156,25.19,2
-0.8696615099906921,-0.1718749850988388,0.4878207445144653,-0.3290736377239227,0.5510334372520447,109.76974487304688,25.19,2
-0.8715740442276001,-0.1718749850988388,0.4865862727165222,-0.110868401825428,0.550999641418457,109.7770004272461,25.19,2
-0.8672036528587341,-0.1718749850988388,0.4857940673828125,0.0291631557047367,0.5509779453277588,109.78165435791016,25.19,2
-0.8699967265129089,-0.1718749850988388,0.4852856695652008,0.1799311339855194,0.5509639978408813,109.7846450805664,25.19,2
-0.8717891573905945,-0.1718749850988388,0.4905571937561035,0.3877451717853546,0.550955057144165,109.78656005859376,25.19,2
-0.8673416972160339,-0.1718749850988388,0.4883423745632171,0.5712643265724182,0.5509493350982666,109.7877960205078,25.19,2
-0.8700853586196899,-0.1718749850988388,0.4869210422039032,0.6711235046386719,0.5509456396102905,109.78858947753906,25.19,2
-0.871846079826355,-0.1718749850988388,0.4916066825389862,0.6528081297874451,0.5509432554244995,109.78909301757812,25.19,2
-0.8673782348632812,-0.1718749850988388,0.4890158772468567,0.5192468166351318,0.5509417653083801,109.78942108154295,25.19,2
-0.8701087832450867,-0.1718749850988388,0.4929510354995727,0.4012916684150696,0.5509408116340637,109.78962707519533,25.19,2
-0.8662633299827576,-0.1718749850988388,0.4954763948917389,0.3972463309764862,0.5509401559829712,109.78976440429688,25.19,2
-0.8693932890892029,-0.1718749850988388,0.4914992451667785,0.3803199827671051,0.5509397387504578,109.78984832763672,25.19,2
-0.865804135799408,-0.1718749850988388,0.4889469444751739,0.2189894467592239,0.5509395003318787,109.78990173339844,25.19,2
-0.8635008335113525,-0.1718749850988388,0.492906779050827,0.0151446713134646,0.5509393215179443,109.7899398803711,25.19,2
-0.8676204681396484,-0.1718749850988388,0.4898501932621002,-0.094175711274147,0.5509392023086548,109.78996276855467,25.19,2
-0.8702642321586609,-0.1718749850988388,0.4878886640071869,-0.0998448804020881,0.55093914270401,109.78997802734376,25.19,2
-0.8663631081581116,-0.1718749850988388,0.4866298735141754,0.0004116640484426,0.5509390830993652,109.78998565673828,25.19,2
-0.8638595938682556,-0.1718749850988388,0.4858220517635345,0.1435672044754028,0.5509390830993652,109.7899932861328,25.19,2
-0.8678507208824158,-0.1718749850988388,0.4853036403656006,0.0957157462835311,0.5509390830993652,109.7899932861328,25.19,2
-0.8704119920730591,-0.166277214884758,0.4849709570407867,-0.2001031786203384,0.5518572926521301,109.7899932861328,25.19,2
-0.8776534795761108,-0.1682826578617096,0.4847574532032013,-0.4078556001186371,0.5524465441703796,109.7899932861328,25.19,2
-0.8767028450965881,-0.1695696413516998,0.4846204221248626,-0.2975639998912811,0.5528246760368347,109.7899932861328,25.19,2
-0.876092791557312,-0.17039555311203,0.4845325052738189,-0.1443859636783599,0.5530673265457153,109.7899932861328,25.19,2
-0.8757013082504272,-0.170925572514534,0.4788782894611358,-0.2216313332319259,0.5532230734825134,109.7899932861328,25.19,2
-0.875450074672699,-0.1712657064199447,0.4808475375175476,-0.3607673346996307,0.5533230304718018,109.7899932861328,25.19,2
-0.8640933036804199,-0.1658862233161926,0.4821112751960754,-0.3139189481735229,0.5533871650695801,109.7899932861328,25.19,2
-0.8624029159545898,-0.1624339669942855,0.4885200560092926,-0.1369687467813491,0.5534282922744751,109.7899932861328,25.19,2
-0.8781114816665649,-0.1658162921667099,0.4814372956752777,0.0625695213675499,0.5525364875793457,109.89030456542967,25.17,2
-0.8881922960281372,-0.1679868698120117,0.4768919646739959,0.2371951788663864,0.5519641637802124,109.95468139648438,25.17,2
-0.8834660649299622,-0.1693798154592514,0.4795728325843811,0.3098515272140503,0.5515968799591064,109.9959945678711,25.17,2
-0.8804330229759216,-0.1702737361192703,0.4812932312488556,0.2525835037231445,0.5513612031936646,110.0225067138672,25.17,2
-0.8840844035148621,-0.1652496308088302,0.4767995178699493,0.129850372672081,0.5512099266052246,110.03952026367188,25.17,2
-0.8808298707008362,-0.167623221874237,0.4795134961605072,0.0295918639749288,0.5511128902435303,110.0504379272461,25.17,2
-0.8787412643432617,-0.1691464483737945,0.4812551736831665,0.0154077792540192,0.55105060338974,110.05744934082033,25.17,2
-0.8774009346961975,-0.1701239794492721,0.4823728799819946,0.0958696380257606,0.5510106086730957,110.06194305419922,25.17,2
-0.8765407800674438,-0.1707512885332107,0.4830901622772217,0.1654183119535446,0.551443874835968,110.06482696533205,25.17,2
-0.875988781452179,-0.1767516434192657,0.4835504591464996,0.1921377629041671,0.5517219305038452,110.06668090820312,25.17,2
-0.8756345510482788,-0.1806023269891739,0.4838458597660064,0.2128673493862152,0.5519003868103027,110.06787109375,25.17,2
-0.8754072189331055,-0.1774756908416748,0.4840354323387146,0.1616840362548828,0.5520148873329163,110.06863403320312,25.17,2
-0.8752613067626953,-0.1754692047834396,0.4841570854187011,0.0715163275599479,0.5520883798599243,110.06912231445312,25.17,2
-0.8751676678657532,-0.1741815507411956,0.4842351675033569,0.146207183599472,0.5521355271339417,110.0694351196289,25.17,2
-0.8751075863838196,-0.1733552068471908,0.4842852652072906,0.2872864603996277,0.5521658062934875,110.06964111328124,25.17,2
-0.8750690221786499,-0.1784226894378662,0.484317421913147,0.1342078596353531,0.5521852374076843,110.06977081298828,25.17,2
-0.8750442862510681,-0.1816747039556503,0.4843380451202392,-0.2578004002571106,0.5508208870887756,110.06985473632812,25.17,2
-0.8750284314155579,-0.1837616562843322,0.4843512773513794,-0.4842906892299652,0.5499453544616699,110.06990814208984,25.17,2
-0.8694204688072205,-0.1851009428501129,0.4787620007991791,-0.4970838129520416,0.5493834614753723,110.06993865966795,25.17,2
-0.8658215999603271,-0.1859604269266128,0.4807729125022888,-0.5232065916061401,0.5490228533744812,110.06996154785156,25.17,2
-0.8635120391845703,-0.1865119934082031,0.4820633828639984,-0.647447943687439,0.5487914681434631,110.06997680664062,25.17,2
-0.8620299100875854,-0.1868659555912017,0.4828915297985077,-0.8454039096832275,0.5486429929733276,110.06998443603516,25.17,2
-0.8610787391662598,-0.1870931088924408,0.4834229946136474,-1.0440921783447266,0.5485476851463318,110.06999206542967,25.17,2
-0.8604683876037598,-0.1872388869524002,0.4837640523910522,-1.05695641040802,0.5484865307807922,110.06999206542967,25.17,2
-0.8600766658782959,-0.1873324364423751,0.4839829206466675,-0.8466748595237732,0.549824059009552,110.06999206542967,25.17,2
-0.8654230833053589,-0.1873924732208252,0.4785256087779999,-0.6615721583366394,0.5506824254989624,110.06999206542967,25.17,2
-0.8688541054725647,-0.1874309927225113,0.4750234186649322,-0.6932520866394043,0.5512332916259766,110.06999206542967,25.17,2
-0.8710559010505676,-0.1874557137489318,0.4783737063407898,-0.8783809542655945,0.5515868067741394,110.06999206542967,25.17,2
-0.872468888759613,-0.1874715834856033,0.4805237054824829,-1.0294291973114014,0.5518136620521545,110.06999206542967,25.17,2
-0.873375654220581,-0.1874817609786987,0.481903463602066,-0.9938079118728638,0.551959216594696,110.06999206542967,25.17,2
-0.8739575743675232,-0.1874883025884628,0.477191150188446,-0.8312277793884277,0.5520526170730591,110.06999206542967,25.17,2
-0.8743310570716858,-0.1874924898147583,0.4741670489311218,-0.7913795709609985,0.5521125793457031,110.06999206542967,25.17,2
-0.8745707273483276,-0.1874951869249344,0.4722263514995575,-0.9234406352043152,0.5526103377342224,110.18463897705078,25.21,2
-0.8747245073318481,-0.1874969154596328,0.4709809124469757,-1.061928391456604,0.5529298186302185,110.25820922851562,25.21,2
-0.880420982837677,-0.2042913436889648,0.4589861333370209,-1.2081230878829956,0.5531347990036011,110.30542755126952,25.21,2
-0.8784788846969604,-0.1982757151126861,0.4624841213226318,-1.3771765232086182,0.5532663464546204,110.33572387695312,25.21,2
-0.877232551574707,-0.1944152265787124,0.4647289216518402,-1.277875900268555,0.5533508062362671,110.35517120361328,25.21,2
-0.8764327168464661,-0.1919377893209457,0.4661695063114166,-0.6875119209289551,0.5534049868583679,110.36764526367188,25.21,2
-0.8759194612503052,-0.1903479248285293,0.4670939743518829,0.1964928805828094,0.553439736366272,110.37565612792967,25.21,2
-0.8755900859832764,-0.1893276274204254,0.4676872491836548,1.122053861618042,0.553462028503418,110.38079833984376,25.21,2
-0.8753786683082581,-0.1886728703975677,0.4680679738521576,1.995466470718384,0.5530170798301697,110.38409423828124,25.21,2
-0.8752430081367493,-0.1882526874542236,0.4683123230934143,2.684945106506348,0.5527315139770508,110.3862075805664,25.21,2
-0.8751559257507324,-0.1879830360412597,0.4684691131114959,3.045013666152954,0.5525482296943665,110.38756561279295,25.21,2
-0.8751000761985779,-0.1878099888563156,0.4685697555541992,3.061130285263061,0.5524306297302246,110.38843536376952,25.21,2
-0.8750641942024231,-0.1876989305019378,0.4686343371868133,2.766954183578491,0.552355170249939,110.38899230957033,25.21,2
-0.8750411868095398,-0.1876276582479477,0.4686757624149322,2.3023104667663574,0.5523067116737366,110.38935089111328,25.21,2
-0.8750264048576355,-0.1875819265842437,0.4687023460865021,1.9575555324554443,0.5522756576538086,110.38957977294922,25.21,2
-0.8750169277191162,-0.1875525712966919,0.4687194228172302,1.876031994819641,0.5522556900978088,110.38973236083984,25.21,2
-0.8750108480453491,-0.1875337362289428,0.4687303900718689,1.8953664302825928,0.5527021884918213,110.38983154296876,25.21,2
-0.8750069737434387,-0.1875216513872146,0.4687374234199524,1.8683658838272093,0.5529887080192566,110.389892578125,25.21,2
-0.8750044703483582,-0.1875138878822326,0.4687419235706329,1.8152127265930176,0.5531725883483887,110.38993072509766,25.21,2
-0.8750028610229492,-0.1875089108943939,0.4687448143959045,1.806180119514465,0.553290605545044,110.38995361328124,25.21,2
-0.875001847743988,-0.1875057220458984,0.4687466621398926,1.961599349975586,0.5533663630485535,110.38996887207033,25.21,2
-0.8750011920928955,-0.1819058954715728,0.4687478542327881,2.4518392086029053,0.5534149408340454,110.38997650146484,25.21,2
-0.8750007748603821,-0.1839100271463394,0.474346399307251,3.199938535690308,0.5534461140632629,110.38998413085938,25.21,2
-0.8750004768371582,-0.1851961612701416,0.4723414480686188,3.894980192184448,0.5534661412239075,110.3899917602539,25.21,2
-0.8750002980232239,-0.1860215216875076,0.4710547924041748,4.555972576141357,0.553479015827179,110.3899917602539,25.21,2
-0.8750001788139343,-0.1865511983633041,0.4702290892601013,5.578449249267578,0.553487241268158,110.3899917602539,25.21,2
-0.8750001192092896,-0.186891108751297,0.4696992039680481,6.8544020652771,0.553492546081543,110.3899917602539,25.21,2
-0.8750000596046448,-0.1871092468500137,0.4693591296672821,7.662487030029297,0.5534959435462952,110.3899917602539,25.21,2
-0.8750000596046448,-0.1816514581441879,0.4691409170627594,8.109417915344238,0.5534981489181519,110.3899917602539,25.21,2
-0.8805978298187256,-0.1781489700078964,0.4690008759498596,9.506831169128418,0.5534995198249817,110.3899917602539,25.21,2
-0.8785923719406128,-0.1814990490674972,0.4689109921455383,12.35611343383789,0.5535004138946533,110.3899917602539,25.21,2
-0.8773053884506226,-0.17805115878582,0.4688533246517181,15.202070236206056,0.5535010099411011,110.3899917602539,25.21,2
-0.87647944688797,-0.1814362704753875,0.4688163101673126,16.734670639038086,0.554419219493866,110.55120849609376,25.21,2
-0.8759494423866272,-0.1836086511611938,0.4687925577163696,18.029890060424805,0.5550084710121155,110.65467071533205,25.21,2
-0.875609278678894,-0.1850027590990066,0.4687772989273071,20.9282341003418,0.5553866028785706,110.72106170654295,25.21,2
-0.8753910064697266,-0.185897409915924,0.4687675237655639,24.747892379760746,0.555629312992096,110.763671875,25.21,2
-0.8752509355545044,-0.1808737814426422,0.4687612354755401,27.052244186401367,0.555785059928894,110.791015625,25.21,2
-0.8751610517501831,-0.177649900317192,0.4687572121620178,27.56016540527344,0.5558850169181824,110.80856323242188,25.21,2
-0.8751033544540405,-0.1755809932947158,0.4687546193599701,28.98238945007324,0.5559491515159607,110.81982421875,25.21,2
-0.875066339969635,-0.1798510700464248,0.4687529504299164,34.33748245239258,0.5559902787208557,110.8270492553711,25.21,2
-0.8750425577163696,-0.182591363787651,0.4687519073486328,43.43812561035156,0.555098831653595,110.8316879272461,25.21,2
-0.8750272989273071,-0.184349924325943,0.4687512218952179,48.68727111816406,0.5545267462730408,110.83466339111328,25.21,2
-0.875017523765564,-0.185478463768959,0.4687507748603821,38.81467056274414,0.5541596412658691,110.8365707397461,25.21,2
-0.8750112652778625,-0.1862026900053024,0.4687505066394806,13.247737884521484,0.553924024105072,110.83779907226562,25.21,2
-0.8806049823760986,-0.1866674572229385,0.4687503278255462,-14.251301765441896,0.5537728667259216,110.83858489990234,25.21,2
-0.8841947317123413,-0.1869657188653946,0.4743479788303375,-31.8126220703125,0.5536758303642273,110.8390884399414,25.21,2
