acc_x,acc_y,acc_z,bvp,eda,hr,temp,label
0.0,0.0,0.0,0.0,0.0,0.0,35.87,2
-0.0286458320915699,-0.1588541567325592,0.0338541641831398,1.2949999570846558,0.0882428213953971,14.519999504089355,35.87,2
-0.0628810971975326,-0.3719512224197387,0.0792682915925979,3.4453659057617188,0.2066173553466797,33.998050689697266,35.87,2
-0.0926598832011222,-0.5622923374176025,0.1237541511654853,6.307707786560059,0.3095828294754028,50.94060134887695,35.87,2
-0.1357379108667373,-0.701156497001648,0.1508707851171493,8.819580078125,0.3847016990184784,63.30110549926758,35.87,2
-0.1484344005584716,-0.8006631135940552,0.1692298948764801,9.9264554977417,0.4355603158473968,71.66968536376953,35.87,2
-0.1678712666034698,-0.8604006767272949,0.1812761127948761,10.027226448059082,0.4689309000968933,77.16068267822266,35.87,2
-0.1860389113426208,-0.9046691060066224,0.1779191941022873,9.785404205322266,0.490543395280838,80.71692657470703,35.87,2
-0.1921518146991729,-0.9108248949050904,0.1813469231128692,8.574204444885254,0.5049238801002502,83.00775909423828,35.91,2
-0.1848915517330169,-0.9203761219978333,0.2003340125083923,4.870388031005859,0.5141668319702148,84.48017883300781,35.91,2
-0.2026152908802032,-0.9432989358901978,0.1845442205667495,-1.8240423202514648,0.5201022028923035,85.42569732666016,35.91,2
-0.2251868546009063,-0.9524161219596864,0.1744085699319839,-10.251595497131348,0.5239121913909912,86.03263854980469,35.91,2
-0.2452711164951324,-0.958267629146576,0.1790984869003296,-17.91027069091797,0.5263574719429016,86.42218017578125,35.91,2
-0.252562940120697,-0.9620229601860046,0.1877060234546661,-22.839717864990234,0.5279268026351929,86.67217254638672,35.91,2
-0.2460470199584961,-0.958835244178772,0.1932299584150314,-25.078914642333984,0.5289339423179626,86.83261108398438,35.91,2
-0.247463196516037,-0.956789493560791,0.1967749148607254,-25.79581642150879,0.5295802354812622,86.9355697631836,35.91,2
-0.2483720183372497,-0.9554766416549684,0.1990498751401901,-26.0588436126709,0.5267817974090576,87.00164794921875,35.91,2
-0.2545530200004577,-0.954634130001068,0.1949120461940765,-26.431846618652344,0.5249859094619751,87.04405212402344,35.91,2
-0.2585196495056152,-0.9540934562683104,0.1922566294670105,-27.437889099121094,0.5238333940505981,87.07125854492188,35.91,2
-0.2610651850700378,-0.953746497631073,0.1849547624588012,-28.660303115844727,0.5230938196182251,87.0887222290039,35.91,2
-0.262698769569397,-0.953523814678192,0.1802688390016555,-29.35521507263184,0.5226191878318787,87.09992980957031,35.91,2
-0.2581493258476257,-0.9533809423446656,0.1828594505786895,-29.34976387023925,0.5223146080970764,87.10712432861328,35.91,2
-0.2552297711372375,-0.953289270401001,0.1845219582319259,-25.849672317504883,0.5221191644668579,87.11174011230469,35.91,2
-0.2533561587333679,-0.9532304406166076,0.1799910962581634,-18.003950119018555,0.5219936966896057,87.11470031738281,35.91,2
-0.2521537840366363,-0.95319265127182,0.1826812177896499,-7.967740535736084,0.5228310227394104,87.1166000366211,35.91,2
-0.2569799423217773,-0.9531683921813964,0.184407576918602,1.8656200170516968,0.5233684182167053,87.1178207397461,35.91,2
-0.2600770890712738,-0.95315283536911,0.1855154633522033,9.845584869384766,0.5237132906913757,87.11859893798828,35.91,2
-0.262064665555954,-0.9531428813934326,0.1862264424562454,14.762460708618164,0.5239346027374268,87.11910247802734,35.91,2
-0.2633401751518249,-0.9531365036964417,0.181084930896759,16.5313720703125,0.5240765810012817,87.11942291259766,35.91,2
-0.2641587257385254,-0.958730161190033,0.1777853965759277,16.466394424438477,0.5241677165031433,87.11962890625,35.91,2
-0.2590862512588501,-0.9623198509216307,0.1756679564714431,16.249149322509766,0.524226188659668,87.11976623535156,35.91,2
-0.2558310329914093,-0.959025740623474,0.174309104681015,16.353349685668945,0.5242637395858765,87.1198501586914,35.91,2
-0.2425464689731598,-0.9513139724731444,0.1790348440408706,16.011804580688477,0.5247471332550049,87.29544830322266,35.91,2
-0.2340212017297744,-0.9463649988174438,0.1820675432682037,15.16567039489746,0.525057315826416,87.40814208984375,35.91,2
-0.2285501807928085,-0.943189024925232,0.1840137690305709,14.482949256896973,0.5252563953399658,87.48046112060547,35.91,2
-0.2306369692087173,-0.946748673915863,0.1796649694442749,13.826281547546388,0.5253841280937195,87.52687072753906,35.91,2
-0.2375739216804504,-0.94903302192688,0.1712763756513595,11.567008018493652,0.5254661440849304,87.55665588378906,35.91,2
-0.2420256584882736,-0.9504989981651306,0.1658930629491806,7.05403470993042,0.5255187749862671,87.57576751708984,35.91,2
-0.2448825240135193,-0.9458420276641846,0.1680361330509185,2.0119054317474365,0.52555251121521,87.5880355834961,35.91,2
-0.2467159032821655,-0.9428534507751464,0.1862047612667083,-1.435214877128601,0.5255742073059082,87.59590148925781,35.91,2
-0.2478924542665481,-0.9409355521202089,0.1978643387556076,-3.1601479053497314,0.524669885635376,87.6009521484375,35.89,2
-0.2542452812194824,-0.9453024864196776,0.199749007821083,-4.385335922241211,0.5240895748138428,87.60419464111328,35.89,2
-0.2527243793010711,-0.953702747821808,0.2065562605857849,-4.985297203063965,0.5237171649932861,87.60627746582031,35.89,2
-0.2461505681276321,-0.9590935111045836,0.2109247595071792,-4.001773834228516,0.5234781503677368,87.60761260986328,35.89,2
-0.2307363301515579,-0.968150794506073,0.219325989484787,-0.6191867589950562,0.5233247876167297,87.60846710205078,35.89,2
-0.2320399135351181,-0.9739632606506348,0.2135218679904937,5.438657283782959,0.5232263207435608,87.60901641845703,35.89,2
-0.2328764796257019,-0.9776933193206788,0.204199343919754,11.877026557922363,0.5231631398200989,87.60936737060547,35.89,2
-0.2446088790893554,-0.9800871014595032,0.1982166767120361,14.91969871520996,0.5231226086616516,87.6095962524414,35.89,2
-0.2577358484268188,-0.964829921722412,0.1887795776128769,14.156718254089355,0.5230966210365295,87.6097412109375,35.89,2
-0.2661599814891815,-0.9382454752922058,0.1659300625324249,12.459753036499023,0.5230799317359924,87.60983276367188,35.89,2
-0.2771638631820678,-0.9267828464508056,0.1456687897443771,10.71154499053955,0.5230692028999329,87.60989379882812,35.89,2
-0.2898232936859131,-0.9306223392486572,0.1270684897899627,7.432934761047363,0.5230623483657837,87.60993194580078,35.89,2
-0.3035451769828796,-0.9330863356590272,0.1095341145992279,2.82110857963562,0.5230579376220703,87.60995483398438,35.89,2
-0.3179488480091095,-0.9402653574943542,0.0982815623283386,-1.464049220085144,0.5230550765991211,87.60997009277344,35.89,2
-0.3327900767326355,-0.984056830406189,0.1022558733820915,-5.149068832397461,0.5230532884597778,87.60997772216797,35.89,2
-0.3535098731517792,-0.9897685647010804,0.1048063561320304,-8.538518905639648,0.5230520963668823,87.6099853515625,35.89,2
-0.3612088859081268,-0.9766407012939452,0.1064431071281433,-10.72083854675293,0.5235102772712708,87.60999298095703,35.89,2
-0.3437585532665252,-0.945824921131134,0.107493482530117,-10.99281406402588,0.5238043069839478,87.60999298095703,35.89,2
-0.3269621729850769,-0.9204513430595398,0.1137653216719627,-10.400680541992188,0.5239930152893066,87.60999298095703,35.89,2
-0.3161832094192505,-0.9097658395767212,0.1233880072832107,-10.332367897033691,0.5241140723228455,87.60999298095703,35.89,2
-0.3204614520072937,-0.9197018146514891,0.1295632869005203,-10.657533645629885,0.5241917967796326,87.60999298095703,35.89,2
-0.3344025313854217,-0.9372736811637878,0.1335262358188629,-10.350316047668455,0.5242416858673096,87.60999298095703,35.89,2
-0.3377513289451599,-0.9765391945838928,0.1192760989069938,-9.175118446350098,0.524273693561554,87.60999298095703,35.89,2
-0.3287048637866974,-1.0185308456420898,0.1045334041118621,-7.78682804107666,0.5242941975593567,87.60999298095703,35.89,2
-0.2893126904964447,-1.0622719526290894,0.089474618434906,-6.630792617797852,0.5247666835784912,87.7103042602539,35.89,2
-0.258435308933258,-1.1519180536270142,0.0686152055859565,-5.390937328338623,0.5250698924064636,87.7746810913086,35.89,2
-0.2274244278669357,-1.2150455713272097,0.0664243847131729,-3.2840468883514404,0.5252644419670105,87.81599426269531,35.89,2
-0.1459479033946991,-1.22756826877594,0.0538228936493396,0.0635284632444381,0.5253893136978149,87.8425064086914,35.89,2
-0.0936609655618667,-1.202017903327942,0.0345404334366321,3.780977964401245,0.5254694819450378,87.8595199584961,35.89,2
-0.0768995359539985,-1.0904589891433716,0.0277638360857963,6.3135085105896,0.525520920753479,87.87043762207031,35.89,2
-0.0381541475653648,-0.9852802753448486,0.0066216830164194,6.967863082885742,0.5255539417266846,87.87744903564453,35.89,2
-0.007691812235862,-0.923380434513092,-0.0181416813284158,6.07298469543457,0.5255751013755798,87.88194274902344,35.89,2
0.0118571603670716,-0.9228410720825196,-0.0228378362953662,4.011934280395508,0.5246704816818237,87.88482666015625,35.89,2
0.0188047923147678,-0.9336905479431152,-0.0146560091525316,1.2347452640533447,0.5240899324417114,87.88668060302734,35.89,2
-0.004725488834083,-0.9238597750663756,0.0017901650862768,-1.199523687362671,0.5237173438072205,87.88787078857422,35.89,2
-0.0422169677913188,-0.8951598405838013,0.0179421473294496,-2.435683012008667,0.5234782695770264,87.88863372802734,35.89,2
-0.0718746110796928,-0.876741886138916,0.0283075608313083,-2.8743038177490234,0.5233248472213745,87.88912200927734,35.89,2
-0.0965049564838409,-0.8705200552940369,0.0405572615563869,-3.6394331455230713,0.5232263803482056,87.88943481445312,35.89,2
-0.1123112961649894,-0.8721250295639038,0.0540161877870559,-5.223134994506836,0.5231631994247437,87.88964080810547,35.89,2
-0.1280526667833328,-0.8787527680397034,0.0794466733932495,-7.1673502922058105,0.5231226682662964,87.8897705078125,35.89,2
-0.1437523514032364,-0.8830060958862305,0.1069620475172996,-9.009743690490724,0.5226377248764038,87.88985443115234,35.89,2
-0.153827503323555,-0.8857356309890747,0.1302175968885421,-11.012495040893556,0.5223264694213867,87.88990783691406,35.89,2
-0.1826842576265335,-0.8874872922897339,0.1451416760683059,-13.677037239074709,0.5221267342567444,87.88993835449219,35.89,2
-0.2123984098434448,-0.9166002869606018,0.1659146398305893,-16.687461853027344,0.5219985842704773,87.88996124267578,35.89,2
-0.2426627874374389,-0.9576743841171264,0.1792455315589904,-18.443832397460938,0.5219163298606873,87.88997650146484,35.89,2
-0.2676824927330017,-1.0120222568511963,0.1878005266189575,-17.0989933013916,0.5218635201454163,87.88998413085938,35.89,2
-0.2837387025356293,-1.063692927360535,0.1932906359434127,-12.287955284118652,0.5218296647071838,87.8899917602539,35.89,2
-0.3052382171154022,-1.1304388046264648,0.2136071920394897,-5.596436500549316,0.5218079090118408,87.8899917602539,35.89,2
-0.3358286917209625,-1.1732724905014038,0.2322429716587066,0.6825416684150696,0.5217939615249634,87.8899917602539,35.89,2
-0.3890465199947357,-1.178369641304016,0.2386045604944229,4.866079330444336,0.5217850208282471,87.8899917602539,35.89,2
-0.4008075594902038,-1.125662922859192,0.2202959656715393,6.372165679931641,0.5217792987823486,87.8899917602539,35.89,2
-0.3915618062019348,-1.091838836669922,0.1973510086536407,5.7229437828063965,0.5217756032943726,87.8899917602539,35.89,2
-0.3688350915908813,-1.1037191152572632,0.182626262307167,4.192129611968994,0.5217732191085815,87.8899917602539,35.89,2
-0.3598481714725494,-1.1281365156173706,0.1731767654418945,3.113011360168457,0.5217717289924622,87.8899917602539,35.89,2
-0.3428853452205658,-1.1438060998916626,0.1727104038000106,3.0152029991149902,0.5217707753181458,87.8899917602539,35.89,2
-0.2928151488304138,-1.0978842973709106,0.1612155586481094,3.2605366706848145,0.5217701196670532,87.8899917602539,35.89,2
-0.243889644742012,-1.04602313041687,0.1426432877779007,2.8161051273345947,0.522687554359436,87.96522521972656,35.89,2
-0.2012965232133865,-0.9847527742385864,0.1139313504099845,1.4811997413635254,0.5232763290405273,88.01351165771484,35.89,2
-0.168364942073822,-0.9286397099494934,0.0955056771636009,-0.1779626160860061,0.5236541628837585,88.04449462890625,35.89,2
-0.1696224510669708,-0.8870317935943604,0.0780833661556243,-1.9341545104980469,0.5238966345787048,88.06437683105469,35.89,2
-0.1928205341100692,-0.8603302240371704,0.0501094087958335,-4.10370683670044,0.5240522623062134,88.07714080810547,35.89,2
-0.2133055031299591,-0.8431946635246277,0.0265595596283674,-6.556443214416504,0.5241521000862122,88.0853271484375,35.89,2
-0.2264515906572342,-0.8154047727584839,0.0058488468639552,-8.227197647094727,0.5242161750793457,88.09058380126953,35.89,2
-0.2124968916177749,-0.8311574459075928,-0.0074420957826077,-7.938013076782227,0.5242573022842407,88.09395599365234,35.89,2
-0.203541561961174,-0.8692554831504822,-0.0047759087756276,-5.445252418518066,0.52336585521698,88.09612274169922,35.89,2
-0.2089900970458984,-0.983268976211548,0.0305217448621988,-1.5670238733291626,0.5227937698364258,88.0975112915039,35.89,2
-0.2180844247341156,-1.0844252109527588,0.0699670687317848,2.4873857498168945,0.5224266052246094,88.09840393066406,35.89,2
-0.1959317773580551,-1.1325480937957764,0.0784874856472015,5.626658439636231,0.5221909880638123,88.0989761352539,35.89,2
-0.1481288373470306,-1.1298439502716064,0.0895531699061393,6.931913375854492,0.5220398306846619,88.0993423461914,35.89,2
-0.1398427635431289,-1.100119709968567,0.1190455853939056,5.989010810852051,0.5219427943229675,88.09957885742188,35.89,2
-0.1737096458673477,-0.9802844524383544,0.1603632271289825,3.639195442199707,0.5218805074691772,88.0997314453125,35.89,2
-0.2010412365198135,-0.931369960308075,0.186878502368927,1.6726497411727903,0.5218405723571777,88.0998306274414,35.89,2
-0.2185810804367065,-0.995141625404358,0.2150900363922119,1.2059656381607056,0.5218149423599243,88.09989166259766,35.89,2
-0.2074460536241531,-1.052859902381897,0.2219990193843841,1.8128663301467896,0.5217984914779663,88.09992980957031,35.89,2
-0.194702461361885,-1.0507158041000366,0.2432261258363723,2.4602856636047363,0.5217879414558411,88.0999526977539,35.89,2
-0.1865243464708328,-0.9765687584877014,0.2680440247058868,2.703798532485962,0.5217811465263367,88.09996795654297,35.89,2
-0.1756783276796341,-0.9121921062469482,0.2895684838294983,2.817080020904541,0.5217767953872681,88.0999755859375,35.89,2
-0.1967068612575531,-0.8596833348274231,0.2865883111953735,3.147723197937012,0.5217739939689636,88.09998321533203,35.89,2
-0.2381906360387802,-0.8315839767456055,0.2790780365467071,3.771907091140747,0.5217722058296204,88.09999084472656,35.89,2
-0.2816058397293091,-0.8191491961479187,0.2686606049537658,4.7707624435424805,0.5217710733413696,88.09999084472656,35.89,2
-0.3262605667114258,-0.8167670965194702,0.2507797479629516,6.207101821899414,0.5217702984809875,88.09999084472656,35.89,2
-0.3493196070194244,-0.8264338970184326,0.2449026256799698,7.755812644958496,0.5217698216438293,88.09999084472656,35.89,2
-0.3641175627708435,-0.8774197101593018,0.2635221183300018,9.075700759887695,0.5217695236206055,88.09999084472656,35.89,2
-0.3680162727832794,-0.9269328117370604,0.286666601896286,10.452950477600098,0.5217693448066711,88.09999084472656,35.89,2
-0.3705182373523712,-0.9531096816062928,0.2959216237068176,12.304084777832031,0.5217692255973816,88.09999084472656,35.89,2
-0.3721238672733307,-0.9922996163368224,0.296263188123703,14.559643745422363,0.5217691659927368,88.09999084472656,35.89,2
-0.378752052783966,-1.0566338300704956,0.2964823842048645,17.03891372680664,0.521769106388092,88.09999084472656,35.89,2
-0.4445811510086059,-1.1371042728424072,0.307818591594696,19.66533088684082,0.5217690467834473,88.09999084472656,35.89,2
-0.5092175602912903,-1.1775500774383545,0.3038979768753052,21.93477439880371,0.5213097333908081,88.150146484375,35.89,2
-0.5227085947990417,-1.181114673614502,0.2789908349514007,22.742725372314453,0.5210149884223938,88.18233489990234,35.89,2
-0.458595335483551,-1.1834022998809814,0.2462135553359985,20.982704162597656,0.5208258628845215,88.20299530029297,35.89,2
-0.3950600326061249,-1.201663613319397,0.2307767570018768,16.636072158813477,0.520704448223114,88.21625518798828,35.89,2
-0.3430911898612976,-1.2245782613754272,0.2208703011274337,11.453492164611816,0.5206265449523926,88.22476196289062,35.89,2
-0.3041428029537201,-1.211294651031494,0.2089151442050933,7.590224742889404,0.520576536655426,88.23021697998047,35.89,2
-0.2791479527950287,-1.1747812032699585,0.1956452280282974,5.329539299011231,0.5205444693565369,88.23371887207031,35.89,2
-0.2519121468067169,-1.1009689569473269,0.1703360378742218,3.198071956634521,0.5205239057540894,88.23596954345703,35.89,2
-0.2288360148668289,-1.0424050092697144,0.1428985148668289,-0.0864590778946876,0.5205106735229492,88.23741149902344,35.89,2
-0.2140270769596099,-0.9824308753013612,0.1140951365232467,-4.762989044189453,0.5205022096633911,88.23833465576172,35.89,2
-0.2101213186979293,-0.9271496534347534,0.0844152420759201,-9.988896369934082,0.5204967856407166,88.23892974853516,35.89,2
-0.2076148390769958,-0.880477786064148,0.0709661692380905,-13.897881507873535,0.5204932689666748,88.23931121826172,35.89,2
-0.2060063183307647,-0.8449286818504333,0.0959219709038734,-14.905344009399414,0.5204910039901733,88.23955535888672,35.89,2
-0.1825829595327377,-0.8165175318717957,0.1399260461330413,-13.262609481811523,0.5204895734786987,88.23971557617188,35.89,2
-0.1339645534753799,-0.8094804286956787,0.134578675031662,-10.395614624023438,0.5204886794090271,88.23981475830078,35.89,2
-0.1195573881268501,-0.8329533338546753,0.0807670727372169,-7.341248512268066,0.5204880833625793,88.23988342285156,35.89,2
-0.1327027976512909,-0.8480168581008911,0.0462338849902153,-4.503401279449463,0.5209469795227051,88.23992156982422,35.89,2
-0.1859209537506103,-0.9024659395217896,0.0576591193675994,-1.657617688179016,0.5212414860725403,88.23995208740234,35.89,2
-0.2536599636077881,-0.987788200378418,0.0761867240071296,2.3575961589813232,0.521430492401123,88.2399673461914,35.89,2
-0.3419131338596344,-1.0761297941207886,0.1104677692055702,8.782015800476074,0.521551787853241,88.23997497558594,35.89,2
-0.4489289224147796,-0.9984757304191588,0.1828473508358001,16.94598388671875,0.5216295719146729,88.23998260498047,35.89,2
-0.5176054835319519,-0.9430440664291382,0.2181008458137512,23.646839141845703,0.5216795206069946,88.239990234375,35.89,2
-0.4721137583255768,-1.019426703453064,0.1959423124790191,25.611223220825195,0.5217115879058838,88.239990234375,35.89,2
-0.414930909872055,-1.0908358097076416,0.2153088897466659,22.76622009277344,0.5217321515083313,88.239990234375,35.89,2
-0.2438876777887344,-1.0638909339904783,0.272519439458847,18.002748489379883,0.5194500088691711,88.239990234375,35.89,2
-0.1285241991281509,-0.98502379655838,0.2980383336544037,13.699090003967283,0.517985463142395,88.239990234375,35.89,2
-0.0824794322252273,-0.9176180958747864,0.3088171184062958,9.758583068847656,0.5170456171035767,88.239990234375,35.89,2
-0.1201038435101509,-0.8799587488174438,0.2933432161808014,5.048003673553467,0.5164424777030945,88.239990234375,35.89,2
-0.1946289986371994,-0.8725844621658325,0.2778151929378509,-0.4075440764427185,0.5160554051399231,88.239990234375,35.89,2
-0.3208237886428833,-0.884645402431488,0.2790457308292389,-5.094432830810547,0.5158069729804993,88.239990234375,35.89,2
-0.4074061214923858,-0.8923854231834412,0.2630420923233032,-7.539743900299072,0.5156475901603699,88.239990234375,35.89,2
-0.4573718905448913,-0.8917547464370728,0.2471741139888763,-7.883762836456299,0.5155453085899353,88.239990234375,35.89,2
-0.4670459628105163,-0.885752260684967,0.2537842690944671,-7.635217189788818,0.5163978338241577,88.3510513305664,35.89,2
-0.4620586633682251,-0.8930957317352295,0.2692218422889709,-8.177899360656738,0.516944944858551,88.42232513427734,35.89,2
-0.4644558727741241,-0.920199453830719,0.301519900560379,-9.80514144897461,0.5172960758209229,88.46806335449219,35.89,2
-0.4715920388698578,-0.9655819535255432,0.3110513687133789,-11.752220153808594,0.5175213813781738,88.49742126464844,35.89,2
-0.4593783020973205,-1.022694706916809,0.3003748059272766,-12.761711120605469,0.5176659822463989,88.5162582397461,35.89,2
-0.4347469210624695,-1.092932939529419,0.3047187626361847,-11.940688133239746,0.5177587866783142,88.52835083007812,35.89,2
-0.441330999135971,-1.1492034196853638,0.3187020123004913,-9.461298942565918,0.5178183317184448,88.5361099243164,35.89,2
-0.4735451638698578,-1.1293368339538574,0.3052845597267151,-6.53028678894043,0.5178565382957458,88.54108428955078,35.89,2
-0.466229498386383,-1.1389787197113037,0.2630873620510101,-4.473785400390625,0.518339991569519,88.54428100585938,35.91,2
-0.4503391683101654,-1.1619596481323242,0.2360076159238815,-3.877721786499024,0.518650233745575,88.54633331298828,35.91,2
-0.4401416778564453,-1.2046962976455688,0.218629390001297,-4.602218151092529,0.5188493132591248,88.54764556884766,35.91,2
-0.4335975050926208,-1.2321221828460691,0.2130748182535171,-6.24224328994751,0.5189771056175232,88.54849243164062,35.91,2
-0.3958111703395843,-1.2105381488800049,0.2151079922914505,-8.226186752319336,0.5190591216087341,88.54903411865234,35.91,2
-0.3267799019813537,-1.1463068723678589,0.2052172273397445,-9.585349082946776,0.5191117525100708,88.54937744140625,35.91,2
-0.2712840437889099,-1.082695722579956,0.19327212870121,-9.261000633239746,0.5191454887390137,88.54959869384766,35.91,2
-0.2188766747713089,-1.0194827318191528,0.1744108945131302,-7.043027877807617,0.5191671848297119,88.54974365234375,35.91,2
-0.1908424198627472,-0.9677206873893738,0.15670907497406,-3.896441698074341,0.5196400284767151,88.54983520507812,35.91,2
-0.1840471923351287,-0.923307240009308,0.1453490555286407,-1.0280733108520508,0.5199434757232666,88.54989624023438,35.91,2
-0.1964797377586364,-0.87801194190979,0.1268633008003235,0.9309053421020508,0.5201382040977478,88.54993438720703,35.91,2
-0.2044582217931747,-0.8433462381362915,0.1150002107024192,1.6650090217590332,0.5202631950378418,88.54995727539062,35.91,2
-0.1983828097581863,-0.8043064475059509,0.1185827106237411,1.0864198207855225,0.5203433632850647,88.54997253417969,35.91,2
-0.1832884103059768,-0.7960463166236877,0.1264795213937759,-0.1733641922473907,0.5203948020935059,88.54998016357422,35.91,2
-0.1624061465263366,-0.8019409775733948,0.1203516945242881,-0.895839273929596,0.5204278230667114,88.54998779296875,35.91,2
-0.1769939810037613,-0.8169193863868713,0.1052236631512641,-0.0195988975465297,0.5204490423202515,88.54999542236328,35.91,2
-0.2087467163801193,-0.8489227294921875,0.1067109107971191,3.215323209762573,0.5177083611488342,88.54999542236328,35.91,2
-0.2571126520633697,-0.925438404083252,0.1244586631655693,9.644139289855955,0.515949547290802,88.54999542236328,35.91,2
-0.2993466854095459,-1.0081284046173096,0.1414459198713302,19.433835983276367,0.5148208737373352,88.54999542236328,35.91,2
-0.3656344711780548,-1.0220096111297607,0.1523473709821701,29.89716529846192,0.5140965580940247,88.54999542236328,35.91,2
-0.424967497587204,-0.997331202030182,0.1761366128921508,35.558650970458984,0.5136317014694214,88.54999542236328,35.91,2
-0.435055136680603,-1.0374717712402344,0.1970009505748748,32.542606353759766,0.5133333802223206,88.54999542236328,35.91,2
-0.3519644141197204,-1.1304049491882324,0.1879993826150894,22.35999298095703,0.513141930103302,88.54999542236328,35.91,2
-0.2482616007328033,-1.1844463348388672,0.2046138048171997,10.18640422821045,0.5130190849304199,88.54999542236328,35.91,2
-0.1201355829834938,-1.157551407814026,0.3048403561115265,0.618632435798645,0.5129402279853821,88.63239288330078,35.91,2
-0.1106827482581138,-1.0619230270385742,0.3131822645664215,-4.317666530609131,0.5128896236419678,88.68527221679688,35.91,2
-0.1158120110630989,-0.9837608933448792,0.3185356259346008,-5.06367826461792,0.5128571391105652,88.71920776367188,35.91,2
-0.1974725276231765,-0.9280031323432922,0.3051777780056,-3.736807584762573,0.5128363370895386,88.7409896850586,35.91,2
-0.2834641933441162,-0.8978188037872314,0.2966054677963257,-2.4553892612457275,0.5128229856491089,88.75496673583984,35.91,2
-0.3778330981731415,-0.8672527074813843,0.2687131464481354,-1.8945766687393188,0.5128144025802612,88.76393127441406,35.91,2
-0.4327958524227142,-0.8420393466949463,0.2508134841918945,-1.6672347784042358,0.5128089189529419,88.76968383789062,35.91,2
-0.4568722546100616,-0.8314566612243652,0.2505220472812652,-1.5965739488601685,0.5128054022789001,88.77337646484375,35.91,2
-0.4387364387512207,-0.8582519292831421,0.2783238887786865,-2.163848400115967,0.5146395564079285,88.77574920654297,35.87,2
-0.4215001463890075,-0.8922409415245056,0.3129588365554809,-4.014661312103272,0.5158166289329529,88.77727508544922,35.87,2
-0.4104388952255249,-0.9476397633552552,0.3575766384601593,-7.334039211273193,0.5165719985961914,88.77825164794922,35.87,2
-0.4033404290676117,-1.0167782306671145,0.3526231348514557,-11.36298942565918,0.5170567035675049,88.77887725830078,35.87,2
-0.4043827950954437,-1.0835384130477903,0.3382487297058105,-14.7510347366333,0.5173677802085876,88.77928161621094,35.87,2
-0.4498339295387268,-1.1375768184661863,0.317828506231308,-16.760488510131836,0.5175673961639404,88.779541015625,35.87,2
-0.4901973903179168,-1.1610599756240845,0.2935284376144409,-17.83150291442871,0.5176955461502075,88.77970123291016,35.87,2
-0.465720385313034,-1.1033589839935305,0.2611407339572906,-18.712278366088867,0.5177777409553528,88.7798080444336,35.87,2
-0.4332191348075866,-1.1111119985580444,0.2291606068611145,-19.671592712402344,0.5173711776733398,88.77987670898438,35.87,2
-0.417959451675415,-1.1552718877792358,0.2142353802919387,-20.566665649414062,0.517110288143158,88.77992248535156,35.87,2
-0.4193622171878814,-1.2563822269439695,0.1990594565868377,-20.81147575378418,0.5169428586959839,88.77995300292969,35.87,2
-0.3978713452816009,-1.2988779544830322,0.1837226450443267,-19.399412155151367,0.5168354511260986,88.77996826171875,35.87,2
-0.3336997628211975,-1.2813670635223389,0.1626848131418228,-15.949602127075195,0.5167664885520935,88.77997589111328,35.87,2
-0.2701270580291748,-1.2085540294647217,0.1491839438676834,-11.546759605407717,0.5167222619056702,88.77998352050781,35.87,2
-0.2293297350406646,-1.1394357681274414,0.1349220871925354,-7.62141752243042,0.5166938900947571,88.77999114990234,35.87,2
-0.2087461352348327,-1.0670907497406006,0.1145741045475006,-4.529147148132324,0.5166756510734558,88.77999114990234,35.87,2
-0.2067323178052902,-1.0094683170318604,0.090320385992527,-2.0574755668640137,0.5157461166381836,88.77999114990234,35.87,2
-0.2222332954406738,-0.9668918251991272,0.063560202717781,-0.4533860683441162,0.5151495933532715,88.77999114990234,35.87,2
-0.2321809232234954,-0.9115797877311708,0.0407892800867557,0.0386399030685424,0.5147667527198792,88.77999114990234,35.87,2
-0.2329669743776321,-0.859290361404419,0.0261762123554945,0.0785355046391487,0.514521062374115,88.77999114990234,35.87,2
-0.205482542514801,-0.82573401927948,0.0335917100310325,0.7024283409118652,0.5143634080886841,88.77999114990234,35.87,2
-0.1822468340396881,-0.8041995167732239,0.0439483225345611,2.1345884799957275,0.5142622590065002,88.77999114990234,35.87,2
-0.1617377251386642,-0.7847821116447449,0.0561923757195472,4.010214328765869,0.5141973495483398,88.77999114990234,35.87,2
-0.1709672510623932,-0.7667233943939209,0.0696476772427558,6.7579731941223145,0.5141556859016418,88.77999114990234,35.87,2
-0.1880857795476913,-0.7831231951713562,0.0670869648456573,11.802966117858888,0.5127517580986023,88.87313842773438,35.87,2
-0.2158647924661636,-0.8496254086494446,0.0542481020092964,19.88419342041016,0.5118508338928223,88.93291473388672,35.87,2
-0.2504850924015045,-0.9258893132209778,0.0683999583125114,29.26187515258789,0.511272668838501,88.97128295898438,35.87,2
-0.3118868172168731,-0.9692333340644836,0.1502528637647628,35.74566650390625,0.5109016299247742,88.99590301513672,35.87,2
-0.4408552944660187,-1.1090044975280762,0.2643568515777588,35.410457611083984,0.5106635093688965,89.01170349121094,35.87,2
-0.5012287497520447,-1.215494990348816,0.298397809267044,28.30604553222656,0.5105106830596924,89.02184295654297,35.87,2
-0.3496486246585846,-1.2334544658660889,0.2362767308950424,18.88887023925781,0.5104126334190369,89.02835083007812,35.87,2
-0.3475354015827179,-1.2449798583984375,0.3251598179340362,12.053720474243164,0.510349690914154,89.03252410888672,35.87,2
-0.379765897989273,-1.1628117561340332,0.4213842749595642,9.515923500061035,0.5116864442825317,89.03520202636719,35.89,2
-0.5627850294113159,-1.0541032552719116,0.3487890064716339,10.061935424804688,0.5125443339347839,89.03691864013672,35.89,2
-0.6858339309692383,-0.9563515186309814,0.2462238073348999,11.558758735656738,0.5130948424339294,89.03802490234375,35.89,2
-0.6752352714538574,-0.8376423120498657,0.1244256198406219,12.229145050048828,0.5134481191635132,89.03873443603516,35.89,2
-0.6236514449119568,-0.7502660751342773,0.0238714572042226,11.154678344726562,0.5136748552322388,89.0391845703125,35.89,2
-0.5289723873138428,-0.710986316204071,-0.0238650925457477,8.143638610839844,0.5138203501701355,89.03947448730469,35.89,2
-0.4402239620685577,-0.7305610179901123,-0.0041196937672793,3.3918397426605225,0.5139137506484985,89.03966522216797,35.89,2
-0.3608792424201965,-0.7599163055419922,0.0421384125947952,-2.5988857746124268,0.5139736533164978,89.03978729248047,35.89,2
-0.354742556810379,-0.8011459112167358,0.0830197483301162,-9.158980369567873,0.5121756792068481,89.03986358642578,35.89,2
-0.345206618309021,-0.8332024812698364,0.1204505860805511,-15.582903861999512,0.5110218524932861,89.03990936279297,35.89,2
-0.3278914391994476,-0.8649700880050659,0.155667096376419,-20.862579345703125,0.5102813839912415,89.0399398803711,35.89,2
-0.294388473033905,-0.8965522646903992,0.2230492234230041,-23.953418731689453,0.509806215763092,89.03996276855469,35.89,2
-0.2896815240383148,-0.9000265598297119,0.2550956308841705,-24.912322998046875,0.5095012784004211,89.03997802734375,35.89,2
-0.2754653096199035,-0.8742672801017761,0.2644656300544739,-24.92940330505371,0.5093055963516235,89.03998565673828,35.89,2
-0.2719399333000183,-0.8633342385292053,0.2368921041488647,-24.947528839111328,0.5091800093650818,89.03999328613281,35.89,2
-0.3032642006874084,-0.9066979885101318,0.1576214879751205,-25.1096305847168,0.5090994238853455,89.03999328613281,35.89,2
-0.2114108353853225,-1.007297396659851,0.185119017958641,-25.392786026000977,0.5085887312889099,89.03999328613281,35.89,2
-0.0908891186118125,-1.0830519199371338,0.17477647960186,-25.603158950805664,0.5082610249519348,89.03999328613281,35.89,2
-0.030338529497385,-1.154057860374451,0.0729770585894584,-24.799530029296875,0.5080507397651672,89.03999328613281,35.89,2
-0.0250672958791255,-1.2332119941711426,-0.0595252402126789,-21.88348197937012,0.507915735244751,89.03999328613281,35.89,2
0.0063043516129255,-1.2280309200286863,-0.1949375569820404,-17.088748931884766,0.5078291296958923,89.03999328613281,35.89,2
0.0768168345093727,-1.0791637897491455,-0.2650440633296966,-11.962531089782717,0.5077735185623169,89.03999328613281,35.89,2
0.1836432069540023,-0.9612383842468262,-0.2988388240337372,-7.716271877288818,0.5077378749847412,89.03999328613281,35.89,2
0.2074160277843475,-0.9247450828552246,-0.3093308210372925,-4.432385444641113,0.5077149868011475,89.03999328613281,35.89,2
0.099521018564701,-0.9237168431282043,-0.3048684298992157,-1.809085369110108,0.5099956393241882,89.11164855957031,35.89,2
-0.0592841729521751,-0.9398503303527832,-0.302004724740982,0.2254898697137832,0.511459231376648,89.15763092041016,35.89,2
-0.0548384934663772,-0.8774327635765076,-0.28337362408638,1.6243102550506592,0.5123984813690186,89.18714141845703,35.89,2
0.0431766472756862,-0.8205834627151489,-0.2378306239843368,2.536322832107544,0.5130012631416321,89.2060775756836,35.89,2
0.2236303836107254,-0.8008942008018494,-0.1134415790438652,3.4726924896240234,0.5133880972862244,89.21823120117188,35.89,2
0.3506307601928711,-0.7882587313652039,0.0167641174048185,5.094634532928467,0.5136363506317139,89.22602844238281,35.89,2
0.3313723504543304,-0.7801499962806702,0.0499426648020744,7.564951419830322,0.5137956738471985,89.23103332519531,35.89,2
0.2126556932926178,-0.92048841714859,0.0432458780705928,10.533133506774902,0.5138978958129883,89.23424530029297,35.89,2
0.1644590497016906,-0.9545718431472778,0.0389482639729976,14.075178146362305,0.5125863552093506,89.2363052368164,35.91,2
0.2790713608264923,-0.9708468317985536,0.1593413352966308,19.00652885437012,0.5117446780204773,89.23762512207031,35.91,2
0.3358296155929565,-1.037268877029419,0.2645915448665619,25.45640754699707,0.5112045407295227,89.23847198486328,35.91,2
0.2547005414962768,-1.085492491722107,0.2761573493480682,31.677045822143555,0.510857880115509,89.23902130126953,35.91,2
0.1074744015932083,-1.1556241512298584,0.2387974113225937,35.479217529296875,0.5106354355812073,89.23937225341797,35.91,2
0.0633731111884117,-1.195032835006714,0.2596041560173034,37.08807373046875,0.5104926824569702,89.23959350585938,35.91,2
0.0294736661016941,-1.1475518941879272,0.1330123543739318,39.585819244384766,0.5104010701179504,89.23973846435547,35.91,2
0.1084788963198661,-1.1002880334854126,0.05737080052495,45.22270965576172,0.5103422999382019,89.23983001708984,35.91,2
0.1759732216596603,-1.0867501497268677,0.0032306322827935,51.41959381103516,0.5084681510925293,89.2398910522461,35.91,2
0.2136894166469574,-1.055671215057373,-0.0651000589132309,51.64544296264648,0.5072654485702515,89.23992919921875,35.91,2
0.2658823728561401,-1.0581176280975342,-0.1089507639408111,40.86710357666016,0.5064935684204102,89.23995208740234,35.91,2
0.1538346856832504,-1.0484920740127563,-0.1874715983867645,20.33281707763672,0.5059982538223267,89.2399673461914,35.91,2
0.0763311460614204,-1.0814993381500244,-0.1650906801223755,-2.5930933952331543,0.5056803822517395,89.23997497558594,35.91,2
0.0098005179315805,-1.181050419807434,-0.1339345723390579,-19.78476524353028,0.5054764151573181,89.23998260498047,35.91,2
-0.0049061398021876,-1.1945565938949585,-0.1139403730630874,-28.2056941986084,0.5053455233573914,89.239990234375,35.91,2
-0.0311373490840196,-1.192028522491455,-0.1290981173515319,-30.30304336547852,0.5052614808082581,89.239990234375,35.91,2
-0.0647643506526947,-1.1344283819198608,-0.1836076825857162,-29.825469970703125,0.5047486424446106,89.239990234375,35.91,2
-0.0583553537726402,-1.0750728845596311,-0.2241865545511245,-29.11774253845215,0.5044195652008057,89.239990234375,35.91,2
-0.0766335278749466,-1.0425796508789062,-0.1662611216306686,-29.12929916381836,0.5042083263397217,89.239990234375,35.91,2
-0.138743370771408,-1.0161296129226685,-0.179467886686325,-29.52363395690918,0.5040727853775024,89.239990234375,35.91,2
-0.1897974461317062,-1.0215466022491455,-0.2383231967687606,-29.24647331237793,0.5039858222007751,89.239990234375,35.91,2
-0.2113654613494873,-1.0977939367294312,-0.2648975849151611,-28.072650909423828,0.5039300322532654,89.239990234375,35.91,2
-0.2028154730796814,-1.1299318075180054,-0.2595604062080383,-26.925277709960938,0.5038942098617554,89.239990234375,35.91,2
-0.2141219079494476,-1.0945782661437988,-0.2225486785173416,-26.69768524169922,0.5038712024688721,89.239990234375,35.91,2
-0.2493665963411331,-1.0439015626907349,-0.1820033490657806,-27.41144752502441,0.5061517953872681,89.27940368652344,35.91,2
-0.2999734878540039,-1.0113801956176758,-0.1279948204755783,-28.39971923828125,0.507615327835083,89.30469512939453,35.91,2
-0.3828300535678863,-0.9681187272071838,-0.0373575091361999,-29.159326553344727,0.5085545778274536,89.3209228515625,35.91,2
-0.4360026121139526,-0.929160475730896,-0.0015828013420104,-29.98714256286621,0.5091572999954224,89.33133697509766,35.91,2
-0.5205056667327881,-0.9097570776939392,0.0437664426863193,-30.976957321166992,0.5095440745353699,89.33802032470703,35.91,2
-0.5859304070472717,-0.908500611782074,0.0616734288632869,-30.508729934692383,0.5097923278808594,89.3423080444336,35.91,2
-0.6223185062408447,-0.8797054290771484,0.0563717782497406,-26.14919090270996,0.509951651096344,89.34506225585938,35.91,2
-0.6232791543006897,-0.822041928768158,0.0081872902810573,-17.092729568481445,0.5100538730621338,89.34683227539062,35.91,2
-0.663080096244812,-0.813025712966919,0.0164496805518865,-4.95040225982666,0.5110373497009277,89.34796905517578,35.93,2
-0.6942198276519775,-0.835228443145752,0.0105564584955573,7.474113464355469,0.5116685032844543,89.34869384765625,35.93,2
-0.5070858597755432,-0.799096941947937,0.1243277862668037,18.01616096496582,0.5120735168457031,89.34915924072266,35.93,2
-0.3478096127510071,-0.736725389957428,0.2533174157142639,26.34702491760254,0.5123334527015686,89.34945678710938,35.93,2
-0.4247240722179413,-0.6966989040374756,0.3137044310569763,33.00809860229492,0.5125002264976501,89.34964752197266,35.93,2
-0.5132677555084229,-0.6710122227668762,0.3132729232311249,37.89183044433594,0.5126072764396667,89.34976959228516,35.93,2
-0.5924810767173767,-0.682516872882843,0.3577782213687897,40.81097412109375,0.5126760005950928,89.349853515625,35.93,2
-0.7104889154434204,-0.6003354787826538,0.3863391578197479,42.11468124389648,0.5127200484275818,89.34990692138672,35.93,2
-0.7918173670768738,-0.553193986415863,0.3934723734855652,41.81206893920898,0.5095351338386536,89.34993743896484,35.93,2
-0.8608025908470154,-0.5061479806900024,0.3924522697925567,39.64028549194336,0.5074912309646606,89.34996032714844,35.93,2
-0.9218666553497314,-0.4535654485225677,0.3414176702499389,35.46289825439453,0.5061795711517334,89.3499755859375,35.93,2
-0.9890429377555848,-0.3918321430683136,0.2358955293893814,28.10683250427246,0.5053378343582153,89.34998321533203,35.93,2
-0.9817728400230408,-0.3578130304813385,0.1121997535228729,15.525961875915527,0.504797637462616,89.34999084472656,35.93,2
-0.982705056667328,-0.3471770584583282,0.049612246453762,-2.084533929824829,0.5044509768486023,89.34999084472656,35.93,2
-0.9944988489151,-0.3459492921829223,0.0486316084861755,-20.518844604492188,0.5042285323143005,89.34999084472656,35.93,2
-0.9572852849960328,-0.3395636081695556,0.1375666856765747,-34.30500793457031,0.5040857791900635,89.34999084472656,35.93,2
-0.9949792623519896,-0.3074767589569092,0.2114334106445312,-40.69094467163086,0.5021580457687378,89.34999084472656,35.93,2
-1.0807446241378784,-0.2141142040491104,-0.0042585674673318,-40.25711441040039,0.5009209513664246,89.34999084472656,35.93,2
-1.158174991607666,-0.1318084001541137,-0.1762639135122299,-34.49020004272461,0.5001270771026611,89.34999084472656,35.93,2
-1.1183009147644043,-0.0789892673492431,-0.2362670749425888,-24.92106819152832,0.4996176064014435,89.34999084472656,35.93,2
-0.9975498914718628,-0.033897440880537,-0.313958078622818,-14.441652297973633,0.4992906451225281,89.34999084472656,35.93,2
-0.8808743953704834,0.00623544678092,-0.3750112354755401,-6.35518741607666,0.4990808367729187,89.34999084472656,35.93,2
-0.7668143510818481,0.0095993252471089,-0.3918005228042602,-1.3735488653182983,0.4989461898803711,89.34999084472656,35.93,2
-0.6824216246604919,-0.0050352541729807,-0.3913793861865997,2.554225444793701,0.4988597929477691,89.34999084472656,35.93,2
-0.6394587755203247,-0.0648068562150001,-0.4023046791553497,7.410684108734131,0.4997222125530243,89.41089630126953,35.93,2
-0.6510721445083618,-0.1367514729499817,-0.4261092245578766,13.067325592041016,0.5002756714820862,89.44998168945312,35.93,2
-0.6641227006912231,-0.1997147053480148,-0.4301900565624237,17.75429344177246,0.5006308555603027,89.47506713867188,35.93,2
-0.65010666847229,-0.2905008494853973,-0.4048200249671936,19.6909294128418,0.5008587837219238,89.49116516113281,35.93,2
-0.6691008806228638,-0.387946605682373,-0.3829412162303924,18.691057205200195,0.5010050535202026,89.50149536132812,35.93,2
-0.7260724902153015,-0.4504816830158233,-0.335314005613327,16.433656692504883,0.5010989308357239,89.50812530517578,35.93,2
-0.8913823962211609,-0.5577864050865173,-0.3047496080398559,15.013647079467772,0.501159131526947,89.51237487792969,35.93,2
-1.1094242334365845,-0.6434416770935059,-0.2123640775680542,14.85112476348877,0.5011977553367615,89.51510620117188,35.93,2
-1.2885353565216064,-0.6480303406715393,-0.0803052932024002,14.177197456359863,0.499845415353775,89.51686096191406,35.91,2
-1.3083164691925049,-0.5893995761871338,0.0604201667010784,11.23332405090332,0.4989775717258453,89.51798248291016,35.91,2
-1.2594352960586548,-0.5181871056556702,0.0443719588220119,5.908425807952881,0.4984206259250641,89.51870727539062,35.91,2
-1.188881754875183,-0.4165092706680298,-0.1730445176362991,-0.4285862445831299,0.4980632066726684,89.51917266845703,35.91,2
-1.1324089765548706,-0.373649388551712,-0.2957765758037567,-6.895641326904297,0.4978338479995727,89.51947021484375,35.91,2
-1.0625814199447632,-0.3461443781852722,-0.2457901239395141,-12.45736026763916,0.4976866543292999,89.51966094970703,35.91,2
-1.0233678817749023,-0.3172976970672607,-0.2081139236688614,-15.299287796020508,0.4975921809673309,89.51978302001953,35.91,2
-0.9702139496803284,-0.2987855672836303,-0.1895332783460617,-14.28925609588623,0.4975315630435943,89.51985931396484,35.91,2
-1.0144716501235962,-0.2813077569007873,-0.2335870414972305,-10.563644409179688,0.4979519546031952,89.51990509033203,35.91,2
-1.0652648210525513,-0.2588959634304046,-0.2954448461532593,-6.98334550857544,0.4982217252254486,89.51993560791016,35.91,2
-1.00269877910614,-0.2277200520038604,-0.3295438587665558,-5.083381652832031,0.4983948767185211,89.51995849609375,35.91,2
-0.90656977891922,-0.2133109122514724,-0.3066444396972656,-5.823763370513916,0.4985059797763824,89.51997375488281,35.91,2
-0.8224886059761047,-0.2096617370843887,-0.2135800719261169,-10.160914421081545,0.4985772669315338,89.51998138427734,35.91,2
-0.7349435091018677,-0.1849288046360016,-0.1034767478704452,-19.489614486694336,0.4986230134963989,89.51998901367188,35.91,2
-0.7347398400306702,-0.1578610837459564,-0.0272209998220205,-32.53032684326172,0.4986523985862732,89.51998901367188,35.91,2
-1.025693416595459,-0.1852727681398391,-0.0398599691689014,-45.66393280029297,0.4986712336540222,89.51998901367188,35.91,2
-1.2292039394378662,-0.1972662359476089,-0.1095464527606964,-55.31756591796875,0.5014376044273376,89.51998901367188,35.91,2
-1.1694810390472412,-0.1601807624101638,-0.1542672216892242,-52.53477478027344,0.5032129287719727,89.51998901367188,35.91,2
-1.0191987752914429,-0.1923591792583465,-0.1381842494010925,-38.5108642578125,0.5043522119522095,89.51998901367188,35.91,2
-0.9339518547058104,-0.2242049872875213,-0.1334608942270279,-23.7825870513916,0.5050833225250244,89.51998901367188,35.91,2
-0.974407434463501,-0.2390440255403518,-0.1808096915483474,-12.371156692504885,0.5055525302886963,89.51998901367188,35.91,2
-1.0227606296539309,-0.2429690808057785,-0.2391842901706695,-3.120532512664795,0.5058536529541016,89.51998901367188,35.91,2
-0.9978131651878356,-0.2398901879787445,-0.2654502093791961,4.288424491882324,0.5060468912124634,89.51998901367188,35.91,2
-0.9594122171401978,-0.2379143238067627,-0.2655128240585327,9.451480865478516,0.5061708688735962,89.51998901367188,35.91,2
-0.945964217185974,-0.2366463392972946,-0.2599552273750305,12.951126098632812,0.5057911276817322,89.62747192382812,35.91,2
-0.970920741558075,-0.2358326166868209,-0.2395953685045242,15.379709243774414,0.5055474638938904,89.69644927978516,35.91,2
-0.9981319308280944,-0.2353104203939438,-0.2153340280055999,16.074832916259766,0.5053910613059998,89.74071502685547,35.91,2
-1.0043989419937134,-0.2349752932786941,-0.2053622752428054,13.515142440795898,0.5052907466888428,89.76911926269531,35.91,2
-1.008420705795288,-0.2291624546051025,-0.2157562971115112,8.848786354064941,0.5052263140678406,89.78734588623047,35.91,2
-1.0054038763046265,-0.2198343425989151,-0.2280243635177612,4.707763671875,0.5051850080490112,89.79904174804688,35.91,2
-0.975479006767273,-0.2082503139972686,-0.2191039770841598,3.537062644958496,0.5051584839820862,89.80654907226562,35.91,2
-0.950677216053009,-0.2008163630962371,-0.2133793830871582,6.346854209899902,0.5051414370536804,89.81137084960938,35.91,2
-0.962749719619751,-0.2016434520483017,-0.2153034508228302,12.853939056396484,0.5046716332435608,89.81446075439453,35.93,2
-0.9760949015617372,-0.2021742314100265,-0.216538205742836,21.590431213378903,0.5043700933456421,89.81644439697266,35.93,2
-0.973463535308838,-0.2081126272678375,-0.2173306047916412,29.941261291503903,0.5041766166687012,89.81771850585938,35.93,2
-0.9717748761177064,-0.2175213247537613,-0.2178391069173813,36.013275146484375,0.504052460193634,89.81853485107422,35.93,2
-0.9762889742851256,-0.2179615050554275,-0.2181654423475265,39.16118621826172,0.5039727687835693,89.81906127929688,35.93,2
-0.9791858792304992,-0.2182439863681793,-0.2183748632669448,39.805625915527344,0.503921627998352,89.81939697265625,35.93,2
-0.9810449481010436,-0.2184252738952636,-0.224107027053833,37.47135543823242,0.5038887858390808,89.81961059570312,35.93,2
-0.9822379350662231,-0.218541607260704,-0.2277856022119522,29.85789680480957,0.5038677453994751,89.81974792480469,35.93,2
-0.9774057865142822,-0.2186162620782852,-0.2245485335588455,17.84627342224121,0.5029360055923462,89.81983947753906,35.93,2
-0.9743047952651978,-0.2186641693115234,-0.2224711626768112,4.717469692230225,0.5023380517959595,89.81990051269531,35.93,2
-0.9779125452041626,-0.2130971401929855,-0.2323335707187652,-6.419851779937744,0.5019543170928955,89.81993865966797,35.93,2
-0.9746299982070924,-0.2151223272085189,-0.2330649346113205,-12.556857109069824,0.5017080903053284,89.81996154785156,35.93,2
-0.9725234508514404,-0.2108241915702819,-0.2391320466995239,-12.411097526550291,0.5015500783920288,89.81997680664062,35.93,2
-0.9767693877220154,-0.2080658972263336,-0.2430255711078643,-8.867536544799805,0.5014486908912659,89.81998443603516,35.93,2
-0.9794941544532776,-0.2062957882881164,-0.2455242127180099,-5.898463726043701,0.5013836026191711,89.81999206542969,35.93,2
-0.9812427759170532,-0.2051598280668258,-0.2471276968717575,-4.294020175933838,0.5013418197631836,89.81999206542969,35.93,2
-0.9823648929595948,-0.1988330632448196,-0.248156726360321,-3.3682754039764404,0.5022332072257996,89.81999206542969,35.93,2
-0.983085036277771,-0.1947729140520095,-0.2432193160057068,-3.110947847366333,0.5028052926063538,89.81999206542969,35.93,2
-0.9835471510887146,-0.1921673417091369,-0.2400507777929306,-3.902357578277588,0.5031723976135254,89.81999206542969,35.93,2
-0.978245973587036,-0.1848974525928497,-0.2380173802375793,-5.467098712921143,0.5034080147743225,89.81999206542969,35.93,2
-0.974843978881836,-0.1802320629358291,-0.2423102408647537,-6.564406394958496,0.5035591721534729,89.81999206542969,35.93,2
-0.9726607799530028,-0.1828358620405197,-0.245065152645111,-4.513594627380371,0.5036562085151672,89.81999206542969,35.93,2
-0.9656619429588318,-0.184506818652153,-0.2468331009149551,2.943033218383789,0.5037184953689575,89.81999206542969,35.93,2
-0.9723660349845886,-0.1855791509151458,-0.2479676604270935,13.456806182861328,0.503758430480957,89.81999206542969,35.93,2
-0.9766683578491212,-0.1862673163414001,-0.2542935311794281,22.37139892578125,0.5037840604782104,89.93463897705078,35.93,2
-0.9738315343856812,-0.186708927154541,-0.2471575736999511,27.73401260375977,0.5038005113601685,90.00820922851562,35.93,2
-0.9776087999343872,-0.181394562125206,-0.2425781190395355,29.957353591918945,0.5038110613822937,90.05542755126953,35.93,2
-0.9856306314468384,-0.1779841035604477,-0.2396392822265625,28.3604736328125,0.5038178563117981,90.08572387695312,35.93,2
-0.9795830249786376,-0.1757954657077789,-0.2321555316448211,22.28067207336425,0.5038222074508667,90.10517120361328,35.93,2
-0.9757019877433776,-0.1743909269571304,-0.232950672507286,13.642841339111328,0.5038250088691711,90.11764526367188,35.93,2
-0.9788091778755188,-0.1734895706176757,-0.239058718085289,5.677757740020752,0.5038267970085144,90.12565612792967,35.93,2
-0.9808031916618348,-0.172911137342453,-0.2373807430267334,-0.2255238145589828,0.5038279294967651,90.13079833984376,35.93,2
-0.9820828437805176,-0.172539934515953,-0.23630391061306,-4.397245407104492,0.5024515390396118,90.13409423828124,35.95,2
-0.982904016971588,-0.172301709651947,-0.2356128692626953,-6.748402118682861,0.5015682578086853,90.1362075805664,35.95,2
-0.9834309816360474,-0.1721488386392593,-0.2351693958044052,-7.035580635070801,0.5010014176368713,90.13756561279295,35.95,2
-0.9837691783905028,-0.172050729393959,-0.2348847985267639,-6.385135173797607,0.5006376504898071,90.13843536376952,35.95,2
-0.98398619890213,-0.171987771987915,-0.2347021549940109,-6.576754570007324,0.5004041790962219,90.13899230957033,35.95,2
-0.9841254949569702,-0.1719473749399185,-0.2345849424600601,-7.96795654296875,0.5002543330192566,90.13935089111328,35.95,2
-0.9842149019241332,-0.1719214469194412,-0.2345097362995147,-9.666829109191896,0.5001581907272339,90.13957977294922,35.95,2
-0.9842722415924072,-0.1719048023223877,-0.2344614714384079,-11.287288665771484,0.5000964999198914,90.13973236083984,35.95,2
-0.9843090772628784,-0.1718941181898117,-0.2344304919242859,-13.308833122253418,0.5009751319885254,90.13983154296876,35.95,2
-0.9843326807022096,-0.1718872636556625,-0.2344106137752533,-16.00693130493164,0.5015389919281006,90.139892578125,35.95,2
-0.9787500500679016,-0.1718828678131103,-0.2343978583812713,-18.9815673828125,0.501900851726532,90.13993072509766,35.95,2
-0.9807652235031128,-0.1718800514936447,-0.2343896627426147,-21.169960021972656,0.5021330714225769,90.13995361328124,35.95,2
-0.9820584654808044,-0.1718782484531402,-0.2343844026327133,-20.78305625915528,0.5022820830345154,90.13996887207033,35.95,2
-0.9772906303405762,-0.1718770861625671,-0.2343810349702835,-16.353897094726562,0.5023776888847351,90.13997650146484,35.95,2
-0.9742308855056764,-0.1718763411045074,-0.2343788743019104,-8.503077507019043,0.5024390816688538,90.13998413085938,35.95,2
-0.9778650999069214,-0.1718758642673492,-0.2343774884939193,0.2108491659164428,0.5024784803390503,90.1399917602539,35.95,2
-0.9857950806617736,-0.1718755513429641,-0.2399743646383285,7.35778284072876,0.5015855431556702,90.1399917602539,35.95,2
-0.9908841252326964,-0.1718753576278686,-0.2435661256313324,11.929944038391112,0.5010125041007996,90.1399917602539,35.95,2
-0.9829543828964232,-0.1718752235174179,-0.2402733415365219,14.079509735107422,0.5006447434425354,90.1399917602539,35.95,2
-0.9778655767440796,-0.1718751490116119,-0.2437579929828643,14.642149925231934,0.5004087686538696,90.1399917602539,35.95,2
-0.9801976084709167,-0.1718750894069671,-0.2459942400455474,14.505242347717283,0.5002573132514954,90.1399917602539,35.95,2
-0.9816941618919371,-0.1718750596046447,-0.2418315559625625,13.858500480651855,0.5001600980758667,90.1399917602539,35.95,2
-0.9770568013191224,-0.1718750447034835,-0.2391601949930191,12.426007270812988,0.5000977516174316,90.1399917602539,35.95,2
-0.9796786308288574,-0.1718750298023224,-0.2374458611011505,10.41761302947998,0.5000576972961426,90.1399917602539,35.95,2
-0.9813611507415771,-0.1718750149011612,-0.2363457083702087,8.483877182006836,0.4991137981414795,90.23313903808594,35.95,2
-0.9824408888816832,-0.1718750149011612,-0.2356396913528442,6.6410441398620605,0.4985080659389496,90.29291534423828,35.95,2
-0.9775360226631165,-0.1718750149011612,-0.2351866066455841,4.204518795013428,0.4981193244457245,90.33128356933594,35.95,2
-0.9743883609771729,-0.1718750149011612,-0.2348958402872085,0.9857469201087952,0.4978698492050171,90.35590362548828,35.95,2
-0.9779661297798156,-0.1718750149011612,-0.2347092479467392,-2.3910982608795166,0.4977097511291504,90.3717041015625,35.95,2
-0.9802621603012084,-0.1718750149011612,-0.2345895022153854,-5.6006927490234375,0.49760702252388,90.38184356689452,35.95,2
-0.9817355871200562,-0.1718750149011612,-0.2345126569271087,-9.387227058410645,0.4975410997867584,90.38835144042967,35.95,2
-0.982681155204773,-0.1718750149011612,-0.2344633340835571,-14.722676277160645,0.4974987804889679,90.39252471923828,35.95,2
-0.9832879900932312,-0.1718750149011612,-0.2400294691324234,-21.256336212158203,0.4974716305732727,90.39520263671876,35.93,2
-0.9836774468421936,-0.1718750149011612,-0.2380037158727646,-26.48462677001953,0.4974541962146759,90.39691925048828,35.93,2
-0.978329598903656,-0.1718750149011612,-0.2367036938667297,-26.77674102783203,0.4974430203437805,90.39802551269533,35.93,2
-0.9748976230621338,-0.1718750149011612,-0.2358694225549698,-20.34360313415528,0.4974358379840851,90.39873504638672,35.93,2
-0.9782929420471193,-0.1718750149011612,-0.2409318089485168,-9.419039726257324,0.4974312484264374,90.39918518066406,35.93,2
-0.9804719090461732,-0.1718750149011612,-0.2385827898979187,1.5504634380340576,0.497428297996521,90.39947509765624,35.93,2
-0.976272463798523,-0.1718750149011612,-0.2370753139257431,9.607510566711426,0.4974263906478882,90.39966583251952,35.93,2
-0.9791752696037292,-0.1718750149011612,-0.2417056858539581,14.387558937072754,0.4974251687526703,90.39978790283205,35.93,2
-0.9810380935668944,-0.1718750149011612,-0.244677186012268,16.580970764160156,0.497883677482605,90.39986419677734,35.93,2
-0.9822335839271544,-0.177472785115242,-0.2409863471984863,16.9352970123291,0.4981779158115387,90.39990997314452,35.93,2
-0.9774029850959778,-0.1754673421382904,-0.2386177778244018,16.274206161499023,0.4983667433261871,90.39994049072266,35.93,2
-0.9743030071258544,-0.1741803586483001,-0.2370977699756622,15.180013656616213,0.4984879195690155,90.39996337890624,35.93,2
-0.9779113531112672,-0.1733544468879699,-0.2361223101615905,13.55710220336914,0.4985657036304474,90.39997863769533,35.93,2
-0.980226993560791,-0.1784221976995468,-0.241094097495079,11.07541561126709,0.4986155927181244,90.39998626708984,35.93,2
-0.9761152863502502,-0.1816743910312652,-0.2442847043275833,7.99246072769165,0.4986476302146911,90.39999389648438,35.93,2
-0.9790744185447692,-0.1837614625692367,-0.2463322579860687,5.025206565856934,0.4986681938171386,90.39999389648438,35.93,2
-0.9753755927085876,-0.1795030534267425,-0.2476462572813034,2.368652582168579,0.4991402924060821,90.39999389648438,35.93,2
-0.9730018973350524,-0.1823680251836776,-0.2428917288780212,-0.5900722146034241,0.4994432628154754,90.39999389648438,35.93,2
-0.9770764112472534,-0.1842065900564193,-0.2398405522108078,-4.2729339599609375,0.4996376931667328,90.39999389648438,35.93,2
-0.979691207408905,-0.1853864789009094,-0.2378824800252914,-8.287949562072754,0.49976247549057,90.39999389648438,35.93,2
-0.9813691973686218,-0.1861436665058136,-0.2366258949041366,-12.129205703735352,0.4998425543308258,90.39999389648438,35.93,2
-0.976848304271698,-0.1866295784711837,-0.2358194887638092,-16.081071853637695,0.4998939335346222,90.39999389648438,35.93,2
-0.9795448184013368,-0.1869414150714874,-0.24089977145195,-20.91358184814453,0.4999269247055053,90.39999389648438,35.93,2
-0.9812752604484558,-0.1871415376663208,-0.244159996509552,-26.877286911010746,0.4999480843544006,90.39999389648438,35.93,2
-0.9767879843711852,-0.1872699558734893,-0.2406544536352157,-32.73577117919922,0.4985845386981964,90.47522735595705,35.93,2
-0.9795060753822328,-0.1873523741960525,-0.2384047955274582,-35.52094650268555,0.4977094829082489,90.52351379394533,35.93,2
-0.9812504053115844,-0.1874052584171295,-0.242558866739273,-32.26046371459961,0.4971479177474975,90.55449676513672,35.93,2
-0.9823698401451112,-0.1874392032623291,-0.2396269291639328,-22.89544486999512,0.4967875480651855,90.57437896728516,35.93,2
-0.9774904251098632,-0.1874609887599945,-0.237745389342308,-10.637502670288086,0.496556282043457,90.58714294433594,35.93,2
-0.979956865310669,-0.1874749660491943,-0.2421357035636901,0.8974959254264832,0.4964078664779663,90.59532928466795,35.93,2
-0.9815396666526794,-0.187483936548233,-0.2449531406164169,9.85841464996338,0.4963126182556152,90.6005859375,35.93,2
-0.9769576787948608,-0.1874896883964538,-0.246761217713356,15.7523193359375,0.496251493692398,90.6039581298828,35.93,2
-0.9796149730682372,-0.1874933838844299,-0.2423237562179565,18.7716007232666,0.4971304833889007,90.60612487792967,35.95,2
-0.9813202619552612,-0.1874957531690597,-0.2450738251209259,19.695331573486328,0.4976945519447326,90.60751342773438,35.95,2
-0.9824146628379822,-0.1874972730875015,-0.2468386590480804,19.302921295166016,0.498056560754776,90.60840606689452,35.95,2
-0.9775192141532898,-0.1874982565641403,-0.242373451590538,17.804357528686523,0.4982888698577881,90.60897827148438,35.95,2
-0.9799753427505492,-0.1819011121988296,-0.2395079433917999,15.345149040222168,0.4984379410743713,90.60934448242188,35.95,2
-0.9815515279769896,-0.1839069575071334,-0.2376690208911895,12.48440933227539,0.4985336065292358,90.60958099365234,35.95,2
-0.9825630784034728,-0.185194194316864,-0.2420866936445236,9.742158889770508,0.4985949993133545,90.60973358154295,35.95,2
-0.9832122325897216,-0.1804224848747253,-0.2449216991662979,7.172678470611572,0.498634397983551,90.60983276367188,35.95,2
-0.978031039237976,-0.1773602813482284,-0.2467410415410995,4.549273490905762,0.4986597001552582,90.60989379882812,35.95,2
-0.9747060537338256,-0.175395131111145,-0.2423108071088791,1.6655603647232056,0.4986759424209595,90.60993194580078,35.95,2
-0.9725722670555116,-0.1741340160369873,-0.2394677400588989,-1.6109057664871216,0.4986863434314728,90.60995483398438,35.95,2
-0.9768006801605223,-0.173324704170227,-0.237643226981163,-5.271973609924316,0.4986930191516876,90.60997009277344,35.95,2
-0.9795142412185668,-0.1728053390979766,-0.2364723533391952,-9.06163215637207,0.4986973106861114,90.60997772216795,35.95,2
-0.9812556505203248,-0.1724720448255539,-0.2357209622859954,-12.70810890197754,0.4987000524997711,90.6099853515625,35.95,2
-0.9823731780052184,-0.1722581535577774,-0.2352387607097625,-16.334352493286133,0.498701810836792,90.60999298095705,35.95,2
-0.983090341091156,-0.1721208840608596,-0.2405270934104919,-20.556650161743164,0.4987029433250427,90.60999298095705,35.95,2
-0.9835506081581116,-0.1720327883958816,-0.2439208328723907,-25.892305374145508,0.4982444047927856,90.60999298095705,35.95,2
-0.9782481789588928,-0.1719762533903122,-0.2405009716749191,-31.691669464111328,0.4979501366615295,90.60999298095705,35.95,2
-0.9804431796073914,-0.1719399839639663,-0.2383062988519668,-35.42411422729492,0.4977612793445587,90.60999298095705,35.95,2
-0.9818517565727234,-0.1719167083501815,-0.2424956560134887,-33.756744384765625,0.4976400732994079,90.60999298095705,35.95,2
-0.982755720615387,-0.1719017624855041,-0.2395863682031631,-25.44991683959961,0.4975622892379761,90.60999298095705,35.95,2
-0.9833358526229858,-0.1718921810388565,-0.2377193570137024,-13.000496864318848,0.4975124001502991,90.60999298095705,35.95,2
-0.978110373020172,-0.1718860268592834,-0.2421189844608307,-0.5186256766319275,0.4974803626537323,90.60999298095705,35.95,2
-0.9803547263145448,-0.171882078051567,-0.2449424117803573,9.440442085266112,0.4974597990512848,90.60999298095705,35.95,2
-0.9817950129508972,-0.1718795448541641,-0.2467543333768844,16.333160400390625,0.4965287744998932,90.71747589111328,35.95,2
-0.9827193021774292,-0.171877920627594,-0.2423193454742431,20.308687210083008,0.4959312975406647,90.78645324707033,35.95,2
-0.983312487602234,-0.1718768775463104,-0.2394732236862182,21.78159523010254,0.4955478608608246,90.83071899414062,35.95,2
-0.9836931228637696,-0.1718762069940567,-0.2376467436552047,21.623390197753903,0.4953017830848694,90.85912322998048,35.95,2
-0.9839373826980592,-0.171875774860382,-0.2364746183156967,20.611888885498047,0.495143860578537,90.87734985351562,35.95,2
-0.9840941429138184,-0.1718754917383194,-0.2357224076986313,18.870080947875977,0.4950425326824188,90.88904571533205,35.95,2
-0.9841947555541992,-0.171875312924385,-0.2352396845817566,16.201032638549805,0.4949775040149688,90.89655303955078,35.95,2
-0.9786615371704102,-0.1718751937150955,-0.2349299043416977,12.74705982208252,0.4949357807636261,90.90137481689452,35.95,2
-0.9807084202766418,-0.1718751192092895,-0.2347311079502105,9.029399871826172,0.4962861239910126,90.90446472167967,35.97,2
-0.982021987438202,-0.1718750745058059,-0.2346035242080688,5.386135578155518,0.497152715921402,90.9064483642578,35.97,2
-0.9828649759292604,-0.1718750447034835,-0.2289238721132278,1.6903020143508911,0.4977088272571563,90.90772247314452,35.97,2
-0.9834059476852416,-0.1718750298023224,-0.2308767735958099,-2.340203762054444,0.498065710067749,90.90853881835938,35.97,2
-0.9837531447410583,-0.1718750149011612,-0.2321300357580185,-6.728785991668701,0.4982947409152984,90.90906524658205,35.97,2
-0.9839759469032288,-0.1718750149011612,-0.2329343110322952,-11.203857421875,0.4984417259693146,90.9094009399414,35.97,2
-0.9841189384460448,-0.1718750149011612,-0.2334504425525665,-15.451410293579102,0.4985360503196716,90.90961456298828,35.97,2
-0.9842106699943542,-0.1718750149011612,-0.2337816655635833,-19.70700454711914,0.498596578836441,90.90975189208984,35.97,2
-0.9842695593833924,-0.1718750149011612,-0.2395920008420944,-24.841909408569336,0.4986354112625122,90.90984344482422,35.97,2
-0.98430734872818,-0.1718750149011612,-0.2377229779958725,-30.888612747192383,0.4986603558063507,90.90990447998048,35.97,2
-0.9843316078186036,-0.1718750149011612,-0.2365235388278961,-35.127296447753906,0.4986763596534729,90.90994262695312,35.97,2
-0.98434716463089,-0.1718750149011612,-0.2357538044452667,-33.129188537597656,0.4986866116523742,90.90996551513672,35.97,2
-0.9843571186065674,-0.1718750149011612,-0.2352598309516906,-23.00511932373047,0.4986931979656219,90.90998077392578,35.97,2
-0.9843634963035583,-0.1718750149011612,-0.2349428385496139,-7.859737873077393,0.498697429895401,90.90998840332033,35.97,2
-0.984367609024048,-0.1718750149011612,-0.2347394078969955,6.943370342254639,0.4987001419067383,90.90999603271484,35.97,2
-0.984370231628418,-0.1718750149011612,-0.2346088588237762,17.890514373779297,0.4987018704414367,90.90999603271484,35.97,2
-0.9843719601631165,-0.1718750149011612,-0.2345250844955444,24.32463455200196,0.4968665540218353,90.90999603271484,35.97,2
-0.9843730330467224,-0.1718750149011612,-0.234471321105957,27.14962577819824,0.4956887662410736,90.90999603271484,35.97,2
-0.9843737483024596,-0.1718750149011612,-0.234436810016632,27.679981231689453,0.4949329197406769,90.90999603271484,35.97,2
-0.984374225139618,-0.1718750149011612,-0.234414666891098,26.895402908325195,0.4944478571414947,90.90999603271484,35.97,2
-0.9843745231628418,-0.1718750149011612,-0.2344004511833191,25.2454833984375,0.4941365718841553,90.90999603271484,35.97,2
-0.984374701976776,-0.1718750149011612,-0.2343913316726684,22.889766693115234,0.4939368069171905,90.90999603271484,35.97,2
-0.9843748211860656,-0.1718750149011612,-0.2343854755163192,19.837495803833008,0.4938086271286011,90.90999603271484,35.97,2
-0.9843748807907104,-0.1718750149011612,-0.2343817204236984,16.169836044311523,0.493726372718811,90.90999603271484,35.97,2
-0.9843749403953552,-0.1718750149011612,-0.234379306435585,12.315043449401855,0.492296427488327,90.9852294921875,35.97,2
-0.9843749403953552,-0.1718750149011612,-0.2399755418300628,8.601688385009766,0.4913787841796875,91.03351593017578,35.97,2
-0.9843749403953552,-0.1718750149011612,-0.2435668855905532,4.681745529174805,0.4907898902893066,91.0644989013672,35.97,2
-0.9843749403953552,-0.1718750149011612,-0.2402738183736801,0.0309369582682847,0.4904119670391083,91.08438110351562,35.97,2
-0.9843749403953552,-0.1718750149011612,-0.2381605207920074,-5.235785007476807,0.4901694357395172,91.0971450805664,35.97,2
-0.9843749403953552,-0.1718750149011612,-0.2368043363094329,-10.58608055114746,0.4900138080120086,91.10533142089844,35.97,2
-0.9843749403953552,-0.1718750149011612,-0.2359340041875839,-15.814462661743164,0.4899139404296875,91.11058807373048,35.97,2
-0.9843749403953552,-0.1718750149011612,-0.2353754788637161,-21.17239761352539,0.4898498356342315,91.11396026611328,35.97,2
-0.9843749403953552,-0.177472785115242,-0.2350170463323593,-27.14369201660156,0.4921040534973144,91.11612701416016,35.99,2
-0.9843749403953552,-0.1810651123523712,-0.234787032008171,-33.85253143310547,0.4935506880283355,91.11751556396484,35.99,2
-0.9843749403953552,-0.1833704560995102,-0.2346394211053848,-39.60882186889648,0.4944790303707123,91.118408203125,35.99,2
-0.9843749403953552,-0.1848499029874801,-0.2401424646377563,-40.45831298828125,0.4950748085975647,91.11898040771484,35.99,2
-0.9787771701812744,-0.1857993155717849,-0.2380762249231338,-33.254356384277344,0.4954571425914764,91.11934661865234,35.99,2
-0.9751848578453064,-0.186408594250679,-0.2367502301931381,-19.17685508728028,0.4957025051116943,91.1195831298828,35.99,2
-0.9784772992134094,-0.1867996007204055,-0.2358992844820022,-2.798444986343384,0.4958599507808685,91.11973571777344,35.99,2
-0.9805902242660522,-0.1870505213737487,-0.2353532016277313,11.832237243652344,0.4959610104560852,91.11983489990234,35.99,2
-0.9819461703300476,-0.1872115433216095,-0.2350027561187744,22.82994270324707,0.4951076507568359,91.1198959350586,35.99,2
-0.9828163385391236,-0.1873148828744888,-0.2347778528928756,29.601030349731445,0.4945600032806396,91.11993408203124,35.99,2
-0.9833747148513794,-0.1873812079429626,-0.2346335351467132,32.44880676269531,0.4942085444927215,91.11995697021484,35.99,2
-0.9781352877616882,-0.1874237656593322,-0.2345409095287323,32.68568420410156,0.4939830005168915,91.1199722290039,35.99,2
-0.9803707003593444,-0.1874510794878006,-0.23448146879673,31.65544891357422,0.4938382506370544,91.11997985839844,35.99,2
-0.9818052649497986,-0.1874686032533645,-0.2344433218240738,29.686662673950195,0.4937453866004944,91.11998748779295,35.99,2
-0.9827259182929992,-0.1874798536300659,-0.2344188392162323,26.55310440063477,0.493685781955719,91.1199951171875,35.99,2
-0.9833167195320128,-0.1874870657920837,-0.2344031333923339,22.66489791870117,0.4936475157737732,91.1199951171875,35.99,2
-0.9836958646774292,-0.187491700053215,-0.2343930602073669,18.836952209472656,0.4922458231449127,91.1199951171875,35.99,2
-0.9839391708374025,-0.1818968951702118,-0.2343865931034088,15.051261901855469,0.4913462996482849,91.1199951171875,35.99,2
-0.984095335006714,-0.1839042454957962,-0.2343824356794357,10.590503692626951,0.4907690286636352,91.1199951171875,35.99,2
-0.9841955304145812,-0.1851924508810043,-0.234379768371582,5.506648063659668,0.4903985857963562,91.1199951171875,35.99,2
-0.984259843826294,-0.1860191524028778,-0.2343780547380447,0.8218397498130798,0.4901608526706695,91.1199951171875,35.99,2
-0.9787033200263976,-0.1865496784448623,-0.2343769669532776,-2.965601682662964,0.4900082945823669,91.1199951171875,35.99,2
-0.9807352423667908,-0.1812923699617386,-0.2399740368127823,-6.632152080535889,0.4899103939533233,91.1199951171875,35.99,2
-0.9764414429664612,-0.1779185235500335,-0.2379681468009948,-11.10601806640625,0.4898475706577301,91.1199951171875,35.99,2
-0.9792836904525756,-0.1757533848285675,-0.2366808801889419,-16.20903205871582,0.4907254576683044,91.26688385009766,35.99,2
-0.9811077117919922,-0.1743639260530471,-0.2358547747135162,-20.984952926635746,0.4912888407707214,91.36114501953124,35.99,2
-0.9822782278060912,-0.1734722554683685,-0.2353246361017227,-25.228530883789062,0.4916503727436065,91.42163848876952,35.99,2
-0.9830294251441956,-0.1729000210762024,-0.2349844276905059,-30.13718605041504,0.4918823838233948,91.46045684814452,35.99,2
-0.9835115075111388,-0.1725327968597412,-0.2347660958766937,-36.85552215576172,0.4920312762260437,91.4853744506836,35.99,2
-0.9838208556175232,-0.1722971349954605,-0.2346259802579879,-44.17991256713867,0.4921268224716186,91.50135803222656,35.99,2
-0.98401939868927,-0.1721459031105041,-0.2345360666513443,-47.94522857666016,0.4921881556510925,91.5116195678711,35.99,2
-0.984146773815155,-0.1720488518476486,-0.2344783693552017,-43.59769058227539,0.4922275245189667,91.51820373535156,35.99,2
-0.9842285513877868,-0.1719865649938583,-0.234441339969635,-30.25700569152832,0.4917938411235809,91.52243041992188,35.99,2
-0.9842810034751892,-0.1719466000795364,-0.2344175726175308,-11.936786651611328,0.4915155470371246,91.52513885498048,35.99,2
-0.9843146800994872,-0.1719209551811218,-0.2344023138284683,5.674004554748535,0.4913369417190552,91.5268783569336,35.99,2
-0.9787384867668152,-0.1719044893980026,-0.2343925237655639,19.03915977478028,0.4912223219871521,91.52799987792967,35.99,2
-0.9807578325271606,-0.1718939244747162,-0.2399840205907821,27.45851325988769,0.4911487698554992,91.52871704101562,35.99,2
-0.9820536971092224,-0.1718871444463729,-0.243572324514389,31.675737380981445,0.4911015629768371,91.5291748046875,35.99,2
-0.977287530899048,-0.1718827933073043,-0.2402773201465606,32.88459396362305,0.4910712838172912,91.52947235107422,35.99,2
-0.9798266887664796,-0.1718800067901611,-0.2381627708673477,32.2846565246582,0.4910518527030945,91.5296630859375,35.99,2
-0.9814561605453492,-0.1718782186508178,-0.2424035519361496,30.617090225219727,0.489662230014801,91.52978515625,35.99,2
-0.9825018644332886,-0.1718770712614059,-0.2395272552967071,28.16048622131348,0.488770455121994,91.52986145019533,35.99,2
-0.9831729531288148,-0.1718763262033462,-0.2376814186573028,25.22976493835449,0.4881981611251831,91.5299072265625,35.99,2
-0.978005826473236,-0.171875849366188,-0.2364968657493591,22.15599822998047,0.4878308773040771,91.52993774414062,35.99,2
-0.9802876114845276,-0.1718755513429641,-0.241334468126297,18.879375457763672,0.4875951707363128,91.52996063232422,35.99,2
-0.9817519783973694,-0.1718753576278686,-0.2388411909341812,15.114312171936035,0.4874439239501953,91.52997589111328,35.99,2
-0.9770939350128174,-0.1718752235174179,-0.2372411489486694,10.953396797180176,0.4873468577861786,91.5299835205078,35.99,2
-0.9797024130821228,-0.1718751490116119,-0.2362143248319625,6.868043899536133,0.4872845709323883,91.52999114990234,35.99,2
-0.9813764095306396,-0.1718750894069671,-0.2355553656816482,2.999562978744507,0.4872446060180664,91.52999114990234,35.99,2
-0.9824506640434264,-0.1718750596046447,-0.235132485628128,-1.1023296117782593,0.4872189462184906,91.52999114990234,35.99,2
-0.977542281150818,-0.1718750447034835,-0.2348611056804657,-5.755260944366455,0.4872024953365326,91.52999114990234,35.99,2
-0.9799901247024536,-0.1662772595882415,-0.2346869558095932,-10.482376098632812,0.4871919155120849,91.52999114990234,35.99,2
-0.9815610647201538,-0.1682826876640319,-0.2401729673147201,-14.673138618469238,0.4871851503849029,91.52999114990234,35.99,2
-0.98256915807724,-0.169569656252861,-0.2380958050489425,-18.698829650878903,0.4871807992458343,91.52999114990234,35.99,2
-0.983216106891632,-0.1703955680131912,-0.2423605769872665,-23.66469955444336,0.4871779978275299,91.52999114990234,35.99,2
-0.9836313128471376,-0.1709255874156952,-0.2450974583625793,-29.65666389465332,0.4871762096881866,91.52999114990234,35.99,2
-0.9838977456092834,-0.1712657213211059,-0.2412560582160949,-34.1683235168457,0.4885522127151489,91.80943298339844,35.99,2
-0.9784709215164183,-0.1714839935302734,-0.2387908697128296,-32.954429626464844,0.4894352555274963,91.98876190185548,35.99,2
-0.9805861115455629,-0.1716240793466568,-0.2372088581323623,-23.73129272460937,0.4900019466876983,92.10384368896484,35.99,2
-0.9819434881210328,-0.1717139780521392,-0.2417913824319839,-8.86672306060791,0.490365594625473,92.17769622802734,35.99,2
-0.982814610004425,-0.1717716604471206,-0.2391344010829925,6.479856967926025,0.490598976612091,92.22509765625,35.99,2
-0.9777758717536926,-0.1718086898326873,-0.2374293059110641,18.31673812866211,0.4907487332820892,92.2555160522461,35.99,2
-0.9801400303840636,-0.1718324422836303,-0.2419328540563583,25.38274574279785,0.4908448457717895,92.27503204345705,35.99,2
-0.9816572666168212,-0.1718476861715316,-0.2448229640722274,28.24782371520996,0.4909065365791321,92.28755950927734,35.99,2
-0.9770331382751464,-0.171857476234436,-0.2410798966884613,28.320255279541016,0.490027904510498,92.29560089111328,35.99,2
-0.9740656614303588,-0.1718637496232986,-0.2386778146028518,27.06984519958496,0.4894640445709228,92.3007583618164,35.99,2
-0.977759063243866,-0.1718677729368209,-0.2371363043785095,25.292943954467773,0.4891021847724914,92.30406951904295,35.99,2
-0.9801293015480042,-0.1718703657388687,-0.2361470460891723,23.049196243286133,0.4888699650764465,92.30619049072266,35.99,2
-0.9816503524780272,-0.1718720197677612,-0.2355121970176696,20.23716163635254,0.488720953464508,92.30755615234376,35.99,2
-0.982626497745514,-0.1718730926513672,-0.2351047843694687,16.967287063598633,0.4886253178119659,92.30843353271484,35.99,2
-0.9832528829574584,-0.1718737781047821,-0.2348433285951614,13.40001392364502,0.4885639548301697,92.30899047851562,35.99,2
-0.9836549162864684,-0.1718742102384567,-0.2346755415201187,9.54874038696289,0.4885245561599731,92.3093490600586,35.99,2
-0.9839128851890564,-0.1718744933605194,-0.2345678657293319,5.314587116241455,0.4871221482753753,92.30957794189452,35.99,2
-0.9840784668922424,-0.1718746721744537,-0.2344987690448761,0.5660310387611389,0.4862221479415893,92.30973052978516,35.99,2
-0.9841846823692322,-0.1718747913837433,-0.2344544231891632,-4.713263511657715,0.4856445789337158,92.30982971191406,35.99,2
-0.9842528700828552,-0.1718748658895492,-0.2344259619712829,-10.25075626373291,0.48527392745018,92.30989074707033,35.99,2
-0.9842966198921204,-0.1718749105930328,-0.2344077080488205,-15.617183685302734,0.4850360751152038,92.30992889404295,35.99,2
-0.9843246936798096,-0.1718749403953552,-0.2343959957361221,-20.75560569763184,0.4848834276199341,92.30995178222656,35.99,2
-0.9843426942825316,-0.1718749552965164,-0.2343884706497192,-26.28867721557617,0.4847854673862457,92.30996704101562,35.99,2
-0.9843542575836182,-0.1718749701976776,-0.2343836426734924,-32.977821350097656,0.4847226142883301,92.30997467041016,35.99,2
-0.9843617081642152,-0.1718749850988388,-0.2343805432319641,-40.42319488525391,0.4851411879062652,92.30998229980467,35.99,2
-0.9843664765357972,-0.1718749850988388,-0.2343785613775253,-45.78874969482422,0.4854098260402679,92.30998992919922,35.99,2
-0.9843695163726808,-0.1718749850988388,-0.2343772798776626,-44.75383377075195,0.4855822026729584,92.30998992919922,35.99,2
-0.9843714833259584,-0.1718749850988388,-0.234376460313797,-35.276546478271484,0.4856928288936615,92.30998992919922,35.99,2
-0.9843727350234984,-0.1718749850988388,-0.2343759387731552,-19.92644691467285,0.485763818025589,92.30998992919922,35.99,2
-0.9843735694885254,-0.1718749850988388,-0.2343755960464477,-3.41562819480896,0.4858093857765198,92.30998992919922,35.99,2
-0.9843741059303284,-0.1718749850988388,-0.234375387430191,10.913107872009276,0.4858386218547821,92.30998992919922,35.99,2
-0.9843744039535522,-0.1718749850988388,-0.2343752533197403,21.584487915039062,0.4858573973178863,92.30998992919922,35.99,2
-0.9843746423721312,-0.1774727702140808,-0.2343751639127731,28.19631576538086,0.4863287210464477,92.55718994140624,35.99,2
-0.9843747615814208,-0.1754673272371292,-0.2343751043081283,31.382545471191406,0.4866311848163605,92.71582794189452,35.99,2
-0.9843748211860656,-0.1741803437471389,-0.2343750596046447,32.30952072143555,0.4868252873420715,92.81763458251952,35.99,2
-0.9843748807907104,-0.1789522171020507,-0.2343750447034835,31.63616752624512,0.4869498610496521,92.88296508789062,35.99,2
-0.9843749403953552,-0.1764167547225952,-0.2343750298023224,29.455751419067383,0.4870297908782959,92.92489624023438,35.99,2
-0.9843749403953552,-0.180387407541275,-0.2343750149011612,26.14339065551757,0.4870810806751251,92.9518051147461,35.99,2
-0.9843749403953552,-0.1829355508089065,-0.2343750149011612,22.52735710144043,0.4871140122413635,92.96907043457033,35.99,2
-0.9843749403953552,-0.1845708042383194,-0.2343750149011612,19.017379760742188,0.4871351420879364,92.98014831542967,35.99,2
-0.9843749403953552,-0.1800224334001541,-0.2343750149011612,15.174214363098145,0.4857715666294098,92.9872589111328,36.0,2
-0.9843749403953552,-0.1827013343572616,-0.2343750149011612,10.565512657165527,0.4848965108394623,92.9918212890625,36.0,2
-0.9843749403953552,-0.184420496225357,-0.239972785115242,5.537184238433838,0.4843349456787109,92.9947509765625,36.0,2
-0.9787771701812744,-0.1855237483978271,-0.2435651123523712,0.6515598893165588,0.4839745461940765,92.9966278076172,36.0,2
-0.9751848578453064,-0.1862317621707916,-0.2402726858854293,-4.167563438415527,0.483743280172348,92.99783325195312,36.0,2
-0.9728795289993286,-0.1810883432626724,-0.2381597906351089,-9.467065811157228,0.4835948646068573,92.99861145019533,36.0,2
-0.9714000821113586,-0.1777875870466232,-0.2368038594722747,-15.386531829833984,0.4834996163845062,92.99910736083984,36.0,2
-0.976048469543457,-0.1756693571805954,-0.2415314763784408,-21.31693649291992,0.483438491821289,92.99942779541016,36.0,2
-0.979031503200531,-0.1743099987506866,-0.2389676123857498,-26.645322799682617,0.4833992719650268,92.9996337890625,36.0,2
-0.9753480553627014,-0.1734376400709152,-0.2373222708702087,-31.813072204589844,0.4833740890026092,92.99976348876952,36.0,2
-0.9785820245742798,-0.1728778183460235,-0.2362663894891739,-38.17820739746094,0.4833579361438751,92.99984741210938,36.0,2
-0.980657398700714,-0.1725185513496399,-0.2411865592002868,-45.852725982666016,0.4833475649356842,92.9999008178711,36.0,2
-0.9819892644882202,-0.1778857707977295,-0.2387462705373764,-51.53013229370117,0.4833409190177917,92.99993896484376,36.0,2
-0.9828439950942992,-0.1757323592901229,-0.2371802330017089,-49.91075897216797,0.4833366572856903,92.99996185302734,36.0,2
-0.9833924770355223,-0.1743504256010055,-0.2361752390861511,-38.52864456176758,0.4833339154720306,92.9999771118164,36.0,2
-0.983744502067566,-0.1734635829925537,-0.235530287027359,-20.465784072875977,0.4833321571350097,92.99998474121094,36.0,2
-0.9839704036712646,-0.1728944629430771,-0.2351163923740387,-1.493972659111023,0.4842488765716553,92.99999237060548,36.0,2
-0.9841153621673584,-0.1725292354822158,-0.2348507791757583,14.360346794128418,0.4848371744155884,92.99999237060548,36.0,2
-0.9842084050178528,-0.1722948551177978,-0.2346803247928619,25.83879470825196,0.4852147102355957,92.99999237060548,36.0,2
-0.978670299053192,-0.1721444427967071,-0.2345709353685379,33.00796127319336,0.4854570031166076,92.99999237060548,36.0,2
-0.9807140231132508,-0.1720479130744934,-0.2345007359981537,36.51961517333984,0.4856124818325043,92.99999237060548,36.0,2
-0.9820256233215332,-0.1719859689474105,-0.2344556897878646,37.465553283691406,0.4857122600078583,92.99999237060548,36.0,2
-0.9828673005104064,-0.1719462126493454,-0.2344267815351486,36.7076416015625,0.4857763051986694,92.99999237060548,36.0,2
-0.9834074378013612,-0.1719207018613815,-0.2344082295894622,34.508785247802734,0.485817402601242,92.99999237060548,36.0,2
-0.9837540984153748,-0.1719043254852295,-0.2343963235616684,31.181007385253903,0.4858437776565552,93.25077056884766,36.0,2
-0.9839765429496764,-0.1718938201665878,-0.2343886792659759,27.45118522644043,0.4858607053756714,93.41171264648438,36.0,2
-0.9841192960739136,-0.1718870848417282,-0.2343837767839431,23.72488212585449,0.4858715534210205,93.5149917602539,36.0,2
-0.9842109084129332,-0.1718827486038208,-0.2343806326389312,19.610336303710938,0.4858785271644592,93.58126831054688,36.0,2
-0.984269678592682,-0.1718799769878387,-0.2399763911962509,14.727165222167969,0.4858829975128174,93.6238021850586,36.0,2
-0.9843074083328248,-0.1718781888484954,-0.2379696518182754,9.458211898803713,0.4858858585357666,93.6511001586914,36.0,2
-0.9787338376045228,-0.1718770414590835,-0.2366818338632583,4.339352130889893,0.4858877062797546,93.66861724853516,36.0,2
-0.980754852294922,-0.171876311302185,-0.2358554005622863,-0.8264896273612976,0.4858888983726501,93.67986297607422,36.0,2
-0.9820517897605896,-0.166278064250946,-0.2353250384330749,-6.559867858886719,0.4840535819530487,93.68707275390624,35.99,2
-0.9828841090202332,-0.1626854389905929,-0.2349846810102462,-12.70761489868164,0.482875794172287,93.69170379638672,35.99,2
-0.9834182262420654,-0.1659776717424392,-0.2347662597894668,-18.573144912719727,0.4821199476718902,93.69467163085938,35.99,2
-0.9837610125541688,-0.1680904328823089,-0.2346260845661163,-23.9709587097168,0.4816348850727081,93.6965789794922,35.99,2
-0.98398095369339,-0.1694462895393371,-0.240133911371231,-29.78513526916504,0.4813235998153686,93.6977996826172,35.99,2
-0.984122097492218,-0.1703163981437683,-0.2380707412958145,-36.93769836425781,0.4811238348484039,93.6985855102539,35.99,2
-0.9842126965522766,-0.1708747744560241,-0.2367467135190963,-44.20398712158203,0.480995625257492,93.69908905029295,35.99,2
-0.9842708706855774,-0.1712331175804138,-0.235897034406662,-47.355224609375,0.480913370847702,93.6994171142578,35.99,2
-0.9843081831932068,-0.1714630722999572,-0.2353517562150955,-42.10488128662109,0.480860561132431,93.69962310791016,35.99,2
-0.9843321442604064,-0.1716106534004211,-0.2350018322467804,-28.453519821166992,0.4808266758918762,93.69976043701172,35.99,2
-0.9843475222587584,-0.171705350279808,-0.2347772717475891,-11.015863418579102,0.4808049499988556,93.69984436035156,35.99,2
-0.9843573570251464,-0.1717661321163177,-0.2346331477165222,5.0290117263793945,0.4807910025119781,93.69989776611328,35.99,2
-0.9843636751174928,-0.171805128455162,-0.2345406711101532,17.052490234375,0.4807820320129394,93.69993591308594,35.99,2
-0.9843677282333374,-0.1718301624059677,-0.2344813197851181,24.628746032714844,0.4807762801647186,93.69995880126952,35.99,2
-0.9843703508377076,-0.1718462258577346,-0.2344432324171066,28.254762649536133,0.4807725846767425,93.6999740600586,35.99,2
-0.9843720197677612,-0.1718565374612808,-0.2344187945127487,29.11287498474121,0.4807702302932739,93.69998168945312,35.99,2
-0.9843730926513672,-0.1718631535768509,-0.2344031035900116,28.81807327270508,0.4821458458900451,93.69998931884766,35.99,2
-0.9843737483024596,-0.1718674004077911,-0.2343930304050445,28.34944534301757,0.4830286502838135,93.69998931884766,35.99,2
-0.984374225139618,-0.1718701273202896,-0.2343865782022476,27.42175674438477,0.4835951924324035,93.69998931884766,35.99,2
-0.9843745231628418,-0.1662741005420684,-0.2343824356794357,25.32532119750977,0.483958750963211,93.69998931884766,35.99,2
-0.984374701976776,-0.1626828908920288,-0.234379768371582,22.077600479125977,0.4841920733451843,93.69998931884766,35.99,2
-0.9843748211860656,-0.1659760326147079,-0.2343780547380447,18.252269744873047,0.4843418002128601,93.69998931884766,35.99,2
-0.9843748807907104,-0.1680893748998642,-0.2343769669532776,13.96311378479004,0.484437882900238,93.69998931884766,35.99,2
-0.9843749403953552,-0.1694456040859222,-0.2399740368127823,8.788759231567383,0.4844995439052582,93.69998931884766,35.99,2
-0.9843749403953552,-0.1703159511089325,-0.2379681468009948,2.6164257526397705,0.483161985874176,93.94718933105467,35.99,2
-0.9843749403953552,-0.1708744913339615,-0.2366808801889419,-3.992146015167236,0.4823036193847656,94.10582733154295,35.99,2
-0.9843749403953552,-0.1712329238653183,-0.2358547747135162,-10.350448608398438,0.4817527532577514,94.20763397216795,35.99,2
-0.9843749403953552,-0.1714629530906677,-0.2353246361017227,-16.447832107543945,0.4813992381095886,94.27296447753906,35.99,2
-0.9843749403953552,-0.1716105788946151,-0.2349844276905059,-23.148025512695312,0.4811723828315735,94.3148956298828,35.99,2
-0.9843749403953552,-0.1717053055763244,-0.2347660958766937,-31.463891983032227,0.4810267984867096,94.34180450439452,35.99,2
-0.9843749403953552,-0.1717661023139953,-0.2402237504720688,-40.90975189208984,0.4809333682060241,94.35906982421876,35.99,2
-0.9843749403953552,-0.1718051135540008,-0.2381283938884735,-47.609256744384766,0.4808734059333801,94.37014770507812,35.99,2
-0.9843749403953552,-0.1718301475048065,-0.2367837131023407,-45.63910675048828,0.4803760051727295,94.37725830078124,35.99,2
-0.9843749403953552,-0.1718462109565735,-0.2359207719564438,-32.806640625,0.4800567924976349,94.38182067871094,35.99,2
-0.9843749403953552,-0.1718565225601196,-0.2353669852018356,-13.75570583343506,0.4798519313335418,94.38475036621094,35.99,2
-0.9843749403953552,-0.1718631386756897,-0.2350115925073623,4.685855865478516,0.4797204732894897,94.38662719726562,35.99,2
-0.9843749403953552,-0.1718673855066299,-0.2347835302352905,19.085712432861328,0.4796361029148102,94.38783264160156,35.99,2
-0.9843749403953552,-0.1718701124191284,-0.2346371710300445,28.89992332458496,0.4795819818973541,94.38861083984376,35.99,2
-0.9843749403953552,-0.1718718707561493,-0.2345432490110397,34.16275405883789,0.4795472323894501,94.38910675048828,35.99,2
-0.9843749403953552,-0.1718729883432388,-0.2344829738140106,35.910064697265625,0.4795249402523041,94.3894271850586,35.99,2
-0.9843749403953552,-0.1718737035989761,-0.2344442903995514,36.1142463684082,0.4799695611000061,94.38963317871094,35.99,2
-0.9843749403953552,-0.1718741655349731,-0.2344194650650024,35.661319732666016,0.4802548885345459,94.38976287841795,35.99,2
-0.9843749403953552,-0.171874463558197,-0.2344035357236862,34.00211334228516,0.4804379940032959,94.3898468017578,35.99,2
-0.9843749403953552,-0.1718746572732925,-0.2343933135271072,31.060062408447266,0.4805555045604706,94.38990020751952,35.99,2
-0.9843749403953552,-0.1718747764825821,-0.2343867570161819,27.85005187988281,0.4806309044361114,94.3899383544922,35.99,2
-0.9843749403953552,-0.171874850988388,-0.2343825399875641,24.8836612701416,0.480679303407669,94.38996124267578,35.99,2
-0.9843749403953552,-0.1718749105930328,-0.234379842877388,21.314104080200195,0.480710357427597,94.38997650146484,35.99,2
-0.9843749403953552,-0.1718749403953552,-0.2343781143426895,16.300609588623047,0.4807302951812744,94.38998413085938,35.99,2
-0.9843749403953552,-0.1718749552965164,-0.2343769967555999,10.364063262939451,0.4807430803775787,94.3899917602539,35.99,2
-0.9843749403953552,-0.1774727404117584,-0.2343762814998626,4.612573623657227,0.4807513058185577,94.3899917602539,35.99,2
-0.9843749403953552,-0.1810650825500488,-0.2399735897779464,-0.8410283923149109,0.4807565808296203,94.3899917602539,35.99,2
-0.9787771701812744,-0.1777726709842682,-0.237967848777771,-6.805648326873779,0.4807599484920501,94.3899917602539,35.99,2
-0.9751848578453064,-0.1756597906351089,-0.2366806864738464,-13.456467628479004,0.4807621240615845,94.3899917602539,35.99,2
-0.9784772992134094,-0.1743038594722747,-0.2358546555042266,-19.86696052551269,0.4807635247707367,94.3899917602539,35.99,2
-0.9805902242660522,-0.17343370616436,-0.2353245615959167,-25.413875579833984,0.4807644188404083,94.3899917602539,35.99,2
-0.9819461703300476,-0.1728752851486206,-0.2349843680858612,-31.01921844482422,0.4807649850845337,94.3899917602539,35.99,2
-0.9828163385391236,-0.1725169271230697,-0.2347660511732101,-38.38885498046875,0.4789292812347412,94.8915557861328,35.99,2
-0.9833747148513794,-0.1722869575023651,-0.2346259504556656,-47.69679641723633,0.477751225233078,95.21343231201172,35.99,2
-0.983733057975769,-0.1721393764019012,-0.2345360517501831,-55.454219818115234,0.4769952297210693,95.41999053955078,35.99,2
-0.9839630126953124,-0.1720446646213531,-0.2344783544540405,-55.3738899230957,0.47651007771492,95.55255126953124,35.99,2
-0.9841105937957764,-0.1719838827848434,-0.2344413250684738,-43.71837615966797,0.4761987328529358,95.63761901855467,35.99,2
-0.9842053055763244,-0.1719448715448379,-0.2344175577163696,-23.846410751342773,0.4759989380836487,95.69220733642578,35.99,2
-0.9842661023139954,-0.1719198375940323,-0.2344023138284683,-3.237138271331787,0.4758706986904144,95.72724151611328,35.99,2
-0.9843051433563232,-0.1719037741422653,-0.2343925237655639,13.256013870239258,0.475788414478302,95.74972534179688,35.99,2
-0.9843301773071288,-0.1718934625387191,-0.2343862503767013,24.911561965942383,0.475735604763031,95.76415252685548,35.99,2
-0.9843462109565736,-0.1718868464231491,-0.234382227063179,32.06898880004883,0.4757017195224762,95.7734146118164,35.99,2
-0.9843565225601196,-0.1718825995922088,-0.2343796342611313,35.24709701538086,0.4756799638271332,95.77935791015624,35.99,2
-0.9843631386756896,-0.1718798726797104,-0.2399757504463195,36.05063629150391,0.4756660163402557,95.78317260742188,35.99,2
-0.9843673706054688,-0.1718781292438507,-0.237969234585762,35.94651412963867,0.475657045841217,95.7856216430664,35.99,2
-0.9843701124191284,-0.1718770116567611,-0.2366815656423568,34.86582565307617,0.4756512939929962,95.78719329833984,35.99,2
-0.9843718409538268,-0.1718762964010238,-0.235855221748352,32.45624923706055,0.4756475985050201,95.78820037841795,35.99,2
-0.9843729734420776,-0.1718758344650268,-0.2353249192237854,29.519880294799805,0.4756452441215515,95.78884887695312,35.99,2
-0.9843736886978148,-0.1718755364418029,-0.2349846065044403,26.965545654296875,0.4761026501655578,95.7892608642578,35.99,2
-0.9843741655349731,-0.1718753427267074,-0.2347662150859832,24.37335586547852,0.4763962030410766,95.7895278930664,35.99,2
-0.9787766933441162,-0.1718752235174179,-0.2346260547637939,20.542381286621094,0.4765845835208893,95.7896957397461,35.99,2
-0.9751845598220824,-0.1718751490116119,-0.2345361113548278,15.142586708068848,0.4767054617404938,95.78980255126952,35.99,2
-0.9784771203994752,-0.1662773191928863,-0.2400761693716049,9.183836936950684,0.4767830371856689,95.78987121582033,35.99,2
-0.9805901050567628,-0.1682827323675155,-0.2436314523220062,3.7047042846679688,0.4768328368663788,95.7899169921875,35.99,2
-0.981946051120758,-0.1695696860551834,-0.2403152585029602,-1.5597845315933228,0.4768647849559784,95.78994750976562,35.99,2
-0.982816219329834,-0.1703955829143524,-0.2381871193647384,-7.539180755615234,0.4768852889537811,95.78997039794922,35.99,2
-0.9833746552467346,-0.1709256023168563,-0.2368213981389999,-14.203064918518066,0.4768984317779541,95.78997802734376,35.99,2
-0.983733057975769,-0.1712657362222671,-0.2359449565410614,-20.510881423950195,0.4769068658351898,95.78998565673828,35.99,2
-0.9839630126953124,-0.1714840084314346,-0.2353825122117996,-26.006237030029297,0.4769122898578644,95.7899932861328,35.99,2
-0.9841105937957764,-0.1716240793466568,-0.235021561384201,-31.614315032958984,0.4769157767295837,95.7899932861328,35.99,2
-0.9842053055763244,-0.1717139780521392,-0.2347899228334427,-38.69552230834961,0.4769180119037628,95.7899932861328,35.99,2
-0.9842661023139954,-0.1717716604471206,-0.2346412688493728,-47.091102600097656,0.4769194424152374,95.7899932861328,35.99,2
-0.9843051433563232,-0.1718086898326873,-0.2345458716154098,-53.31364059448242,0.4769203662872314,95.7899932861328,35.99,2
-0.9843301773071288,-0.1718324422836303,-0.2344846576452255,-51.71809005737305,0.4769209623336792,95.7899932861328,35.99,2
-0.9843462109565736,-0.1718476861715316,-0.2344453781843185,-39.70998001098633,0.4769213497638702,96.2664794921875,35.99,2
-0.9843565225601196,-0.171857476234436,-0.2344201654195785,-21.11642074584961,0.4769215881824493,96.57225799560548,35.99,2
-0.9843631386756896,-0.1718637496232986,-0.234403982758522,-2.552795886993408,0.4769217371940613,96.76849365234376,35.99,2
-0.9843673706054688,-0.1718677729368209,-0.2343935966491699,12.054367065429688,0.4769218266010284,96.89442443847656,35.99,2
-0.9843701124191284,-0.1718703657388687,-0.2343869358301162,21.9371280670166,0.4769218862056732,96.9752426147461,35.99,2
-0.9843718409538268,-0.1718720197677612,-0.2343826591968536,27.329933166503903,0.4769219160079956,97.02710723876952,35.99,2
-0.9843729734420776,-0.1718730926513672,-0.2343799173831939,29.189313888549805,0.476921945810318,97.06038665771484,35.99,2
-0.9843736886978148,-0.1662760078907013,-0.2343781590461731,29.32569694519043,0.4769219756126404,97.0817413330078,35.99,2
-0.9843741655349731,-0.1626841127872467,-0.2399747967720031,29.004806518554688,0.4773809015750885,97.09545135498048,36.03,2
-0.984374463558197,-0.1603790372610092,-0.237968623638153,28.17551040649414,0.4776754379272461,97.104248046875,36.03,2
-0.9843746423721312,-0.1644975543022155,-0.2366811782121658,26.668853759765625,0.4778644442558288,97.10989379882812,36.03,2
-0.9843747615814208,-0.1671405732631683,-0.2358549684286117,24.899471282958984,0.4779857397079468,97.11351776123048,36.03,2
-0.9843748211860656,-0.1688367128372192,-0.2353247553110122,22.8647575378418,0.4780635833740234,97.1158447265625,36.03,2
-0.9787771105766296,-0.1699251979589462,-0.2349845021963119,19.91459274291992,0.4781135320663452,97.1173324584961,36.03,2
-0.9807825684547424,-0.1706237345933914,-0.2347661405801773,16.02585220336914,0.478145569562912,97.1182861328125,36.03,2
-0.9820696115493774,-0.1710720062255859,-0.2346260100603103,11.857219696044922,0.4781661331653595,97.11890411376952,36.03,2
-0.98289555311203,-0.1713596880435943,-0.2345360815525055,7.276101589202881,0.477261483669281,97.11930084228516,36.03,2
-0.9834255576133728,-0.1715442985296249,-0.2400761544704437,1.4988034963607788,0.4766809344291687,97.11955261230467,36.03,2
-0.983765721321106,-0.1716627776622772,-0.2380336672067642,-5.203766822814941,0.4763083755970001,97.11971282958984,36.03,2
-0.9839839935302734,-0.1717388033866882,-0.2367229163646698,-11.676132202148438,0.476069301366806,97.11981964111328,36.03,2
-0.9841240644454956,-0.1717875897884369,-0.2358817607164383,-17.72848892211914,0.4759158492088318,97.11988830566406,36.03,2
-0.9842139482498168,-0.1718189120292663,-0.2353419512510299,-24.564584732055664,0.4758173823356628,97.11992645263672,36.03,2
-0.9842716455459596,-0.1718389987945556,-0.2349955290555954,-33.36532974243164,0.4757542014122009,97.11995697021484,36.03,2
-0.984308660030365,-0.1718519032001495,-0.2347732186317443,-43.33014678955078,0.4757136404514313,97.1199722290039,36.03,2
-0.9843324422836304,-0.1718601733446121,-0.2346305549144745,-49.88978958129883,0.47522833943367,97.11997985839844,36.03,2
-0.9843477010726928,-0.1718654781579971,-0.2345390021800995,-46.82676315307617,0.4749169051647186,97.11998748779295,36.03,2
-0.984357476234436,-0.1718688905239105,-0.2344802469015121,-32.85587692260742,0.4747170209884643,97.1199951171875,36.03,2
-0.9843637347221376,-0.171871080994606,-0.2344425469636917,-13.85179042816162,0.4745887517929077,97.1199951171875,36.03,2
-0.9843677878379822,-0.1718724817037582,-0.2344183474779129,3.4849350452423096,0.4745064377784729,97.1199951171875,36.03,2
-0.9843703508377076,-0.171873390674591,-0.2344028204679489,16.756608963012695,0.4744536280632019,97.1199951171875,36.03,2
-0.9843720197677612,-0.1718739718198776,-0.2343928515911102,25.882644653320312,0.4744197428226471,97.1199951171875,36.03,2
-0.9843730926513672,-0.1718743443489074,-0.234386458992958,30.757583618164062,0.4743979871273041,97.1199951171875,36.03,2
-0.9843737483024596,-0.1718745827674865,-0.2343823462724685,32.277462005615234,0.4739250838756561,96.91937255859376,36.03,2
-0.984374225139618,-0.1718747317790985,-0.2343797087669372,32.30344772338867,0.4736216068267822,96.7906265258789,36.03,2
-0.9843745231628418,-0.1718748211860656,-0.2343780249357223,31.80065155029297,0.4734268486499786,96.70800018310548,36.03,2
-0.9787769317626952,-0.1718748807907104,-0.2343769371509552,30.58234214782715,0.473301887512207,96.65497589111328,36.03,2
-0.9807825088500975,-0.171874925494194,-0.2399740219116211,28.57884407043457,0.4732216894626617,96.6209487915039,36.03,2
-0.9820695519447328,-0.1718749552965164,-0.2379681318998336,26.218339920043945,0.4731702208518982,96.59911346435548,36.03,2
-0.9828954935073853,-0.1718749701976776,-0.2366808652877807,23.7971134185791,0.4731371998786926,96.58509826660156,36.03,2
-0.9834255576133728,-0.1718749850988388,-0.2358547747135162,21.17928504943848,0.473116010427475,96.57610321044922,36.03,2
-0.983765721321106,-0.1774727702140808,-0.2353246361017227,17.940893173217773,0.4740206003189087,96.5703353881836,35.99,2
-0.9839839935302734,-0.18106509745121,-0.2349844276905059,13.662978172302246,0.4746011197566986,96.56663513183594,35.99,2
-0.9841240644454956,-0.1833704560995102,-0.2347660958766937,8.503002166748047,0.4749736785888672,96.5642547607422,35.99,2
-0.9842139482498168,-0.1792521178722381,-0.2346259802579879,3.264201164245605,0.4752127528190613,96.56272888183594,35.99,2
-0.9842716455459596,-0.1766092032194137,-0.2345360666513443,-1.591693878173828,0.4753661751747131,96.56175231933594,35.99,2
-0.984308660030365,-0.1749131381511688,-0.2400761395692825,-6.606692790985107,0.4754646420478821,96.56112670898438,35.99,2
-0.9843324422836304,-0.1738246977329254,-0.2380336672067642,-12.454641342163086,0.475527822971344,96.56072235107422,35.99,2
-0.9843477010726928,-0.1731262058019638,-0.2367229163646698,-18.822797775268555,0.4755683839321136,96.56046295166016,35.99,2
-0.984357476234436,-0.1726779490709304,-0.2358817607164383,-24.815444946289062,0.4751351177692413,96.56029510498048,35.99,2
-0.9843637347221376,-0.1723902821540832,-0.2353419512510299,-30.230348587036133,0.4748570621013641,96.56018829345705,35.99,2
-0.9843677878379822,-0.1722056716680526,-0.2405933141708374,-36.00533676147461,0.474678635597229,96.56011962890624,35.99,2
-0.9843703508377076,-0.1720872074365615,-0.2383655607700348,-43.444435119628906,0.4745641350746155,96.56007385253906,35.99,2
-0.9787742495536804,-0.1720111817121505,-0.2369359135627746,-52.23090362548828,0.4744906425476074,96.56004333496094,35.99,2
-0.9807807803153992,-0.1719623953104019,-0.2360184490680694,-58.27080154418945,0.4744434952735901,96.56002807617188,35.99,2
-0.982068419456482,-0.1719310879707336,-0.2410274446010589,-55.25040435791016,0.4744132161140442,96.56002044677734,35.99,2
-0.982894778251648,-0.1719110012054443,-0.2386441528797149,-40.91279220581055,0.4743937849998474,96.5600128173828,35.99,2
-0.9778273105621338,-0.1718980967998504,-0.2371146976947784,-20.30123519897461,0.4730041921138763,96.56000518798828,35.99,2
-0.9745752811431884,-0.1718898266553878,-0.2417309582233429,-0.6575310230255127,0.4721124172210693,96.56000518798828,35.99,2
-0.9780861139297484,-0.1718845218420028,-0.2446933984756469,14.624852180480955,0.4715401232242584,96.56000518798828,35.99,2
-0.9803391695022584,-0.1718811094760894,-0.2409967482089996,25.42099571228028,0.4711728692054748,96.56000518798828,35.99,2
-0.9817850589752196,-0.1718789190053939,-0.2386244535446167,31.847780227661133,0.4709371924400329,96.56000518798828,35.99,2
-0.9827129244804382,-0.1718775182962417,-0.237102061510086,34.48176956176758,0.4707859456539154,96.56000518798828,35.99,2
-0.9833083748817444,-0.1718766093254089,-0.2361250668764114,35.036434173583984,0.4706888794898987,96.56000518798828,35.99,2
-0.9836905002593994,-0.1718760281801223,-0.2354980856180191,34.76543426513672,0.4706265926361084,96.56000518798828,35.99,2
-0.9783379435539246,-0.1718756556510925,-0.2350957244634628,33.58481979370117,0.4710458815097809,96.36654663085938,35.99,2
-0.9805007576942444,-0.1718754172325134,-0.2404352873563766,31.39055633544922,0.4713149666786194,96.24239349365234,35.99,2
-0.981888711452484,-0.1718752682209015,-0.2382641434669494,28.92554473876953,0.4714876413345337,96.1627197265625,35.99,2
-0.9827794432640076,-0.1718751788139343,-0.2368708252906799,26.75968170166016,0.4715984761714935,96.11158752441406,35.99,2
-0.9833510518074036,-0.1718751192092895,-0.2359766811132431,24.43828773498535,0.4716695845127105,96.07877349853516,35.99,2
-0.983717918395996,-0.1718750745058059,-0.2410006374120712,21.03545379638672,0.4717152416706085,96.0577163696289,35.99,2
-0.983953297138214,-0.1718750447034835,-0.2386269569396972,16.27225685119629,0.4717445373535156,96.04420471191406,35.99,2
-0.9785066246986388,-0.1718750298023224,-0.2371036559343338,10.901166915893556,0.4717633426189422,96.03553009033205,35.99,2
-0.9806089997291564,-0.1718750149011612,-0.2417238652706146,5.802743911743164,0.4726932644844055,96.02996826171876,35.99,2
-0.9819582104682922,-0.1718750149011612,-0.2446888536214828,0.9007973670959472,0.4732900261878967,96.02639770507812,35.99,2
-0.9828240275382996,-0.1718750149011612,-0.2409938424825668,-4.512760162353516,0.4736729860305786,96.02410125732422,35.99,2
-0.9777818918228148,-0.1718750149011612,-0.2386225908994674,-10.526915550231934,0.4739187657833099,96.02262878417967,35.99,2
-0.980143904685974,-0.1718750149011612,-0.2371008545160293,-16.353288650512695,0.4740764796733856,96.0216827392578,35.99,2
-0.9816597104072572,-0.1718750149011612,-0.2361242920160293,-21.38921165466309,0.4741776883602142,96.02108001708984,35.99,2
-0.9826324582099916,-0.1718750149011612,-0.2354975938796997,-26.09699821472168,0.4742426574230194,96.02069091796876,35.99,2
-0.9832567572593688,-0.1718750149011612,-0.2350954115390777,-31.70838737487793,0.4742843508720398,96.02043914794922,35.99,2
-0.9836573600769044,-0.1718750149011612,-0.2348373234272003,-39.11773300170898,0.4724750220775604,96.02027893066406,35.99,2
-0.9839144349098206,-0.1718750149011612,-0.2346716970205307,-47.03245544433594,0.4713138937950134,96.02017974853516,35.99,2
-0.9840794205665588,-0.1718750149011612,-0.2345654070377349,-50.74312210083008,0.4705687463283539,96.02011108398438,35.99,2
-0.9841853380203248,-0.1718750149011612,-0.2344971895217895,-45.013465881347656,0.4700905680656433,96.02007293701172,35.99,2
-0.9842532873153688,-0.1718750149011612,-0.234453409910202,-29.793441772460938,0.4697836935520172,96.0200424194336,35.99,2
-0.9842969179153442,-0.1718750149011612,-0.2344253212213516,-10.944278717041016,0.4695867598056793,96.02002716064452,35.99,2
-0.984324872493744,-0.1718750149011612,-0.234407290816307,5.601589202880859,0.4694603681564331,96.02001953125,35.99,2
-0.9843428134918212,-0.1718750149011612,-0.2343957275152206,17.738786697387695,0.4693792760372162,96.02001190185548,35.99,2
-0.9843543171882628,-0.1718750149011612,-0.2343883067369461,25.499080657958984,0.46840900182724,96.02000427246094,35.99,2
-0.9843617081642152,-0.1718750149011612,-0.234383538365364,29.32201766967773,0.4677863419055938,96.02000427246094,35.99,2
-0.9843664765357972,-0.1718750149011612,-0.2343804836273193,30.528621673583984,0.4673867523670196,96.02000427246094,35.99,2
-0.9843695163726808,-0.1718750149011612,-0.2343785166740417,30.72257423400879,0.4671303331851959,96.02000427246094,35.99,2
-0.9843714833259584,-0.1718750149011612,-0.2343772500753402,30.413551330566406,0.466965764760971,96.02000427246094,35.99,2
-0.9843727350234984,-0.1718750149011612,-0.2343764454126358,29.330341339111328,0.4668601453304291,96.02000427246094,35.99,2
-0.9843735694885254,-0.1718750149011612,-0.234375923871994,27.657155990600582,0.4667923748493194,96.02000427246094,35.99,2
-0.9843741059303284,-0.1718750149011612,-0.2343755960464477,25.90987777709961,0.4667488932609558,96.02000427246094,35.99,2
-0.9843744039535522,-0.1718750149011612,-0.234375387430191,23.85352325439453,0.4685574173927307,95.82295989990234,35.99,2
-0.9843746423721312,-0.1718750149011612,-0.2343752533197403,20.52762985229492,0.4697180092334747,95.6965103149414,35.99,2
-0.9843747615814208,-0.1718750149011612,-0.2399729341268539,15.756487846374512,0.470462828874588,95.61536407470705,35.99,2
-0.9843748211860656,-0.1718750149011612,-0.2379674315452575,10.641828536987305,0.4709407985210418,95.56328582763672,35.99,2
-0.9787771105766296,-0.1718750149011612,-0.2366804182529449,5.872765064239502,0.471247524023056,95.52986907958984,35.99,2
-0.9807825684547424,-0.1718750149011612,-0.2414522618055343,0.6376317143440247,0.4714443683624267,95.5084228515625,35.99,2
-0.9820696115493774,-0.1718750149011612,-0.2445145547389984,-5.849564075469971,0.4715707004070282,95.49465942382812,35.99,2
-0.98289555311203,-0.1718750149011612,-0.2408819794654846,-12.782004356384276,0.4716517627239227,95.48582458496094,35.99,2
-0.977827787399292,-0.1718750149011612,-0.2385508120059967,-18.92898750305176,0.4707855880260467,95.48015594482422,35.99,2
-0.9801733493804932,-0.1718750149011612,-0.2370547950267791,-24.55399513244629,0.4702297151088714,95.4765167236328,35.99,2
-0.9816786050796508,-0.1718750149011612,-0.2360947430133819,-31.23406791687012,0.4698729813098907,95.47418212890624,35.99,2
-0.9826446175575256,-0.1718750149011612,-0.2354786247014999,-39.91677474975586,0.4696440696716308,95.47268676757812,35.99,2
-0.9832645654678344,-0.1718750149011612,-0.2406810224056244,-48.76689147949219,0.4694971442222595,95.4717254638672,35.99,2
-0.9836623668670654,-0.1718750149011612,-0.2440196126699447,-52.73749923706055,0.4694028794765472,95.47110748291016,35.99,2
-0.9839176535606384,-0.177472785115242,-0.2405643612146377,-47.04926681518555,0.4693423807621002,95.47071075439452,35.99,2
-0.9784837365150452,-0.1810651123523712,-0.238346979022026,-32.18900680541992,0.469303548336029,95.470458984375,35.99,2
-0.9749965667724608,-0.1833704560995102,-0.2369239926338195,-13.807167053222656,0.4688197076320648,95.47029876708984,35.99,2
-0.9783564805984496,-0.1848499029874801,-0.2416085749864578,2.721822500228882,0.4685091972351074,95.4701919555664,35.99,2
-0.9805126786231996,-0.1857993155717849,-0.2390170991420745,15.536044120788574,0.4683099389076233,95.47012329101562,35.99,2
-0.9818964004516602,-0.186408594250679,-0.2373540252447128,24.60495948791504,0.4681820571422577,95.47007751464844,35.99,2
-0.9771866202354432,-0.1867996007204055,-0.236286774277687,30.06661033630371,0.468099981546402,95.47004699707033,35.99,2
-0.9797618985176086,-0.1870505213737487,-0.2356018722057342,32.611454010009766,0.4680473208427429,95.47003173828124,35.99,2
-0.981414556503296,-0.1872115433216095,-0.2351623326539993,33.409847259521484,0.4680135250091553,95.47002410888672,35.99,2
-0.9824751615524292,-0.1873148828744888,-0.234880268573761,33.20927810668945,0.467991828918457,95.4700164794922,35.99,2
-0.9831557869911194,-0.1873812079429626,-0.2346992492675781,32.12043380737305,0.4688957929611206,95.47000885009766,35.99,2
-0.9835925698280334,-0.1874237656593322,-0.2345830798149109,30.17852210998535,0.4694758951663971,95.47000885009766,35.99,2
-0.983872890472412,-0.1874510794878006,-0.234508529305458,27.710657119750977,0.4698481559753418,95.47000885009766,35.99,2
-0.9784550070762634,-0.1874686032533645,-0.2344606965780258,24.962587356567383,0.4700870513916015,95.47000885009766,35.99,2
-0.9805758595466614,-0.1874798536300659,-0.2344300001859665,21.647777557373047,0.4702403843402862,95.47000885009766,35.99,2
-0.9819369316101074,-0.1874870657920837,-0.2344103008508682,17.363813400268555,0.470338761806488,95.47000885009766,35.99,2
-0.982810378074646,-0.1818939298391342,-0.2343976497650146,12.25011157989502,0.4704019129276275,95.47000885009766,35.99,2
-0.9833709001541138,-0.1839023530483245,-0.234389528632164,6.8368000984191895,0.4704424440860748,95.47000885009766,35.99,2
-0.9837306141853333,-0.1851912438869476,-0.2399820983409881,1.5608125925064087,0.4700095057487488,95.27655029296876,35.99,2
-0.9839614629745485,-0.1860183775424957,-0.2379733175039291,-3.451502084732056,0.4697316586971283,95.15239715576172,35.99,2
-0.98410964012146,-0.1865491867065429,-0.242281973361969,-8.49881362915039,0.4695533514022827,95.07272338867188,35.99,2
-0.978606939315796,-0.1812920421361923,-0.2394492477178573,-14.02715301513672,0.4694389402866363,95.02159118652344,35.99,2
-0.980673372745514,-0.1779183149337768,-0.2376313656568527,-19.91792678833008,0.469365507364273,94.98877716064452,35.99,2
-0.9819995164871216,-0.1757532507181167,-0.2364647537469864,-25.55406188964844,0.4693183898925781,94.96772003173828,35.99,2
-0.9828505516052246,-0.17436383664608,-0.2357160896062851,-30.858402252197266,0.4692881405353546,94.95420837402344,35.99,2
-0.9833967089653016,-0.1734721958637237,-0.2352356314659118,-36.845458984375,0.4692687392234802,94.9455337524414,35.99,2
-0.9837471842765808,-0.17289999127388,-0.2349272966384887,-44.62127304077149,0.4678791463375091,94.93997192382812,35.97,2
-0.9783743023872375,-0.17253278195858,-0.2347294390201568,-53.05420303344727,0.4669874012470245,94.9364013671875,35.97,2
-0.9805241227149964,-0.1722971200942993,-0.2402002364397049,-57.3338737487793,0.4664151072502136,94.9341049194336,35.97,2
-0.9819037318229676,-0.1721458882093429,-0.2381132990121841,-51.96220397949219,0.46604785323143,94.93263244628906,35.97,2
-0.9827890992164612,-0.1720488369464874,-0.2367740273475647,-36.47035598754883,0.4658121764659881,94.9316864013672,35.97,2
-0.9833572506904602,-0.1719865649938583,-0.2359145581722259,-16.371978759765625,0.4656609296798706,94.93108367919922,35.97,2
-0.9837218523025512,-0.1719466000795364,-0.2353630065917968,2.13273286819458,0.4655638635158539,94.93069458007812,35.97,2
-0.9839558601379396,-0.1719209551811218,-0.2350090444087982,16.2757625579834,0.4655015766620636,94.9304428100586,35.97,2
-0.9841060042381288,-0.1719044893980026,-0.2347818911075592,25.735280990600582,0.4654616117477417,94.93028259277344,35.97,2
-0.9842023849487304,-0.1718939244747162,-0.2346361130475998,30.91021156311035,0.4654359519481659,94.93018341064452,35.97,2
-0.9786664247512816,-0.1718871444463729,-0.2345425635576248,33.00236129760742,0.4654195010662079,94.93011474609376,35.97,2
-0.9807115793228148,-0.1718827933073043,-0.2344825267791748,33.59980392456055,0.4654089212417602,94.9300765991211,35.97,2
-0.9820240139961244,-0.1718800067901611,-0.2344440072774887,33.384918212890625,0.4654021561145782,94.93004608154295,35.97,2
-0.9828662872314452,-0.1718782186508178,-0.2400170564651489,32.19015884399414,0.4653978049755096,94.9300308227539,35.97,2
-0.9834067821502686,-0.1718770712614059,-0.2435935288667678,30.097877502441406,0.4653950035572052,94.93002319335938,35.97,2
-0.9837536811828612,-0.1718763262033462,-0.2402909249067306,27.69831275939941,0.4653932154178619,94.93001556396484,35.97,2
-0.9839762449264526,-0.171875849366188,-0.2381715029478073,25.33799934387207,0.4667691886425018,94.93000793457033,35.97,2
-0.9841191172599792,-0.1718755513429641,-0.2368113696575164,22.623123168945312,0.4676522314548492,94.93000793457033,35.97,2
-0.9842107892036438,-0.1718753576278686,-0.2359385192394256,18.888959884643555,0.4682189226150512,94.93000793457033,35.97,2
-0.9842696189880372,-0.1718752235174179,-0.2353783696889877,14.149584770202637,0.4685825705528259,94.93000793457033,35.97,2
-0.98430734872818,-0.1718751490116119,-0.2350189089775085,9.21294403076172,0.4688159525394439,94.93000793457033,35.97,2
-0.9843316078186036,-0.1718750894069671,-0.2347882241010666,4.479306697845459,0.4689657092094421,94.93000793457033,35.97,2
-0.98434716463089,-0.1718750596046447,-0.2346401810646057,-0.6793540120124817,0.4690618216991424,94.93000793457033,35.97,2
-0.9843571186065674,-0.1718750447034835,-0.2345451712608337,-6.680399894714356,0.469123512506485,94.93000793457033,35.97,2
-0.9787657260894777,-0.1718750298023224,-0.2344842106103897,-12.727643966674805,0.4682448804378509,94.74012756347656,35.97,2
-0.9807752966880798,-0.1718750149011612,-0.2344450801610946,-17.905309677124023,0.4676810204982757,94.61827850341795,35.97,2
-0.9820649027824402,-0.1718750149011612,-0.234419971704483,-22.532094955444336,0.4673191606998443,94.54007720947266,35.97,2
-0.9828925132751464,-0.1718750149011612,-0.2344038635492324,-27.71175003051757,0.4670869410037994,94.4898910522461,35.97,2
-0.98342365026474,-0.1718750149011612,-0.2343935221433639,-34.170509338378906,0.4669379293918609,94.45768737792967,35.97,2
-0.9837644696235656,-0.1718750149011612,-0.2343868911266327,-41.16709899902344,0.4668422937393188,94.43701934814452,35.97,2
-0.9839832186698914,-0.1718750149011612,-0.2343826293945312,-45.29526519775391,0.4667809307575226,94.42375946044922,35.97,2
-0.9841235876083374,-0.1718750149011612,-0.2343799024820327,-41.75737762451172,0.466741532087326,94.41524505615234,35.97,2
-0.984213650226593,-0.1718750149011612,-0.2343781441450119,-29.115407943725582,0.4653391242027282,94.40978240966795,35.99,2
-0.9842714667320251,-0.1718750149011612,-0.2343770116567611,-11.612588882446287,0.4644391238689422,94.40628051757812,35.99,2
-0.9843085408210754,-0.1718750149011612,-0.2343762964010238,4.929091453552246,0.4638615548610687,94.4040298461914,35.99,2
-0.9843323230743408,-0.1718750149011612,-0.2343758344650268,17.590238571166992,0.4634909033775329,94.402587890625,35.99,2
-0.984347641468048,-0.1718750149011612,-0.2343755364418029,25.8515739440918,0.4632530510425567,94.40166473388672,35.99,2
-0.9843574166297911,-0.1718750149011612,-0.2343753427267074,29.917234420776367,0.463100403547287,94.40106964111328,35.99,2
-0.9843637347221376,-0.1718750149011612,-0.2343752235174179,31.057483673095703,0.4630024433135986,94.40068817138672,35.99,2
-0.9843677878379822,-0.1718750149011612,-0.2343751490116119,31.219600677490234,0.462939590215683,94.40044403076172,35.99,2
-0.9843703508377076,-0.1718750149011612,-0.2343750894069671,31.14809226989746,0.4628992676734924,94.40028381347656,35.99,2
-0.9843720197677612,-0.1718750149011612,-0.2343750596046447,30.2459659576416,0.4628733694553375,94.40018463134766,35.99,2
-0.9843730926513672,-0.1718750149011612,-0.2343750447034835,28.2340030670166,0.4628567695617676,94.40011596679688,35.99,2
-0.9843737483024596,-0.1718750149011612,-0.2343750298023224,25.73551368713379,0.4628461003303528,94.40007781982422,35.99,2
-0.984374225139618,-0.1718750149011612,-0.2343750149011612,23.19707489013672,0.4628392457962036,94.4000473022461,35.99,2
-0.9843745231628418,-0.1718750149011612,-0.2343750149011612,20.195924758911133,0.4628348648548126,94.40003204345705,35.99,2
-0.984374701976776,-0.1718750149011612,-0.2343750149011612,16.00577163696289,0.4628320336341858,94.4000244140625,35.99,2
-0.9843748211860656,-0.1718750149011612,-0.2343750149011612,10.572519302368164,0.4628302156925201,94.40001678466795,35.99,2
-0.9843748807907104,-0.1718750149011612,-0.2343750149011612,4.800087928771973,0.4632883369922638,94.40000915527344,35.99,2
-0.9843749403953552,-0.1718750149011612,-0.2343750149011612,-0.5200684070587158,0.4635823369026184,94.40000915527344,35.99,2
-0.9843749403953552,-0.1718750149011612,-0.2343750149011612,-5.847333908081055,0.4637710154056549,94.40000915527344,35.99,2
-0.9843749403953552,-0.177472785115242,-0.239972785115242,-12.046144485473633,0.4638921022415161,94.40000915527344,35.99,2
-0.9843749403953552,-0.1810651123523712,-0.2435651123523712,-18.65379524230957,0.4639697968959808,94.40000915527344,35.99,2
-0.9843749403953552,-0.1833704560995102,-0.2402726858854293,-24.40963554382324,0.4640196561813354,94.40000915527344,35.99,2
-0.9843749403953552,-0.1792521178722381,-0.2381597906351089,-29.368051528930664,0.4640516638755798,94.40000915527344,35.99,2
-0.9843749403953552,-0.1766092032194137,-0.2368038594722747,-35.07579040527344,0.4640721976757049,94.40000915527344,35.99,2
-0.9843749403953552,-0.1749131381511688,-0.23593370616436,-42.78700256347656,0.4645442962646484,94.21729278564452,35.99,2
-0.9843749403953552,-0.1794224828481674,-0.2353752851486206,-51.50090026855469,0.4648472666740417,94.10003662109376,35.99,2
-0.9843749403953552,-0.182316318154335,-0.2350169271230697,-56.85294723510742,0.4650416970252991,94.02478790283205,35.99,2
-0.9843749403953552,-0.1841734051704406,-0.2347869575023651,-53.20483016967773,0.4651664793491363,93.97650146484376,35.99,2
-0.9843749403953552,-0.1853651851415634,-0.2346393764019012,-39.07700347900391,0.4652465581893921,93.9455108642578,35.99,2
-0.9843749403953552,-0.1861300021409988,-0.2345446646213531,-19.37032890319824,0.4652979373931885,93.92562103271484,35.99,2
-0.9843749403953552,-0.1866208165884018,-0.2344838827848434,-0.6369231343269348,0.4653309285640716,93.91285705566406,35.99,2
-0.9843749403953552,-0.1869357973337173,-0.2344448715448379,13.92514419555664,0.4653520882129669,93.90467071533205,35.99,2
-0.9843749403953552,-0.1871379315853119,-0.2344198375940323,24.0118350982666,0.4635296165943146,93.8994140625,36.0,2
-0.9843749403953552,-0.1872676461935043,-0.2344037741422653,30.01199150085449,0.4623600542545318,93.8960418701172,36.0,2
-0.9843749403953552,-0.1873508840799331,-0.2399912327528,32.90599822998047,0.4616094827651977,93.89387512207033,36.0,2
-0.9787771701812744,-0.1818065345287323,-0.2379791736602783,34.15416717529297,0.4611278176307678,93.89248657226562,36.0,2
-0.9807826280593872,-0.1838462650775909,-0.236687958240509,34.50376892089844,0.4608187079429626,93.89159393310548,36.0,2
-0.9820696115493774,-0.1851552426815033,-0.2358593195676803,33.79664993286133,0.4606203436851501,93.89102172851562,36.0,2
-0.98289555311203,-0.1803974956274032,-0.2353275567293167,32.04955291748047,0.4604930281639099,93.89065551757812,36.0,2
-0.9834255576133728,-0.1773442476987838,-0.2349862903356552,29.789108276367188,0.4604113399982452,93.89041900634766,36.0,2
-0.983765721321106,-0.1753848493099212,-0.2347672879695892,27.39985084533692,0.4608178436756134,93.89026641845705,36.0,2
-0.9839839935302734,-0.1741274148225784,-0.23462675511837,24.73805046081543,0.4610787034034729,93.89016723632812,36.0,2
-0.9841240644454956,-0.1789182424545288,-0.2345365583896637,21.492935180664062,0.4612461030483246,93.89010620117188,36.0,2
-0.9842139482498168,-0.1819927245378494,-0.2344786822795868,17.579710006713867,0.4613535404205322,93.89006805419922,36.0,2
-0.9842716455459596,-0.1783679723739624,-0.2344415336847305,13.09442901611328,0.4614225029945373,93.89004516601562,36.0,2
-0.984308660030365,-0.1760418117046356,-0.2344176918268203,8.123809814453125,0.4614667594432831,93.89002990722656,36.0,2
-0.9787346720695496,-0.1745490133762359,-0.2400001734495163,2.913379907608032,0.4614951610565185,93.89002227783205,36.0,2
-0.9807553887367249,-0.1735910326242447,-0.2435826808214187,-2.167923212051392,0.4615133702754974,93.8900146484375,36.0,2
-0.9820521473884584,-0.1729762554168701,-0.2402839660644531,-7.209351062774658,0.4619839787483215,93.89000701904295,36.0,2
-0.9828843474388124,-0.1725817173719406,-0.2381670325994491,-12.712419509887695,0.4622859954833984,93.89000701904295,36.0,2
-0.977820634841919,-0.1723285317420959,-0.2368085086345672,-18.626384735107425,0.4624797999858856,93.89000701904295,36.0,2
-0.9801687598228456,-0.1721660494804382,-0.2359366863965988,-24.227245330810547,0.4626041948795318,93.89000701904295,36.0,2
-0.9816756844520568,-0.1720617860555648,-0.2353772073984146,-29.35848045349121,0.4626840054988861,93.89000701904295,36.0,2
-0.9826427102088928,-0.1719948649406433,-0.2350181639194488,-35.0123291015625,0.4627352356910705,93.89000701904295,36.0,2
-0.9832633137702942,-0.1719519197940826,-0.2347877472639084,-42.22680282592773,0.4627681076526642,93.89000701904295,36.0,2
-0.9836615920066832,-0.1719243675470352,-0.2346398830413818,-49.8839111328125,0.4627892076969147,93.89000701904295,36.0,2
-0.9839171767234802,-0.1719066798686981,-0.2345449924468994,-53.45792007446289,0.4618848860263824,93.70729064941406,36.0,2
-0.984081208705902,-0.1718953251838684,-0.2344840914011001,-47.8196907043457,0.4613045454025268,93.59003448486328,36.0,2
-0.9841864705085754,-0.1718880385160446,-0.2344450056552887,-32.77298355102539,0.4609321355819702,93.51478576660156,36.0,2
-0.984254002571106,-0.1718833744525909,-0.2344199270009994,-13.98488712310791,0.4606931209564209,93.46649932861328,36.0,2
-0.9842973351478576,-0.1718803793191909,-0.2344038337469101,2.611353635787964,0.4605397582054138,93.43550872802734,36.0,2
-0.9843251705169678,-0.1718784570693969,-0.2343935072422027,14.927763938903809,0.4604413211345672,93.41561889648438,36.0,2
-0.9843430519104004,-0.1718772202730178,-0.2343868762254715,23.21147918701172,0.4603781700134277,93.4028549194336,36.0,2
-0.9843544960021972,-0.1718764305114746,-0.23438261449337,27.91128921508789,0.4603376388549804,93.39466857910156,36.0,2
-0.9843618273735046,-0.171875923871994,-0.2343798875808715,29.920652389526367,0.460311621427536,93.38941192626952,36.0,2
-0.984366536140442,-0.1718755960464477,-0.2343781292438507,30.54020500183105,0.4602949321269989,93.38603973388672,36.0,2
-0.9843695759773254,-0.171875387430191,-0.2343770116567611,30.353837966918945,0.4602842032909393,93.38387298583984,36.0,2
-0.984371542930603,-0.1718752533197403,-0.2399740666151046,29.21320343017578,0.4602773189544678,93.38248443603516,36.0,2
-0.9843727946281432,-0.1718751639127731,-0.237968161702156,27.30970764160156,0.4602729082107544,93.381591796875,36.0,2
-0.9843735694885254,-0.1718751043081283,-0.2366808801889419,25.44687271118164,0.4602700769901275,93.38101959228516,36.0,2
-0.9843741059303284,-0.1718750596046447,-0.2358547747135162,23.936145782470703,0.4602682590484619,93.38065338134766,36.0,2
-0.9843744039535522,-0.1774728149175644,-0.2353246361017227,21.92053604125977,0.4602670967578888,93.3804168701172,36.0,2
-0.9843746423721312,-0.1810651272535324,-0.2349844276905059,18.35568046569824,0.4607252776622772,93.38026428222656,36.0,2
-0.97877699136734,-0.1777727007865905,-0.2347660958766937,13.398943901062012,0.4610193073749542,93.38016510009766,36.0,2
