acc_x,acc_y,acc_z,bvp,eda,hr,temp,label
0.0,0.0,0.0,0.0,0.0,0.0,24.55,1
-0.0390624962747097,-0.1458333283662796,0.0468749962747097,-0.7483332753181458,0.1980216652154922,13.916666030883787,24.55,1
-0.091463416814804,-0.3456555008888244,0.1055640205740928,-1.8648779392242432,0.4636605083942413,32.58536529541016,24.55,1
-0.1370431929826736,-0.5244497656822205,0.1665801405906677,-3.295348644256592,0.6947205662727356,48.82392120361328,24.55,1
-0.1809725016355514,-0.6602280139923096,0.216432899236679,-4.875336647033691,0.863291323184967,60.67082214355469,24.55,1
-0.2107144892215728,-0.741176187992096,0.2556750476360321,-6.1839680671691895,0.9774208664894104,68.6916732788086,24.55,1
-0.2246764302253723,-0.799842894077301,0.2647643089294433,-7.021294593811035,1.0523062944412231,73.95450592041016,24.55,1
-0.222560241818428,-0.8601557612419128,0.2594923079013824,-7.709991455078125,1.1008058786392212,77.36298370361328,24.55,1
-0.2044265270233154,-0.904597818851471,0.2560962438583374,-8.969348907470703,1.1224210262298584,79.55863189697266,24.55,1
-0.2263390719890594,-0.9107840657234192,0.231534868478775,-11.243245124816896,1.136314034461975,80.96986389160156,24.55,1
-0.2348138242959976,-0.9035636186599731,0.2213591635227203,-14.025102615356444,1.1452354192733765,81.8760986328125,24.55,1
-0.2458511143922805,-0.9101231694221495,0.2260217368602752,-16.40904426574707,1.150962233543396,82.45781707763672,24.55,1
-0.252934992313385,-0.9087356328964232,0.2290142327547073,-18.69139862060547,1.1546376943588257,82.83116912841797,24.55,1
-0.263078898191452,-0.913442850112915,0.230934739112854,-22.64599800109864,1.156996488571167,83.0707778930664,24.55,1
-0.275186538696289,-0.9164637327194214,0.2489604353904724,-29.508018493652344,1.1585103273391724,83.22454833984375,24.55,1
-0.2773588001728058,-0.918402373790741,0.2605283856391907,-38.576202392578125,1.1594817638397217,83.32322692871094,24.55,1
-0.2675573229789734,-0.9028531908988952,0.2735498249530792,-48.94194412231445,1.18305766582489,83.38655853271484,24.55,1
-0.2724628150463104,-0.9208634495735168,0.2651129364967346,-61.34770202636719,1.1981873512268066,83.42720031738281,24.55,1
-0.2980019748210907,-0.926823616027832,0.2485030740499496,-76.40250396728516,1.207896709442139,83.45327758789062,24.55,1
-0.3199893236160278,-0.9250507354736328,0.2322460412979126,-92.36556243896484,1.2141276597976685,83.47001647949219,24.55,1
-0.3285017609596252,-0.9239130020141602,0.2218132019042968,-107.25991821289062,1.2181262969970703,83.48075866699219,24.55,1
-0.3283667862415313,-0.9175850749015808,0.2151180058717727,-122.20287322998048,1.2206923961639404,83.48765563964844,24.55,1
-0.3226823806762695,-0.9135242104530334,0.2108214199542999,-140.29026794433594,1.222339153289795,83.49208068847656,24.55,1
-0.3190344572067261,-0.9109181761741638,0.2080641239881515,-162.88189697265625,1.2233959436416626,83.49491882324219,24.55,1
-0.3166934251785278,-0.909245789051056,0.2006968706846237,-186.7304229736328,1.2332549095153809,83.49674224853516,24.55,1
-0.3151910901069641,-0.9081725478172302,0.1959689855575561,-202.6691436767578,1.239581823348999,83.49790954589844,24.55,1
-0.3086292147636413,-0.901885986328125,0.192934900522232,-199.6099395751953,1.2436420917510986,83.4986572265625,24.55,1
-0.3100159466266632,-0.9034494161605836,0.1909878104925155,-172.78363037109375,1.24624764919281,83.49913787841797,24.55,1
-0.3053081035614013,-0.8988549709320068,0.1897382736206054,-125.2952880859375,1.2479197978973389,83.49944305419922,24.55,1
-0.3078846633434295,-0.8959065079689026,0.1889363974332809,-61.0721435546875,1.248992919921875,83.49964141845703,24.55,1
-0.3039403557777405,-0.8940143585205078,0.1884218007326126,15.624401092529297,1.24968159198761,83.49977111816406,24.55,1
-0.3070069253444671,-0.8928000926971436,0.1936893314123153,92.3974151611328,1.2501235008239746,83.4998550415039,24.55,1
-0.3089748620986938,-0.8920208215713501,0.1970697343349456,152.07688903808594,1.2517842054367063,80.57294464111328,24.55,1
-0.3102377653121948,-0.8915207386016846,0.2048368602991104,187.72821044921875,1.2528499364852903,78.69461822509766,24.55,1
-0.316646009683609,-0.8967975974082947,0.209821343421936,205.6273956298828,1.2535338401794434,77.48921966552734,24.55,1
-0.3207584321498871,-0.9001839756965637,0.2130201011896133,213.35235595703125,1.2539727687835691,76.71566009521484,24.55,1
-0.3289953470230102,-0.9079549312591552,0.2150728851556778,214.8955993652344,1.2542544603347778,76.21923828125,24.55,1
-0.334281325340271,-0.912941873073578,0.2163902372121811,215.7892303466797,1.2544351816177368,75.90066528320312,24.55,1
-0.337673544883728,-0.910544455051422,0.2172356396913528,221.6434326171875,1.2545511722564695,75.69622039794922,24.55,1
-0.3398504853248596,-0.9146037101745604,0.2121803909540176,231.3939666748047,1.2546255588531494,75.56501770019531,24.55,1
-0.3356497287750244,-0.9228065013885498,0.2089362293481826,239.8581695556641,1.25605046749115,75.48081970214844,24.55,1
-0.332953929901123,-0.9224727749824524,0.2068543136119842,246.2393951416016,1.256964921951294,75.42678833007812,24.55,1
-0.3256261646747589,-0.9222586154937744,0.1999204903841018,254.11053466796875,1.2575517892837524,75.3921127319336,24.55,1
-0.3153258562088012,-0.9165233969688416,0.1898729801177978,264.1881103515625,1.2579283714294434,75.36985778808594,24.55,1
-0.3087157011032104,-0.9072450995445251,0.1834250688552856,271.7372741699219,1.2581700086593628,75.35557556152344,24.55,1
-0.2988758981227875,-0.8900952935218811,0.1792871654033661,269.7606811523437,1.2583250999450684,75.3464126586914,24.55,1
-0.2869635224342346,-0.8846873044967651,0.1710339337587356,252.205810546875,1.2584246397018433,75.34053039550781,24.55,1
-0.2793188393115997,-0.886814534664154,0.1601397097110748,216.4782867431641,1.2584885358810425,75.33676147460938,24.55,1
-0.2800107002258301,-0.8993752002716064,0.1643439680337906,164.1912078857422,1.2580705881118774,75.33434295654297,24.59,1
-0.2860524654388428,-0.9186314940452576,0.172639787197113,97.80564880371094,1.2578023672103882,75.3327865600586,24.59,1
-0.2843319475650787,-0.9253912568092346,0.1779635697603225,19.62824058532715,1.2576302289962769,75.331787109375,24.59,1
-0.2776300311088562,-0.9353270530700684,0.1813800632953643,-61.5988655090332,1.2575198411941528,75.33114624023438,24.59,1
-0.2733291387557983,-0.958496630191803,0.1835725754499435,-129.2920379638672,1.25744891166687,75.33073425292969,24.59,1
-0.2593735158443451,-0.9733655452728271,0.1793818324804306,-171.31492614746094,1.2574033737182615,75.33047485351562,24.59,1
-0.2336242794990539,-1.0108964443206787,0.1766924560070037,-189.01109313964844,1.2573741674423218,75.33030700683594,24.59,1
-0.2115021347999572,-1.0237860679626465,0.1749665588140487,-190.28610229492188,1.2573554515838623,75.3302001953125,24.59,1
-0.2140987366437912,-0.9816778898239136,0.1850545406341552,-181.0265350341797,1.2582613229751587,75.33013153076172,24.59,1
-0.2101673185825348,-0.93226420879364,0.1915284246206283,-166.2174072265625,1.258842706680298,75.33008575439453,24.59,1
-0.2300354540348053,-0.8613688945770264,0.1844874322414398,-150.91357421875,1.2592157125473022,75.3300552368164,24.59,1
-0.2371879070997238,-0.8382634520530701,0.1687733829021453,-136.46734619140625,1.2594550848007202,75.33003234863281,24.59,1
-0.2585712671279907,-0.8346312642097473,0.1474934667348861,-121.02381134033205,1.2596087455749512,75.33002471923828,24.59,1
-0.2778916358947754,-0.8323003649711609,0.1226416900753974,-104.39929962158205,1.2597073316574097,75.33001708984375,24.59,1
-0.279094785451889,-0.8531956076622009,0.1178888007998466,-89.0195541381836,1.2597706317901611,75.33000946044922,24.59,1
-0.2798669040203094,-0.8554094433784485,0.1316319853067398,-76.38397216796875,1.259811282157898,75.33000946044922,24.59,1
-0.2747646272182464,-0.9128078818321228,0.134853795170784,-65.4055404663086,1.2584601640701294,73.51005554199219,24.59,1
-0.2826858460903168,-0.9944250583648682,0.1369213759899139,-54.573429107666016,1.2575931549072266,72.34211730957031,24.59,1
-0.2877692282199859,-1.097182273864746,0.1382482200860977,-44.15765380859375,1.2570366859436035,71.59259796142578,24.59,1
-0.2966292202472687,-1.196712613105774,0.1390997171401977,-35.35610580444336,1.256679654121399,71.11160278320312,24.59,1
-0.3247061371803283,-1.226998805999756,0.1620372533798217,-28.28191375732422,1.2564505338668823,70.80292510986328,24.59,1
-0.3483220636844635,-1.2408369779586792,0.1767572462558746,-22.040382385253903,1.2563034296035769,70.6048355102539,24.59,1
-0.3690751791000366,-1.244119644165039,0.1694103628396988,-16.275880813598633,1.2562090158462524,70.47771453857422,24.59,1
-0.3711977899074554,-1.1790530681610107,0.1199133694171905,-11.537609100341797,1.2561484575271606,70.39613342285156,24.59,1
-0.366962194442749,-1.1261014938354492,0.0825512707233429,-8.135018348693848,1.256109595298767,70.34378051757812,24.59,1
-0.3586462438106537,-1.108913540840149,0.0529766529798507,-5.654078006744385,1.256084680557251,70.3101806640625,24.59,1
-0.2917340397834778,-1.0922855138778689,0.0787795633077621,-3.660705089569092,1.2560687065124512,70.28861999511719,24.59,1
-0.2431958615779876,-1.0536257028579712,0.1065339297056198,-2.1450228691101074,1.2560584545135498,70.27478790283203,24.59,1
-0.1504713296890258,-0.9784361720085144,0.1635295152664184,-1.1329370737075806,1.256051778793335,70.26590728759766,24.59,1
-0.1469438076019287,-0.8742060661315918,0.160921573638916,-0.4117871522903442,1.256047606468201,70.26020812988281,24.59,1
-0.1614733636379242,-0.8129149675369263,0.1424546241760254,0.0832485556602478,1.256044864654541,70.25655364990234,24.59,1
-0.2491664439439773,-0.8239618539810181,0.0858214050531387,0.185979425907135,1.2560430765151978,70.25420379638672,24.59,1
-0.3278339207172394,-0.8422466516494751,0.0438796877861022,-0.0741081982851028,1.2551240921020508,70.25270080566406,24.57,1
-0.3559270799160003,-0.8875674605369568,0.0281594581902027,-0.3592424690723419,1.254534363746643,70.2517318725586,24.57,1
-0.3515645563602447,-0.916651725769043,0.0292666684836149,-0.4204176366329193,1.2541558742523191,70.25111389160156,24.57,1
-0.2927871942520141,-0.9633051753044128,0.0467705354094505,-0.2554695308208465,1.2539130449295044,70.25071716308594,24.57,1
-0.2158828377723693,-1.0268313884735107,0.0747968330979347,-0.0600509494543075,1.2537572383880615,70.25045776367188,24.57,1
-0.1665300577878952,-1.0564032793045044,0.0983802750706672,-0.0707804262638092,1.2536572217941284,70.25029754638672,24.57,1
-0.1684449166059494,-1.1425540447235107,0.0855258926749229,-0.2675425112247467,1.25359308719635,70.25019073486328,24.57,1
-0.1752715408802032,-1.2202317714691162,0.054885596036911,-0.3794827759265899,1.2535518407821655,70.2501220703125,24.57,1
-0.2356302291154861,-1.1749187707901,0.0240268670022487,-0.3259294331073761,1.253066062927246,70.25007629394531,24.57,1
-0.2967560589313507,-1.0674705505371094,0.0546034798026084,-0.2843968272209167,1.2527543306350708,70.25004577636719,24.57,1
-0.3303853273391723,-0.9873209595680236,0.0910191163420677,-0.2362481504678726,1.2525542974472046,70.25003051757812,24.57,1
-0.3351733088493347,-0.9750699996948242,0.1199863478541374,-0.0262203142046928,1.2524259090423584,70.2500228881836,24.57,1
-0.2990615665912628,-0.9840013384819032,0.127380296587944,0.223205879330635,1.2523435354232788,70.25001525878906,24.57,1
-0.180724948644638,-0.9897329807281494,0.0985386669635772,0.2435528039932251,1.2522906064987185,70.25000762939453,24.57,1
-0.0991855487227439,-0.9486290216445924,0.0800297707319259,0.0273254420608282,1.2522567510604858,70.25000762939453,24.57,1
-0.0748471245169639,-0.8886642456054688,0.0737495943903923,-0.1866709142923355,1.252234935760498,70.25000762939453,24.57,1
-0.1375969648361206,-0.8389867544174194,0.0753171145915985,-0.2774279713630676,1.2513031959533691,68.72740936279297,24.57,1
-0.2226483970880508,-0.8183021545410156,0.0651275143027305,-0.3500009179115295,1.2507052421569824,67.75029754638672,24.57,1
-0.316413938999176,-0.7994301915168762,0.0585884116590023,-0.5291293859481812,1.2503215074539185,67.12323760986328,24.57,1
-0.3821850419044494,-0.7817214727401733,0.0711853131651878,-0.8267951011657715,1.2500752210617063,66.72083282470703,24.57,1
-0.4299909174442291,-0.7815525531768799,0.0904648303985595,-1.2005311250686646,1.2499171495437622,66.46258544921875,24.57,1
-0.4550721943378448,-0.8038352727890015,0.1308261901140213,-1.59084153175354,1.2498157024383545,66.29685974121094,24.57,1
-0.4767656922340393,-0.8405261039733887,0.1567277908325195,-1.841320276260376,1.2497506141662598,66.19050598144531,24.57,1
-0.5018829107284546,-0.9648321270942688,0.1621543914079666,-1.883838176727295,1.249708890914917,66.12225341796875,24.57,1
-0.5068061351776123,-1.066995620727539,0.1600390970706939,-1.84305477142334,1.2478456497192385,66.07845306396484,24.57,1
-0.4931722283363342,-1.160547137260437,0.1530838459730148,-1.7094050645828247,1.246649980545044,66.05034637451172,24.57,1
-0.4452383518218994,-1.2429742813110352,0.1486203670501709,-1.1507364511489868,1.2458826303482056,66.03231048583984,24.57,1
-0.425672709941864,-1.2342957258224487,0.1513537466526031,0.0890984907746315,1.2453901767730713,66.02073669433594,24.57,1
-0.4355077147483825,-1.1391619443893433,0.1419123113155365,1.8663790225982664,1.2450741529464722,66.0133056640625,24.57,1
-0.4866014420986175,-1.1172950267791748,0.1190600246191024,3.766441345214844,1.2448713779449463,66.00853729248047,24.57,1
-0.5193904638290405,-1.092066526412964,0.0931991934776306,5.150590419769287,1.2447412014007568,66.00547790527344,24.57,1
-0.5068458914756775,-1.0758763551712036,0.0598098784685134,5.3115949630737305,1.2446576356887815,66.0035171508789,24.57,1
-0.4596111178398132,-1.104670763015747,0.0495780855417251,4.13593864440918,1.2436861991882324,66.00225830078125,24.57,1
-0.3565274775028229,-1.0951604843139648,0.0765985548496246,2.356853485107422,1.2430627346038818,66.00144958496094,24.57,1
-0.2455921322107315,-1.010688543319702,0.1219276115298271,0.8927072882652283,1.2426626682281494,66.00093078613281,24.57,1
-0.1799979954957962,-0.9396860003471376,0.1622127443552017,0.218213140964508,1.242405891418457,66.00059509277344,24.57,1
-0.1714901030063629,-0.8717295527458191,0.1768698692321777,0.2940873801708221,1.242241144180298,66.00038146972656,24.57,1
-0.1828235387802124,-0.8169234991073608,0.1750804185867309,0.6329677104949951,1.2421354055404663,66.000244140625,24.57,1
-0.2236833423376083,-0.7761543393135071,0.1459431797266006,0.5566704273223877,1.242067575454712,66.00016021728516,24.57,1
-0.2611003518104553,-0.800370991230011,0.1104512587189674,-0.1837298721075058,1.242024064064026,66.0000991821289,24.57,1
-0.2739169001579284,-0.8271073698997498,0.0932723581790924,-1.2141753435134888,1.2392418384552002,66.00006103515625,24.57,1
-0.2485551685094833,-0.8554608225822449,0.0934434756636619,-2.0295066833496094,1.2374563217163086,66.00003814697266,24.57,1
-0.2098883688449859,-0.901645302772522,0.09355328977108,-2.3198719024658203,1.2363104820251465,66.0000228881836,24.57,1
-0.1514876037836074,-0.9928593635559082,0.0712326616048812,-1.907921552658081,1.2355751991271973,66.00001525878906,24.57,1
-0.1140093505382537,-1.1521552801132202,0.0233219247311353,-0.8912146687507629,1.2351033687591553,66.00000762939453,24.57,1
-0.1235446110367775,-1.1816110610961914,-0.0018266550032421,0.180410549044609,1.2348005771636963,66.00000762939453,24.57,1
-0.1968370825052261,-1.1109497547149658,0.0044255321845412,0.7104846835136414,1.2346062660217283,66.00000762939453,24.57,1
-0.2606652975082397,-1.0656033754348757,0.0308289229869842,0.5383474230766296,1.2344815731048584,66.00000762939453,24.57,1
-0.3632020950317383,-1.0924804210662842,0.0701641961932182,-0.0844287276268005,1.2353193759918213,69.76171112060547,24.57,1
-0.3954176604747772,-1.098533034324646,0.0674184411764144,-0.6739670634269714,1.235857009887695,72.17575073242188,24.57,1
-0.3601140081882477,-1.0688306093215942,0.0320697277784347,-0.8122662901878357,1.2362020015716553,73.72494506835938,24.57,1
-0.2311004400253296,-1.010584831237793,0.0037871820386499,-0.5714218020439148,1.236423373222351,74.71913146972656,24.57,1
-0.1427091807126999,-0.950814962387085,0.008028170093894,-0.3523752987384796,1.2365654706954956,75.35713958740234,24.57,1
-0.1419625133275985,-0.8956648111343384,0.0723253116011619,-0.3622720539569855,1.236656665802002,75.7665786743164,24.57,1
-0.2086566388607025,-0.871468186378479,0.1359786093235016,-0.7053853869438171,1.2367151975631714,76.02933502197266,24.57,1
-0.2738481760025024,-0.8391468524932861,0.1712298542261123,-1.5453612804412842,1.23675274848938,76.19795227050781,24.57,1
-0.2988910377025604,-0.8128070831298828,0.1770587563514709,-2.736438274383545,1.2335636615753174,76.30615997314453,24.57,1
-0.3037665486335754,-0.8350881934165955,0.1696038693189621,-3.794574022293091,1.2315170764923096,76.37560272216797,24.57,1
-0.30689537525177,-0.8885713219642639,0.1592219769954681,-4.473624706268311,1.2302037477493286,76.420166015625,24.57,1
-0.336892157793045,-0.928491473197937,0.1525594741106033,-4.841331481933594,1.229360818862915,76.44876861572266,24.57,1
-0.3673379123210907,-0.9876965880393982,0.1426860839128494,-4.697551250457764,1.2288199663162231,76.46712493896484,24.57,1
-0.414865106344223,-1.109657645225525,0.125154361128807,-3.5591695308685303,1.2284728288650513,76.4789047241211,24.57,1
-0.4509631097316742,-1.2103163003921509,0.1139035075902938,-1.4779905080795288,1.2282500267028809,76.48646545410156,24.57,1
-0.4629331827163696,-1.2805110216140747,0.1066833585500717,0.8857895135879517,1.2281070947647097,76.49131774902344,24.57,1
-0.431430459022522,-1.2527868747711182,0.1020498871803283,3.1550683975219727,1.2293925285339355,76.49443054199219,24.57,1
-0.4112138152122497,-1.1566263437271118,0.093478612601757,5.306380271911621,1.230217456817627,76.49642944335938,24.57,1
-0.3870443999767303,-1.078122615814209,0.065586969256401,6.919836044311523,1.230746865272522,76.49771118164062,24.57,1
-0.3659360706806183,-1.044536828994751,0.0420899428427219,7.342638969421387,1.2310866117477417,76.49852752685547,24.57,1
-0.3411944210529327,-1.062167763710022,0.0326086767017841,6.485457897186279,1.23130464553833,76.49905395507812,24.57,1
-0.3141210973262787,-1.0566890239715576,0.0433174706995487,4.871343612670898,1.2314444780349731,76.4993896484375,24.57,1
-0.2743559181690216,-1.025184154510498,0.0613853074610233,3.151226043701172,1.2315342426300049,76.4996109008789,24.57,1
-0.2096524834632873,-0.948988437652588,0.0729802027344703,1.88613760471344,1.231591820716858,76.49974822998047,24.57,1
-0.1625317633152008,-0.8832970857620239,0.0804211422801017,1.3752130270004272,1.2297927141189575,76.49983978271484,24.57,1
-0.1602812707424163,-0.8243468403816223,0.0851963087916374,1.5488916635513306,1.2286381721496582,76.4999008178711,24.57,1
-0.1756303608417511,-0.7585271000862122,0.0826629623770713,2.0329365730285645,1.2278972864151,76.49993896484375,24.57,1
-0.1854805201292038,-0.7050922513008118,0.081037200987339,2.2540042400360107,1.227421760559082,76.49996185302734,24.57,1
-0.1750084608793258,-0.6931919455528259,0.0743961110711097,1.7760871648788452,1.227116584777832,76.4999771118164,24.57,1
-0.1626903265714645,-0.7191416621208191,0.070134237408638,0.6776382327079773,1.2269207239151,76.49998474121094,24.57,1
-0.1491874754428863,-0.8197612762451172,0.061801441013813,-0.6004952192306519,1.2267950773239136,76.49999237060547,24.57,1
-0.1237288042902946,-0.929115355014801,0.0340628325939178,-1.6715079545974731,1.2267144918441772,76.49999237060547,24.57,1
-0.1241842210292816,-1.0608680248260498,-0.0061293067410588,-2.326579093933105,1.2248263359069824,79.29082489013672,24.57,1
-0.1636608988046646,-1.1678104400634766,-0.0319223068654537,-2.4854378700256348,1.2236145734786987,81.08181762695312,24.57,1
-0.2225814014673233,-1.1916576623916626,-0.0428769960999488,-2.250622272491455,1.222836971282959,82.23117065429688,24.57,1
-0.3107731640338897,-1.1509836912155151,0.0228639785200357,-1.895724296569824,1.2223379611968994,82.96876525878906,24.57,1
-0.4345428645610809,-1.1472725868225098,0.1266282647848129,-1.7073795795440674,1.2220176458358765,83.44210815429688,24.57,1
-0.4859822392463684,-1.156086564064026,0.1708271205425262,-1.7119009494781494,1.221812129020691,83.7458724975586,24.57,1
-0.395842045545578,-1.1225584745407104,0.1096270158886909,-1.6431509256362915,1.2216802835464478,83.94081115722656,24.57,1
-0.2652241885662079,-1.1066398620605469,0.0591567605733871,-1.2945122718811035,1.2215956449508667,84.06591033935547,24.57,1
-0.1254234164953231,-1.0628376007080078,0.0659522786736488,-0.7734222412109375,1.2192462682724,84.14619445800781,24.57,1
-0.1084784045815467,-0.96755450963974,0.1094976663589477,-0.2348098456859588,1.2177386283874512,84.19771575927734,24.57,1
-0.142386257648468,-0.8896139860153198,0.1486381441354751,0.2398133277893066,1.216771125793457,84.23077392578125,24.57,1
-0.2313196659088134,-0.8395962119102478,0.16815847158432,0.4118438363075256,1.216150164604187,84.25199127197266,24.57,1
-0.305185317993164,-0.8018999099731445,0.1694899499416351,0.078003741800785,1.2157516479492188,84.26560974121094,24.57,1
-0.3301969468593597,-0.7497197389602661,0.1535510867834091,-0.5267363786697388,1.2154959440231323,84.27434539794922,24.57,1
-0.3294546604156494,-0.7722112536430359,0.1265291273593902,-0.943484365940094,1.2153319120407104,84.27995300292969,24.57,1
-0.3345760703086853,-0.8034383058547974,0.114785760641098,-1.0246353149414062,1.215226650238037,84.28355407714844,24.57,1
-0.3658515810966491,-0.8234780430793762,0.1128473132848739,-0.8725064992904663,1.2192904949188232,84.2858657836914,24.55,1
-0.3859224021434784,-0.875522792339325,0.1116033270955085,-0.5527592897415161,1.2218984365463257,84.28734588623047,24.55,1
-0.382009357213974,-1.009682059288025,0.0884139165282249,-0.1541048437356948,1.223572015762329,84.28829956054688,24.55,1
-0.3515093326568603,-1.1797443628311155,0.0959233865141868,0.1196414977312088,1.2246460914611816,84.28890991210938,24.55,1
-0.3151428401470184,-1.249696135520935,0.1231336295604705,0.3275593221187591,1.2253353595733645,84.28929901123047,24.55,1
-0.2974027097225189,-1.1938272714614868,0.1182044968008995,0.9016457796096802,1.2257776260375977,84.28955078125,24.55,1
-0.2972136437892914,-1.146778225898743,0.1038457155227661,1.9543333053588867,1.226061463356018,84.28971099853516,24.55,1
-0.3586678504943847,-1.1221827268600464,0.0834355279803276,2.9129111766815186,1.2262436151504517,84.2898178100586,24.55,1
-0.414898931980133,-1.1008009910583496,0.0703374445438385,3.219969749450684,1.2217698097229004,84.28988647460938,24.55,1
-0.43419149518013,-1.042297124862671,0.0563340708613395,2.858140468597412,1.2188987731933594,84.28992462158203,24.55,1
-0.3626057207584381,-1.0719259977340698,0.0641408339142799,2.0169014930725098,1.2170562744140625,84.28995513916016,24.55,1
-0.2718839049339294,-1.0909401178359983,0.0803463160991668,0.9289085865020752,1.215873956680298,84.28997039794922,24.55,1
-0.163283884525299,-1.0191757678985596,0.1187349334359169,0.0157427657395601,1.2151151895523071,84.28997802734375,24.55,1
-0.0879928767681121,-0.9395348429679872,0.1489683091640472,-0.4377191662788391,1.2146282196044922,84.28998565673828,24.55,1
-0.0844576358795166,-0.8548392057418823,0.1515770256519317,-0.671403706073761,1.2143157720565796,84.28999328613281,24.55,1
-0.1269711107015609,-0.7836931347846985,0.1308600604534149,-1.0219932794570925,1.2141152620315552,84.28999328613281,24.55,1
-0.1654493659734726,-0.7324379086494446,0.1175651028752327,-1.4511882066726685,1.21582293510437,86.51477813720703,24.55,1
-0.1789469420909881,-0.7219363451004028,0.1034353896975517,-1.8591761589050293,1.2169188261032104,87.94251251220703,24.55,1
-0.1764133721590042,-0.7319903373718262,0.0999655276536941,-2.3825273513793945,1.21762216091156,88.85874938964844,24.55,1
-0.1523963660001754,-0.7944201827049255,0.0921409949660301,-3.008572578430176,1.218073487281799,89.44673919677734,24.55,1
-0.1201903149485588,-0.8680707216262817,0.0759241133928299,-3.460488557815552,1.2183631658554075,89.82408142089844,24.55,1
-0.1107178702950477,-0.9433242678642272,0.054321501404047,-3.549877882003784,1.2185490131378174,90.06623077392578,24.55,1
-0.143823429942131,-1.0811820030212402,0.023664865642786,-3.2776458263397217,1.2186683416366575,90.2216339111328,24.55,1
-0.1874597668647766,-1.0912823677062988,0.0207845233380794,-2.7805111408233643,1.218744874000549,90.32135772705078,24.55,1
-0.2546474635601043,-1.1537419557571411,0.0357294082641601,-2.4686439037323,1.216498613357544,90.38536071777344,24.55,1
-0.3201557695865631,-1.1994227170944214,0.1124934703111648,-2.594519853591919,1.215057134628296,90.42642974853516,24.55,1
-0.3789885640144348,-1.1839557886123655,0.2121361941099167,-2.650221824645996,1.2141320705413818,90.45278930664062,24.55,1
-0.3607663214206695,-1.0564767122268677,0.2704833745956421,-1.8368977308273315,1.213538408279419,90.4697036743164,24.55,1
-0.2539101541042328,-1.01385235786438,0.2631450593471527,-0.0001478205231251,1.2131574153900146,90.48056030273438,24.55,1
0.0105860959738492,-1.0928562879562378,0.208055779337883,2.378735303878784,1.212912917137146,90.4875259399414,24.55,1
0.1691290140151977,-1.0819809436798096,0.155909314751625,4.711445331573486,1.2127560377120972,90.49199676513672,24.55,1
0.1981016546487808,-1.0358173847198486,0.1168469488620758,6.495049953460693,1.2126553058624268,90.49486541748048,24.55,1
0.0263703055679798,-0.9782033562660216,0.0973767414689064,7.281407356262207,1.2144267559051514,90.4967041015625,24.55,1
-0.1510102897882461,-0.9188388586044312,0.0904796570539474,6.790090084075928,1.2155635356903076,90.49788665771484,24.55,1
-0.2592451870441437,-0.8583510518074036,0.069260187447071,5.06683874130249,1.2162930965423584,90.49864196777344,24.55,1
-0.2391397058963775,-0.8027401566505432,0.0500449761748313,2.570915937423706,1.216761350631714,90.49913024902344,24.55,1
-0.2150416225194931,-0.7558567523956299,0.0377137586474418,0.1021932214498519,1.2170617580413818,90.49944305419922,24.55,1
-0.1883812993764877,-0.7033785581588745,0.035398069769144,-1.5609076023101809,1.217254638671875,90.49964141845705,24.55,1
-0.1768700182437896,-0.6752988696098328,0.0339119918644428,-2.212611198425293,1.2173783779144287,90.49977111816406,24.55,1
-0.1918738335371017,-0.7804299592971802,0.0105672171339392,-2.319153070449829,1.2174577713012695,90.4998550415039,24.55,1
-0.2015024274587631,-1.2173501253128052,-0.077185183763504,-2.398273229598999,1.2147548198699951,90.49990844726562,24.55,1
-0.2468659281730651,-1.4809470176696775,-0.1390973925590515,-2.3953092098236084,1.2130202054977417,90.49993896484376,24.55,1
-0.2815753817558288,-1.263861894607544,-0.1900246441364288,-1.906176805496216,1.2119070291519165,90.49996185302734,24.55,1
-0.3206432461738586,-0.984604835510254,-0.1779246181249618,-0.8291912078857422,1.211192607879639,90.4999771118164,24.55,1
-0.2897369861602783,-0.8333826065063477,-0.0861928984522819,0.4208379685878753,1.2107341289520264,90.49998474121094,24.55,1
-0.2866964638233185,-1.0106278657913208,-0.1000958383083343,1.3090165853500366,1.210439920425415,90.49999237060548,24.55,1
-0.2959407866001129,-1.157960295677185,-0.1370068192481994,1.570896863937378,1.2102512121200562,90.49999237060548,24.55,1
-0.245895504951477,-1.1461520195007324,-0.143900841474533,1.2087353467941284,1.2101300954818726,90.49999237060548,24.55,1
-0.208181545138359,-1.1161830425262451,-0.1203361451625824,0.4496823847293854,1.2100523710250854,92.26979064941406,24.55,1
-0.1895766705274582,-1.0297774076461792,-0.0716270357370376,-0.1592416763305664,1.2100024223327637,93.4055404663086,24.55,1
-0.2336148768663406,-0.9855228066444396,-0.0179772358387708,-0.195339098572731,1.2099703550338743,94.1343994140625,24.55,1
-0.2674738466739654,-0.9571227431297302,0.0052565685473382,0.1755789667367935,1.2099498510360718,94.60214233398438,24.55,1
-0.2780070304870605,-0.9053105711936952,0.0089711369946599,0.5139249563217163,1.2099366188049316,94.90231323242188,24.55,1
-0.2735710740089416,-0.8664627075195312,0.0281482581049203,0.5913354754447937,1.2099281549453735,95.0949478149414,24.55,1
-0.2651265561580658,-0.8695212602615356,0.0852372199296951,0.2827555239200592,1.2099227905273438,95.21856689453124,24.55,1
-0.2541095912456512,-0.9946351051330566,0.1106780841946601,-0.4956505596637726,1.2099193334579468,95.2978973388672,24.55,1
-0.2582350671291351,-1.0637303590774536,0.1382001191377639,-1.5469034910202026,1.207621693611145,95.34880828857422,24.55,1
-0.3112625479698181,-0.9849207401275636,0.1894488185644149,-2.4651522636413574,1.2061471939086914,95.38147735595705,24.55,1
-0.3508903086185455,-0.906356394290924,0.2223372906446457,-3.0365185737609863,1.2052009105682373,95.4024429321289,24.55,1
-0.3819188773632049,-0.8839271664619446,0.2154543399810791,-3.317206621170044,1.2045936584472656,95.41590118408205,24.55,1
-0.4018312394618988,-0.8695334196090698,0.1886461675167083,-3.404189109802246,1.204203963279724,95.4245376586914,24.55,1
-0.4146098494529724,-0.8546985387802124,0.171442225575447,-3.345367193222046,1.2039538621902466,95.4300765991211,24.55,1
-0.4228104054927826,-0.828385055065155,0.1604017168283462,-3.24671483039856,1.2037934064865112,95.43363189697266,24.55,1
-0.4280730783939361,-0.7835096716880798,0.1589143276214599,-3.075928211212158,1.2036904096603394,95.4359130859375,24.55,1
-0.459439218044281,-0.7211245894432068,0.1915464550256729,-2.385949850082397,1.2027060985565186,95.4373779296875,24.55,1
-0.5131548643112183,-0.7202738523483276,0.2236834317445755,-0.5853652954101562,1.202074408531189,95.43831634521484,24.55,1
-0.558821976184845,-0.7813034653663635,0.2387093156576156,2.472493886947632,1.2016690969467163,95.4389190673828,24.55,1
-0.5825307369232178,-0.8428598046302795,0.287536472082138,6.269130229949951,1.2014089822769165,95.4393081665039,24.55,1
-0.5977456569671631,-0.8151898384094238,0.3412620425224304,9.723044395446776,1.2012420892715454,95.43955993652344,24.55,1
-0.6187052726745605,-0.7078684568405151,0.4093266725540161,11.52040672302246,1.2011349201202393,95.4397201538086,24.55,1
-0.6097648739814758,-0.6501913070678711,0.4418110847473144,10.968544006347656,1.2010661363601685,95.4398193359375,24.55,1
-0.5984296202659607,-0.6411663293838501,0.4570599198341369,8.583069801330566,1.201022028923035,95.43988800048828,24.55,1
-0.5799598097801208,-0.7585256695747375,0.4556502103805542,5.500954627990723,1.2000755071640017,95.43992614746094,24.55,1
-0.5681069493293762,-0.8954156637191772,0.4435499906539917,2.4984142780303955,1.1994681358337402,95.43995666503906,24.55,1
-0.4821316003799438,-1.1344037055969238,0.4469802975654602,-0.0446463674306869,1.1990783214569092,95.43997192382812,24.55,1
-0.3485887348651886,-1.377336859703064,0.4267905950546264,-1.870095372200012,1.198828101158142,95.43997955322266,24.55,1
-0.2181064039468765,-1.527639627456665,0.4194317758083343,-3.0487284660339355,1.1986675262451172,95.4399871826172,24.55,1
-0.1287725865840912,-1.5009442567825315,0.4986759126186371,-3.840933322906494,1.198564529418945,95.43999481201172,24.55,1
-0.1442143470048904,-1.3942482471466064,0.5047480463981628,-4.087796688079834,1.1984983682632446,95.43999481201172,24.55,1
-0.1709173023700714,-1.1634414196014404,0.4974492490291595,-3.626433849334717,1.1984559297561646,95.43999481201172,24.55,1
-0.1096848845481872,-0.6122831702232361,0.5711341500282288,-3.0974903106689453,1.197052001953125,96.71539306640624,24.55,1
-0.1151716411113739,-0.1634193211793899,0.7695607542991638,-3.148545503616333,1.1961510181427002,97.53387451171876,24.55,1
-0.1466815918684005,0.3709377348423004,1.0704305171966553,-3.3998467922210693,1.195572853088379,98.0591278076172,24.55,1
-0.0885340273380279,0.7866283655166626,1.1851426362991333,-3.353328227996826,1.195201754570007,98.39620208740234,24.55,1
0.1447038203477859,0.9470369815826416,1.0348472595214844,-3.3664662837982178,1.1949635744094849,98.61251831054688,24.55,1
0.4399245977401733,0.7085137367248535,1.072742938995361,-3.70807695388794,1.1948107481002808,98.75133514404295,24.55,1
0.6013914346694946,0.5442477464675903,0.9067378640174866,-3.895059823989868,1.1947126388549805,98.84042358398438,24.55,1
0.7162070870399475,0.6459489464759827,0.4643389284610748,-3.63530158996582,1.1946496963500977,98.89759063720705,24.55,1
0.8290736079216003,0.78398597240448,0.1636394262313842,-3.23931884765625,1.19047749042511,98.9342803955078,24.55,1
0.688789427280426,0.9229501485824584,0.0434388443827629,-3.00311279296875,1.187800049781799,98.95782470703124,24.55,1
0.6715341806411743,0.92256498336792,-0.011307873763144,-3.037823438644409,1.186081886291504,98.97293090820312,24.55,1
0.5597007870674133,0.8663400411605835,-0.046441163867712,-3.421938896179199,1.1849792003631592,98.98262786865234,24.55,1
0.3199993371963501,0.9758002758026124,0.1381299644708633,-3.87981390953064,1.1842715740203855,98.98885345458984,24.55,1
0.1437816321849823,1.0572410821914673,0.2957615256309509,-3.7974812984466553,1.1838175058364868,98.99284362792967,24.55,1
-0.0476735942065715,1.1207005977630615,0.4528981149196625,-2.9600610733032227,1.1835260391235352,98.9954071044922,24.55,1
-0.1873318552970886,1.0830564498901367,0.609717071056366,-1.845858097076416,1.18333899974823,98.99705505371094,24.55,1
-0.2209787368774414,1.030909776687622,0.7439411282539368,-0.9516980051994324,1.177710771560669,98.99810791015624,24.57,1
-0.1698003113269806,0.969456136226654,0.8636650443077087,-0.3026435077190399,1.1740988492965698,98.99878692626952,24.57,1
-0.1537502557039261,0.9356164932250975,0.9069103002548218,0.1246300563216209,1.1717809438705444,98.9992218017578,24.57,1
-0.1434502601623535,0.9139001965522766,0.8954781889915466,-0.088400661945343,1.1702934503555298,98.99950408935548,24.57,1
-0.1200469881296157,0.8607794642448425,0.8657506108283997,-1.3357099294662476,1.169338941574097,98.99967956542967,24.57,1
-0.0938325673341751,0.8098963499069214,0.8410754203796387,-3.175107955932617,1.1687263250350952,98.99979400634766,24.57,1
-0.0490207932889461,0.7548514008522034,0.814044713973999,-4.720950603485107,1.1683331727981567,98.99987030029295,24.57,1
-0.0146653987467288,0.7027333974838257,0.7855024337768555,-6.035415649414063,1.1680809259414673,98.99991607666016,24.57,1
-0.0094114085659384,0.6468959450721741,0.7503923177719116,-8.254672050476074,1.163787603378296,98.99994659423828,24.57,1
-0.0116374744102358,0.5494871735572815,0.7166651487350464,-11.516724586486816,1.1610324382781982,98.99996948242188,24.57,1
-0.0242615845054388,0.4477913975715637,0.7006187438964844,-13.92897129058838,1.159264326095581,98.9999771118164,24.57,1
-0.0603518821299076,0.3097578287124634,0.6847233176231384,-14.233859062194824,1.1581295728683472,98.99998474121094,24.57,1
-0.0555236861109733,0.1819914281368255,0.6745225191116333,-14.519082069396973,1.157401442527771,98.99999237060548,24.57,1
0.0091502917930483,0.0440205559134483,0.6679762601852417,-17.668495178222656,1.156934142112732,98.99999237060548,24.57,1
0.0954365208745002,-0.1004989519715309,0.674970805644989,-22.559249877929688,1.1566342115402222,98.99999237060548,24.57,1
0.1955922544002533,-0.2212321311235427,0.6738616824150085,-25.02074813842773,1.1564418077468872,98.99999237060548,24.57,1
0.2654642164707184,-0.371482789516449,0.6339654922485352,-24.092592239379883,1.157236099243164,100.17149353027344,24.57,1
0.3382928967475891,-0.5014916658401489,0.5859713554382324,-23.69758033752441,1.1577458381652832,100.92330169677734,24.57,1
0.4801923036575317,-0.6632927060127258,0.5999536514282227,-25.916061401367188,1.1580729484558103,101.40576171875,24.57,1
0.6104395985603333,-0.7671273350715637,0.6089267134666443,-26.61965751647949,1.1582828760147097,101.7153778076172,24.57,1
0.7220137119293213,-0.8113713264465332,0.6034895181655884,-22.17022132873535,1.158417582511902,101.91407775878906,24.57,1
0.7712244391441345,-0.8285689949989319,0.6111958026885986,-17.763574600219727,1.1585040092468262,102.04158782958984,24.57,1
0.7860116958618164,-0.8508010506629944,0.6217390298843384,-23.69862174987793,1.1585595607757568,102.12342071533205,24.57,1
0.7619146704673767,-0.8370794057846069,0.6620917320251465,-42.61869812011719,1.1585952043533323,102.17593383789062,24.57,1
0.7576461434364319,-0.8058825731277466,0.7327699661254883,-61.21273040771485,1.1636676788330078,102.20963287353516,24.57,1
0.7661024332046509,-0.7746666669845581,0.7837249636650085,-55.85221862792969,1.166922926902771,102.23126220703124,24.57,1
0.7659313678741455,-0.7266452312469482,0.8220227360725403,-15.164112091064451,1.1690119504928589,102.2451400756836,24.57,1
0.7378327250480652,-0.6846323013305664,0.8521977663040161,38.783782958984375,1.170352578163147,102.25404357910156,24.57,1
0.6918118000030518,-0.6240841746330261,0.8603668212890625,64.09690856933594,1.171212911605835,102.25975799560548,24.57,1
0.6174960136413574,-0.5796300768852234,0.8656092882156372,41.194610595703125,1.1717650890350342,102.263427734375,24.57,1
0.586597740650177,-0.5511019825935364,0.8633757829666138,-11.359843254089355,1.172119379043579,102.26577758789062,24.57,1
0.5891600847244263,-0.5383920669555664,0.8339536190032959,-64.60771942138672,1.1723467111587524,102.2672882080078,24.57,1
0.6019999980926514,-0.5302355885505676,0.8094743490219116,-101.06124114990234,1.1793783903121948,102.26825714111328,24.55,1
0.6046421527862549,-0.5305989980697632,0.7713738679885864,-108.70243072509766,1.1838908195495603,102.26888275146484,24.55,1
0.5951421856880188,-0.5308322310447693,0.7245320677757263,-82.21916198730469,1.186786651611328,102.26927947998048,24.55,1
0.5778501033782959,-0.5253841280937195,0.6944717168807983,-34.019493103027344,1.1886451244354248,102.26953887939452,24.55,1
0.5611552596092224,-0.510692298412323,0.6751807332038879,17.981409072875977,1.1898376941680908,102.26969909667967,24.55,1
0.5504415035247803,-0.4956661462783813,0.6628009080886841,69.08634185791016,1.1906030178070068,102.26980590820312,24.55,1
0.5491637587547302,-0.469229906797409,0.6548562049865723,119.1541519165039,1.191094160079956,102.2698745727539,24.55,1
0.5315504670143127,-0.4466668665409088,0.6553555130958557,159.62860107421875,1.1914093494415283,102.2699203491211,24.55,1
0.514649510383606,-0.4265894293785095,0.661273717880249,181.7407684326172,1.2076780796051023,102.26995086669922,24.55,1
0.5094012022018433,-0.4081071317195892,0.6706694960594177,185.33740234375,1.21811842918396,102.26996612548828,24.55,1
0.5116309523582458,-0.3906484842300415,0.676699161529541,175.28204345703125,1.2248183488845823,102.2699737548828,24.55,1
0.5130618214607239,-0.3738467395305633,0.6805686354637146,157.91297912597656,1.2291179895401,102.26998138427734,24.55,1
0.5139800906181335,-0.3462710380554199,0.6718562841415405,139.8091583251953,1.231877326965332,102.26998901367188,24.55,1
0.508971631526947,-0.3341723084449768,0.6606674194335938,126.19567108154295,1.2336480617523191,102.26998901367188,24.55,1
0.5225508213043213,-0.3376035988330841,0.6534870862960815,120.27522277832033,1.234784483909607,102.26998901367188,24.55,1
0.5872429013252258,-0.3454033732414245,0.6712702512741089,117.0382843017578,1.235513687133789,102.26998901367188,24.55,1
0.6343563199043274,-0.3392132520675659,0.7106713056564331,99.7493896484375,1.2612295150756836,103.24803924560548,24.55,1
0.6421998739242554,-0.3576318919658661,0.7527499794960022,57.1886100769043,1.277732491493225,103.87569427490234,24.55,1
0.596853494644165,-0.3638541400432586,0.774155855178833,1.9278786182403564,1.288323163986206,104.27848815917967,24.55,1
0.5285683274269104,-0.3510538935661316,0.7766973972320557,-42.688758850097656,1.2951196432113647,104.53697204589844,24.55,1
0.4791490733623504,-0.3484372198581695,0.7783284187316895,-67.6095962524414,1.2994811534881592,104.7028579711914,24.55,1
0.436239093542099,-0.3467579782009125,0.7737773060798645,-78.41478729248047,1.3022801876068115,104.80931091308594,24.55,1
0.4366908371448517,-0.3568758964538574,0.7372700572013855,-81.01402282714844,1.3040764331817627,104.87762451171876,24.55,1
0.4873606860637665,-0.3409779071807861,0.7418306469917297,-78.88452911376953,1.3052291870117188,104.92146301269533,24.55,1
0.5030843615531921,-0.3363732695579529,0.744757354259491,-76.06700134277344,1.3670220375061035,104.94960021972656,24.55,1
0.4795882701873779,-0.3222227096557617,0.7578310966491699,-74.11557006835938,1.4066771268844604,104.96765899658205,24.55,1
0.4980964660644531,-0.3299350142478943,0.7662211060523987,-70.5130844116211,1.4321255683898926,104.979248046875,24.55,1
0.4931806325912475,-0.312493234872818,0.7883986234664917,-63.62985229492188,1.448456883430481,104.98667907714844,24.55,1
0.4676348567008972,-0.3124956488609314,0.7914353609085083,-55.844970703125,1.458937406539917,104.991455078125,24.55,1
0.4680343568325043,-0.3124971985816955,0.7821885943412781,-49.77430725097656,1.465663194656372,104.99451446533205,24.55,1
0.4906818270683288,-0.3013026416301727,0.7762545347213745,-44.48488235473633,1.4699794054031372,104.9964828491211,24.55,1
0.4996179044246673,-0.2941186428070068,0.789239764213562,-37.89119338989258,1.4727493524551392,104.99774169921876,24.55,1
0.5277436375617981,-0.2895083427429199,0.7807796001434326,-30.575145721435547,1.5163356065750122,104.99855041503906,24.53,1
0.4338376522064209,-0.2529630959033966,0.8201325535774231,-24.6369743347168,1.544306755065918,104.9990692138672,24.53,1
0.451943039894104,-0.2463037669658661,0.8173981308937073,-20.389123916625977,1.562256932258606,104.99940490722656,24.53,1
0.4355731606483459,-0.2364324182271957,0.8268389105796814,-16.566829681396484,1.573776364326477,104.99961853027344,24.53,1
0.4642523229122162,-0.235695332288742,0.832897424697876,-12.69161891937256,1.5811688899993896,104.999755859375,24.53,1
