acc_x,acc_y,acc_z,bvp,eda,hr,temp,label
0.0,0.0,0.0,0.0,0.0,0.0,28.03,1
-0.0598958283662796,-0.1536458283662796,0.0312499981373548,1.4299999475479126,0.3881354928016662,13.5166654586792,28.03,1
-0.1318597644567489,-0.3513719737529754,0.0773628056049346,3.5924389362335205,0.9088051319122314,31.648780822753903,28.03,1
-0.2044227719306945,-0.5233596563339233,0.1324231773614883,6.58328914642334,1.361698031425476,47.420597076416016,28.03,1
-0.2947287857532501,-0.6755249500274658,0.1619162857532501,11.771750450134276,1.6921077966690063,58.9269905090332,28.03,1
-0.2405856251716613,-0.7346295118331909,0.187374085187912,19.722007751464844,1.915809154510498,66.71730041503906,28.03,1
-0.2716968357563019,-0.834494411945343,0.1929719150066375,28.18684768676757,2.062589406967163,71.82886505126953,28.03,1
-0.308584064245224,-0.860116720199585,0.1687006801366806,33.39773178100586,2.157651901245117,75.13937377929688,28.03,1
-0.3882475197315216,-0.848671019077301,0.1307051479816436,34.91191482543945,2.17350435256958,77.27191162109375,28.03,1
-0.3890987932682037,-0.886071503162384,0.1342570185661316,37.46417617797852,2.1836934089660645,78.64258575439453,28.03,1
-0.3896454572677612,-0.8932989239692688,0.1309413909912109,45.87621307373047,2.1902363300323486,79.52276611328125,28.03,1
-0.3899963498115539,-0.903535544872284,0.1288130432367324,59.10318374633789,2.1944363117218018,80.0877685546875,28.03,1
-0.3958191275596618,-0.9045079946517944,0.1218494921922683,70.37238311767578,2.197132110595703,80.45039367675781,28.03,1
-0.3939583301544189,-0.9051320552825928,0.1173804849386215,72.61776733398438,2.198862075805664,80.68311309814453,28.03,1
-0.392764151096344,-0.9111303091049194,0.1201102137565612,63.70159530639648,2.19997239112854,80.83246612548828,28.03,1
-0.3919977843761444,-0.9149796366691588,0.1218620091676712,47.278541564941406,2.2006847858428955,80.92831420898438,28.03,1
-0.3971037566661834,-0.9118521809577942,0.1229862198233604,29.71371459960937,2.21950364112854,80.98982238769531,28.03,1
-0.4003804624080658,-0.915442943572998,0.1293054372072219,16.20966148376465,2.2315804958343506,81.029296875,28.03,1
-0.396885484457016,-0.9177472591400146,0.1333607584238052,8.30303955078125,2.239330768585205,81.05462646484375,28.03,1
-0.3946426212787628,-0.919226050376892,0.1359632313251495,4.024355411529541,2.2443044185638428,81.07088470458984,28.03,1
-0.3988010585308075,-0.920175075531006,0.1376333385705948,0.8235552310943604,2.2474963665008545,81.08131408691406,28.03,1
-0.4014697074890136,-0.9151862859725952,0.1387051194906234,-1.907641053199768,2.249544620513916,81.08800506591797,28.03,1
-0.3975844979286194,-0.9175825715065002,0.1393929272890091,-3.352264165878296,2.250859260559082,81.09230041503906,28.03,1
-0.3950912058353424,-0.9191203713417052,0.1398343294858932,-2.925126552581787,2.251702785491944,81.09505462646484,28.03,1
-0.3934911489486694,-0.9201072454452516,0.1401176005601883,-1.0030293464660645,2.256834983825684,81.0968246459961,28.03,1
-0.3924643397331238,-0.92074054479599,0.140299379825592,1.1834269762039185,2.2601284980773926,81.09796142578125,28.03,1
-0.3974031507968902,-0.9211469888687134,0.1404160410165786,2.407440185546875,2.262242078781128,81.09869384765625,28.03,1
-0.4005725979804992,-0.9214078187942504,0.1404909044504165,2.2507238388061523,2.2635984420776367,81.09915924072266,28.03,1
-0.4026065766811371,-0.9215751886367798,0.1349411755800247,0.8998335003852844,2.2644689083099365,81.09945678710938,28.03,1
-0.4039118587970733,-0.921682596206665,0.1369774490594864,-1.0669410228729248,2.2650275230407715,81.09964752197266,28.03,1
-0.3991517424583435,-0.9217514991760254,0.1326864361763,-2.24312162399292,2.265385866165161,81.09976959228516,28.03,1
-0.3960969746112823,-0.9217957258224488,0.1299327164888382,-0.8483813405036926,2.265615940093994,81.099853515625,28.03,1
-0.3997343778610229,-0.9218240976333618,0.128165528178215,3.718822479248047,2.269895076751709,81.39009857177734,28.03,1
-0.4020686447620392,-0.9218423366546632,0.127031460404396,10.522555351257324,2.272641181945801,81.57635498046875,28.03,1
-0.3979688584804535,-0.9162562489509584,0.1263036727905273,18.833215713500977,2.2744033336639404,81.69588470458984,28.03,1
-0.3953378796577453,-0.9182692170143129,0.1258366256952285,29.59770393371582,2.275534152984619,81.77259063720703,28.03,1
-0.3936494588851928,-0.913963258266449,0.1255369037389755,43.68163299560547,2.2762598991394043,81.82182312011719,28.03,1
-0.3925659358501434,-0.916797697544098,0.1253445595502853,57.9182014465332,2.2767257690429688,81.8534164428711,28.03,1
-0.3918705880641937,-0.9130188822746276,0.1252211183309555,64.74723815917969,2.277024745941162,81.87368774414062,28.03,1
-0.3914243578910827,-0.9161916375160216,0.125141903758049,58.26734924316406,2.27721643447876,81.8866958618164,28.03,1
-0.3911379873752594,-0.9182277321815492,0.1250910609960556,39.8753547668457,2.277339458465576,81.8950424194336,28.03,1
-0.3909541964530945,-0.9139366149902344,0.1250584423542022,16.572362899780273,2.277418375015259,81.90040588378906,28.03,1
-0.3964340388774872,-0.9111828207969666,0.1306352764368057,-5.543722152709961,2.2774691581726074,81.90384674072266,28.03,1
-0.3999506831169128,-0.9150133728981018,0.1398119479417801,-25.952322006225582,2.277501583099365,81.90605163574219,28.03,1
-0.4078052341938019,-0.9174715876579284,0.151298776268959,-47.76221084594727,2.277522563934326,81.907470703125,28.03,1
-0.4184436202049255,-0.9190491437911988,0.1642681360244751,-70.37821960449219,2.277535915374756,81.90837860107422,28.03,1
-0.4308684766292572,-0.9200615286827089,0.1781889051198959,-87.29936218261719,2.2775444984436035,81.9089584350586,28.03,1
-0.4444398283958435,-0.9207112193107604,0.1871224492788314,-94.17455291748048,2.277549982070923,81.90933227539062,28.03,1
-0.453149139881134,-0.932323694229126,0.1816599369049072,-94.033203125,2.2793896198272705,81.90957641601562,28.03,1
-0.4643360376358032,-0.9397759437561036,0.1725566387176513,-91.46693420410156,2.280570268630981,81.90972900390625,28.03,1
-0.4883084595203399,-0.9277650117874146,0.1667146682739257,-87.67408752441406,2.281327962875366,81.90982818603516,28.03,1
-0.5036925673484802,-0.908861517906189,0.1461722999811172,-83.11200714111328,2.2818140983581543,81.9098892211914,28.03,1
-0.507967472076416,-0.8799370527267456,0.1329893916845321,-78.92684173583984,2.2821261882781982,81.90992736816406,28.03,1
-0.5051130652427673,-0.8613749742507935,0.1301271319389343,-74.56439971923828,2.282326459884644,81.90995788574219,28.03,1
-0.4976834952831268,-0.8494629263877869,0.1226925253868103,-68.42228698730469,2.28245496749878,81.90997314453125,28.03,1
-0.4929156303405761,-0.8418184518814087,0.1179214194416999,-60.86940002441406,2.2825374603271484,81.90998077392578,28.03,1
-0.4954536557197571,-0.8481082320213318,0.1092618256807327,-53.93374633789063,2.2821314334869385,81.90998840332031,28.05,1
-0.4858868718147278,-0.8465468883514404,0.1037045940756797,-48.38299560546875,2.2818708419799805,81.90999603271484,28.05,1
-0.4741496741771698,-0.8399471044540405,0.100138284265995,-43.21226501464844,2.2817037105560303,81.90999603271484,28.05,1
-0.4610196650028229,-0.83011394739151,0.1034474074840545,-37.84475326538086,2.2815964221954346,81.90999603271484,28.05,1
-0.4525935649871826,-0.8294013738632202,0.1055710092186927,-32.9671630859375,2.281527519226074,81.90999603271484,28.05,1
-0.4415884017944336,-0.8457373976707458,0.1237271428108215,-28.909120559692383,2.2814831733703613,81.90999603271484,28.05,1
-0.4289281666278839,-0.8730142712593079,0.1353787034749984,-24.839630126953125,2.281454801559448,81.90999603271484,28.05,1
-0.4208035469055176,-0.929703414440155,0.1484537720680236,-20.09643173217773,2.2814366817474365,81.90999603271484,28.05,1
-0.4043940901756286,-1.0164631605148315,0.1680401563644409,-15.160921096801758,2.2814249992370605,82.30049896240234,28.05,1
-0.3826678991317749,-1.0217607021331787,0.1862073391675949,-10.904491424560549,2.2814173698425293,82.55110168457031,28.05,1
-0.4023119211196899,-1.0027692317962646,0.1866704374551773,-7.628408432006836,2.281412601470948,82.71192169189453,28.05,1
-0.4205161035060882,-0.9961793422698976,0.1813698559999466,-5.131923198699951,2.281409502029419,82.81512451171875,28.05,1
-0.4154051542282104,-0.9751570224761964,0.1723704785108566,-3.1464874744415283,2.281407594680786,82.88135528564453,28.05,1
-0.3729408383369446,-0.9392750263214112,0.1609974205493927,-1.4961786270141602,2.28140640258789,82.92385864257812,28.05,1
-0.3456896841526031,-0.92184579372406,0.1592966169118881,-0.1827423870563507,2.281405448913574,82.95113372802734,28.05,1
-0.3561903238296509,-0.8994651436805725,0.1526073664426803,0.7031362652778625,2.281404972076416,82.96864318847656,28.05,1
-0.3741245865821838,-0.8571136593818665,0.1371190398931503,1.2429816722869873,2.283240795135498,82.97987365722656,28.05,1
-0.3800359964370727,-0.8187393546104431,0.1271795332431793,1.6288316249847412,2.284418821334839,82.9870834350586,28.05,1
-0.3726340234279632,-0.799710750579834,0.1319964677095413,1.844204783439636,2.28517484664917,82.99171447753906,28.05,1
-0.3678838908672333,-0.7986948490142822,0.1350876986980438,1.8570287227630613,2.2856600284576416,82.99468231201172,28.05,1
-0.3704333007335663,-0.8148362040519714,0.1370714753866195,1.8151023387908936,2.285971403121948,82.99658966064453,28.05,1
-0.3776671290397644,-0.825194776058197,0.1551378816366195,1.7416229248046875,2.286171197891236,82.99781036376953,28.05,1
-0.3879071474075317,-0.831842303276062,0.1723296344280243,1.375618815422058,2.286299467086792,82.99859619140625,28.05,1
-0.4056741595268249,-0.8361083269119263,0.1945578604936599,0.6499255895614624,2.286381721496582,82.99909973144531,28.05,1
-0.4170760214328766,-0.8332482576370239,0.2144204229116439,-0.0952234640717506,2.288270711898804,82.99942016601562,28.05,1
-0.4299908280372619,-0.8426083326339722,0.2327648550271988,-0.4766876995563507,2.289482831954956,82.99962615966797,28.05,1
-0.4326810538768768,-0.8822017908096313,0.2501350343227386,-0.3345713317394256,2.2902607917785645,82.99976348876953,28.05,1
-0.4456030130386352,-0.9411972165107728,0.261282205581665,0.3692512214183807,2.290760040283203,82.99984741210938,28.05,1
-0.4874822497367859,-1.01824152469635,0.2628380358219147,1.551769495010376,2.2910802364349365,82.9999008178711,28.05,1
-0.536749005317688,-1.1236618757247925,0.2638364732265472,2.955505132675171,2.291285753250122,82.99993896484375,28.05,1
-0.5851589441299438,-1.1297390460968018,0.2588794529438019,4.296998500823975,2.2914178371429443,82.99996185302734,28.05,1
-0.5658456683158875,-1.0552701950073242,0.2501005530357361,5.326272964477539,2.2915024757385254,82.9999771118164,28.05,1
-0.5478537082672119,-1.0186759233474731,0.2332712113857269,5.599884033203125,2.2906389236450195,82.99998474121094,28.07,1
-0.5475030541419983,-1.0287784337997437,0.2168733328580856,4.747272491455078,2.2900848388671875,82.99999237060547,28.07,1
-0.5304847359657288,-1.035261631011963,0.2007523328065872,3.121760368347168,2.289729118347168,82.99999237060547,28.07,1
-0.4859766960144043,-0.9946399927139282,0.1848090291023254,1.541213870048523,2.289500951766968,82.99999237060547,28.07,1
-0.4406206905841827,-0.9573758244514464,0.1577842235565185,0.2976252734661102,2.2893545627593994,82.99999237060547,28.07,1
-0.4227093458175659,-0.9278640747070312,0.1292456984519958,-0.9518429040908812,2.2892606258392334,82.99999237060547,28.07,1
-0.4224104285240173,-0.8977295756340027,0.0885402262210846,-2.459446907043457,2.2892003059387207,82.99999237060547,28.07,1
-0.4222186207771301,-0.8727931976318359,0.0568200200796127,-4.182863712310791,2.289161443710327,82.99999237060547,28.07,1
-0.3997044265270233,-0.8399971723556519,0.0420615933835506,-6.041194438934326,2.2882182598114014,83.3582534790039,28.07,1
-0.3796583414077759,-0.830146074295044,0.0269927103072404,-7.864297389984131,2.2876131534576416,83.58816528320312,28.07,1
-0.3723916709423065,-0.8294219970703125,0.0173223670572042,-9.209806442260742,2.287224769592285,83.73571014404297,28.07,1
-0.3677283525466919,-0.8401528596878052,0.0111164981499314,-9.74367904663086,2.286975622177124,83.83039093017578,28.07,1
-0.3647356927394867,-0.8526371121406555,0.0127317029982805,-9.749526023864746,2.286815643310547,83.89115142822266,28.07,1
-0.3516196310520172,-0.8662465810775757,0.0305615719407796,-9.771191596984863,2.286712884902954,83.93014526367188,28.07,1
-0.3488002717494964,-0.9029691815376282,0.05879707634449,-9.767182350158691,2.286647081375122,83.95516967773438,28.07,1
-0.3413932025432586,-0.9713178277015686,0.0657214522361755,-9.076754570007324,2.286604881286621,83.97122955322266,28.07,1
-0.3478353321552276,-1.0711578130722046,0.1093495413661003,-7.168404579162598,2.2884137630462646,83.98153686523438,28.07,1
-0.3631650507450104,-1.0568605661392212,0.165336400270462,-4.274255275726318,2.28957462310791,83.98815155029297,28.07,1
-0.389796108007431,-0.9469254612922668,0.1900700032711029,-1.36009681224823,2.2903196811676025,83.99239349365234,28.07,1
-0.362104207277298,-0.9435487389564514,0.1947470605373382,0.6461801528930664,2.290797710418701,83.9951171875,28.07,1
-0.3443331122398376,-0.9693706035614014,0.2089440673589706,1.8118857145309448,2.291104555130005,83.99686431884766,28.07,1
-0.3497219681739807,-0.9523549675941468,0.2292504459619522,3.022120714187622,2.2913014888763428,83.99798583984375,28.07,1
-0.3419846892356872,-0.90225088596344,0.242281898856163,4.672928333282471,2.2914278507232666,83.99871063232422,28.07,1
-0.3594104349613189,-0.8477058410644531,0.2338514178991317,6.323446273803711,2.291508913040161,83.99917602539062,28.07,1
-0.3873866200447082,-0.835093080997467,0.2172456681728363,7.565365314483643,2.2906429767608643,83.99947357177734,28.07,1
-0.4165356755256653,-0.8437922596931458,0.2009912878274917,8.333697319030762,2.2900874614715576,83.99966430664062,28.07,1
-0.4464373886585235,-0.8717659711837769,0.2073534876108169,8.522249221801758,2.2897307872772217,83.99978637695312,28.07,1
-0.4600288271903991,-0.8897179365158081,0.2170341461896896,8.120195388793945,2.289501905441284,83.99986267089844,28.07,1
-0.4631532430648803,-0.8844451308250427,0.2232466340065002,7.636477470397949,2.2893550395965576,83.99990844726562,28.07,1
-0.4763538837432861,-0.8754635453224182,0.2216356843709945,7.666399955749512,2.2892608642578125,83.99993896484375,28.07,1
-0.4904230535030365,-0.875297486782074,0.2206018716096878,8.040277481079102,2.2892003059387207,83.99996185302734,28.07,1
-0.4994518458843231,-0.891984224319458,0.2255361974239349,7.914787769317627,2.289161443710327,83.9999771118164,28.07,1
-0.4996482133865356,-0.9082906246185304,0.2287027686834335,6.716492176055908,2.289595603942871,83.99998474121094,28.03,1
-0.4997742474079132,-0.941146194934845,0.2251371145248413,4.7759928703308105,2.2898740768432617,83.99999237060547,28.03,1
-0.5278440117835999,-0.9958176612854004,0.2060555666685104,3.043461799621582,2.290052890777588,83.99999237060547,28.03,1
-0.5682486295700073,-1.075684905052185,0.2050056755542755,2.332871675491333,2.290167570114136,83.99999237060547,28.03,1
-0.6053735613822937,-1.0261790752410889,0.2043319046497345,2.6256141662597656,2.290241241455078,83.99999237060547,28.03,1
-0.6068071126937866,-0.977615773677826,0.192703977227211,3.132328510284424,2.29028844833374,83.99999237060547,28.03,1
-0.5909337401390076,-0.9912328720092772,0.1964373886585235,3.2174761295318604,2.290318727493286,83.99999237060547,28.03,1
-0.5639538168907166,-1.0223625898361206,0.1932355016469955,2.8923659324646,2.2903382778167725,83.99999237060547,28.03,1
-0.5242485404014587,-1.0479376316070557,0.1799851655960083,2.350549459457397,2.2885146141052246,84.3582534790039,28.03,1
-0.4707791209220886,-1.0083725452423096,0.1770796328783035,1.6445852518081665,2.287344455718994,84.58816528320312,28.03,1
-0.4252699911594391,-0.971786379814148,0.1696172654628753,0.915679693222046,2.286593437194824,84.73571014404297,28.03,1
-0.4016626179218292,-0.9315141439437866,0.1312416940927505,0.4479100704193115,2.286111354827881,84.83039093017578,28.03,1
-0.3977082967758178,-0.89447420835495,0.1010166853666305,0.4020853042602539,2.285802125930786,84.89115142822266,28.03,1
-0.3895728886127472,-0.8651063442230225,0.0760222449898719,0.6521185040473938,2.2856035232543945,84.93014526367188,28.03,1
-0.3675587177276611,-0.835064172744751,0.0543844737112522,0.7946625351905823,2.2854762077331543,84.95516967773438,28.03,1
-0.3534312844276428,-0.8045892715454102,0.0460963733494281,0.5816201567649841,2.2853944301605225,84.97122955322266,28.03,1
-0.3499628901481628,-0.7738367319107056,0.0407775491476058,0.3517548739910126,2.287636995315552,84.98153686523438,28.03,1
-0.3477370738983154,-0.7820903658866882,0.0429620072245597,0.6699753999710083,2.289076089859009,84.98815155029297,28.03,1
-0.3463086783885956,-0.804180383682251,0.0499616414308548,1.519054651260376,2.289999723434448,84.99239349365234,28.03,1
-0.339794248342514,-0.81275874376297,0.0712469294667244,2.3398032188415527,2.2905924320220947,84.9951171875,28.03,1
-0.3412114381790161,-0.8462526798248291,0.0961021482944488,3.031310796737671,2.2909727096557617,84.99686431884766,28.03,1
-0.353316456079483,-0.9573115706443788,0.1008572503924369,4.374307155609131,2.2912168502807617,84.99798583984375,28.03,1
-0.3834758400917053,-1.05657160282135,0.1430932134389877,6.88773250579834,2.2913734912872314,84.99871063232422,28.03,1
-0.4028303921222687,-1.0363043546676636,0.1869911551475525,9.546815872192385,2.2914741039276123,84.99917602539062,28.03,1
-0.4152510464191437,-0.9617225527763368,0.187173455953598,10.590486526489258,2.2910797595977783,84.99947357177734,28.03,1
-0.4288196861743927,-0.9586424231529236,0.1816926747560501,9.390149116516112,2.2908265590667725,84.99966430664062,28.03,1
-0.4431250095367431,-0.9734590649604796,0.1893709599971771,6.821389198303223,2.2906641960144043,84.99978637695312,28.03,1
-0.4131209254264831,-0.9269897937774658,0.2110917717218399,4.030065059661865,2.290560007095337,84.99986267089844,28.03,1
-0.3882682621479034,-0.8747774362564087,0.2250309437513351,1.5616470575332642,2.2904930114746094,84.99990844726562,28.03,1
-0.4115036725997925,-0.8412705063819885,0.2283785194158554,-0.3412906229496002,2.290450096130371,84.99993896484375,28.03,1
-0.4432081580162048,-0.8309632539749146,0.2249290347099304,-1.376192569732666,2.290422439575196,84.99996185302734,28.03,1
-0.4635542631149292,-0.835544228553772,0.2227153480052948,-1.4671210050582886,2.290404796600342,84.9999771118164,28.03,1
-0.459817886352539,-0.8552773594856262,0.2380880564451217,-1.0955644845962524,2.2908523082733154,84.99998474121094,28.05,1
-0.4574201107025146,-0.8567453622817993,0.2591489255428314,-0.8499557971954346,2.291139602661133,84.99999237060547,28.05,1
-0.461479127407074,-0.8464918732643127,0.2670668065547943,-0.8428064584732056,2.2913239002227783,84.99999237060547,28.05,1
-0.4696817398071289,-0.8343140482902527,0.2665502727031708,-0.884791910648346,2.2914421558380127,84.99999237060547,28.05,1
-0.4749457240104675,-0.8712812066078186,0.2718165516853332,-0.947561502456665,2.291517972946167,84.99999237060547,28.05,1
-0.4615305066108703,-0.9173957109451294,0.2751961648464203,-1.1848851442337036,2.291566848754883,84.99999237060547,28.05,1
-0.4473236203193664,-0.9357937574386596,0.2661694586277008,-1.7563470602035522,2.291598081588745,84.99999237060547,28.05,1
-0.4605975449085235,-0.9755894541740416,0.2435833066701889,-2.6031434535980225,2.2916181087493896,84.99999237060547,28.05,1
-0.4803115427494049,-1.0179213285446167,0.2290888130664825,-3.3436105251312256,2.289335966110229,85.31168365478516,28.05,1
-0.5321472883224487,-1.0674786567687988,0.2253848612308502,-3.5751843452453613,2.2878713607788086,85.51170349121094,28.05,1
-0.5542169213294983,-0.9705328345298768,0.2062145471572876,-3.4013633728027344,2.2869315147399902,85.64006805419922,28.05,1
-0.5627821683883667,-0.9195141792297364,0.1883143633604049,-3.2253286838531494,2.286328315734864,85.72244262695312,28.05,1
-0.5682788491249084,-0.9819355010986328,0.1880226135253906,-3.0478734970092773,2.285941362380981,85.77530670166016,28.05,1
-0.5718063116073608,-1.0387872457504272,0.1822376102209091,-2.568570137023926,2.2856929302215576,85.80923461914062,28.05,1
-0.5236900448799133,-1.024891376495361,0.1785251200199127,-1.9958703517913816,2.2855334281921387,85.83100891113281,28.05,1
-0.4480296075344085,-0.9823871850967408,0.1761426627635955,-1.8504642248153689,2.285431146621704,85.84497833251953,28.05,1
-0.39947509765625,-0.955110490322113,0.1634181886911392,-1.9362796545028689,2.285365581512451,85.85394287109375,28.05,1
-0.379511147737503,-0.9320080876350404,0.1272634863853454,-1.4503822326660156,2.28532338142395,85.85969543457031,28.05,1
-0.3778949975967407,-0.9003889560699463,0.0928659290075302,-0.1211097463965416,2.285296440124512,85.86338806152344,28.05,1
-0.3712600767612457,-0.8577065467834473,0.070791557431221,1.5129424333572388,2.2852790355682373,85.86576080322266,28.05,1
-0.3558066189289093,-0.796728789806366,0.0566254965960979,2.87684965133667,2.2852678298950195,85.86727905273438,28.05,1
-0.3458894789218902,-0.7575967311859131,0.0475345328450202,3.873934268951416,2.2852606773376465,85.86825561523438,28.05,1
-0.3395252227783203,-0.7492773532867432,0.0472982488572597,4.71442985534668,2.285256147384644,85.86888122558594,28.05,1
-0.335440993309021,-0.7495362758636475,0.0471466183662414,5.45085334777832,2.2852532863616943,85.8692855834961,28.05,1
-0.3384177684783935,-0.7888868451118469,0.0806359574198722,5.894786834716797,2.2870874404907227,85.86954498291016,28.05,1
-0.3403280675411224,-0.8533241748809814,0.0965297147631645,6.115191459655762,2.288264513015747,85.86970520019531,28.05,1
-0.3415539860725403,-0.9618496298789978,0.1067294105887413,6.7402825355529785,2.289019823074341,85.86981201171875,28.05,1
-0.3591340482234955,-1.1154617071151731,0.1636549532413482,8.391748428344727,2.2895045280456543,85.86988067626953,28.05,1
-0.376013696193695,-1.1132811307907104,0.2225775867700576,10.820108413696287,2.289815664291382,85.86992645263672,28.05,1
-0.4092371761798858,-0.971937358379364,0.2379996478557586,12.647183418273926,2.290015459060669,85.86995697021484,28.05,1
-0.4193625450134277,-0.9316110610961914,0.2087122201919555,12.422490119934082,2.2901434898376465,85.8699722290039,28.05,1
-0.4090670943260193,-0.9449163675308228,0.1955150067806244,10.257722854614258,2.2902257442474365,85.86997985839844,28.05,1
-0.3800689876079559,-0.9534549713134766,0.2150346636772155,7.747153282165527,2.289360284805298,85.86998748779297,28.07,1
-0.3558618724346161,-0.925347864627838,0.2443545758724212,5.96046781539917,2.2888050079345703,85.8699951171875,28.07,1
-0.3739137947559356,-0.8625281453132629,0.240779310464859,4.738641738891602,2.288448572158813,85.8699951171875,28.07,1
-0.4022918045520782,-0.8166162967681885,0.2216915935277938,4.047691345214844,2.288219928741455,85.8699951171875,28.07,1
-0.4428942799568176,-0.8151416182518005,0.2038444280624389,4.256308078765869,2.2880730628967285,85.8699951171875,28.07,1
-0.4465595185756683,-0.8309885859489441,0.2035866826772689,4.916824817657471,2.2879788875579834,85.8699951171875,28.07,1
-0.4377160966396332,-0.8579515814781189,0.209019050002098,4.853476047515869,2.287918329238892,85.8699951171875,28.07,1
-0.4376386702060699,-0.8472659587860107,0.2292985618114471,3.738049745559693,2.287879467010498,85.8699951171875,28.07,1
-0.4487845301628113,-0.8348107933998108,0.2367150038480758,2.355874300003052,2.288313865661621,86.11719512939453,28.07,1
-0.4951217174530029,-0.8492088913917542,0.241474449634552,1.3219879865646362,2.288592576980591,86.27583312988281,28.07,1
-0.5080649256706238,-0.8976331949234009,0.2333332449197769,0.3360674977302551,2.288771629333496,86.37763977050781,28.07,1
-0.4939800500869751,-0.9734913110733032,0.2169131338596344,-1.0991365909576416,2.288886308670044,86.4429702758789,28.07,1
-0.4905389547348022,-1.0333682298660278,0.2231689840555191,-2.9301421642303467,2.2889599800109863,86.48489379882812,28.07,1
-0.5163195729255676,-1.0997827053070068,0.2439769506454467,-4.459850788116455,2.2890071868896484,86.51180267333984,28.07,1
-0.5776462554931641,-1.1032192707061768,0.2405369728803634,-4.732180118560791,2.289037704467773,86.52906799316406,28.07,1
-0.572219967842102,-1.032653570175171,0.2159382998943328,-3.3986809253692627,2.28905725479126,86.54014587402344,28.07,1
-0.551944375038147,-0.998564064502716,0.2001522928476333,-1.4144065380096436,2.289069652557373,86.54725646972656,28.07,1
-0.5277371406555176,-1.0214695930480957,0.1956195086240768,-0.201917290687561,2.2890777587890625,86.55181884765625,28.07,1
-0.5122023224830627,-1.0137779712677002,0.1871128529310226,-0.1224137470126152,2.289082765579224,86.55474853515625,28.07,1
-0.4686463177204132,-0.9808530211448668,0.1760559976100921,-0.6625179052352905,2.289086103439331,86.55662536621094,28.07,1
-0.4183034896850586,-0.9373326301574708,0.1465692520141601,-1.610998272895813,2.289088249206543,86.55783081054688,28.07,1
-0.3859963715076446,-0.90380597114563,0.1164508089423179,-2.886037588119507,2.2890896797180176,86.55860900878906,28.07,1
-0.3764590620994568,-0.8710949420928955,0.0859269723296165,-3.904908657073975,2.289090633392334,86.5591049194336,28.07,1
-0.3759363293647766,-0.8445050716400146,0.0607407577335834,-4.053618431091309,2.289091110229492,86.5594253540039,28.07,1
-0.3700031042098999,-0.8218434453010559,0.0445776954293251,-3.221164464950561,2.287255048751831,86.55963134765625,28.07,1
-0.3605977296829223,-0.8017027378082275,0.0230096243321895,-1.6802396774291992,2.286076784133911,86.55976104736328,28.07,1
-0.3545618951320648,-0.7943754196166992,0.0147662525996565,-0.0429166294634342,2.285320520401001,86.55984497070312,28.07,1
-0.3506884574890136,-0.8232597708702087,0.015073905698955,0.9397539496421814,2.2848353385925293,86.55989837646484,28.07,1
-0.3482027053833008,-0.8306005597114563,0.0208691135048866,1.101058006286621,2.2845239639282227,86.5599365234375,28.07,1
-0.3578030467033386,-0.8577025532722473,0.0469792410731315,0.935880482196808,2.2843241691589355,86.5599594116211,28.07,1
-0.3527684509754181,-0.8918883800506592,0.0581374429166317,0.980347216129303,2.284195899963379,86.55997467041016,28.07,1
-0.3551352918148041,-0.9530112743377686,0.0597003623843193,1.7540591955184937,2.284113645553589,86.55998229980469,28.07,1
-0.3734475374221802,-1.0985941886901855,0.0774966776371002,3.89498519897461,2.2840607166290283,86.55998992919922,28.03,1
-0.3740037083625793,-1.0184898376464844,0.1225039735436439,7.422036170959473,2.284026861190796,86.55998992919922,28.03,1
-0.3855561912059784,-0.9055079817771912,0.1401915103197097,10.975221633911133,2.2840051651000977,86.55998992919922,28.03,1
-0.4265565574169159,-0.888980507850647,0.1291512697935104,12.560431480407717,2.2839910984039307,86.55998992919922,28.03,1
-0.4640637636184692,-0.939949631690979,0.1332618147134781,11.19531536102295,2.283982038497925,86.55998992919922,28.03,1
-0.454547107219696,-0.9502675533294678,0.1694863736629486,7.653826713562012,2.2839763164520264,86.55998992919922,28.03,1
-0.4036576449871063,-0.8897157311439514,0.2039287686347961,3.858508348464966,2.28397274017334,86.55998992919922,28.03,1
-0.3821952641010284,-0.8508570790290833,0.2372274547815323,1.5805246829986572,2.283970355987549,86.55998992919922,28.03,1
-0.4299974739551544,-0.8483108878135681,0.2529988586902618,1.4227033853530884,2.2858052253723145,86.31637573242188,28.03,1
-0.4774675071239471,-0.8466768860816956,0.2519244849681854,2.700714349746704,2.286982774734497,86.16004180908203,28.03,1
-0.4855399429798126,-0.8568238615989685,0.2512350380420685,4.129906177520752,2.287738561630249,86.0597152709961,28.03,1
-0.4683292806148529,-0.8521400690078735,0.2787814438343048,4.699569225311279,2.2882235050201416,85.99533081054688,28.03,1
-0.4572844505310058,-0.8435364961624146,0.2964591383934021,4.205327987670898,2.288534641265869,85.95401000976562,28.03,1
-0.4669898450374603,-0.8436129689216614,0.2910103499889374,3.2468714714050293,2.288734436035156,85.92749786376953,28.03,1
-0.4788159728050232,-0.8604553937911987,0.2819158434867859,2.488486289978028,2.288862466812134,85.91047668457031,28.03,1
-0.4752097725868225,-0.9048505425453186,0.2704817652702331,1.9337294101715088,2.288944721221924,85.8995590209961,28.03,1
-0.4616999626159668,-0.9501340985298156,0.2631440162658691,1.018836498260498,2.287620306015014,85.89254760742188,28.03,1
-0.4642256796360016,-0.9847922325134276,0.2472395300865173,-0.5714102983474731,2.2867703437805176,85.88805389404297,28.03,1
-0.5106287598609924,-1.0965982675552368,0.2370329350233078,-2.1902294158935547,2.2862250804901123,85.88516998291016,28.03,1
-0.5683964490890503,-1.1123712062835691,0.2304829359054565,-2.673794984817505,2.285875082015991,85.88331604003906,28.03,1
-0.5718817710876465,-1.0273312330245972,0.1926928758621215,-1.712305188179016,2.285650491714477,85.88212585449219,28.03,1
-0.5349340438842773,-0.9839529395103456,0.1796369403600692,-0.3142748773097992,2.285506248474121,85.88136291503906,28.03,1
-0.5112231373786926,-0.9841041564941406,0.1712583899497985,0.346450537443161,2.2854137420654297,85.88087463378906,28.03,1
-0.5016046166419983,-1.0009945631027222,0.1490882039070129,-0.0391960255801677,2.2853543758392334,85.88056182861328,28.03,1
-0.4786386489868164,-0.9894427061080932,0.1348606497049331,-1.2288991212844849,2.286234140396118,85.88035583496094,28.03,1
-0.4415093064308166,-0.9484427571296692,0.1313280016183853,-2.9310169219970703,2.2867987155914307,85.8802261352539,28.03,1
-0.406486302614212,-0.922131359577179,0.1234631761908531,-4.718358039855957,2.287161111831665,85.88014221191406,28.03,1
-0.3896083235740661,-0.8828551173210144,0.0904271081089973,-5.750728130340576,2.287393569946289,85.88008880615234,28.03,1
-0.3843747675418854,-0.8464543223381042,0.0580309145152568,-5.080525875091553,2.287542819976806,85.88005828857422,28.03,1
-0.381016194820404,-0.823094367980957,0.0428386740386486,-2.7444982528686523,2.287638664245605,85.88003540039062,28.03,1
-0.3676652908325195,-0.8025055527687073,0.0386869423091411,-0.3139004707336426,2.2877001762390137,85.88002014160156,28.03,1
-0.3590974509716034,-0.7836950421333313,0.030424827709794,0.6583749055862427,2.287739515304565,85.88001251220703,28.03,1
-0.3703924417495727,-0.7940146327018738,0.0251226779073476,0.2935343980789184,2.2882239818573,85.8800048828125,28.03,1
-0.3664453625679016,-0.8118327260017395,0.0273178368806839,-0.4349947273731231,2.288534879684448,85.8800048828125,28.03,1
-0.3639123439788818,-0.828865110874176,0.0399221144616603,-1.2034590244293213,2.288734436035156,85.8800048828125,28.03,1
-0.3790801167488098,-0.8621866106987,0.0648041367530822,-1.786179542541504,2.288862466812134,85.8800048828125,28.03,1
-0.3944117128849029,-0.911559283733368,0.0863697603344917,-1.321813464164734,2.288944721221924,85.8800048828125,28.03,1
-0.4098484218120575,-1.0328081846237185,0.1170026585459709,0.6958262920379639,2.2889974117279053,85.8800048828125,28.03,1
-0.4197548031806946,-0.9986633062362672,0.1870410591363906,3.53113865852356,2.2890312671661377,85.8800048828125,28.03,1
-0.4205143749713897,-0.9151755571365356,0.2263898998498916,5.9418044090271,2.289052963256836,85.8800048828125,28.03,1
-0.4098062813282013,-0.8895868062973022,0.2180550694465637,7.205807209014893,2.289984941482544,85.6435546875,28.03,1
-0.4085322022438049,-0.9235454201698304,0.2071084827184677,7.304039001464844,2.2905828952789307,85.49181365966797,28.03,1
-0.4189101457595825,-0.9509358406066896,0.2224746942520141,6.603989601135254,2.290966749191284,85.3944320678711,28.03,1
-0.4143745601177215,-0.9181334972381592,0.2491291612386703,5.481214046478272,2.291213035583496,85.33193969726562,28.03,1
-0.4226594269275665,-0.8802894949913025,0.2606366872787475,4.234042644500732,2.2913711071014404,85.29183959960938,28.03,1
-0.450367271900177,-0.8560034036636353,0.2568260133266449,3.326202630996704,2.2914724349975586,85.26610565185547,28.03,1
-0.4737463593482971,-0.8572112917900085,0.2487827688455581,3.309650182723999,2.2915375232696533,85.24958801269531,28.03,1
-0.4775541424751282,-0.8691819906234741,0.2548166215419769,4.101524829864502,2.291579246520996,85.2389907836914,28.03,1
-0.4688022136688232,-0.8768641352653503,0.2698843479156494,4.763754844665527,2.2906882762908936,85.23218536376953,28.03,1
-0.4687834978103637,-0.8650007247924805,0.2795539498329162,4.515212059020996,2.290116310119629,85.22782135009766,28.03,1
-0.4743692576885223,-0.8405941724777222,0.2745637893676758,3.481563091278076,2.289749383926392,85.22502136230469,28.03,1
-0.4835516512393951,-0.8305292129516602,0.2713614106178283,2.1017115116119385,2.28951382637024,85.22322082519531,28.03,1
-0.4838466346263885,-0.8688523173332214,0.2805018424987793,0.4459483325481415,2.289362668991089,85.2220687866211,28.03,1
-0.4616448283195495,-0.9102392196655272,0.2751721143722534,-1.4585301876068115,2.2892656326293945,85.22132873535156,28.03,1
-0.4529947638511657,-0.9479944705963136,0.2549584507942199,-3.196605920791626,2.289203405380249,85.22085571289062,28.03,1
-0.4810302853584289,-1.0561902523040771,0.253182053565979,-4.143621921539307,2.289163589477539,85.22055053710938,28.03,1
-0.5214129686355591,-1.131221890449524,0.2576398253440857,-3.801979780197144,2.289138078689575,85.22035217285156,28.03,1
-0.5249371528625488,-1.0282329320907593,0.2269139289855957,-2.235684871673584,2.289121627807617,85.22023010253906,28.03,1
-0.4992099106311798,-0.9789338707923888,0.2127935886383056,-0.3348830938339233,2.2891111373901367,85.22014617919922,28.03,1
-0.4938952028751373,-1.020067572593689,0.2205252945423126,0.8956897854804993,2.2891042232513428,85.2200927734375,28.03,1
-0.4792889654636383,-1.1024426221847534,0.208693727850914,1.2877347469329834,2.289099931716919,85.22006225585938,28.03,1
-0.4419266581535339,-1.116121768951416,0.1843075901269912,1.1058349609375,2.2890970706939697,85.22003936767578,28.03,1
-0.3899607956409454,-1.052129149436951,0.1630602031946182,0.3048301339149475,2.289095163345337,85.22002410888672,28.03,1
-0.3678076565265655,-1.0054646730422974,0.1438270658254623,-0.9937926530838012,2.2890939712524414,85.22001647949219,28.03,1
-0.3703843653202057,-0.9755180478096008,0.1090932562947273,-2.013467788696289,2.287716150283813,85.22000885009766,28.07,1
-0.3776357173919678,-0.9507022500038148,0.0644119977951049,-2.130450487136841,2.286831855773926,85.22000885009766,28.07,1
-0.376691460609436,-0.9179835915565492,0.0413359142839908,-1.6609716415405271,2.286264419555664,85.22000885009766,28.07,1
-0.3424988389015198,-0.8745955228805542,0.0377225577831268,-1.3704348802566528,2.285900354385376,85.22000885009766,28.07,1
-0.3205559849739074,-0.8299582600593567,0.0410014912486076,-1.6318070888519287,2.2856667041778564,85.22000885009766,28.07,1
-0.3064743280410766,-0.7957148551940918,0.0487034954130649,-2.34767484664917,2.2855167388916016,85.22000885009766,28.07,1
-0.3086330592632293,-0.7681416273117065,0.053646195679903,-3.373124599456787,2.2854204177856445,85.22000885009766,28.07,1
-0.3100184202194214,-0.7616422772407532,0.056818138808012,-4.6079936027526855,2.285358667373657,85.22000885009766,28.07,1
-0.3165052533149719,-0.7798624634742737,0.0756470337510109,-5.640493869781494,2.285778045654297,84.93339538574219,28.07,1
-0.331863671541214,-0.8251417279243469,0.0933281034231185,-5.5722479820251465,2.2860472202301025,84.74946594238281,28.07,1
-0.3473175764083862,-0.8989815711975098,0.0990770235657692,-3.575947999954224,2.286219835281372,84.63143157958984,28.07,1
-0.3796261250972748,-1.0471277236938477,0.1251574456691742,0.2201305776834488,2.2863306999206543,84.5556869506836,28.07,1
-0.4115554392337799,-1.091819405555725,0.1586876809597015,4.383036613464356,2.2864017486572266,84.50707244873047,28.07,1
-0.4600346982479095,-0.9973489046096802,0.1969987899065017,7.0832109451293945,2.286447286605835,84.47587585449219,28.07,1
-0.4855481088161468,-0.9927009344100952,0.1935957819223404,7.390161991119385,2.2864766120910645,84.45585632324219,28.07,1
-0.4795300662517547,-1.0456959009170532,0.1914119273424148,5.573738098144531,2.286495447158813,84.44300842285156,28.07,1
-0.4364835917949676,-1.085302710533142,0.2124015539884567,2.724251270294189,2.286048650741577,84.43476104736328,28.07,1
-0.3976632952690124,-1.0715357065200806,0.2482625842094421,0.2865768373012543,2.285761833190918,84.42947387695312,28.07,1
-0.3951417803764343,-0.9843319654464722,0.2488850206136703,-0.7009876370429993,2.285577774047852,84.42607879638672,28.07,1
-0.4215124845504761,-0.8947830200195312,0.2156978249549865,-0.3244633674621582,2.2854597568511963,84.42389678955078,28.07,1
-0.4440334439277649,-0.831717848777771,0.188802421092987,0.4760499894618988,2.285383939743042,84.42250061035156,28.07,1
-0.4416927993297577,-0.8192351460456848,0.1715424954891204,0.7604885697364807,2.2853353023529053,84.42160034179688,28.07,1
-0.4289951622486114,-0.8392133116722107,0.1772593855857849,0.1906840205192566,2.285304069519043,84.42102813720703,28.07,1
-0.4264443218708038,-0.8632296919822693,0.1921237111091613,-0.7159526348114014,2.2852840423583984,84.42066192626953,28.07,1
-0.4527961909770965,-0.8562509417533875,0.1960650086402893,-1.2655366659164429,2.286189079284668,84.42042541503906,28.07,1
-0.4697073101997375,-0.857370138168335,0.1929965317249298,-1.6146454811096191,2.28676986694336,84.42027282714844,28.07,1
-0.4917554557323456,-0.9252616763114928,0.191027358174324,-2.368904590606689,2.287142515182495,84.42017364501953,28.07,1
-0.4891113638877868,-0.9576350450515748,0.1897636502981186,-3.4476523399353027,2.287381649017334,84.42011260986328,28.07,1
-0.4594256579875946,-0.9616170525550842,0.1721593588590622,-4.1793389320373535,2.2875351905822754,84.42007446289062,28.07,1
-0.4403750896453857,-0.980965793132782,0.166459709405899,-4.064933300018311,2.2876336574554443,84.4200439453125,28.07,1
-0.4393450617790222,-0.993382692337036,0.1572042256593704,-3.0063061714172363,2.2876968383789062,84.42002868652344,28.07,1
-0.4442818164825439,-0.9677644968032836,0.1344712674617767,-1.4922001361846924,2.287737369537353,84.4200210571289,28.07,1
-0.4418521821498871,-0.9345309138298036,0.1142847910523414,-0.3879786729812622,2.288681745529175,84.42001342773438,28.03,1
-0.4123041033744812,-0.9188013076782228,0.1125258207321167,0.0555365569889545,2.289287567138672,84.42000579833984,28.03,1
-0.3933418393135071,-0.9087069034576416,0.1002014651894569,0.0571356192231178,2.2896764278411865,84.42000579833984,28.03,1
-0.3923685252666473,-0.9246200323104858,0.0922924056649208,-0.7837434411048889,2.289926052093506,84.42000579833984,28.03,1
-0.3917438983917236,-0.9628210067749025,0.0872168242931366,-2.828052997589112,2.290086269378662,84.42000579833984,28.03,1
-0.3857452571392059,-0.9761406779289246,0.0895573869347572,-4.96396541595459,2.290189027786255,84.42000579833984,28.03,1
-0.3651023507118225,-0.945504069328308,0.0798638761043548,-5.532174587249756,2.290255069732666,84.42000579833984,28.03,1
-0.351854920387268,-0.9258432388305664,0.0624475888907909,-4.284659385681152,2.290297269821167,84.42000579833984,28.03,1
-0.3377557098865509,-0.9132260680198668,0.0512708164751529,-2.0832886695861816,2.290783405303955,84.1441421508789,28.03,1
-0.3399032056331634,-0.8827379941940308,0.0664893016219139,0.4615181982517242,2.29109525680542,83.96710968017578,28.03,1
-0.3412813544273376,-0.8407813906669617,0.0874512046575546,2.814726591110229,2.291295528411865,83.85350036621094,28.03,1
-0.3365679979324341,-0.7914649248123169,0.0897077992558479,4.120673179626465,2.291424036026001,83.78059387207031,28.03,1
-0.3559343218803406,-0.7878053784370422,0.0967537239193916,4.184918403625488,2.29150652885437,83.73381042480469,28.03,1
-0.3683625161647796,-0.8078479766845703,0.1180687174201011,4.039853096008301,2.2915594577789307,83.70378875732422,28.03,1
-0.3707404434680938,-0.8598945736885071,0.1429429948329925,4.713429927825928,2.291593313217163,83.68451690673828,28.03,1
-0.3778642416000366,-0.898892879486084,0.158905878663063,6.170309543609619,2.2916150093078613,83.67214965820312,28.03,1
-0.3768381178379059,-0.895930826663971,0.1915410310029983,7.836096286773682,2.2893340587615967,83.66421508789062,28.03,1
-0.4153640270233154,-0.894029974937439,0.1956910789012909,9.32784652709961,2.287870168685913,83.65912628173828,28.03,1
-0.4400877356529236,-0.8984078764915466,0.2039521187543869,10.3460693359375,2.286930799484253,83.6558609008789,28.03,1
-0.4503562152385711,-0.8844240307807922,0.2260468900203704,10.394050598144531,2.286327838897705,83.65376281738281,28.03,1
-0.456945925951004,-0.8642544746398926,0.2458238154649734,8.977481842041016,2.2859408855438232,83.65241241455078,28.03,1
-0.4835659265518188,-0.8457130193710327,0.2473199665546417,5.9797682762146,2.2856926918029785,83.65155029296875,28.03,1
-0.5566268563270569,-0.811423122882843,0.2314867824316024,1.974532008171081,2.2855334281921387,83.65099334716797,28.03,1
-0.6035131216049194,-0.8006133437156677,0.2213259637355804,-1.831786870956421,2.285431146621704,83.650634765625,28.03,1
-0.6168087124824524,-0.7768829464912415,0.2427942007780075,-4.220724582672119,2.2881197929382324,83.65040588378906,28.03,1
-0.6365365982055664,-0.7504585981369019,0.250973492860794,-4.861746311187744,2.2898452281951904,83.65026092529297,28.03,1
-0.6659901738166809,-0.722305417060852,0.2842113673686981,-4.452707290649414,2.290952444076538,83.6501693725586,28.03,1
-0.8248361349105835,-0.6594561338424683,0.2943459749221802,-3.857029914855957,2.29166316986084,83.65010833740234,28.03,1
-0.9155787825584412,-0.6359164118766785,0.373620867729187,-3.2884645462036133,2.292119264602661,83.65007019042969,28.03,1
-0.9570188522338868,-0.6599944233894348,0.351723849773407,-2.525925874710083,2.2924118041992188,83.6500473022461,28.03,1
-1.101166009902954,-0.6194685101509094,0.3208782970905304,-1.6102460622787476,2.292599678039551,83.65003204345703,28.03,1
-1.1656824350357056,-0.5094947218894958,0.2954856157302856,-0.847069263458252,2.292720317840576,83.6500244140625,28.03,1
-1.1287165880203247,-0.3997354507446289,0.1672345548868179,-0.353723794221878,2.294174671173096,83.65001678466797,28.05,1
-1.1049939393997192,-0.3292982578277588,0.0569415464997291,-0.2019215375185012,2.2951080799102783,83.65000915527344,28.05,1
-0.9834124445915222,-0.3232801556587219,-0.0530225820839405,-0.7493671774864197,2.295706987380981,83.65000915527344,28.05,1
-0.838215172290802,-0.4145802557468414,-0.1627756506204605,-2.039320945739746,2.2960915565490723,83.65000915527344,28.05,1
-0.6778625845909119,-0.5963224172592163,-0.4179354012012481,-3.2540574073791504,2.2963383197784424,83.65000915527344,28.05,1
-0.5525664687156677,-0.5898030400276184,-0.5089111924171448,-3.661017417907715,2.296496629714966,83.65000915527344,28.05,1
-0.668080747127533,-0.5128481984138489,-0.4441431760787964,-3.589001417160034,2.296598196029663,83.65000915527344,28.05,1
-0.8541666269302368,-0.1499876976013183,-0.0779078751802444,-3.750575065612793,2.296663284301758,83.65000915527344,28.05,1
-0.9623903036117554,-0.0738623738288879,0.3306518793106079,-4.2375993728637695,2.2948687076568604,83.45296478271484,28.05,1
-0.9758642911911012,-0.1369650065898895,0.7607752084732056,-4.740019798278809,2.2937171459198,83.3265151977539,28.05,1
-0.7270134687423706,-0.4517515897750854,1.098379135131836,-5.098270416259766,2.292978048324585,83.245361328125,28.05,1
-0.4889464974403381,-0.8440878391265869,1.3094360828399658,-5.195619583129883,2.292503833770752,83.19328308105469,28.05,1
-0.3305710554122925,-0.950324535369873,1.2153716087341309,-4.713541030883789,2.29219937324524,83.15986633300781,28.05,1
0.4987759292125702,-0.8449701070785522,1.3061463832855225,-3.372389078140259,2.292004108428955,83.13842010498047,28.05,1
0.8798630833625793,-1.0964328050613403,1.0957071781158447,-1.229153037071228,2.291878700256348,83.1246566772461,28.05,1
0.2903545498847961,-1.2801982164382937,0.193764328956604,1.4109017848968506,2.2917983531951904,83.1158218383789,28.05,1
0.371059387922287,-1.2805750370025637,0.0851623713970184,4.237230777740479,2.3009276390075684,83.11015319824219,28.05,1
0.4564377665519714,-1.0792969465255735,0.1778033375740051,6.799764633178711,2.306786298751831,83.10651397705078,28.05,1
0.4720442593097687,-0.9221394062042236,0.2260594367980957,8.626962661743164,2.3105461597442627,83.10417938232422,28.05,1
0.4652662873268127,-0.8604691624641418,0.2850162982940674,9.68849277496338,2.3129589557647705,83.1026840209961,28.05,1
0.3209722340106964,-0.8544793725013733,0.3004603087902069,10.20850658416748,2.314507246017456,83.10172271728516,28.05,1
0.239568144083023,-0.8506354689598083,0.3103713989257812,10.080068588256836,2.315500974655152,83.10110473632812,28.05,1
0.3328698277473449,-0.8313753604888916,0.3335250914096832,9.385024070739746,2.316138744354248,83.1007080078125,28.05,1
0.4487232267856598,-0.8190153241157532,0.370774894952774,8.953314781188965,2.3165478706359863,83.10045623779297,28.05,1
0.3215513825416565,-0.8222789168357849,0.4002774357795715,9.399949073791504,2.316810607910156,83.10029602050781,28.05,1
0.1503754258155822,-0.8019822239875793,0.480785995721817,10.223959922790527,2.316979169845581,83.10018920898438,28.05,1
0.0461223237216472,-0.7609680891036987,0.5548428297042847,10.670363426208496,2.317087411880493,83.1001205444336,28.05,1
-0.0375746414065361,-0.6954631805419922,0.6135638356208801,10.845779418945312,2.317156791687012,83.1000747680664,28.05,1
-0.0968843102455139,-0.6702192425727844,0.6792364716529846,11.313026428222656,2.317201375961304,83.10004425048828,28.05,1
-0.1573369354009628,-0.6932035088539124,0.7101858258247375,12.05353546142578,2.317229986190796,83.10002899169922,28.05,1
-0.162545308470726,-0.7415401339530945,0.70765620470047,12.71146297454834,2.3172483444213867,83.10002136230469,28.05,1
-0.1490944176912307,-0.7893531322479248,0.7060328722000122,13.574339866638184,2.3172600269317627,83.10001373291016,28.05,1
-0.1740490496158599,-0.8368300795555115,0.6937955617904663,15.668591499328612,2.320940017700196,83.10000610351562,28.05,1
-0.1620746254920959,-0.8617002964019775,0.6971378922462463,20.426755905151367,2.3233015537261963,83.10000610351562,28.05,1
-0.120803490281105,-0.8440738916397095,0.716076135635376,28.65351104736328,2.324817180633545,83.10000610351562,28.05,1
-0.0831224992871284,-0.8047734498977661,0.7338274121284485,37.81648254394531,2.3257896900177,83.10000610351562,28.05,1
-0.0477454625070095,-0.7627593278884888,0.7340235710144043,42.65422058105469,2.326413869857788,83.10000610351562,28.05,1
-0.0138469645753502,-0.7246015667915344,0.6949650645256042,40.0947494506836,2.3268144130706787,83.10000610351562,28.05,1
0.0079071382060647,-0.7113096714019775,0.6531062126159668,30.01526260375977,2.32707142829895,83.10000610351562,28.05,1
0.0162698961794376,-0.7307685613632202,0.6206458806991577,12.379940032958984,2.3272364139556885,83.10000610351562,28.05,1
0.0216366313397884,-0.7600494623184204,0.5998146533966064,-11.472826957702637,2.325047016143799,82.98178100585938,28.05,1
0.0194829180836677,-0.7900357842445374,0.5808486342430115,-38.355464935302734,2.3236420154571533,82.9059066772461,28.05,1
0.0236985646188259,-0.8092793226242065,0.5742750763893127,-66.91021728515625,2.322740316390991,82.85721588134766,28.05,1
0.020806148648262,-0.8216286897659302,0.5700565576553345,-94.9402084350586,2.322161674499512,82.82596588134766,28.05,1
0.0133521882817149,-0.8183582425117493,0.5841426849365234,-113.26500701904295,2.3217902183532715,82.80591583251953,28.05,1
-0.0026268833316862,-0.7994661331176758,0.5931823253631592,-111.71553802490234,2.32155179977417,82.79304504394531,28.05,1
0.0039119916036725,-0.7873423099517822,0.6101790070533752,-90.04255676269531,2.321398973464966,82.7847900390625,28.05,1
0.002510491060093,-0.7795619368553162,0.6322820782661438,-55.01837921142578,2.321300745010376,82.77948760986328,28.05,1
-0.0039866860024631,-0.7745689153671265,0.6464665532112122,-11.504995346069336,2.329500675201416,82.77608489990234,28.05,1
-0.0025584255345165,-0.7769624590873718,0.6499715447425842,35.66856384277344,2.3347628116607666,82.7739028930664,28.05,1
-0.0016418502200394,-0.7840963006019592,0.6466230750083923,77.90764617919922,2.338139772415161,82.77250671386719,28.05,1
-0.0010536449262872,-0.7830765843391418,0.64447420835495,107.27127838134766,2.3403069972991943,82.7716064453125,28.05,1
0.0049216053448617,-0.7824221849441528,0.6374974250793457,117.50982666015624,2.3416976928710938,82.77102661132812,28.05,1
0.0143539514392614,-0.7764044404029846,0.6274223327636719,101.94718170166016,2.342590093612671,82.77066040039062,28.05,1
0.0260048620402812,-0.7725425958633423,0.6209567189216614,63.50357055664063,2.343162775039673,82.77042388916016,28.05,1
0.0278839729726314,-0.7700642943382263,0.6168074607849121,20.97711944580078,2.3435304164886475,82.77027130126953,28.05,1
0.0290898773819208,-0.7740716338157654,0.6141447424888611,-9.3877592086792,2.360750913619995,82.77017211914062,28.05,1
0.0298637580126523,-0.7822411060333252,0.6068381667137146,-29.12138938903809,2.3718020915985107,82.77011108398438,28.05,1
0.0303603895008564,-0.787483811378479,0.602149248123169,-44.64419174194336,2.378894090652466,82.77007293701172,28.05,1
0.0418746471405029,-0.8076416254043579,0.6271290183067322,-54.96051025390625,2.3834452629089355,82.7700424194336,28.05,1
0.0380682870745658,-0.8149799704551697,0.6319640278816223,-59.61409378051758,2.386366128921509,82.77002716064453,28.05,1
0.0244300346821546,-0.8028959631919861,0.6238713264465332,-63.1952018737793,2.3882405757904053,82.77001953125,28.05,1
0.0156777892261743,-0.7895433306694031,0.6186779141426086,-66.75083923339844,2.3894433975219727,82.77001190185547,28.05,1
0.0156588777899742,-0.7921699285507202,0.6265406012535095,-65.5862045288086,2.3902153968811035,82.77000427246094,28.05,1
-0.0011465824209153,-0.771464467048645,0.6203908920288086,-58.04265975952149,2.4090726375579834,82.77000427246094,28.07,1
-0.0063335848972201,-0.78056800365448,0.599651038646698,-49.26439666748047,2.4211740493774414,82.77000427246094,28.07,1
0.0127287935465574,-0.7976056337356567,0.6087325215339661,-44.18273162841797,2.4289400577545166,82.77000427246094,28.07,1
0.0025708326138556,-0.8029416799545288,0.6089627146720886,-42.1468505859375,2.433923721313477,82.77000427246094,28.07,1
-0.0207412838935852,-0.8175615668296814,0.5979148745536804,-40.33161544799805,2.437122106552124,82.77000427246094,28.07,1
0.0594605058431625,-0.7877593636512756,0.6412049531936646,-37.69784164428711,2.4391746520996094,82.77000427246094,28.07,1
0.0549516528844833,-0.7854273319244385,0.6465949416160583,-33.259803771972656,2.4404916763305664,82.77000427246094,28.07,1
0.0408625826239585,-0.7895285487174988,0.6500539183616638,-25.01995086669922,2.441336870193481,82.77000427246094,28.07,1
0.0598099008202552,-0.7753671407699585,0.6466759443283081,-13.301363945007324,2.4653680324554443,82.648193359375,28.07,1
0.0495781004428863,-0.7382903099060059,0.6389103531837463,-2.1913082599639893,2.48078989982605,82.57002258300781,28.07,1
0.0374141447246074,-0.7816697955131531,0.6339268684387207,4.175397396087647,2.4906868934631348,82.51985931396484,28.07,1
-0.0151741774752736,-0.7983127236366272,0.6587176322937012,5.029699325561523,2.4970381259918213,82.48766326904297,28.07,1
-0.0209334623068571,-0.7810043096542358,0.6858224272727966,2.267641067504883,2.5011138916015625,82.46700286865234,28.07,1
-0.0694116353988647,-0.6915279626846313,0.652836799621582,-1.6114434003829956,2.5037295818328857,82.45374298095703,28.07,1
-0.1005221381783485,-0.6900849342346191,0.6540595889091492,-3.968260765075684,2.5054080486297607,82.44523620605469,28.07,1
-0.0141293546184897,-0.7843210101127625,0.6772354245185852,-2.5251059532165527,2.5064852237701416,82.43978118896484,28.07,1
-0.0762406960129737,-0.7720252275466919,0.619337260723114,3.094202041625977,2.538391828536988,82.436279296875,28.07,1
-0.0881113111972808,-0.7697322964668274,0.6157681941986084,11.128414154052734,2.558867692947388,82.43402862548828,28.07,1
-0.0621425434947013,-0.7458697557449341,0.6470644474029541,19.451305389404297,2.572007894515991,82.43258666992188,28.07,1
-0.0230861846357584,-0.752947211265564,0.6503552198410034,26.84885597229004,2.5804405212402344,82.4316635131836,28.07,1
0.0131734870374202,-0.7686846852302551,0.6748581528663635,33.007713317871094,2.5858521461486816,82.43106842041016,28.07,1
0.0420406311750412,-0.7899796366691589,0.696180522441864,38.03488540649414,2.589324951171875,82.4306869506836,28.07,1
0.0885547772049903,-0.8036454916000366,0.6818751096725464,41.8521614074707,2.5915536880493164,82.4304428100586,28.07,1
0.0848182290792465,-0.8068177103996277,0.6614991426467896,43.9830207824707,2.5929839611053467,82.43028259277344,28.07,1
