acc_x,acc_y,acc_z,bvp,eda,hr,temp,label
0.0,0.0,0.0,0.0,0.0,0.0,29.51,1
-0.0104166660457849,-0.0442708320915699,0.1640624850988388,17.41666603088379,1.0092881917953491,15.406665802001951,29.51,1
-0.0285823177546262,-0.0868902429938316,0.3841463327407837,44.523170471191406,2.3632116317749023,36.07415008544922,29.51,1
-0.0393999181687831,-0.1389119625091552,0.565614640712738,72.0655517578125,3.5408918857574463,54.051300048828125,29.51,1
-0.0419537425041198,-0.2195702046155929,0.7140201330184937,93.59410858154295,4.400073051452637,67.1666030883789,29.51,1
-0.0601519495248794,-0.3126072883605957,0.798027753829956,103.83779907226562,4.981775283813477,76.04621124267578,29.51,1
-0.0998579710721969,-0.2848037779331207,0.8420426845550537,101.29749298095705,5.363455295562744,81.87251281738281,29.51,1
-0.142311617732048,-0.3616454601287842,0.8482316732406616,91.15382385253906,5.610651016235352,85.64591979980469,29.51,1
-0.242331326007843,-0.4558660984039306,0.8019068837165833,82.97380828857422,5.77768087387085,88.07664489746094,29.51,1
-0.1891307234764099,-0.4269114136695862,0.8392676711082458,84.41899871826172,5.885037899017334,89.63897705078125,29.51,1
-0.2053360939025879,-0.4698793888092041,0.8184871673583984,94.87090301513672,5.953977584838867,90.6422348022461,29.51,1
-0.1821550577878952,-0.4302941262722015,0.8275368809700012,104.4566421508789,5.998230934143066,91.28623962402344,29.51,1
-0.1784722954034805,-0.4328755736351013,0.816552460193634,103.20040893554688,6.026633262634277,91.69956970214844,29.51,1
-0.1705111116170883,-0.423336923122406,0.8095029592514038,92.5637664794922,6.044861316680908,91.96482849121094,29.51,1
-0.1654019951820373,-0.4228131771087646,0.7993811964988708,83.0865707397461,6.056559085845947,92.13506317138672,29.51,1
-0.1621232330799102,-0.4224770665168762,0.7872878313064575,79.82408142089844,6.064065933227539,92.24430847167967,29.51,1
-0.1488235741853714,-0.4334568977355957,0.751538097858429,77.50469207763672,6.037668228149414,92.31441497802734,29.51,1
-0.134690836071968,-0.4516986906528473,0.7174004316329956,71.91419219970703,6.020727634429932,92.35940551757812,29.51,1
-0.0976323783397674,-0.4690029919147491,0.6563084125518799,66.91500091552734,6.009856224060059,92.3882827758789,29.51,1
-0.0906437113881111,-0.4577168226242065,0.5779186487197876,67.149658203125,6.002879619598389,92.40681457519533,29.51,1
-0.0805610120296478,-0.4616695344448089,0.5164170861244202,71.9181900024414,5.998402118682861,92.418701171875,29.51,1
-0.0852860659360885,-0.4809994995594024,0.4377644658088684,78.70781707763672,5.995528697967529,92.42633056640624,29.51,1
-0.1051116585731506,-0.5101976990699768,0.3648986518383026,85.30412292480469,5.993684768676758,92.43122863769533,29.51,1
-0.1402256786823272,-0.5457287430763245,0.2845509052276611,87.39128875732422,5.992501735687256,92.4343719482422,29.51,1
-0.1627598404884338,-0.5965193510055542,0.2161950320005417,81.08908081054688,5.932525157928467,92.43638610839844,29.51,1
-0.1940142810344696,-0.6571027040481567,0.1611326187849044,67.71207427978516,5.894035816192627,92.43768310546876,29.51,1
-0.2812448740005493,-0.8415237665176392,0.1034056395292282,51.46793365478516,5.869335651397705,92.43851470947266,29.51,1
-0.3372244536876678,-0.99346125125885,0.0831531137228012,33.67760467529297,5.853484153747559,92.43904876708984,29.51,1
-0.3731489181518554,-1.180530309677124,0.0813517570495605,15.335675239562988,5.843311786651611,92.43939208984376,29.51,1
-0.2898454666137695,-1.311776041984558,0.1249779388308525,1.630289912223816,5.8367838859558105,92.43961334228516,29.51,1
-0.2139950096607208,-1.4351863861083984,0.1865613609552383,-2.769216775894165,5.832594394683838,92.43975067138672,29.51,1
-0.1317318975925445,-1.5423729419708252,0.2876575887203216,-0.8528195023536682,5.829905986785889,92.4398422241211,29.51,1
-0.0901357233524322,-1.5551813840866089,0.3245464563369751,0.2265458703041076,5.820376873016357,92.38616180419922,29.51,1
-0.1250172108411789,-1.485032320022583,0.2530574202537536,0.0880628898739814,5.8142619132995605,92.35171508789062,29.51,1
-0.2033798843622207,-1.3784390687942505,0.1679954528808593,2.8258447647094727,5.810337543487549,92.32960510253906,29.51,1
-0.276059627532959,-1.2820448875427246,0.1022120341658592,6.402743816375732,5.807819366455078,92.31541442871094,29.51,1
-0.3618857264518738,-1.1921957731246948,0.0767893493175506,0.924002766609192,5.806203365325928,92.30631256103516,29.51,1
-0.411366194486618,-1.1289379596710205,0.0716700851917266,-17.577852249145508,5.805166244506836,92.30046844482422,29.51,1
-0.4151310622692108,-1.0827449560165403,0.0851781591773033,-41.55680084228516,5.804500579833984,92.29671478271484,29.51,1
-0.383960485458374,-1.041905403137207,0.1106401830911636,-64.24639892578125,5.804073333740234,92.2943115234375,29.51,1
-0.3471636772155761,-1.0268924236297607,0.1157846972346305,-90.85547637939452,5.614212989807129,92.2927703857422,29.51,1
-0.3067562878131866,-1.0228557586669922,0.0854995027184486,-137.44850158691406,5.492371559143066,92.29177856445312,29.51,1
-0.280825138092041,-1.0202653408050537,0.0492708832025527,-216.48065185546875,5.414180755615234,92.29114532470705,29.51,1
-0.2753795683383941,-1.024200677871704,0.0036303447559475,-322.1413269042969,5.364002227783203,92.29073333740234,29.51,1
-0.288678228855133,-1.037921667098999,-0.031256902962923,-409.1472778320313,5.33180046081543,92.29047393798828,29.51,1
-0.2972125709056854,-1.035531520843506,-0.0536455288529396,-416.98333740234375,5.311135292053223,92.2903060913086,29.51,1
-0.3306782841682434,-1.0172042846679688,-0.0680132582783699,-346.9105529785156,5.297873497009277,92.29019927978516,29.51,1
-0.3577524125576019,-0.9998451471328736,-0.0772336423397064,-248.5865631103516,5.289362907409668,92.29013061523438,29.51,1
-0.3695292770862579,-0.960716187953949,-0.0719552040100097,-156.3794708251953,5.38056230545044,92.2900848388672,29.51,1
-0.3938803076744079,-0.9356054663658142,-0.0685678049921989,-81.10257720947266,5.439088821411133,92.29005432128906,29.51,1
-0.4039096236228943,-0.9194908738136292,-0.0663939714431762,-27.631711959838867,5.476647853851318,92.29003143310548,29.51,1
-0.4103458523750305,-0.903551697731018,-0.053803376853466,8.273473739624023,5.50075101852417,92.29002380371094,29.51,1
-0.4088784754276275,-0.8877250552177429,-0.0345279090106487,38.72053909301758,5.516219139099121,92.2900161743164,29.51,1
-0.3855457007884979,-0.8607751131057739,-0.0053646997548639,70.90262603759766,5.526145935058594,92.29000854492188,29.51,1
-0.3705720603466034,-0.8490779399871826,0.0245461165904998,103.2236785888672,5.532516002655029,92.29000854492188,29.51,1
-0.3553650677204132,-0.8415713906288147,0.0493389293551445,134.55914306640625,5.536603927612305,92.29000854492188,29.51,1
-0.3400083184242248,-0.8479496836662292,0.0708473026752471,169.1313018798828,5.421711444854736,92.29000854492188,29.51,1
-0.3301532566547394,-0.8520429134368896,0.0902479141950607,205.91671752929688,5.34798002243042,92.29000854492188,29.51,1
-0.3182310760021209,-0.8602674603462219,0.0971003398299217,233.0845642089844,5.300663471221924,92.29000854492188,29.51,1
-0.3049823343753814,-0.88233882188797,0.1014978289604187,239.25929260253903,5.270298480987549,92.29000854492188,29.51,1
-0.290882259607315,-0.8965029716491699,0.1043198853731155,225.55978393554688,5.25081205368042,92.29000854492188,29.51,1
-0.2650403380393982,-0.9111904501914978,0.1005331426858902,197.57278442382807,5.238306522369385,92.29000854492188,29.51,1
-0.2372609227895736,-0.9206160306930542,0.0869074836373329,155.4765167236328,5.230281352996826,92.29000854492188,29.51,1
-0.2026403695344925,-0.9658492803573608,0.0501744449138641,100.67510223388672,5.225131511688232,92.29000854492188,29.51,1
-0.1916184425354004,-1.0004751682281494,0.0154057471081614,42.74302291870117,5.181430339813232,92.2864227294922,29.51,1
-0.1957407593727111,-1.022696018218994,-0.0069068018347024,-8.313343048095703,5.153385639190674,92.28411865234376,29.51,1
-0.2375706434249878,-0.997771680355072,-0.0156279373914003,-53.40602493286133,5.135387897491455,92.28264617919922,29.51,1
-0.2756102085113525,-0.9481900334358216,-0.015626884996891,-101.28857421875,5.123837947845459,92.28170013427734,29.51,1
-0.2944240272045135,-0.8939802646636963,-0.0212239846587181,-153.88128662109375,5.11642599105835,92.28108978271484,29.51,1
-0.2897043228149414,-0.9095715284347534,-0.0416092053055763,-196.4095764160156,5.111669540405273,92.28070068359376,29.51,1
-0.2810777127742767,-0.9419682025909424,-0.0490934923291206,-204.56008911132807,5.108616828918457,92.28044891357422,29.51,1
-0.26994389295578,-0.9683563113212584,-0.0371031500399112,-165.97213745117188,5.106657981872559,92.28028869628906,29.51,1
-0.257201075553894,-0.974095106124878,-0.0182128921151161,-98.49714660644533,5.11412239074707,92.28018188476562,29.51,1
-0.2434256821870803,-0.9609846472740172,-0.0060902112163603,-42.95391845703125,5.118912696838379,92.28011322021484,29.51,1
-0.2457809746265411,-0.963766634464264,0.0072872024029493,-33.121925354003906,5.1219868659973145,92.2800750732422,29.51,1
-0.2584880292415619,-0.9599542021751404,0.0214698296040296,-73.17085266113281,5.123960018157959,92.28004455566406,29.51,1
-0.266642689704895,-0.9687031507492064,0.0305714234709739,-136.9332275390625,5.125226020812988,92.280029296875,29.51,1
-0.2662780880928039,-0.974317729473114,0.0364123024046421,-183.2583465576172,5.126038551330566,92.28002166748048,29.51,1
-0.2492507845163345,-0.9723230600357056,0.0513561926782131,-184.3695373535156,5.126559734344482,92.28001403808594,29.51,1
-0.2439214289188385,-0.9542496800422668,0.0553485453128814,-148.17494201660156,5.126894474029541,92.2800064086914,29.51,1
-0.2460991293191909,-0.9370534420013428,0.057910606265068,-104.69503021240234,5.125731945037842,92.2800064086914,29.51,1
-0.25869220495224,-0.9260178804397584,0.0651525631546974,-73.85441589355469,5.124986171722412,92.2800064086914,29.51,1
-0.2779692411422729,-0.9189358949661256,0.0698000341653823,-57.7491569519043,5.124507427215576,92.2800064086914,29.51,1
-0.2847423851490021,-0.9199888706207277,0.0783802941441536,-52.31827545166016,5.124200344085693,92.2800064086914,29.51,1
-0.2611001133918762,-0.9430556893348694,0.0726910606026649,-50.65299606323242,5.124003410339356,92.2800064086914,29.51,1
-0.2459278702735901,-0.9970430731773376,0.0634422600269317,-42.91714096069336,5.123877048492432,92.2800064086914,29.51,1
-0.2697778344154358,-1.1436445713043213,0.0519091412425041,-23.833784103393555,5.123795509338379,92.2800064086914,29.51,1
-0.3130722343921661,-1.2097361087799072,0.0501056239008903,2.893585205078125,5.123743534088135,92.2800064086914,29.51,1
-0.3464538753032684,-1.1793787479400637,0.0489482283592224,29.83685111999512,5.1085615158081055,92.2800064086914,29.51,1
-0.3118985593318939,-1.143103837966919,0.0146188326179981,51.57346725463867,5.098818302154541,92.2800064086914,29.51,1
-0.2785273790359497,-1.1086291074752808,-0.0130095705389976,65.36155700683594,5.092566013336182,92.2800064086914,29.51,1
-0.2235250324010849,-1.159276247024536,-0.025142116472125,70.15806579589844,5.088553428649902,92.2800064086914,29.51,1
-0.1882276982069015,-1.1917786598205566,-0.0385258607566356,66.27166748046875,5.0859785079956055,92.2800064086914,29.51,1
-0.1767714470624923,-1.162256956100464,-0.0583103261888027,55.634403228759766,5.084326267242432,92.2800064086914,29.51,1
-0.1918105781078338,-1.1153227090835571,-0.0766046345233917,42.309226989746094,5.083265781402588,92.2800064086914,29.51,1
-0.2070596069097519,-1.079605221748352,-0.0883448645472526,31.164112091064453,5.082585334777832,92.2800064086914,29.51,1
-0.2112477719783783,-1.0398905277252195,-0.1014768406748771,24.914627075195312,5.093165397644043,92.27284240722656,29.51,1
-0.2083377242088318,-1.0088061094284058,-0.1155019626021385,22.78133583068848,5.099955081939697,92.26824188232422,29.51,1
-0.2008724510669708,-0.955271303653717,-0.1245024800300598,22.6411361694336,5.104312419891357,92.26528930664062,29.51,1
-0.1904838979244232,-0.9041224122047424,-0.1302784979343414,24.33170509338379,5.1071085929870605,92.26339721679688,29.51,1
-0.1894148886203766,-0.8545046448707581,-0.1283874362707138,28.834392547607425,5.108902931213379,92.2621841430664,29.51,1
-0.1999244093894958,-0.7890762090682983,-0.1159783154726028,32.92412185668945,5.11005449295044,92.26140594482422,29.51,1
-0.212266594171524,-0.7470880150794983,-0.1024170815944671,28.817012786865234,5.110793590545654,92.26090240478516,29.51,1
-0.2145893275737762,-0.7593268156051636,-0.0993120372295379,13.516902923583984,5.111268043518066,92.26058197021484,29.51,1
-0.2048843652009964,-0.8007676005363464,-0.0973193943500518,-3.402491807937622,5.129934787750244,92.2603759765625,29.51,1
-0.1874607354402542,-0.8665463328361511,-0.09604062885046,-5.866411209106445,5.141913890838623,92.26023864746094,29.51,1
-0.1874748021364212,-0.9479437470436096,-0.1008177697658538,13.037554740905762,5.149601459503174,92.2601547241211,29.51,1
-0.2098749279975891,-0.9609954953193665,-0.0814923644065857,41.609474182128906,5.154534816741943,92.26010131835938,29.51,1
-0.2466411292552948,-0.9581758379936218,-0.0299060102552175,57.5306282043457,5.157701015472412,92.26006317138672,29.51,1
-0.2534422576427459,-1.0179418325424194,-0.0023986320011317,48.00075149536133,5.159732818603516,92.26004028320312,29.51,1
-0.2410134971141815,-1.073089599609375,0.0040584704838693,21.546743392944336,5.161036491394043,92.26002502441406,29.51,1
-0.2106463313102722,-1.1084802150726318,-0.002993281930685,-2.1794891357421875,5.1618733406066895,92.26001739501952,29.51,1
-0.1799628883600235,-1.103203058242798,0.0036768582649528,-11.988763809204102,5.137162208557129,92.260009765625,29.51,1
-0.1490764617919922,-1.0494364500045776,0.0471417903900146,-11.770669937133787,5.121304035186768,92.260009765625,29.51,1
-0.1516464352607727,-1.0149321556091309,0.0638395324349403,-11.254538536071776,5.1111273765563965,92.260009765625,29.51,1
-0.1644912511110305,-0.9927892684936525,0.0689574107527732,-15.172250747680664,5.104596614837647,92.260009765625,29.51,1
-0.200723186135292,-0.9841769933700562,0.0666439980268478,-19.95059967041016,5.100405693054199,92.260009765625,29.51,1
-0.2407680749893188,-0.978650152683258,0.0651593804359436,-17.93697738647461,5.097715854644775,92.260009765625,29.51,1
-0.2720643579959869,-0.963907778263092,0.0642066374421119,-5.599669933319092,5.09598970413208,92.260009765625,29.51,1
-0.2977462708950043,-0.937653660774231,0.0635952204465866,12.621191024780272,5.094882011413574,92.260009765625,29.51,1
-0.3142274618148803,-0.9096097350120544,0.0688006207346916,29.741893768310547,5.093253135681152,92.260009765625,29.51,1
-0.3304018974304199,-0.914003849029541,0.0889344736933708,42.84986114501953,5.092207431793213,92.260009765625,29.51,1
-0.3463795185089111,-0.9448125958442688,0.1018552184104919,52.14311218261719,5.091536521911621,92.260009765625,29.51,1
-0.3342419266700744,-1.0149638652801514,0.087755911052227,54.7716064453125,5.091105937957764,92.260009765625,29.51,1
-0.2704749703407287,-1.09356951713562,0.045121144503355,42.615352630615234,5.090829849243164,92.260009765625,29.51,1
-0.2351507842540741,-1.166405200958252,0.0233583785593509,12.55920696258545,5.0906524658203125,92.260009765625,29.51,1
-0.2964483797550201,-1.1739625930786133,0.0597722604870796,-21.75800132751465,5.090538501739502,92.260009765625,29.51,1
-0.3637745082378387,-1.1508235931396484,0.0775428190827369,-40.02985382080078,5.090465545654297,92.260009765625,29.51,1
-0.3677961230278015,-1.141572117805481,0.0217736475169658,-37.87319564819336,5.087205410003662,92.29225158691406,29.53,1
-0.3199969828128814,-1.158026099205017,-0.0252113491296768,-30.105026245117188,5.085113525390625,92.3129425048828,29.53,1
-0.2893222570419311,-1.1853786706924438,-0.0497658401727676,-33.09825897216797,5.083770751953125,92.3262176513672,29.53,1
-0.2584414482116699,-1.1525520086288452,-0.0655234977602958,-49.370941162109375,5.082909107208252,92.3347396850586,29.53,1
-0.2274283617734909,-1.0811058282852173,-0.0756358578801155,-65.99017333984375,5.082356452941895,92.3402099609375,29.53,1
-0.1963303983211517,-1.040853500366211,-0.0709298402070999,-66.81768798828125,5.082001686096191,92.34371948242188,29.53,1
-0.1875690668821334,-1.009424090385437,-0.0679097846150398,-48.41840744018555,5.08177375793457,92.3459701538086,29.53,1
-0.1931421011686325,-0.9780589938163756,-0.0715694651007652,-20.61819267272949,5.08162784576416,92.347412109375,29.53,1
-0.2079140990972519,-0.9411373138427734,-0.0851135849952697,6.640978813171387,5.076484680175781,92.34833526611328,29.53,1
-0.211796149611473,-0.9006497859954834,-0.0994031950831413,28.816770553588867,5.073184013366699,92.34893035888672,29.53,1
-0.203091874718666,-0.8410806059837341,-0.0973778963088989,43.782344818115234,5.071065902709961,92.34931182861328,29.53,1
-0.2031037360429763,-0.7804614305496216,-0.0904804021120071,54.03125381469727,5.069706916809082,92.34955596923828,29.53,1
-0.2143069058656692,-0.7415595054626465,-0.0804562121629715,68.29662322998047,5.0688347816467285,92.34971618652344,29.53,1
-0.2214964479207992,-0.7445833683013916,-0.0684254914522171,91.0006103515625,5.068274974822998,92.34981536865234,29.53,1
-0.2261102795600891,-0.7913061380386353,-0.0607048645615577,112.40985870361328,5.067915916442871,92.34988403320312,29.53,1
-0.2234733998775482,-0.8380834460258484,-0.0557502098381519,116.47254943847656,5.067685127258301,92.34992218017578,29.53,1
-0.1881945580244064,-0.9296779036521912,-0.0637661442160606,97.5233917236328,5.055142879486084,92.3499526977539,29.53,1
-0.1599568575620651,-1.0276423692703247,-0.0801058635115623,68.81499481201172,5.047093868255615,92.34996795654295,29.53,1
-0.1810199469327926,-1.0345325469970703,-0.0570051074028015,54.50081634521485,5.041928768157959,92.3499755859375,29.53,1
-0.2057325690984726,-1.005367636680603,-0.0253870487213134,65.77130889892578,5.038613796234131,92.34998321533205,29.53,1
-0.2327872663736343,-1.0314334630966189,-0.0050963978283107,84.29634094238281,5.036486625671387,92.34999084472656,29.53,1
-0.2445516288280487,-1.0761499404907229,0.0079249739646911,79.80868530273438,5.035121440887451,92.34999084472656,29.53,1
-0.2576991021633148,-1.110444188117981,0.0162813402712345,44.51720428466797,5.034245491027832,92.34999084472656,29.53,1
-0.2381475120782852,-1.093267798423767,0.0440350733697414,0.119344912469387,5.033683300018311,92.34999084472656,29.53,1
-0.208807110786438,-1.0486583709716797,0.0730413720011711,-27.79226875305176,5.010829448699951,92.34999084472656,29.53,1
-0.1731848120689392,-0.9976394772529602,0.0860581696033477,-32.502540588378906,4.99616289138794,92.34999084472656,29.53,1
-0.1615200191736221,-0.9928873777389526,0.0888138264417648,-24.229463577270508,4.986750602722168,92.34999084472656,29.53,1
-0.1764253228902816,-1.0010333061218262,0.090582251548767,-15.488171577453612,4.980710506439209,92.34999084472656,29.53,1
-0.2139795571565628,-0.9950653314590454,0.0805215761065483,-13.235386848449709,4.976834297180176,92.34999084472656,29.53,1
-0.243677482008934,-0.985637664794922,0.0740652084350586,-18.431774139404297,4.97434663772583,92.34999084472656,29.53,1
-0.2739314436912536,-0.9571964144706726,0.069921888411045,-25.03740692138672,4.972750186920166,92.34999084472656,29.53,1
-0.3045422434806824,-0.933346688747406,0.067262940108776,-23.11807632446289,4.971725940704346,92.34999084472656,29.53,1
-0.3297842741012573,-0.9236391186714172,0.0599588081240654,-10.457942962646484,4.964641571044922,92.34282684326172,29.49,1
-0.3347876071929931,-0.9733870625495912,0.0552714355289936,1.5536960363388062,4.960095405578613,92.3382339477539,29.49,1
-0.3212051391601562,-1.0165079832077026,0.0410678014159202,-0.9267704486846924,4.957178115844727,92.33528137207033,29.49,1
-0.2733042538166046,-1.060973882675171,0.0095616281032562,-18.90170860290528,4.955305576324463,92.33338928222656,29.49,1
-0.2705531120300293,-1.1230961084365845,-0.0050594462081789,-38.84170913696289,4.954103946685791,92.3321762084961,29.49,1
-0.3247653245925903,-1.1909514665603638,0.0079486882314085,-45.58708572387695,4.953332901000977,92.3313980102539,29.49,1
-0.4043377935886383,-1.1561282873153689,0.0106987850740551,-37.38044738769531,4.952837944030762,92.33089447021484,29.49,1
-0.4050228595733642,-1.1225852966308594,-0.0267207827419042,-27.381319046020508,4.952520370483398,92.33057403564452,29.49,1
-0.3326914310455322,-1.0954614877700806,-0.0787233784794807,-29.14347267150879,4.969760417938232,92.3303680419922,29.49,1
-0.2750777304172516,-1.1452282667160034,-0.0729112327098846,-42.66286849975586,4.980823993682861,92.33023834228516,29.49,1
-0.2437023520469665,-1.1603723764419556,-0.057985782623291,-54.731536865234375,4.987924098968506,92.33015441894533,29.49,1
-0.240360751748085,-1.1197110414505005,-0.0540052615106105,-51.01943588256836,4.992480278015137,92.3301010131836,29.49,1
-0.2382163107395172,-1.093616962432861,-0.0514507927000522,-29.14443016052246,4.995404243469238,92.33006286621094,29.49,1
-0.2368401288986206,-1.0768712759017944,-0.0610070303082466,-0.747349739074707,4.997280597686768,92.33003997802734,29.49,1
-0.2415547519922256,-1.0549293756484983,-0.0727374479174614,20.58235549926757,4.998484611511231,92.33002471923828,29.49,1
-0.244580328464508,-1.024055004119873,-0.0746675804257392,31.32207298278809,4.999257564544678,92.33001708984376,29.49,1
-0.2353264242410659,-0.9706549048423768,-0.0703084543347358,36.49098587036133,4.986900329589844,92.33000946044922,29.49,1
-0.2237900197505951,-0.9307880401611328,-0.0619132407009601,41.14081573486328,4.978970050811768,92.33000946044922,29.49,1
-0.216386616230011,-0.8660193681716919,-0.0509279035031795,46.8869743347168,4.973881244659424,92.33000946044922,29.49,1
-0.2172333151102066,-0.8188567757606506,-0.0438781455159187,53.68778610229492,4.970615386962891,92.33000946044922,29.49,1
-0.223374456167221,-0.7941883206367493,-0.0393540151417255,61.28722381591797,4.968519687652588,92.33000946044922,29.49,1
-0.2217177152633667,-0.7951508164405823,-0.0308529157191514,68.22766876220703,4.967174530029297,92.33000946044922,29.49,1
-0.2206545025110244,-0.7901707291603088,-0.0197996255010366,69.86932373046875,4.966311454772949,92.33000946044922,29.49,1
-0.1975810974836349,-0.8317570090293884,-0.0350973568856716,59.51592254638672,4.965757369995117,92.33000946044922,29.49,1
-0.177176147699356,-0.9032268524169922,-0.0561101101338863,38.064918518066406,4.9566802978515625,92.33000946044922,29.49,1
-0.1920702904462814,-0.8931143879890442,-0.0528015606105327,21.371936798095703,4.950854778289795,92.33000946044922,29.49,1
-0.2240196019411087,-0.8978202939033508,-0.0170916784554719,25.183103561401367,4.947116374969482,92.33000946044922,29.49,1
-0.2557183802127838,-0.9288291931152344,0.005824867170304,42.53956985473633,4.9447174072265625,92.33000946044922,29.49,1
-0.2648652791976928,-1.004706621170044,0.0093358382582664,50.21718215942383,4.943177700042725,92.33000946044922,29.49,1
-0.248344138264656,-1.0589982271194458,-0.0052043450996279,36.62590026855469,4.942189693450928,92.33000946044922,29.49,1
-0.2265462726354599,-1.0714483261108398,-0.0089376233518123,11.506346702575684,4.941555976867676,92.33000946044922,29.49,1
-0.2069598734378814,-1.0402536392211914,0.0334487706422805,-8.644332885742188,4.9411492347717285,92.33000946044922,29.49,1
-0.1943904459476471,-1.0146368741989136,0.0662476941943168,-15.793601989746094,4.937215328216553,92.32642364501952,29.51,1
-0.2087152153253555,-1.0149909257888794,0.0816983804106712,-13.77173900604248,4.934690952301025,92.3241195678711,29.51,1
-0.2402991205453872,-1.0208158493041992,0.0804181918501854,-11.53200626373291,4.933071136474609,92.32264709472656,29.51,1
-0.2661656439304352,-1.0133583545684814,0.0795966386795044,-13.97818660736084,4.932031631469727,92.32170104980467,29.51,1
-0.2771674990653991,-0.9973770976066588,0.0846671909093856,-18.96936416625977,4.9313645362854,92.3210906982422,29.51,1
-0.2842278480529785,-0.9815234541893004,0.0935189500451088,-21.00449562072754,4.930936336517334,92.3207015991211,29.51,1
-0.2943565547466278,-0.9713494777679444,0.1047972738742828,-16.925914764404297,4.930661678314209,92.32044982910156,29.51,1
-0.3064543604850769,-1.0263959169387815,0.1120350509881973,-9.812382698059082,4.930485248565674,92.3202896118164,29.51,1
-0.3142180442810058,-1.072917103767395,0.1222776174545288,-7.110267162322998,4.936015129089356,92.32018280029295,29.51,1
-0.3024069964885711,-1.085978388786316,0.0952640622854232,-13.651954650878906,4.939563751220703,92.3201141357422,29.51,1
-0.2780340313911438,-1.1167515516281128,0.0667327642440795,-26.931861877441406,4.941841125488281,92.32007598876952,29.51,1
-0.2959794998168945,-1.1924777030944824,0.0596185699105262,-38.9865608215332,4.943302631378174,92.3200454711914,29.51,1
-0.3466802835464477,-1.1459121704101562,0.0606508627533912,-41.98282623291016,4.944240570068359,92.32003021240234,29.51,1
-0.3624238073825836,-1.0824425220489502,0.038922231644392,-34.841739654541016,4.944842338562012,92.3200225830078,29.51,1
-0.3389404416084289,-1.0752979516983032,-0.0030108254868537,-25.45476722717285,4.945228576660156,92.32001495361328,29.51,1
-0.3182724118232727,-1.0875062942504885,-0.0187254976481199,-23.21036720275879,4.945476531982422,92.32000732421876,29.51,1
-0.2994110882282257,-1.1065365076065063,-0.0344080440700054,-28.949522018432617,4.978687286376953,92.32000732421876,29.51,1
-0.2537203133106231,-1.0795645713806152,-0.050069972872734,-34.731971740722656,5.0,92.32000732421876,29.51,1
-0.2188008427619934,-1.045462131500244,-0.0489253513514995,-33.111942291259766,5.01367712020874,92.32000732421876,29.51,1
-0.2131848484277725,-1.0235772132873535,-0.0369952470064163,-24.21929359436035,5.022454261779785,92.32000732421876,29.51,1
-0.2095808386802673,-1.026326060295105,-0.0405347421765327,-13.711852073669434,5.028087139129639,92.32000732421876,29.51,1
-0.2128657549619674,-0.9945034384727478,-0.0540017373859882,-5.4282732009887695,5.031702041625977,92.32000732421876,29.51,1
-0.2093760520219802,-0.951690435409546,-0.0626440793275833,2.22348952293396,5.034021854400635,92.32000732421876,29.51,1
-0.2071365714073181,-0.9130199551582336,-0.0625924617052078,11.845037460327148,5.035510540008545,92.32000732421876,29.51,1
-0.2056993991136551,-0.865812361240387,-0.0625593364238739,22.24345016479492,5.0520734786987305,92.32000732421876,29.51,1
-0.2103748768568039,-0.8355172276496887,-0.0569403059780597,30.750831604003903,5.062702655792236,92.32000732421876,29.51,1
-0.2133753299713134,-0.7992822527885437,-0.0477365590631961,37.77596282958984,5.069523811340332,92.32000732421876,29.51,1
-0.2153008431196212,-0.8096153736114502,-0.0362323485314846,46.106895446777344,5.073901176452637,92.32000732421876,29.51,1
-0.2165365368127823,-0.8274421095848083,-0.028849609196186,56.51897048950195,5.0767107009887695,92.32000732421876,29.51,1
-0.183742880821228,-0.8500778675079346,-0.029709568247199,64.33293914794922,5.078513622283936,92.32000732421876,29.51,1
-0.151502251625061,-0.9037886261940002,-0.0414569862186908,61.344017028808594,5.079670429229736,92.32000732421876,29.51,1
-0.1643987149000167,-0.971843719482422,-0.0713869035243988,47.36336898803711,5.080412864685059,92.32000732421876,29.51,1
-0.217457115650177,-0.8867687582969666,-0.0346164554357528,37.62113952636719,5.065281391143799,92.3128433227539,29.51,1
-0.2627024948596954,-0.8545636534690857,0.005774023476988,45.95380401611328,5.05557107925415,92.30824279785156,29.51,1
-0.2917383909225464,-0.9234606623649596,0.0093032103031873,62.59708786010742,5.049339294433594,92.30529022216795,29.51,1
-0.287980854511261,-0.9956636428833008,0.0059702647849917,63.594085693359375,5.045340538024902,92.30339813232422,29.51,1
-0.2687761485576629,-1.0923793315887451,-0.0129619510844349,40.63547897338867,5.042774200439453,92.30218505859376,29.51,1
-0.2060717046260833,-1.0984681844711304,0.0140728643164038,8.805915832519531,5.04112720489502,92.30140686035156,29.51,1
-0.1602338254451751,-1.0799845457077026,0.0482155755162239,-12.985428810119627,5.040070056915283,92.3009033203125,29.51,1
-0.130817711353302,-1.05692720413208,0.0813219472765922,-19.0631160736084,5.039391994476318,92.3005828857422,29.51,1
-0.1287334710359573,-1.0421303510665894,0.0969699397683143,-15.859176635742188,5.042629241943359,92.30037689208984,29.51,1
-0.1665803492069244,-1.0158412456512451,0.101414144039154,-11.929386138916016,5.04470682144165,92.30023956298828,29.51,1
-0.2076616138219833,-0.9653838276863098,0.1042661815881729,-12.058578491210938,5.046040058135986,92.30015563964844,29.51,1
-0.2340252101421356,-0.9274053573608398,0.1004986763000488,-16.411916732788086,5.046895503997803,92.30010223388672,29.51,1
-0.2341505289077758,-0.9142284989356996,0.0980809107422828,-21.140230178833008,5.047444343566895,92.30006408691406,29.51,1
-0.2286331802606582,-0.9225656986236572,0.0909315571188926,-22.085947036743164,5.047796726226807,92.30004119873048,29.51,1
-0.2138969004154205,-0.972698211669922,0.0807457342743873,-20.0524959564209,5.048022747039795,92.3000259399414,29.51,1
-0.2156355530023574,-1.0048704147338867,0.0574157387018203,-19.994279861450195,5.048168182373047,92.30001831054688,29.51,1
-0.2167513221502304,-1.003125548362732,0.0312483422458171,-25.46692276000977,5.047802448272705,92.30001068115234,29.51,1
-0.2062718123197555,-1.0579835176467896,-0.002337711630389,-36.11185836791992,5.047567367553711,92.30001068115234,29.51,1
-0.2275355458259582,-1.1379704475402832,-0.0238913055509328,-47.01655197143555,5.047416687011719,92.30001068115234,29.51,1
-0.3027569055557251,-1.0885415077209473,-0.0097342897206544,-49.71188354492188,5.047319889068604,92.30001068115234,29.51,1
-0.2950519025325775,-1.023234248161316,-0.0342357791960239,-40.84791564941406,5.047257900238037,92.30001068115234,29.51,1
-0.2565206289291382,-1.0205081701278689,-0.0611549727618694,-29.63520050048828,5.047218322753906,92.30001068115234,29.51,1
-0.198206827044487,-1.0915298461914062,-0.0616368390619754,-28.275541305541992,5.047192573547363,92.30001068115234,29.51,1
-0.166382148861885,-1.120314121246338,-0.0619460716843605,-36.4884033203125,5.047176361083984,92.30001068115234,29.51,1
-0.1795455515384674,-1.0436240434646606,-0.0789378434419632,-42.82296752929688,5.077003479003906,92.30001068115234,29.51,1
-0.199188619852066,-0.9608221054077148,-0.0842444077134132,-39.11393737792969,5.096145153045654,92.30001068115234,29.51,1
-0.2341855019330978,-0.9412712454795836,-0.0876498594880104,-28.04953384399414,5.108428955078125,92.30001068115234,29.51,1
-0.2454489469528198,-0.93992018699646,-0.0898352786898613,-17.205244064331055,5.116312026977539,92.30001068115234,29.51,1
-0.2358838468790054,-0.9334553480148317,-0.0912377536296844,-9.640548706054688,5.121370792388916,92.30001068115234,29.51,1
-0.2073544263839721,-0.8901221752166748,-0.0809422358870506,-2.779719829559326,5.124617576599121,92.30001068115234,29.51,1
-0.1890458762645721,-0.8679112195968628,-0.0631396174430847,5.23798418045044,5.126700878143311,92.30001068115234,29.51,1
-0.1884920597076416,-0.8760486245155334,-0.0461171455681324,13.442804336547852,5.128037929534912,92.30001068115234,29.51,1
-0.1881366521120071,-0.9092596173286438,-0.0407908782362937,22.44123077392578,5.097221851348877,92.31075286865234,29.51,1
-0.1879085600376129,-0.958561360836029,-0.0485683344304561,34.929649353027344,5.0774455070495605,92.3176498413086,29.51,1
-0.1821644157171249,-0.9622114896774292,-0.059157233685255,50.54264068603516,5.064754486083984,92.32207489013672,29.51,1
-0.1728803813457489,-0.9701517224311828,-0.0715503543615341,63.97993850708008,5.056610107421875,92.32491302490234,29.51,1
-0.183715745806694,-1.0200295448303225,-0.090699091553688,66.67047119140625,5.0513834953308105,92.32673645019533,29.51,1
-0.2354514598846435,-1.0128538608551023,-0.1197809725999832,52.12504577636719,5.04802942276001,92.3279037475586,29.51,1
-0.2742502391338348,-0.9858577847480774,-0.1384440511465072,28.96188735961914,5.045876979827881,92.3286590576172,29.51,1
-0.2991490662097931,-0.968533217906952,-0.1448231637477874,22.30120277404785,5.044495582580566,92.32913970947266,29.51,1
-0.3431165516376495,-0.9518175721168518,-0.0985369458794593,45.1576042175293,5.006885528564453,92.3294448852539,29.51,1
-0.3769301474094391,-0.9522859454154968,-0.0576375648379325,75.10879516601562,4.9827494621276855,92.32964324951172,29.51,1
-0.3818364441394806,-0.9525865316390992,-0.0257929228246212,76.97933197021484,4.967260360717773,92.32977294921876,29.51,1
-0.3681916892528534,-0.9247905611991882,0.0002409113658359,42.67999267578125,4.957320213317871,92.3298568725586,29.51,1
-0.3426419496536255,-0.901354968547821,0.0337412469089031,-4.509693622589111,4.950941562652588,92.32991027832033,29.51,1
-0.3150500357151031,-0.8639242053031921,0.055239837616682,-38.5478515625,4.946847915649414,92.32994079589844,29.51,1
-0.3029409050941467,-0.8455010652542114,0.0634386166930198,-51.72891616821289,4.944221019744873,92.32996368408205,29.51,1
-0.2951699793338775,-0.8560692667961121,0.0631023496389389,-50.03832626342773,4.942534923553467,92.3299789428711,29.51,1
-0.2901830375194549,-0.8908402323722839,0.0628865510225296,-40.13310241699219,4.95935583114624,92.32998657226562,29.51,1
-0.3149715960025787,-0.96353417634964,0.0683458372950553,-27.743444442749023,4.970150470733643,92.32999420166016,29.51,1
-0.3028905689716339,-0.9933916330337524,0.0830448418855667,-19.94652557373047,4.977077960968018,92.32999420166016,29.51,1
-0.2839421331882477,-1.0125524997711182,0.1092711463570594,-18.99480628967285,4.981523513793945,92.32999420166016,29.51,1
-0.2661843299865722,-1.0248488187789917,0.2100683003664016,-19.938884735107425,4.984376430511475,92.32999420166016,29.51,1
-0.2435928434133529,-1.0439354181289673,0.291547417640686,-19.44488906860352,4.986207485198975,92.32999420166016,29.51,1
-0.2234971523284912,-1.0449885129928589,0.310249388217926,-19.6365966796875,4.987382411956787,92.32999420166016,29.51,1
-0.2161986678838729,-1.0120776891708374,0.271871268749237,-22.78331756591797,4.988136291503906,92.32999420166016,29.51,1
-0.2059171497821808,-0.9965552091598512,0.2304490804672241,-29.567527770996094,5.017539978027344,92.32999420166016,29.51,1
-0.1825257390737533,-1.0369737148284912,0.1702800542116165,-37.27811813354492,5.036409378051758,92.32999420166016,29.51,1
-0.1675144881010055,-1.051716446876526,0.1204714849591255,-36.30791473388672,5.048518657684326,92.32999420166016,29.51,1
-0.1802722215652465,-1.0891664028167725,0.0829094424843788,-20.659971237182617,5.0562896728515625,92.32999420166016,29.51,1
-0.2164482772350311,-1.1076018810272217,0.0811953768134117,-2.1774730682373047,5.061276912689209,92.32999420166016,29.51,1
-0.2396639883518219,-1.0970416069030762,0.0912909433245658,1.7517070770263672,5.064477443695068,92.32999420166016,29.51,1
-0.248964712023735,-1.0790690183639526,0.0865741446614265,-6.6464619636535645,5.066531181335449,92.32999420166016,29.51,1
-0.2717266976833343,-1.0563397407531738,0.0835471749305725,-8.95490837097168,5.067849159240723,92.32999420166016,29.51,1
-0.3199206888675689,-0.980177879333496,0.1207890585064888,3.02698278427124,5.065022945404053,92.326416015625,29.51,1
-0.3676421344280243,-0.9201059937477112,0.1782754063606262,19.10666275024414,5.063209056854248,92.3241195678711,29.51,1
-0.4038648009300232,-0.8983486294746399,0.2207646071910858,28.14669609069824,5.062045097351074,92.32264709472656,29.51,1
-0.4159148633480072,-0.9403637647628784,0.2256406396627426,30.75957679748535,5.06129789352417,92.32170104980467,29.51,1
-0.4068545699119568,-0.9953155517578124,0.2175742387771606,32.128273010253906,5.060818672180176,92.3210906982422,29.51,1
-0.3506602346897125,-1.002591609954834,0.2067999094724655,32.805999755859375,5.060511112213135,92.3207015991211,29.51,1
-0.2866090834140777,-0.990467607975006,0.177494466304779,31.209604263305664,5.060313701629639,92.32044982910156,29.51,1
-0.2511025071144104,-0.965893805027008,0.147492378950119,27.30115509033203,5.060186862945557,92.3202896118164,29.51,1
-0.2451097518205642,-0.9221348762512208,0.1002498939633369,21.328588485717773,5.096829414367676,92.32018280029295,29.51,1
-0.2524594962596893,-0.8828573822975159,0.0475412905216217,13.68029499053955,5.120344638824463,92.3201141357422,29.51,1
-0.2795672416687011,-0.8296624422073364,0.0081181656569242,5.497587203979492,5.135435104370117,92.32007598876952,29.51,1
-0.3137567341327667,-0.7059606313705444,0.0443941913545131,-1.867323637008667,5.145119667053223,92.3200454711914,29.51,1
-0.3524909317493438,-0.5538048148155212,0.0956629291176796,-5.97391414642334,5.151334285736084,92.32003021240234,29.51,1
-0.4837060272693634,-0.7640376091003418,0.2629108428955078,-3.142277240753174,5.155322551727295,92.3200225830078,29.51,1
-0.4951412379741668,-1.0221039056777954,0.3982298076152801,8.899575233459473,5.157882213592529,92.32001495361328,29.51,1
-0.0490599647164344,-0.9022295475006104,0.5410474538803101,28.141740798950195,5.159524917602539,92.32000732421876,29.51,1
0.2987848222255707,-0.4166635274887085,1.0581305027008057,46.48390197753906,5.197761535644531,92.32000732421876,29.51,1
0.4156538844108581,0.35956010222435,1.389964580535889,52.372257232666016,5.222299575805664,92.32000732421876,29.51,1
0.45706707239151,0.286722719669342,1.3846033811569214,41.441009521484375,5.238046646118164,92.32000732421876,29.51,1
0.9314656257629396,0.1560132652521133,1.2412185668945312,23.20175552368164,5.248152256011963,92.32000732421876,29.51,1
1.2303094863891602,0.2736513316631317,0.6789893507957458,11.332053184509276,5.254637241363525,92.32000732421876,29.51,1
1.2933415174484253,0.5282734632492065,0.3685629963874817,10.063085556030272,5.258799076080322,92.32000732421876,29.51,1
1.2778141498565674,0.5797197818756104,0.2085336446762085,13.01402187347412,5.261469841003418,92.32000732421876,29.51,1
1.0159497261047363,0.5175729393959045,0.2009981870651245,11.658367156982422,5.26318359375,92.32000732421876,29.51,1
0.898280143737793,0.3769307136535644,0.2465423345565796,3.236316680908203,5.11279821395874,92.32000732421876,29.51,1
0.934722065925598,0.4546078741550445,0.2813677191734314,-7.524420738220215,5.016289710998535,92.32000732421876,29.51,1
0.980499505996704,0.5436410307884216,0.3764877021312713,-13.451998710632324,4.9543561935424805,92.32000732421876,29.51,1
0.9427034854888916,0.5895818471908569,0.5103012919425964,-12.329936027526855,4.914610385894775,92.32000732421876,29.51,1
0.7673082947731018,0.5406951308250427,0.6745440363883972,-9.320595741271973,4.889103889465332,92.32000732421876,29.51,1
0.6435542106628418,0.4701380431652069,0.7855433225631714,-10.688926696777344,4.872735500335693,92.32000732421876,29.51,1
0.7376669645309448,0.206545352935791,0.7896029949188232,-16.356945037841797,4.862231254577637,92.32000732421876,29.51,1
0.8708341717720032,0.0093978811055421,1.004923701286316,-22.606050491333008,4.855490207672119,92.32000732421876,29.51,1
0.8891199231147766,-0.1674999892711639,1.2494617700576782,-29.700965881347656,4.790111064910889,92.31642150878906,29.49,1
0.7049325704574585,-0.2250451147556305,1.400794506072998,-40.28355026245117,4.748154640197754,92.31411743164062,29.49,1
0.4859717786312103,-0.217192068696022,1.3691623210906982,-51.198387145996094,4.721229076385498,92.3126449584961,29.49,1
0.3342598080635071,-0.1617724597454071,1.2313092947006226,-53.81782531738281,4.703949928283691,92.31169891357422,29.49,1
0.2648886740207672,-0.0646318346261978,1.0924632549285889,-44.30686569213867,4.692861080169678,92.31108856201172,29.49,1
0.2539569139480591,0.020098527893424,1.0089576244354248,-29.107120513916016,4.685744762420654,92.31069946289062,29.49,1
0.2693326473236084,0.0408869497478008,0.9945529103279114,-16.766178131103516,4.681178092956543,92.3104476928711,29.49,1
0.251211017370224,0.020641116425395,1.0188955068588257,-8.11562728881836,4.678247451782227,92.31028747558594,29.49,1
0.1836038678884506,-0.1322958618402481,1.0065282583236694,-0.5794547200202942,4.714008808135986,92.3101806640625,29.49,1
0.1514130383729934,-0.2528330981731415,0.9985916614532472,2.067873239517212,4.736958026885986,92.31011199951172,29.49,1
0.1755370199680328,-0.3413825035095215,1.0046939849853516,-6.264435768127441,4.751685619354248,92.31007385253906,29.49,1
0.1966161727905273,-0.3534262180328369,0.9918167591094972,-22.266212463378903,4.761137008666992,92.31004333496094,29.49,1
0.2101435512304306,-0.3611551821231842,0.977955162525177,-34.949886322021484,4.767202377319336,92.31002807617188,29.49,1
0.2076290994882583,-0.3829085230827331,0.9578640460968018,-38.56474685668945,4.771094799041748,92.31002044677734,29.49,1
0.2228087931871414,-0.3912707865238189,0.9057862758636476,-36.92580795288086,4.773592472076416,92.3100128173828,29.49,1
0.2493435740470886,-0.4078327417373657,0.86117023229599,-36.00300598144531,4.775195598602295,92.31000518798828,29.49,1
0.3111542761325836,-0.4352545738220215,0.8381359577178955,-37.03729248046875,4.911643028259277,92.31000518798828,29.49,1
0.3452230393886566,-0.3968746066093445,0.8065605759620667,-34.41581726074219,4.999207496643066,92.31000518798828,29.49,1
0.4174663722515106,-0.2770823836326599,0.8030906319618225,-20.24464607238769,5.05540132522583,92.31000518798828,29.49,1
0.4134480357170105,-0.161022201180458,0.7784727215766907,0.6792606711387634,5.091463088989258,92.31000518798828,29.49,1
0.9762444496154784,-0.5623522996902466,0.572350025177002,7.941406726837158,5.11460542678833,92.31000518798828,29.49,1
0.9063861966133118,-0.5847963094711304,0.507245659828186,-7.052175998687744,5.129456996917725,92.31000518798828,29.49,1
0.9063373804092408,0.2124777436256408,0.638996422290802,-22.10896110534668,5.138988018035889,92.31000518798828,29.49,1
0.8559260964393616,0.018802722916007,0.7235465049743652,-6.503634452819824,5.14510440826416,92.31000518798828,29.49,1
0.734010636806488,-0.1446711868047714,0.6938392519950867,47.35452651977539,5.185752868652344,92.31000518798828,29.49,1
0.7061523199081421,0.0918849185109138,0.7867303490638733,119.88573455810548,5.211838722229004,92.31000518798828,29.49,1
0.6658833622932434,0.1149441972374916,0.8239514231681824,182.60025024414065,5.228579044342041,92.31000518798828,29.49,1
0.600856602191925,0.1073512136936187,0.8366422057151794,218.8056640625,5.239322185516357,92.31000518798828,29.49,1
0.6151039600372314,0.1080762520432472,0.8447864055633545,230.7694396972656,5.246216297149658,92.31000518798828,29.49,1
0.551476001739502,0.1253348588943481,0.8556106686592102,228.3012542724609,5.250640869140625,92.31000518798828,29.49,1
0.4826543629169464,0.0748349204659462,0.8457637429237366,216.8043212890625,5.253479957580566,92.31000518798828,29.49,1
0.4384886026382446,0.053622517734766,0.8562378287315369,197.9297637939453,5.2553019523620605,92.31000518798828,29.49,1
0.3653633594512939,0.0679984912276268,0.8293728828430176,172.8876495361328,5.21699333190918,92.3064193725586,29.49,1
0.402402400970459,0.1891796439886093,0.8513169288635254,142.62648010253906,5.192409515380859,92.30412292480467,29.49,1
0.4261719286441803,0.2165667712688446,0.8374104499816895,106.26101684570312,5.176632881164551,92.30265045166016,29.49,1
0.4806102514266968,0.0886001214385032,0.8172905445098877,58.59806823730469,5.166508197784424,92.30170440673828,29.49,1
0.4875567853450775,0.1072384268045425,0.765194296836853,-2.4519100189208984,5.160010814666748,92.30109405517578,29.49,1
0.5088079571723938,0.1080038696527481,0.7205663919448853,-61.764347076416016,5.15584135055542,92.30070495605467,29.49,1
0.6008145809173584,0.2092550247907638,0.7311112284660339,-91.36919403076172,5.153165340423584,92.30045318603516,29.49,1
0.620674729347229,0.2686344087123871,0.7098894119262695,-73.89009857177734,5.151448249816895,92.30029296875,29.49,1
0.58863765001297,0.2955451309680938,0.6794771552085876,-16.74439811706543,5.023649215698242,92.30018615722656,29.49,1
0.5456870198249817,0.2120549529790878,0.6823514103889465,51.508827209472656,4.9416351318359375,92.30011749267578,29.49,1
0.5908948183059692,0.2480401545763015,0.7177825570106506,95.69673919677734,4.889003276824951,92.30007934570312,29.49,1
0.5807221531867981,0.2599378228187561,0.7181291580200195,97.16317749023438,4.855226993560791,92.300048828125,29.49,1
0.6077805757522583,0.2843663990497589,0.7127538323402405,67.59862518310547,4.833551406860352,92.30003356933594,29.49,1
0.6139495372772217,0.272054374217987,0.7204997539520264,33.07383728027344,4.81964111328125,92.3000259399414,29.49,1
0.6011151075363159,0.336924284696579,0.7310684323310852,8.639294624328613,4.810714244842529,92.30001831054688,29.49,1
0.5816831588745117,0.3617607355117798,0.7266552448272705,-6.267549991607666,4.804985523223877,92.30001068115234,29.49,1
0.5916039943695068,0.3832971155643463,0.7014320492744446,-18.31662940979004,5.037718296051025,92.30001068115234,29.49,1
0.609166145324707,0.385922372341156,0.6852452158927917,-34.392852783203125,5.18707275390625,92.30001068115234,29.49,1
0.6204364895820618,0.37081378698349,0.6748574376106262,-57.57467651367188,5.282919883728027,92.30001068115234,29.49,1
0.6668536067008972,0.3891068398952484,0.6402022838592529,-82.36800384521484,5.344429016113281,92.30001068115234,29.49,1
0.7078369855880737,0.4064440429210663,0.6235604286193848,-97.84902954101562,5.383902072906494,92.30001068115234,29.49,1
0.7117466330528259,0.3895812034606933,0.6576628088951111,-100.37867736816406,5.409233570098877,92.30001068115234,29.49,1
0.6246912479400635,0.3395751714706421,0.6571566462516785,-98.38365936279295,5.425489902496338,92.30001068115234,29.49,1
