acc_x,acc_y,acc_z,bvp,eda,hr,temp,label
0.0,0.0,0.0,0.0,0.0,0.0,24.67,1
-0.0520833283662796,-0.1406249850988388,0.0520833283662796,-0.3849999606609344,0.2168144881725311,11.749999046325684,24.67,1
-0.1219512224197387,-0.3334603607654571,0.1177591457962989,-0.8612195253372192,0.5076631903648376,27.512195587158203,24.67,1
-0.2126245945692062,-0.5111607313156128,0.1798691898584365,-1.3902658224105835,0.7606515288352966,41.22259140014648,24.67,1
-0.268099308013916,-0.6354645490646362,0.235858216881752,-2.10762906074524,0.9452201724052428,51.22506713867188,24.67,1
-0.2782094180583954,-0.6976645588874817,0.2518062591552734,-2.979790687561035,1.070180892944336,57.997161865234375,24.67,1
-0.3237146437168121,-0.7440298199653625,0.2233989387750625,-3.921666860580444,1.1521731615066528,62.44063186645508,24.67,1
-0.353186160326004,-0.8298516273498535,0.2105802446603775,-4.863755702972412,1.205275535583496,65.31845092773438,24.67,1
-0.3442200124263763,-0.8907257914543152,0.2023227959871292,-5.717484951019287,1.210601806640625,67.17225646972656,24.67,1
-0.3384570777416229,-0.8906897306442261,0.1858261078596115,-6.452402591705322,1.2140252590179443,68.36377716064453,24.67,1
-0.3291598856449127,-0.8850700855255127,0.197618618607521,-7.264599323272705,1.2162235975265503,69.12892150878906,24.67,1
-0.3567753732204437,-0.8702682852745056,0.1883966475725174,-8.591960906982422,1.2176347970962524,69.62007141113281,24.67,1
-0.3409140110015869,-0.899951159954071,0.1824778765439987,-10.765796661376951,1.2185405492782593,69.935302734375,24.67,1
-0.3363323211669922,-0.8966100215911865,0.1898747384548187,-13.411200523376465,1.2191218137741089,70.13760375976562,24.67,1
-0.3277942538261413,-0.9000635743141174,0.1946217119693756,-15.581796646118164,1.2194948196411133,70.2674331665039,24.67,1
-0.3279127478599548,-0.8966821432113647,0.1976680755615234,-17.24346351623535,1.2197341918945312,70.35075378417969,24.67,1
-0.3279888033866882,-0.9057076573371888,0.1996230632066726,-20.172765731811523,1.2414631843566897,70.40422058105469,24.67,1
-0.3336353600025177,-0.9059019684791564,0.2008776515722274,-26.115264892578125,1.2554075717926023,70.43853759765625,24.67,1
-0.3372589945793152,-0.9004288911819458,0.2016827762126922,-34.42495346069336,1.264356255531311,70.46055603027344,24.67,1
-0.3395844399929046,-0.9025143384933472,0.1966016888618469,-43.27214050292969,1.2700990438461304,70.47468566894531,24.67,1
-0.3410767912864685,-0.903852641582489,0.1933409422636032,-52.955078125,1.2737843990325928,70.48375701904297,24.67,1
-0.3420344889163971,-0.9047114849090576,0.1912483870983123,-65.71797943115234,1.2761495113372805,70.48957824707031,24.67,1
-0.3426490724086761,-0.9052626490592957,0.1899054944515228,-81.82596588134766,1.2776672840118408,70.4933090209961,24.67,1
-0.3430434763431549,-0.9112141728401184,0.183445930480957,-98.5616226196289,1.2786412239074707,70.4957046508789,24.67,1
-0.3432965874671936,-0.9094357490539552,0.1793005615472793,-114.29571533203124,1.2856926918029783,70.49724578857422,24.69,1
-0.3434590399265289,-0.8970988988876343,0.1710425168275833,-131.08877563476562,1.2902179956436155,70.49822998046875,24.69,1
-0.3379655182361603,-0.8947795629501343,0.1657429784536361,-151.89682006835938,1.2931220531463623,70.49886322021484,24.69,1
-0.3344400823116302,-0.893291175365448,0.1623420417308807,-175.8976287841797,1.2949856519699097,70.499267578125,24.69,1
-0.3265798687934875,-0.8979337811470032,0.1601595282554626,-195.6313018798828,1.2961816787719729,70.49952697753906,24.69,1
-0.315937876701355,-0.9009131193161012,0.1587589085102081,-199.5430145263672,1.2969491481781006,70.49969482421875,24.69,1
-0.3091084659099579,-0.8972273468971252,0.1522623002529144,-180.13511657714844,1.2974417209625244,70.49980163574219,24.69,1
-0.3047257363796234,-0.9004597663879395,0.1536909192800521,-138.5574951171875,1.2977577447891235,70.49987030029297,24.69,1
-0.3075109124183655,-0.9193274974822998,0.1546077281236648,-79.23810577392578,1.298878788948059,68.05301666259766,24.69,1
-0.3148960769176483,-0.909044623374939,0.1551960855722427,-4.735544204711914,1.299598217010498,66.4827651977539,24.69,1
-0.3252332210540771,-0.9080434441566468,0.1499758809804916,79.04497528076172,1.3000599145889282,65.47506713867188,24.69,1
-0.3374647796154022,-0.907400906085968,0.1410280764102935,158.17153930664062,1.3003562688827517,64.82838439941406,24.69,1
-0.3453142940998077,-0.9181841611862184,0.1352858990430832,219.31838989257807,1.300546407699585,64.41338348388672,24.69,1
-0.3335583209991455,-0.9698864221572876,0.1371986716985702,260.278564453125,1.300668478012085,64.14705657958984,24.69,1
-0.3092207014560699,-0.9750770926475524,0.1496217250823974,286.5178527832031,1.3007467985153198,63.97614669799805,24.69,1
-0.2824066579341888,-0.9728103876113892,0.1631918996572494,302.1135559082031,1.3007969856262207,63.8664665222168,24.69,1
-0.2707967162132263,-0.9825512766838074,0.1886937767267227,310.2877197265625,1.30128812789917,63.79608154296875,24.69,1
-0.2689439058303833,-0.9832046627998352,0.2050594240427017,317.13482666015625,1.3016033172607422,63.75091171264648,24.69,1
-0.2733526527881622,-0.9556350708007812,0.2043664008378982,327.1141357421875,1.30180561542511,63.721923828125,24.69,1
-0.2929752469062805,-0.9043558239936828,0.187128335237503,336.6208190917969,1.3019354343414309,63.70331954956055,24.69,1
-0.3111656904220581,-0.8602522611618042,0.1704681664705276,335.7356262207031,1.3020187616348269,63.691383361816406,24.69,1
-0.33403480052948,-0.8375468850135803,0.1485810726881027,316.35546875,1.302072286605835,63.68372344970703,24.69,1
-0.3543086647987366,-0.8341714143753052,0.1289374232292175,277.5613708496094,1.3021066188812256,63.67880630493164,24.69,1
-0.3729170262813568,-0.8376030325889587,0.1107334867119789,223.1200561523437,1.3021286725997925,63.67565155029297,24.69,1
-0.3848588168621063,-0.8398052453994751,0.093453474342823,155.56341552734375,1.3021427392959597,63.67362594604492,24.69,1
-0.3925223648548126,-0.8524140119552612,0.0879619345068931,75.56685638427734,1.302151799201965,63.672325134277344,24.69,1
-0.391842633485794,-0.8828967213630676,0.095633327960968,-11.341717720031738,1.302157640457153,63.67148971557617,24.69,1
-0.3858086466789245,-0.913654327392578,0.1061541587114334,-90.75247192382812,1.3021613359451294,63.67095565795898,24.69,1
-0.3819363713264465,-0.9893705248832704,0.1241013705730438,-147.63929748535156,1.3021637201309204,63.67061233520508,24.69,1
-0.3962446749210357,-1.060351848602295,0.118825539946556,-178.04129028320312,1.3021652698516846,63.67039108276367,24.69,1
-0.4166224896907806,-1.1115014553070068,0.1098420396447181,-188.2010040283203,1.302166223526001,63.67024993896485,24.69,1
-0.463286429643631,-1.183510661125183,0.087283618748188,-185.22711181640625,1.3021668195724487,63.67015838623047,24.69,1
-0.4932326674461365,-1.2185264825820925,0.0616113767027854,-174.36578369140625,1.302167296409607,63.67010116577149,24.67,1
-0.4844615757465362,-1.0786621570587158,0.0227453112602233,-160.8860626220703,1.302167534828186,63.67006301879883,24.67,1
-0.4284528195858001,-0.9273297786712646,-0.0189900156110525,-147.6570281982422,1.3021676540374756,63.670040130615234,24.67,1
-0.3701185286045074,-0.8526045083999634,-0.0401755720376968,-133.39227294921875,1.3021677732467651,63.67002487182617,24.67,1
-0.2990962862968445,-0.911007821559906,-0.0481734685599803,-116.87578582763672,1.302167892456055,63.670013427734375,24.67,1
-0.2423227429389953,-0.9540854692459106,-0.0309149585664272,-100.18965911865234,1.302167892456055,63.67000961303711,24.67,1
-0.17789988219738,-0.9313502907752992,0.0025516580790281,-85.97770690917969,1.302167892456055,63.67000579833984,24.67,1
-0.1085681319236755,-0.8775757551193237,0.0352241545915603,-74.03780364990234,1.302167892456055,63.67000198364258,24.67,1
-0.0864661037921905,-0.8318707942962646,0.0449959337711334,-62.53135681152344,1.2994136810302734,62.89258193969727,24.67,1
-0.1282600313425064,-0.8025399446487427,0.0456691235303878,-51.156192779541016,1.297646164894104,62.393680572509766,24.67,1
-0.1718742996454239,-0.7781193256378174,0.0405033640563488,-41.24098587036133,1.2965118885040283,62.07351303100586,24.67,1
-0.216656744480133,-0.7848386764526367,0.025992726907134,-33.41628646850586,1.2957838773727417,61.868045806884766,24.67,1
-0.2341999858617782,-0.7891507744789124,0.0222784094512462,-26.868667602539062,1.2953166961669922,61.73619079589844,24.67,1
-0.2174693644046783,-0.8255046606063843,0.0310903247445821,-20.825340270996094,1.295016884803772,61.65157318115234,24.67,1
-0.2011348456144333,-0.8880189061164856,0.059136401861906,-15.4459810256958,1.294824481010437,61.59727096557617,24.67,1
-0.1906522810459137,-0.950528085231781,0.0883303061127662,-11.112504005432127,1.294701099395752,61.56242370605469,24.67,1
-0.1615340858697891,-1.035425066947937,0.1014674976468086,-7.822802543640137,1.2941629886627195,61.54005813598633,24.67,1
-0.1428477019071579,-1.129091501235962,0.0931048691272735,-5.389229774475098,1.2938176393508911,61.52570724487305,24.67,1
-0.1588447242975235,-1.3179500102996826,0.0541515722870826,-3.66628670692444,1.2935960292816162,61.51649856567383,24.67,1
-0.1859040111303329,-1.327193021774292,0.0739357843995094,-2.4495413303375244,1.293453812599182,61.510589599609375,24.67,1
-0.2200624346733093,-1.2883424758911133,0.0810343772172927,-1.5612269639968872,1.2933624982833862,61.50679397583008,24.67,1
-0.2587766647338867,-1.1738460063934326,0.0687965229153633,-1.012653350830078,1.2933038473129272,61.50436019897461,24.67,1
-0.283621221780777,-1.0835754871368408,0.0553451962769031,-0.8146611452102661,1.2932662963867188,61.50279998779297,24.67,1
-0.2547828555107116,-1.0480362176895142,0.0299195889383554,-0.7305920124053955,1.2932422161102295,61.50179672241211,24.67,1
-0.2026893943548202,-1.0252290964126587,0.0192006696015596,-0.5118427872657776,1.2913906574249268,61.50115203857422,24.67,1
-0.1692588031291961,-0.982603907585144,0.0291152074933052,-0.2138288170099258,1.290202498435974,61.50074005126953,24.67,1
-0.1534027457237243,-0.8824784755706787,0.0634666606783866,0.0490708947181701,1.2894399166107178,61.50047302246094,24.67,1
-0.154422789812088,-0.8014304041862488,0.0743158981204032,0.3216795027256012,1.2889505624771118,61.50030517578125,24.67,1
-0.1718707233667373,-0.7438206672668457,0.0532894395291805,0.5754407048225403,1.288636565208435,61.50019454956055,24.67,1
-0.2166544497013092,-0.729241132736206,0.0118069956079125,0.6702210903167725,1.288434982299805,61.500125885009766,24.67,1
-0.2565896213054657,-0.7310803532600403,-0.0092162722721695,0.55908203125,1.288305640220642,61.50008010864258,24.67,1
-0.3046088218688965,-0.7378584742546082,-0.000316698977258,0.3050480484962463,1.2882226705551147,61.50004959106445,24.67,1
-0.3298269808292389,-0.736610472202301,0.0277856346219778,-0.0263574123382568,1.2895466089248655,61.500030517578125,24.69,1
-0.3292172253131866,-0.7526029348373413,0.0570156425237655,-0.2999381422996521,1.290396213531494,61.50001907348633,24.69,1
-0.3008370697498321,-0.8748214244842529,0.0869693234562873,-0.3178731799125671,1.2909414768218994,61.5000114440918,24.69,1
-0.2658309936523437,-0.9868409037590028,0.106191873550415,0.0432050079107284,1.291291356086731,61.50000762939453,24.69,1
-0.2153772264719009,-1.0755218267440796,0.1241255775094032,0.7012506723403931,1.291515827178955,61.50000381469727,24.69,1
-0.1829988956451416,-1.1884099245071411,0.1356343924999237,1.3492487668991089,1.291659951210022,61.50000381469727,24.69,1
-0.2014047801494598,-1.2104750871658323,0.1598134189844131,1.740018606185913,1.2917524576187134,61.50000381469727,24.69,1
-0.2579987943172455,-1.1630597114562988,0.1529390215873718,1.9012278318405151,1.2918118238449097,61.50000381469727,24.69,1
-0.2999153733253479,-1.1494245529174805,0.120538555085659,1.7933106422424316,1.289554476737976,61.105918884277344,24.69,1
-0.3492061197757721,-1.1630653142929075,0.0493658296763896,1.179504156112671,1.288105845451355,60.85301971435547,24.69,1
-0.3696425259113312,-1.115841507911682,0.0092890486121177,0.10132647305727,1.287176251411438,60.69072341918945,24.69,1
-0.315584123134613,-1.0519492626190186,0.0115589508786797,-0.9130176305770874,1.286579728126526,60.586570739746094,24.69,1
-0.2417081445455551,-0.9549692273139954,0.046602290123701,-1.456488013267517,1.2861968278884888,60.51972961425781,24.69,1
-0.1831032484769821,-0.875939667224884,0.0802866369485855,-1.5974667072296145,1.2859511375427246,60.476837158203125,24.69,1
-0.1734828650951385,-0.8084297180175781,0.101903311908245,-1.4944795370101929,1.285793423652649,60.449310302734375,24.69,1
-0.1841023862361908,-0.7651057243347168,0.1101778745651245,-1.1704429388046265,1.2856922149658203,60.43164443969727,24.69,1
-0.2301018089056015,-0.7205095887184143,0.0986946895718574,-0.8012789487838745,1.2856272459030151,60.42030715942383,24.69,1
-0.2652193605899811,-0.7030858993530273,0.0745321214199066,-0.6431874632835388,1.285585641860962,60.41303253173828,24.69,1
-0.2821580171585083,-0.7142954468727112,0.0590259730815887,-0.6778712868690491,1.2855589389801023,60.40836334228516,24.69,1
-0.2650393843650818,-0.7998579144477844,0.0714661180973053,-0.7646157145500183,1.2855417728424072,60.40536880493164,24.69,1
-0.2316625416278839,-0.893951416015625,0.0962428078055381,-0.8847696781158447,1.2855308055877686,60.403446197509766,24.69,1
-0.1822543293237686,-1.0159107446670532,0.1233386099338531,-0.9618775844573976,1.285523772239685,60.4022102355957,24.69,1
-0.1393514424562454,-1.1389594078063965,0.1239338144659996,-0.828649640083313,1.285519242286682,60.40142059326172,24.69,1
-0.1286121606826782,-1.2347183227539062,0.1075224578380584,-0.4708758592605591,1.2855162620544434,60.40091323852539,24.69,1
-0.1665024906396865,-1.2122042179107666,0.1025883704423904,0.0059204865247011,1.2868915796279907,60.40058517456055,24.69,1
-0.2076116502285003,-1.1473760604858398,0.1050197333097457,0.4946122765541076,1.2877740859985352,60.40037536621094,24.69,1
-0.2563842535018921,-1.1169685125350952,0.1121778115630149,0.8762955069541931,1.288340449333191,60.40024185180664,24.69,1
-0.2596948146820068,-1.1086503267288208,0.1167714595794677,1.135568141937256,1.2887039184570312,60.40015411376953,24.69,1
-0.2394282519817352,-1.0977144241333008,0.1141216233372688,1.3951013088226318,1.288937211036682,60.40010070800781,24.69,1
-0.1816401481628418,-1.0571097135543823,0.0956277847290039,1.62614107131958,1.289086937904358,60.40006637573242,24.69,1
-0.1333595216274261,-0.9974653124809264,0.0949550569057464,1.5666197538375854,1.2891830205917358,60.40004348754883,24.69,1
-0.141560211777687,-0.8976134657859802,0.0945233330130577,1.077017903327942,1.2892446517944336,60.400028228759766,24.69,1
-0.1692140400409698,-0.811143159866333,0.0774529576301574,0.3759014308452606,1.2860709428787231,60.40001678466797,24.67,1
-0.1981562227010727,-0.7668470740318298,0.0553026236593723,-0.1958423405885696,1.284034252166748,60.4000129699707,24.67,1
-0.2223274260759353,-0.755213737487793,0.0186967179179191,-0.4767727553844452,1.2827272415161133,60.40000915527344,24.67,1
-0.2434368878602981,-0.7589436769485474,-0.0047948458231985,-0.61048424243927,1.281888484954834,60.40000534057617,24.67,1
-0.273777037858963,-0.7613373398780823,-0.0086748301982879,-0.8503432869911194,1.2813502550125122,60.40000534057617,24.67,1
-0.3212364912033081,-0.7964600920677185,0.0224218647927045,-1.2120604515075684,1.281004786491394,60.40000534057617,24.67,1
-0.374084323644638,-0.8693798184394836,0.0591712556779384,-1.4585199356079102,1.2807830572128296,60.40000534057617,24.67,1
-0.4247923493385315,-0.9945443272590636,0.0995482206344604,-1.5235365629196167,1.2806408405303955,60.40000534057617,24.67,1
-0.4293449521064758,-1.0804654359817505,0.1254598349332809,-1.550930142402649,1.2814674377441406,60.07757186889648,24.67,1
-0.4154732227325439,-1.2363646030426023,0.1364906430244445,-1.446702241897583,1.2819979190826416,59.87065124511719,24.67,1
-0.440157800912857,-1.2412495613098145,0.1715584546327591,-0.9140799641609192,1.282338261604309,59.73786163330078,24.67,1
-0.4615967273712158,-1.2107977867126465,0.1940629631280899,-0.00622663134709,1.282556653022766,59.652645111083984,24.67,1
-0.4753549993038177,-1.124082326889038,0.2029072791337967,0.938221514225006,1.2826968431472778,59.597957611083984,24.67,1
-0.5121731162071228,-1.152400016784668,0.1973875015974044,1.7592685222625732,1.282786846160889,59.56286239624024,24.67,1
-0.5525941848754883,-1.1481815576553345,0.1658563613891601,2.354238271713257,1.2828445434570312,59.540340423583984,24.67,1
-0.5505452156066895,-1.1622676849365234,0.1120348423719406,2.470944881439209,1.2828816175460815,59.52588653564453,24.67,1
-0.5156437158584595,-1.1825028657913208,0.0774952843785286,2.0478625297546387,1.2824465036392212,59.5166130065918,24.67,1
-0.4372681677341461,-1.1059242486953735,0.0777208879590034,1.4180949926376345,1.2821671962738037,59.51066207885742,24.67,1
-0.3701779246330261,-1.045585036277771,0.089061215519905,0.8563131093978882,1.2819880247116089,59.50684356689453,24.67,1
-0.3047321736812591,-0.9844716787338256,0.0963387787342071,0.3704036772251129,1.2818729877471924,59.504390716552734,24.67,1
-0.2739284038543701,-0.9004704356193542,0.0786180049180984,-0.0166591126471757,1.2817991971969604,59.5028190612793,24.67,1
-0.2597580850124359,-0.835367739200592,0.0560502856969833,-0.1611590385437011,1.2817518711090088,59.50180816650391,24.67,1
-0.2674577236175537,-0.7655996680259705,0.0303720720112323,-0.0747619867324829,1.2817214727401731,59.50115966796875,24.67,1
-0.277996689081192,-0.7320221066474915,0.0082954987883567,-0.0838036984205246,1.281701922416687,59.5007438659668,24.67,1
-0.2735644280910492,-0.7664517164230347,-0.0002742007782217,-0.5302630066871643,1.2826076745986938,59.5004768371582,24.67,1
-0.2595245242118835,-0.8725132346153259,0.0110195819288492,-1.3147528171539309,1.2831889390945437,59.50030517578125,24.67,1
-0.2225256413221359,-0.946175217628479,0.029462831094861,-1.8862621784210205,1.283561944961548,59.50019454956055,24.67,1
-0.1763907968997955,-1.0550227165222168,0.0301030986011028,-1.8374452590942385,1.2838013172149658,59.500125885009766,24.67,1
-0.1691752076148986,-1.147265911102295,0.0305139850825071,-1.2472355365753174,1.2839548587799072,59.50008010864258,24.67,1
-0.2037290781736374,-1.2120600938796997,0.0363754406571388,-0.4385638535022735,1.2840534448623655,59.50004959106445,24.67,1
-0.2874792814254761,-1.1528812646865845,0.1017125099897384,0.2774367332458496,1.2841167449951172,59.500030517578125,24.67,1
-0.38600754737854,-1.092512607574463,0.1884242743253708,0.636612594127655,1.2841572761535645,59.50001907348633,24.67,1
-0.4212484359741211,-1.0929559469223022,0.2720597684383392,0.6664867997169495,1.2818880081176758,59.5000114440918,24.69,1
-0.3710929453372955,-1.0820448398590088,0.2921455502510071,0.7465620636940002,1.280431628227234,59.50000762939453,24.69,1
-0.2101572155952453,-1.0582494735717771,0.2378621697425842,1.0021566152572632,1.2794970273971558,59.50000381469727,24.69,1
-0.1012801602482795,-1.0261856317520142,0.2030262202024459,1.0515400171279907,1.2788972854614258,59.50000381469727,24.69,1
-0.0649957805871963,-0.977620005607605,0.1974638402462005,0.7106435894966125,1.2785123586654663,59.50000381469727,24.69,1
-0.1480682641267776,-0.912866711616516,0.2050897628068924,0.2625910639762878,1.278265357017517,59.50000381469727,24.69,1
-0.2573571503162384,-0.8657140135765076,0.1987880915403366,-0.0750993117690086,1.278106927871704,59.50000381469727,24.69,1
-0.3274924755096435,-0.82425856590271,0.1723529547452926,-0.3777913749217987,1.2780052423477173,59.50000381469727,24.69,1
-0.3725012838840484,-0.7864593267440796,0.1218017563223838,-0.7690833806991577,1.2765628099441528,59.32087326049805,24.69,1
-0.4181786775588989,-0.7622019648551941,0.0893609076738357,-1.3533716201782229,1.275637149810791,59.20591735839844,24.69,1
-0.453089565038681,-0.763428270816803,0.0909333303570747,-2.161825656890869,1.2750431299209597,59.13214492797852,24.69,1
-0.4866889119148254,-0.7754108309745789,0.0975401997566223,-2.9923291206359863,1.274661898612976,59.08480453491211,24.69,1
-0.5250443816184998,-0.8054916262626648,0.1073778793215751,-3.471559762954712,1.274417281150818,59.05442428588867,24.69,1
-0.5384631156921387,-0.8639801740646362,0.1304844617843628,-3.3993494510650635,1.2742602825164795,59.03492736816406,24.69,1
-0.5358789563179016,-0.9406991600990297,0.1509107053279876,-3.0341598987579346,1.274159550666809,59.02241516113281,24.69,1
-0.5062317252159119,-1.1298773288726809,0.1808124184608459,-2.645751476287842,1.274094820022583,59.01438522338867,24.69,1
-0.4816080629825592,-1.2176944017410278,0.2167949378490448,-1.86268949508667,1.2749714851379397,59.00923156738281,24.69,1
-0.4546104669570923,-1.2068769931793213,0.2230931222438812,-0.2137410938739776,1.2755341529846191,59.00592422485352,24.69,1
-0.4036983251571655,-1.1775439977645874,0.1823527514934539,1.8977361917495728,1.2758952379226685,59.00380325317383,24.69,1
-0.4046124815940857,-1.2035019397735596,0.1506101489067077,3.650426626205444,1.2761269807815552,59.00244140625,24.69,1
-0.4667746424674988,-1.1753780841827393,0.1414351165294647,4.739377021789551,1.276275634765625,59.00156784057617,24.69,1
-0.5010689496994019,-1.1237430572509766,0.1355471163988113,5.169509410858154,1.2763710021972656,59.001007080078125,24.69,1
-0.4559037983417511,-1.0738134384155271,0.1205729842185974,4.879496574401856,1.2764322757720947,59.00064468383789,24.69,1
-0.3709416687488556,-1.0193803310394287,0.1165612190961837,4.027023792266846,1.2764716148376465,59.00041198730469,24.69,1
-0.2996245324611664,-0.973252773284912,0.1195844784379005,3.1503589153289795,1.2764967679977417,59.00026321411133,24.69,1
-0.2426617443561554,-0.8932707905769348,0.1327201724052429,2.6307568550109863,1.2765129804611206,59.00016784667969,24.69,1
-0.2061063051223755,-0.8251495957374573,0.1467476785182953,2.2865583896636963,1.2765233516693115,59.00010681152344,24.69,1
-0.2162337750196457,-0.7590422630310059,0.1445541828870773,1.6285974979400637,1.2765300273895264,59.00006866455078,24.69,1
-0.2395263314247131,-0.7110205888748169,0.1375487446784973,0.4719279706478119,1.2765343189239502,59.00004577636719,24.69,1
-0.2488763779401779,-0.6913986206054688,0.1274552941322326,-0.9080543518066406,1.27653706073761,59.000030517578125,24.69,1
-0.2436811476945877,-0.7179907560348511,0.1265756636857986,-2.116079568862915,1.2765388488769531,59.00001907348633,24.69,1
-0.2347493767738342,-0.7686427235603333,0.1316089481115341,-2.948641538619995,1.276539921760559,59.0000114440918,24.69,1
-0.2122241556644439,-0.8739193081855774,0.1404367983341217,-3.386202573776245,1.2751635313034058,59.00000762939453,24.67,1
-0.1753776669502258,-0.9694686532020568,0.129308670759201,-3.4986228942871094,1.274280309677124,59.00000381469727,24.67,1
-0.1629272550344467,-1.0699710845947266,0.1053739562630653,-3.388056516647339,1.27371346950531,59.00000381469727,24.67,1
-0.1885239481925964,-1.1008810997009275,0.0900140404701232,-3.1523027420043945,1.273349642753601,59.00000381469727,24.67,1
-0.2273415327072143,-1.1319129467010498,0.0801569297909736,-2.814715623855591,1.2731162309646606,59.00000381469727,24.67,1
-0.2914368510246277,-1.090251922607422,0.107417844235897,-2.3078830242156982,1.272966384887695,59.00000381469727,24.67,1
-0.3661561906337738,-1.1027007102966309,0.1584989726543426,-1.373589277267456,1.2728703022003174,59.00000381469727,24.67,1
-0.4141067564487457,-1.1050918102264404,0.1968776881694793,0.254186064004898,1.27280855178833,59.00000381469727,24.67,1
-0.3497164845466614,-1.056246280670166,0.1767247319221496,2.2302680015563965,1.270473599433899,58.910438537597656,24.67,1
-0.2524167895317077,-1.019302248954773,0.1358028650283813,3.494821310043335,1.2689751386642456,58.85295867919922,24.67,1
-0.1395954638719558,-0.9955937266349792,0.1039437875151634,3.371286392211914,1.2680134773254397,58.81607437133789,24.67,1
-0.1119754314422607,-0.907607913017273,0.1002917885780334,2.3426263332366943,1.2673964500427246,58.79240417480469,24.67,1
-0.1222393587231636,-0.8399481177330017,0.0923503711819648,1.306321144104004,1.267000436782837,58.77721405029297,24.67,1
-0.1904016733169555,-0.7965279817581177,0.0592651516199111,0.548133134841919,1.2667462825775146,58.76746368408203,24.67,1
-0.2677309811115265,-0.7798590064048767,0.0212396401911973,-0.1211397051811218,1.2665832042694092,58.761207580566406,24.67,1
-0.3733341991901397,-0.7803573608398438,-0.0143584925681352,-0.7261866331100464,1.2664785385131836,58.7571907043457,24.67,1
-0.4299087226390838,-0.7750793695449829,-0.0428011007606983,-1.1395490169525146,1.265952467918396,58.754615783691406,24.67,1
-0.4606172144412994,-0.788485586643219,-0.0498583801090717,-1.361830234527588,1.2656148672103882,58.75296401977539,24.67,1
-0.4915197193622589,-0.8418711423873901,-0.0431917868554592,-1.386252522468567,1.2653981447219849,58.75190353393555,24.67,1
-0.516948938369751,-0.8985220193862915,-0.0389135517179966,-1.186970829963684,1.2652591466903689,58.751220703125,24.67,1
-0.5220723748207092,-1.0244417190551758,-0.0473635755479335,-1.023257613182068,1.2651698589324951,58.75078201293945,24.67,1
-0.4861758947372436,-1.2955739498138428,-0.0639818608760833,-1.0650814771652222,1.2651126384735107,58.75050354003906,24.67,1
-0.4407485127449035,-1.3744089603424072,-0.0578531995415687,-0.7551594972610474,1.265075922012329,58.75032424926758,24.67,1
-0.3612158596515655,-1.189894199371338,-0.025931304320693,0.5256684422492981,1.265052318572998,58.75020980834961,24.67,1
-0.2877852916717529,-1.0099077224731443,0.0057498798705637,2.3507511615753174,1.2613646984100342,58.7501335144043,24.67,1
-0.2070751339197158,-0.905598282814026,0.0148854907602071,3.72977352142334,1.258998155593872,58.75008392333984,24.67,1
-0.2056599706411361,-0.8050718307495117,0.0095526510849595,4.299484252929688,1.2574794292449951,58.75005340576172,24.67,1
-0.2047518044710159,-0.7461575269699097,0.0117281163111329,4.1886091232299805,1.256504774093628,58.75003433227539,24.67,1
-0.2601467370986938,-0.7755230069160461,-0.0148646673187613,3.461844682693481,1.255879282951355,58.7500228881836,24.67,1
-0.3236848711967468,-0.8223569393157959,-0.0543214827775955,2.329089879989624,1.2554779052734375,58.75001525878906,24.67,1
-0.3756555616855621,-0.8580100536346436,-0.0852403715252876,1.2689735889434814,1.2552202939987185,58.7500114440918,24.67,1
-0.4034095704555511,-0.8752923607826233,-0.0826912373304367,0.5026701092720032,1.2550550699234009,58.75000762939453,24.67,1
-0.4212205111980438,-0.8751876354217529,-0.0642620250582695,-0.0858288928866386,1.2563260793685913,58.75000381469727,24.67,1
-0.4718349575996399,-0.852729320526123,-0.0524352192878723,-0.6032140851020813,1.2571418285369873,58.75000381469727,24.67,1
-0.5323052406311035,-0.832719087600708,-0.0560410022735595,-1.0606322288513184,1.2576652765274048,58.75000381469727,24.67,1
-0.5879049301147461,-0.8254754543304443,-0.0639527589082717,-1.4867322444915771,1.2580012083053589,58.75000381469727,24.67,1
-0.6235856413841248,-0.8320224285125732,-0.0522367469966411,-1.8819862604141235,1.2582167387008667,58.75000381469727,24.67,1
-0.6464834213256836,-0.8474194407463074,-0.0391203127801418,-2.1929588317871094,1.2583551406860352,58.75000381469727,24.67,1
-0.661177933216095,-0.8517026305198669,-0.0027140658348798,-2.3029587268829346,1.2584439516067505,58.75000381469727,24.67,1
-0.6650102138519287,-0.8488535284996033,0.0374426916241645,-2.047535896301269,1.2585009336471558,58.75000381469727,24.67,1
-0.6562740206718445,-0.8246340751647949,0.0967996343970298,-1.3963899612426758,1.2580785751342771,58.56012725830078,24.67,1
-0.6618632078170776,-0.7587114572525024,0.1572825908660888,-0.584438681602478,1.2578074932098389,58.43827438354492,24.67,1
-0.6710478067398071,-0.6940149664878845,0.2184881716966629,-0.0132189700379967,1.2576335668563845,58.36007690429688,24.67,1
-0.6937352418899536,-0.6021165251731873,0.2801575064659118,0.1312372684478759,1.2575219869613647,58.30989456176758,24.67,1
-0.7138925194740295,-0.5095547437667847,0.3197333216667175,0.1451243162155151,1.2574503421783447,58.27769088745117,24.67,1
-0.6988394260406494,-0.3605895638465881,0.3507285714149475,0.5266240835189819,1.257404327392578,58.257022857666016,24.67,1
-0.6667881011962891,-0.1978189796209335,0.4042061865329742,1.3983993530273438,1.2573747634887695,58.24375915527344,24.67,1
-0.629426121711731,-0.0765688568353653,0.4329272806644439,2.4056766033172607,1.257355809211731,58.23524856567383,24.67,1
-0.4711027443408966,-0.0155508387833833,0.479347676038742,3.1201579570770264,1.2545894384384155,58.22978591918945,24.67,1
-0.3527065813541412,0.0348025597631931,0.4587576687335968,3.4031248092651367,1.2528141736984253,58.22628021240234,24.67,1
-0.2599334418773651,0.0503231510519981,0.3783708810806274,3.380509853363037,1.2516748905181885,58.224029541015625,24.67,1
-0.038061499595642,0.0155011788010597,0.2484144270420074,3.065060615539551,1.2509437799453735,58.22258758544922,24.67,1
-0.0020345819648355,-0.2139632254838943,0.1202336624264717,2.246420383453369,1.2504745721817017,58.22166061401367,24.67,1
0.0378787443041801,-0.758662223815918,-0.4602273106575012,0.9185672402381896,1.2501734495162964,58.22106552124024,24.67,1
-0.6922067403793335,-1.203380823135376,-0.5528450012207031,-0.4996193647384643,1.2499802112579346,58.22068405151367,24.67,1
-0.1979163736104965,-1.488775610923767,0.3561332523822784,-1.635432243347168,1.2498562335968018,58.22043991088867,24.67,1
-0.2445645928382873,-1.212908148765564,0.7379432916641235,-2.464643716812134,1.2433499097824097,58.22028350830078,24.67,1
-0.4928139448165893,-0.9407100677490234,0.6694916486740112,-3.0146965980529785,1.239174485206604,58.22018051147461,24.67,1
-0.8088637590408325,-0.2790226638317108,0.631161093711853,-3.1921427249908447,1.2364948987960815,58.22011566162109,24.67,1
-0.7765797972679138,0.1344146877527237,0.5729761123657227,-2.987168312072754,1.2347753047943115,58.22007369995117,24.67,1
-0.7278729677200317,0.3045728206634521,0.5300385355949402,-2.5009524822235107,1.23367178440094,58.22004699707031,24.67,1
-0.8421578407287598,0.3354016542434692,0.4968858957290649,-1.9166513681411743,1.2329635620117188,58.22003173828125,24.67,1
-0.8819126486778259,0.3048058748245239,0.5539792776107788,-1.59183669090271,1.2325091361999512,58.22002029418945,24.67,1
-0.8402517437934875,0.2403890639543533,0.6242051720619202,-1.9100278615951536,1.2322174310684204,58.22001266479492,24.67,1
-0.8247116804122925,0.1318767666816711,0.6244899034500122,-2.8773133754730225,1.369744062423706,58.220008850097656,24.67,1
-0.8427278399467468,0.095826469361782,0.5630971193313599,-4.153672695159912,1.4580007791519165,58.22000503540039,24.67,1
-0.815105140209198,0.0894847810268402,0.5125032067298889,-5.391928195953369,1.514638900756836,58.22000503540039,24.67,1
-0.8253673911094666,0.0406328588724136,0.5024260878562927,-6.408688545227051,1.5509859323501587,58.22000503540039,24.67,1
-0.8431486487388611,-0.063488557934761,0.5463390946388245,-7.326297760009766,1.574311375617981,58.22000503540039,24.67,1
-0.8433640599250793,-0.0575366243720054,0.5857155323028564,-8.416727066040039,1.589280366897583,58.22000503540039,24.67,1
-0.8658934235572815,-0.0313259176909923,0.55500727891922,-9.603732109069824,1.5988866090774536,58.22000503540039,24.67,1
-0.8747537136077881,-0.0312987193465232,0.5744849443435669,-10.48729133605957,1.6050512790679932,58.22000503540039,24.67,1
-0.8804396986961365,-0.0256834905594587,0.5869845747947693,-11.194028854370115,1.5112661123275757,58.06953430175781,24.67,1
-0.9064797759056092,0.0338977836072444,0.5390283465385437,-12.675771713256836,1.4510802030563354,57.97297286987305,24.67,1
-0.9007996916770936,0.0609380640089511,0.5138505697250366,-15.614997863769531,1.4124563932418823,57.91100311279297,24.67,1
-0.8803611993789673,0.0838887393474578,0.5032907128334045,-19.360580444335938,1.387669801712036,57.87123489379883,24.67,1
-0.8896360397338867,0.1322038024663925,0.4965140223503113,-22.889209747314453,1.3717632293701172,57.8457145690918,24.67,1
-0.8955880999565125,0.1576118618249893,0.4809695780277252,-26.590293884277344,1.3615553379058838,57.82933807373047,24.67,1
-0.8546255826950073,0.2019061595201492,0.448602944612503,-31.8064193725586,1.3550044298171997,57.81882858276367,24.67,1
-0.8451315760612488,0.2471250146627426,0.4166363477706909,-38.56443786621094,1.3508005142211914,57.81208419799805,24.67,1
-0.8278433084487915,0.2593505382537842,0.3849264979362488,-45.31241989135742,1.316887617111206,57.80775451660156,24.67,1
-0.8447375297546387,0.2448050826787948,0.375772476196289,-51.44850540161133,1.2951242923736572,57.80497741699219,24.67,1
-0.8555793166160583,0.2298728823661804,0.3866912722587585,-58.650020599365234,1.2811578512191772,57.80319213867188,24.67,1
-0.8569391369819641,0.21469247341156,0.382502794265747,-68.70988464355469,1.2721949815750122,57.80204772949219,24.67,1
-0.8522140383720398,0.1993527859449386,0.3854126334190368,-80.93367767333984,1.266443133354187,57.80131530761719,24.67,1
-0.888366162776947,0.1951064318418502,0.3760844469070434,-93.00205993652344,1.2627519369125366,57.80084228515625,24.67,1
-0.9171642661094666,0.1811858266592025,0.3700981736183166,-104.34375762939452,1.260383129119873,57.800540924072266,24.67,1
-0.9468408226966858,0.1666546016931533,0.3886476159095764,-117.522705078125,1.2588629722595217,57.80034637451172,24.67,1
-0.9602877497673036,0.1573293060064315,0.4061493575572967,-136.04006958007812,1.2601823806762695,57.80022048950195,24.67,1
-0.9801127314567566,0.1401493102312088,0.4061854183673858,-158.73565673828125,1.2610291242599487,57.800140380859375,24.67,1
-0.9760419726371764,0.12912417948246,0.4006107747554779,-175.1776580810547,1.2615724802017212,57.80009078979492,24.67,1
-0.9678317904472352,0.127646654844284,0.3914355337619781,-171.04420471191406,1.2619212865829468,57.80005645751953,24.67,1
-0.9681607484817504,0.1266984641551971,0.3855473697185516,-140.7627716064453,1.2621450424194336,57.8000373840332,24.67,1
-0.9515785574913024,0.1260899752378463,0.392964243888855,-89.92144775390625,1.2622886896133425,57.80002212524414,24.67,1
-0.9465348124504088,0.1201017126441001,0.3977239727973938,-24.17350006103516,1.262380838394165,57.80001449584961,24.67,1
-0.9600913524627686,0.133052110671997,0.383985161781311,54.626502990722656,1.2624399662017822,57.80001068115234,24.67,1
-0.9519978165626526,0.1469607055187225,0.3751683831214905,138.23074340820312,1.2762494087219238,57.80000686645508,24.67,1
-0.9412060976028442,0.1558864414691925,0.3807058334350586,208.33432006835932,1.2851115465164185,57.80000305175781,24.67,1
-0.9118894934654236,0.1728100180625915,0.3674661219120025,247.59063720703125,1.2907986640930176,57.80000305175781,24.67,1
-0.8930757641792297,0.1780728101730346,0.3645674288272857,250.5245361328125,1.2944483757019043,57.80000305175781,24.67,1
-0.9145888686180116,0.1646568477153778,0.3739027380943298,226.2724609375,1.296790599822998,57.80000305175781,24.67,1
-0.9060036540031432,0.1560472548007965,0.3742958307266235,194.977783203125,1.2982937097549438,57.80000305175781,24.67,1
-0.922885239124298,0.1561198830604553,0.3801458775997162,175.72581481933594,1.2992582321166992,57.80000305175781,24.67,1
-0.9169255495071412,0.1505687236785888,0.400693416595459,172.8505096435547,1.2998772859573364,57.80000305175781,24.67,1
-0.9131009578704834,0.1582018584012985,0.4082818925380707,177.919677734375,1.3172590732574463,57.67461395263672,24.67,1
-0.921842098236084,0.1575025916099548,0.4075539410114288,184.2394561767578,1.328413724899292,57.59414291381836,24.67,1
-0.9274516701698304,0.1514560729265213,0.4126845598220825,193.07427978515625,1.3355721235275269,57.5425033569336,24.67,1
-0.925453782081604,0.1531735360622406,0.4103793203830719,207.84011840820312,1.3401659727096558,57.50936508178711,24.67,1
-0.9241716265678406,0.1486779302358627,0.4088999629020691,226.3333282470703,1.343114137649536,57.48809814453125,24.67,1
-0.9177510738372804,0.1513906866312027,0.4079505801200866,237.51693725585932,1.345005989074707,57.47444915771485,24.67,1
-0.919228494167328,0.1531315743923187,0.407341331243515,227.300521850586,1.3462201356887815,57.46569061279297,24.67,1
-0.9089810848236084,0.1542487740516662,0.4069503545761108,190.16336059570312,1.3469992876052856,57.46006774902344,24.67,1
-0.9247959852218628,0.1605634987354278,0.4066994488239288,131.2717742919922,1.3819278478622437,57.45646286010742,24.67,1
-0.9181517362594604,0.1590181589126587,0.4177339673042297,57.09033203125,1.4043430089950562,57.45414733886719,24.67,1
-0.9194856286048888,0.1636242121458053,0.4192175269126892,-26.430370330810547,1.4187277555465698,57.45266342163086,24.67,1
-0.9203416109085084,0.1665801256895065,0.4089740514755249,-106.2751007080078,1.4279590845108032,57.45170974731445,24.67,1
-0.926488757133484,0.1628792732954025,0.4079981446266174,-166.3029022216797,1.4338831901550293,57.45109939575195,24.67,1
-0.913640320301056,0.1661020666360855,0.4017740786075592,-201.56515502929688,1.4376848936080933,57.4507064819336,24.67,1
-0.9221882224082948,0.1625724881887436,0.4145731627941131,-219.92759704589844,1.4401246309280396,57.45045471191406,24.67,1
-0.9220759868621826,0.1603074073791504,0.4171890914440155,-229.9166717529297,1.4416903257369995,57.45029067993164,24.67,1
-0.922003984451294,0.1588538140058517,0.4132700860500335,-234.4748992919922,1.4904361963272097,57.45018768310547,24.67,1
-0.921957790851593,0.1579209715127945,0.4163528680801391,-234.9532012939453,1.5217185020446775,57.45011901855469,24.67,1
-0.9219281077384948,0.1573223322629928,0.4183312058448791,-233.97401428222656,1.541793704032898,57.450077056884766,24.67,1
-0.9219090938568116,0.1569381654262542,0.4196007847785949,-233.7826995849609,1.5546767711639404,57.45005035400391,24.67,1
-0.9218968749046326,0.156691625714302,0.4204155504703522,-235.2255096435547,1.562944412231445,57.45003128051758,24.67,1
-0.9162912368774414,0.1565334051847458,0.4153406322002411,-237.6883544921875,1.568250060081482,57.45001983642578,24.67,1
-0.9182916879653932,0.1564318686723709,0.4176816046237945,-235.7221069335937,1.5716549158096311,57.45001220703125,24.67,1
-0.9139776825904846,0.1563667058944702,0.4191839098930359,-219.3131561279297,1.5738400220870972,57.450008392333984,24.67,1
-0.9112091660499572,0.1563248932361602,0.4257457852363586,-186.6281890869141,1.630327582359314,57.45000457763672,24.67,1
-0.915030300617218,0.1507002860307693,0.4243590533733368,-150.0650634765625,1.6665780544281006,57.45000457763672,24.67,1
-0.9118846654891968,0.152688518166542,0.4234691262245178,-118.1783218383789,1.6898415088653564,57.45000457763672,24.67,1
-0.9154638051986694,0.1539644449949264,0.4228980243206024,-82.23136138916016,1.7047706842422483,57.45000457763672,24.67,1
-0.9177606701850892,0.1603810340166092,0.4225315153598785,-31.21858024597168,1.7143512964248655,57.45000457763672,24.67,1
-0.9192346334457396,0.1589010655879974,0.4278940856456756,31.36850547790528,1.7204996347427368,57.45000457763672,24.67,1
-0.9145827889442444,0.1635490804910659,0.4257377088069916,91.97905731201172,1.7244452238082886,57.45000457763672,24.67,1
-0.9004019498825073,0.1665319055318832,0.4243538677692413,137.87576293945312,1.7269773483276367,57.45000457763672,24.67,1
-0.8913015127182007,0.1740438789129257,0.445856899023056,162.37850952148438,1.778179407119751,57.31744766235352,24.67,1
-0.8854613900184631,0.1900601834058761,0.4428629875183105,167.44122314453125,1.81103789806366,57.23237991333008,24.67,1
-0.892909049987793,0.1891429722309112,0.4353438913822174,161.51878356933594,1.8321245908737185,57.17778778076172,24.67,1
-0.8976885676383972,0.1773588210344314,0.4249207973480224,152.62725830078125,1.8456568717956543,57.14275360107422,24.67,1
-0.8839624524116516,0.1809919774532318,0.4406229257583618,143.4317626953125,1.8543410301208496,57.12027359008789,24.67,1
-0.8975449204444885,0.2001168429851532,0.4339063465595245,132.03854370117188,1.8599140644073489,57.1058464050293,24.67,1
-0.8838702440261841,0.2011945396661758,0.4519871175289154,117.03165435791016,1.8634905815124512,57.096588134765625,24.67,1
-0.8862901926040649,0.2074839174747467,0.4635903239250183,100.8521499633789,1.8657857179641724,57.09064483642578,24.67,1
-0.8710498213768005,0.2059223055839538,0.4822321534156799,87.00114440917969,1.9067368507385247,57.08683013916016,24.67,1
-0.8780627846717834,0.1881268322467804,0.4885976314544678,75.97356414794922,1.933016896247864,57.08438491821289,24.67,1
-0.8601722121238708,0.1935000419616699,0.5038781762123108,66.113037109375,1.949881911277771,57.08281326293945,24.67,1
