acc_x,acc_y,acc_z,bvp,eda,hr,temp,label
0.0,0.0,0.0,0.0,0.0,0.0,35.05,1
-0.0312499981373548,-0.1614583283662796,0.0390624962747097,-0.1299999803304672,0.4302417933940887,16.499998092651367,35.05,1
-0.0773628056049346,-0.3738567233085632,0.091463416814804,0.0095122158527374,1.0073955059051514,38.6341438293457,35.05,1
-0.1174730062484741,-0.558606743812561,0.1470099687576294,0.47850501537323,1.5094197988510132,57.88704299926758,35.05,1
-0.1413973569869995,-0.6720390319824219,0.1821959763765335,0.5985914468765259,1.875673651695252,71.93306732177734,35.05,1
-0.1685746014118194,-0.7762861251831055,0.1950389444828033,-0.1914334744215011,2.123642921447754,81.44281768798828,35.05,1
-0.2141721546649933,-0.8391340970993042,0.2256780862808227,-1.8897210359573364,2.286346435546875,87.68258666992188,35.05,1
-0.2158067971467971,-0.8742583394050598,0.2287835627794265,-4.100129127502441,2.391721487045288,91.7237777709961,35.05,1
-0.1889089196920395,-0.9192450642585754,0.2028331458568573,-6.432750701904297,2.420635223388672,94.3270034790039,35.05,1
-0.1772151589393615,-0.9089974164962769,0.219721570611,-8.751976013183594,2.4392194747924805,96.00020599365234,35.05,1
-0.2480567544698715,-0.8968203663825989,0.1913911551237106,-10.893155097961426,2.45115327835083,97.07465362548828,35.05,1
-0.2375583797693252,-0.916990041732788,0.1955944895744323,-12.14222526550293,2.4588139057159424,97.7643585205078,35.05,1
-0.2476130723953247,-0.9299351572990416,0.1926946938037872,-11.639886856079102,2.463730573654175,98.20701599121094,35.05,1
-0.2540658712387085,-0.9326452612876892,0.1964313685894012,-9.182320594787598,2.466885805130005,98.49110412597656,35.05,1
-0.2526092529296875,-0.9287867546081544,0.1988293975591659,-5.441305160522461,2.4689106941223145,98.67341613769533,35.05,1
-0.2572722434997558,-0.9263105988502502,0.2003683298826217,-0.8981442451477051,2.470210313796997,98.79042053222656,35.05,1
-0.2602646648883819,-0.9191237688064576,0.2013559341430664,4.510874271392822,2.4912424087524414,98.8655014038086,35.05,1
-0.2621850371360779,-0.9145116209983826,0.2019897103309631,10.672588348388672,2.50473952293396,98.91368865966795,35.05,1
-0.2690151929855346,-0.9171496033668518,0.20799420773983,16.32854652404785,2.51340126991272,98.94461059570312,35.05,1
-0.2678006291389465,-0.930038034915924,0.2118475586175918,18.18125915527344,2.5189599990844727,98.9644546508789,35.05,1
-0.2670211791992187,-0.938309133052826,0.2143204063177108,15.21085262298584,2.5225272178649902,98.97718811035156,35.05,1
-0.2721187472343445,-0.9548125863075256,0.221505120396614,10.091046333312988,2.5248165130615234,98.98535919189452,35.05,1
-0.2641945481300354,-0.9710013270378112,0.2261158525943756,5.358088970184326,2.526285648345948,98.9906005859375,35.05,1
-0.2591092586517334,-0.9701947569847108,0.2234769761562347,1.8156062364578247,2.527228355407715,98.99396514892578,35.05,1
-0.2614435851573944,-0.9696771502494812,0.2217835038900375,-0.6368839740753174,2.53839111328125,98.99612426757812,35.07,1
-0.2685393691062927,-0.9749427437782288,0.2262945026159286,-2.5940864086151123,2.545554876327514,98.9975128173828,35.07,1
-0.273093044757843,-0.97832190990448,0.2235916256904602,-4.365997314453125,2.550152063369751,98.99840545654295,35.07,1
-0.27041757106781,-0.9804904460906982,0.2218570709228515,-5.424291133880615,2.5531022548675537,98.9989776611328,35.07,1
-0.2631028294563293,-0.9650887846946716,0.2207439392805099,-5.347519874572754,2.554995536804199,98.99934387207033,35.07,1
-0.2472130954265594,-0.9552049040794371,0.220029592514038,-4.31662654876709,2.556210517883301,98.99958038330078,35.07,1
-0.24261374771595,-0.9488620162010192,0.2195711731910705,-2.580286026000977,2.556990385055542,98.9997329711914,35.07,1
-0.2452599257230758,-0.927998185157776,0.2192769795656204,-0.3768996596336365,2.557490825653076,98.99983215332033,35.07,1
-0.2469580918550491,-0.9146089553833008,0.2190881818532943,1.3487911224365234,2.561025381088257,92.90951538085938,35.07,1
-0.2424501031637191,-0.9172120690345764,0.2245648056268692,1.6107522249221802,2.563293695449829,89.0010986328125,35.07,1
-0.2283615916967392,-0.9244803786277772,0.2448727041482925,0.4389805197715759,2.5647494792938232,86.49290466308594,35.07,1
-0.2193203866481781,-0.9403402805328368,0.2579051554203033,-1.2337170839309692,2.565683603286743,84.88328552246094,35.07,1
-0.2359093576669693,-0.9561160802841188,0.2606708407402038,-2.565103530883789,2.566283226013184,83.85032653808594,35.07,1
-0.2521529793739319,-0.9606422781944276,0.2568479180335998,-3.8530023097991934,2.566668033599853,83.18743133544922,35.07,1
-0.2849683165550232,-0.9355580806732178,0.2431990504264831,-6.295243263244629,2.566914796829224,82.76202392578125,35.07,1
-0.2948317527770996,-0.9250582456588744,0.2456355392932891,-10.026408195495604,2.567073345184326,82.48902130126953,35.07,1
-0.3067592978477478,-0.9127222895622252,0.2471991330385208,-13.355907440185549,2.573601484298706,82.31382751464844,35.07,1
-0.3424026072025299,-0.8936102390289307,0.220213696360588,-14.58261489868164,2.5777907371521,82.2013931274414,35.07,1
-0.354080855846405,-0.886942982673645,0.1972982138395309,-12.833380699157717,2.580479145050049,82.12924194335938,35.07,1
-0.3335864245891571,-0.9386420845985411,0.1657990515232086,-7.77357292175293,2.582204341888428,82.08293914794922,35.07,1
-0.2364676594734192,-0.9718195796012878,0.2239535450935363,0.6754202246665955,2.5833115577697754,82.05322265625,35.07,1
-0.1237624585628509,-0.9819154143333436,0.3060559630393982,12.481648445129396,2.584022045135498,82.0341567993164,35.07,1
-0.1689880192279815,-0.9716010093688964,0.2803757190704345,25.28876495361328,2.58447813987732,82.02191925048828,35.07,1
-0.231597825884819,-0.953786313533783,0.2359067350625991,32.81978225708008,2.584770679473877,82.01406860351562,35.07,1
-0.2829727530479431,-0.919962763786316,0.2073691040277481,30.372961044311523,2.5913853645324707,82.00902557373047,35.07,1
-0.2879533469676971,-0.8870611786842346,0.1946530789136886,21.666240692138672,2.595630168914795,82.00579071044922,35.07,1
-0.2911495864391327,-0.8659468293190002,0.1808948814868927,13.28077793121338,2.5983543395996094,82.00371551513672,35.07,1
-0.2932007610797882,-0.8691902160644531,0.1776634454727172,7.071895599365234,2.600102424621582,82.00238800048828,35.07,1
-0.2889192998409271,-0.8824671506881714,0.1811874657869339,2.252652168273926,2.601224422454834,82.00153350830078,35.07,1
-0.2861717045307159,-0.9021830558776855,0.1946445256471634,-0.7934872508049011,2.6019444465637207,82.00098419189453,35.07,1
-0.2788106799125671,-0.9260311722755432,0.2256715893745422,-2.390066623687744,2.6024065017700195,82.0006332397461,35.07,1
-0.2852823734283447,-0.9469332695007324,0.2455829679965973,-4.28522539138794,2.602703094482422,82.00040435791016,35.07,1
-0.3062288463115692,-0.9659448266029358,0.2527631819248199,-6.991780757904053,2.604729413986206,82.00025939941406,35.05,1
-0.319671094417572,-0.9781453609466552,0.257371038198471,-8.857665061950684,2.606029748916626,82.00016784667969,35.05,1
-0.3450908660888672,-0.9859749674797058,0.2659258544445038,-8.74385929107666,2.606864213943481,82.00010681152344,35.05,1
-0.3614038228988647,-0.9854017496109008,0.2658180594444275,-7.814589500427246,2.607399702072144,82.00006866455078,35.05,1
-0.366274744272232,-1.0018272399902344,0.2825422286987304,-7.651729583740234,2.607743501663208,82.00004577636719,35.05,1
-0.3861939609050751,-1.0291614532470703,0.321263700723648,-8.102514266967773,2.607964038848877,82.00003051757812,35.05,1
-0.4101725220680237,-1.0523008108139038,0.3461129069328308,-8.119525909423828,2.608105659484864,82.0000228881836,35.05,1
-0.4087672531604767,-1.0335636138916016,0.3452663719654083,-7.714864730834961,2.608196496963501,82.00001525878906,35.05,1
-0.3574854731559753,-1.0215392112731934,0.316734254360199,-7.673713684082031,2.599073886871338,82.0895767211914,35.05,1
-0.3133802115917206,-1.0138226747512815,0.3040217459201813,-8.163195610046387,2.593219518661499,82.14704895019531,35.05,1
-0.2962715327739715,-0.9920772910118104,0.2958635985851288,-8.753175735473633,2.5894625186920166,82.18392944335938,35.05,1
-0.2908899486064911,-0.9949156641960144,0.2794326245784759,-9.13537311553955,2.5870516300201416,82.20760345458984,35.05,1
-0.3042296767234802,-1.0415194034576416,0.2632903754711151,-8.972232818603516,2.585504531860352,82.22279357910156,35.05,1
-0.3183881342411041,-1.0770246982574463,0.2361378967761993,-7.778435230255127,2.5845115184783936,82.2325439453125,35.05,1
-0.3162786662578583,-1.0886144638061523,0.2131152302026748,-5.62586784362793,2.583874225616455,82.23880004882812,35.05,1
-0.2981316149234772,-1.040074348449707,0.1815472841262817,-3.2986741065979004,2.583465337753296,82.24281311035156,35.05,1
-0.2696925401687622,-0.9921307563781738,0.1500932425260543,-1.4147143363952637,2.573562860488892,82.2453842163086,35.05,1
-0.1954642385244369,-0.9277766942977904,0.1522989422082901,-0.0265686120837926,2.5672080516815186,82.24703979492188,35.05,1
-0.1926109939813614,-0.8920757174491882,0.1425188928842544,0.9108368754386902,2.5631299018859863,82.24810028076172,35.05,1
-0.207573264837265,-0.8691648840904236,0.1250470727682113,1.440758228302002,2.5605127811431885,82.248779296875,35.05,1
-0.2395662814378738,-0.8600597977638245,0.1082368865609169,1.8417350053787231,2.558833360671997,82.24921417236328,35.05,1
-0.2600975632667541,-0.8542166948318481,0.0918513014912605,2.3390915393829346,2.557755708694458,82.24949645996094,35.05,1
-0.2452844828367233,-0.8504669070243835,0.0813359767198562,2.758578300476074,2.5570640563964844,82.24967956542969,35.05,1
-0.2301805317401886,-0.9096360206604004,0.0801856219768524,2.877312660217285,2.5566201210021973,82.24979400634766,35.05,1
-0.2092921286821365,-0.9588029384613036,0.090642936527729,2.867527723312378,2.5549581050872803,82.24987030029297,35.05,1
-0.1958871632814407,-1.0015509128570557,0.1253427118062973,3.011716365814209,2.55389142036438,82.24991607666016,35.05,1
-0.1648935228586197,-1.0681685209274292,0.1588065773248672,3.183065176010132,2.55320692062378,82.24994659423828,35.05,1
-0.1617969125509262,-1.1165176630020142,0.1746839880943298,2.859535217285156,2.552767753601074,82.24996948242188,35.05,1
-0.2437763065099716,-1.147545337677002,0.229655385017395,1.7813464403152466,2.552485942840576,82.2499771118164,35.05,1
-0.3019837439060211,-1.0946861505508425,0.2873239815235138,0.4588936865329742,2.552304983139038,82.24998474121094,35.05,1
-0.2833601832389831,-0.9711997509002686,0.3019412457942962,-0.2393122017383575,2.552188873291016,82.24999237060547,35.05,1
-0.1874420344829559,-0.936735451221466,0.29452845454216,0.0470474511384964,2.552114486694336,82.24999237060547,35.05,1
-0.1034961864352226,-0.9482049345970154,0.3009668886661529,1.0763044357299805,2.5534439086914062,82.24999237060547,35.03,1
-0.0496245697140693,-0.9835542440414428,0.3554786741733551,2.4175117015838623,2.554296970367432,82.24999237060547,35.03,1
-0.0878239348530769,-0.9950438141822816,0.3624723255634308,3.478845596313477,2.554844379425049,82.24999237060547,35.03,1
-0.1739136129617691,-0.929646134376526,0.3501671254634857,3.6189796924591056,2.5551958084106445,82.24999237060547,35.03,1
-0.2291610091924667,-0.8764820694923401,0.3366726040840149,2.7917702198028564,2.5554211139678955,82.24999237060547,35.03,1
-0.2646155953407287,-0.8311688899993896,0.305621474981308,1.6053035259246826,2.55556583404541,82.24999237060547,35.03,1
-0.2873683273792267,-0.8132850527763367,0.2912924289703369,0.5787868499755859,2.5556585788726807,82.24999237060547,35.03,1
-0.3075674772262573,-0.8074060082435608,0.2820968925952911,-0.1623716801404953,2.555718183517456,82.24999237060547,35.03,1
-0.3205301463603973,-0.8204265236854553,0.281793475151062,-0.6236742734909058,2.538771390914917,80.29749298095703,35.03,1
-0.3232510685920715,-0.8343800902366638,0.2815987765789032,-0.930459439754486,2.527895927429199,79.04448699951172,35.03,1
-0.3305949568748474,-0.8545302748680115,0.2982671558856964,-1.3673690557479858,2.520916700363159,78.24038696289062,35.03,1
-0.3465034067630768,-0.8786570429801941,0.3257572650909424,-1.8698722124099727,2.516437768936157,77.72435760498047,35.03,1
-0.3623102903366089,-0.9053357243537904,0.3545944094657898,-1.9451520442962649,2.513563632965088,77.39320373535156,35.03,1
-0.3668564856052398,-0.9448477029800416,0.3731004297733307,-1.4775714874267578,2.511718988418579,77.1806869506836,35.03,1
-0.3585784137248993,-0.9590086340904236,0.3849765062332153,-1.0807756185531616,2.51053524017334,77.04430389404297,35.03,1
-0.342070460319519,-0.9736940860748292,0.3758045732975006,-1.5892235040664673,2.5097756385803223,76.95677947998047,35.03,1
-0.359465479850769,-1.0279005765914917,0.3811140954494476,-3.1765828132629395,2.50928807258606,76.9006118774414,35.03,1
-0.3986174762248993,-1.0906760692596436,0.3957169950008392,-5.148223876953125,2.5089752674102783,76.86457061767578,35.03,1
-0.4517318606376648,-1.086179494857788,0.382697194814682,-6.130486011505127,2.508774518966675,76.84143829345703,35.03,1
-0.4466331899166107,-1.083293914794922,0.3351574242115021,-5.048374176025391,2.50864577293396,76.82659149169922,35.03,1
-0.4265678226947784,-1.0926376581192017,0.304649144411087,-2.4050159454345703,2.508563041687012,76.81706237792969,35.03,1
-0.3801043927669525,-1.143416166305542,0.2962662279605865,0.0795060321688652,2.508510112762451,76.81095123291016,35.03,1
-0.3278957307338714,-1.176002860069275,0.2852887809276581,1.2726807594299316,2.50847601890564,76.8070297241211,35.03,1
-0.2720001339912414,-1.1465351581573486,0.2614507675170898,1.1248347759246826,2.5084540843963623,76.80451202392578,35.03,1
-0.2249339967966079,-1.0660489797592163,0.2405551224946975,-0.1451291143894195,2.5024726390838623,76.80289459228516,35.03,1
-0.1947296559810638,-1.003201961517334,0.2215477228164672,-2.1423685550689697,2.498634099960327,76.8018569946289,35.03,1
-0.1921395808458328,-0.9516748785972596,0.1981543153524398,-4.011624336242676,2.49617075920105,76.80119323730469,35.03,1
-0.2072707414627075,-0.9130100011825562,0.1775439977645874,-5.189709663391113,2.494589805603028,76.80076599121094,35.03,1
-0.2505677044391632,-0.8825992941856384,0.1531219333410263,-6.067544460296631,2.49357533454895,76.80049133300781,35.03,1
-0.2727554142475128,-0.8406923413276672,0.1318514943122863,-7.193352699279785,2.492924213409424,76.8003158569336,35.03,1
-0.2702008783817291,-0.7914078235626221,0.1237991228699684,-8.42455768585205,2.492506504058838,76.80020141601562,35.03,1
-0.2405726611614227,-0.7709754109382629,0.1298271268606186,-9.282742500305176,2.4922382831573486,76.80013275146484,35.03,1
-0.2215589731931686,-0.7690585851669312,0.150488868355751,-9.568366050720217,2.495279312133789,76.80008697509766,35.05,1
-0.2149548679590225,-0.7790240049362183,0.1861394792795181,-9.235772132873535,2.4972310066223145,76.80005645751953,35.05,1
-0.2275100499391555,-0.8525925278663635,0.2090179920196533,-8.062202453613281,2.498483419418335,76.80003356933594,35.05,1
-0.2355672419071197,-0.9389890432357788,0.2292978763580322,-5.876042366027832,2.4992871284484863,76.8000259399414,35.05,1
-0.2687267661094665,-1.0951932668685913,0.2647034525871277,-2.9254181385040283,2.499803066253662,76.80001831054688,35.05,1
-0.3179955184459686,-1.1562516689300537,0.321011334657669,0.3868229687213897,2.500133991241455,76.80001068115234,35.05,1
-0.3608089089393616,-1.0051112174987793,0.3571465015411377,4.009945392608643,2.5003464221954346,76.80001068115234,35.05,1
-0.3602952063083648,-0.885726809501648,0.3635426461696625,7.943633079528809,2.5004827976226807,76.80001068115234,35.05,1
-0.2871944606304168,-0.9322637915611268,0.3396584689617157,11.446089744567873,2.510669708251953,75.19859313964844,35.05,1
-0.184304878115654,-0.9957152009010316,0.3579176068305969,13.285351753234863,2.517206907272339,74.1708984375,35.05,1
-0.0846896097064018,-1.019641399383545,0.4144174754619598,12.806951522827148,2.52140212059021,73.51138305664062,35.05,1
-0.2166843712329864,-0.9790180921554564,0.321927011013031,10.40771770477295,2.524094343185425,73.08814239501953,35.05,1
-0.2566088140010834,-0.9361550211906432,0.3073541522026062,7.1770524978637695,2.525822162628174,72.81653594970703,35.05,1
-0.2990233600139618,-0.9030502438545228,0.298002153635025,4.251144409179688,2.526931047439575,72.6422348022461,35.05,1
-0.3262425661087036,-0.8706099390983582,0.2975983321666717,2.1871707439422607,2.5276424884796143,72.5303726196289,35.05,1
-0.3437102735042572,-0.8441938161849976,0.2973392009735107,0.8841267824172974,2.5280990600585938,72.45858764648438,35.05,1
-0.3269311785697937,-0.8160459399223328,0.3363573253154754,0.1947938203811645,2.509571075439453,72.41252136230469,35.05,1
-0.2769789099693298,-0.7979822754859924,0.3166147172451019,0.2432324588298797,2.497680902481079,72.3829574584961,35.05,1
-0.2953023910522461,-0.7975856065750122,0.2871517241001129,0.8152865171432495,2.4900503158569336,72.36398315429688,35.05,1
-0.3854301869869232,-0.8365154266357422,0.2962329387664795,0.978191077709198,2.4851534366607666,72.351806640625,35.05,1
-0.499246746301651,-0.9062805771827698,0.3188540637493133,-0.1245941370725631,2.482011079788208,72.343994140625,35.05,1
-0.5834832191467285,-0.990236222743988,0.3277732133865356,-2.1363556385040283,2.479994535446167,72.33898162841797,35.05,1
-0.508792519569397,-1.0497119426727295,0.3390947878360748,-3.413058042526245,2.478700399398804,72.33576202392578,35.05,1
-0.427273690700531,-1.08788001537323,0.3519580960273742,-2.412423849105835,2.477869749069214,72.33370208740234,35.05,1
-0.4197418093681335,-1.1291674375534058,0.3714085817337036,0.6981200575828552,2.476877927780152,72.3323745727539,35.05,1
-0.437299370765686,-1.1164789199829102,0.3838907778263092,4.166726589202881,2.47624135017395,72.33152770996094,35.05,1
-0.4541645646095276,-1.0523583889007568,0.3359234035015106,6.564642429351807,2.47583270072937,72.33097839355469,35.05,1
-0.4537921249866485,-1.0671871900558472,0.2771518230438232,7.748811721801758,2.475570678710937,72.33062744140625,35.05,1
-0.4423575699329376,-1.0990946292877195,0.2506311535835266,7.838801860809326,2.475402355194092,72.33040618896484,35.05,1
-0.4126284420490265,-1.1755486726760864,0.2448072582483291,6.621155261993408,2.475294351577759,72.33026123046875,35.05,1
-0.3823544383049011,-1.2078192234039309,0.2522653639316559,4.213250637054443,2.47522497177124,72.33016967773438,35.05,1
-0.3461330235004425,-1.15015971660614,0.2402582317590713,1.2027225494384766,2.475180625915528,72.33010864257812,35.05,1
-0.2948993146419525,-1.0683749914169312,0.2101616412401199,-2.0189883708953857,2.468725204467773,72.33007049560547,35.03,1
-0.2564226984977722,-0.999096930027008,0.1796518415212631,-5.272329330444336,2.464582681655884,72.33004760742188,35.03,1
-0.2485239505767822,-0.9266493916511536,0.1656701862812042,-8.080233573913574,2.4619240760803223,72.33003234863281,35.03,1
-0.2378572076559066,-0.8745589852333069,0.162295326590538,-10.000410079956056,2.4602179527282715,72.33002471923828,35.03,1
-0.2366096824407577,-0.835532546043396,0.1545317620038986,-11.322233200073242,2.459123134613037,72.33001708984375,35.03,1
-0.2358090877532959,-0.7936943173408508,0.1495495587587356,-12.77237606048584,2.458420515060425,72.33000946044922,35.03,1
-0.2240997701883316,-0.7556493878364563,0.1407544910907745,-14.437422752380373,2.457969665527344,72.33000946044922,35.03,1
-0.2053898572921753,-0.759223222732544,0.1295125484466552,-15.29816436767578,2.4576802253723145,72.33000946044922,35.03,1
-0.1989806741476059,-0.7839078307151794,0.1390914469957351,-13.99476432800293,2.467134475708008,72.36582946777344,35.03,1
-0.2116609662771225,-0.8389334082603455,0.1900208294391632,-9.984155654907228,2.4732017517089844,72.3888168334961,35.03,1
-0.2309939861297607,-0.947016716003418,0.2450954616069793,-3.870792865753174,2.477095365524292,72.40357208251953,35.03,1
-0.2210097163915634,-1.0387694835662842,0.2748414278030395,3.165669679641724,2.4795939922332764,72.41304016113281,35.03,1
-0.214602380990982,-1.1032488346099854,0.2995284497737884,9.633769989013672,2.481197595596313,72.41911315917969,35.03,1
-0.2496749460697174,-1.049465894699097,0.343360036611557,13.895684242248535,2.482226610183716,72.42301177978516,35.03,1
-0.305769145488739,-0.9253866672515868,0.3658908307552337,15.312348365783691,2.482887029647827,72.4255142211914,35.03,1
-0.3417671620845794,-1.0024974346160889,0.3635564744472503,14.931754112243652,2.4833109378814697,72.4271240234375,35.03,1
-0.359270840883255,-1.1079604625701904,0.3732539713382721,14.08205509185791,2.49735426902771,72.42815399169922,35.03,1
-0.3145259618759155,-1.1084672212600708,0.3906728327274322,12.93131160736084,2.506366491317749,72.42881774902344,35.03,1
-0.2578223943710327,-1.0584124326705933,0.3962534666061401,11.114476203918455,2.5121500492095947,72.42924499511719,35.03,1
-0.2270310968160629,-0.9703124165534972,0.3774437010288238,8.837937355041504,2.5158615112304688,72.42951202392578,35.03,1
-0.2352598756551742,-0.930568277835846,0.3485793471336365,6.581653594970703,2.5182433128356934,72.4296875,35.03,1
-0.2741272747516632,-0.9162582755088806,0.3300558626651764,4.496002197265625,2.519771814346313,72.42980194091797,35.03,1
-0.3550478816032409,-0.9294660687446594,0.3069730103015899,2.6201648712158203,2.5207529067993164,72.42987060546875,35.03,1
-0.418173611164093,-0.94353985786438,0.2809642255306244,1.0688505172729492,2.5213823318481445,72.42991638183594,35.03,1
-0.4642818570137024,-0.9245827198028564,0.2586755156517029,-0.3136118352413177,2.494243621826172,72.42994689941406,35.03,1
-0.5050670504570007,-0.8844282627105713,0.2443718910217285,-1.6056277751922607,2.476827383041382,72.42996978759766,35.03,1
-0.5368384122848511,-0.8586594462394714,0.2519859671592712,-1.965451717376709,2.465650796890259,72.42997741699219,35.03,1
-0.5236407518386841,-0.8813068866729736,0.2904588878154754,-0.3226790130138397,2.4584782123565674,72.42998504638672,35.03,1
-0.4815846383571625,-0.9182318449020386,0.3151485919952392,2.9276766777038574,2.4538753032684326,72.42999267578125,35.03,1
-0.398617684841156,-0.9755147695541382,0.3197974860668182,6.174322128295898,2.4509212970733643,72.42999267578125,35.03,1
-0.3733631372451782,-1.0122756958007812,0.3059875667095184,8.30440616607666,2.449025630950928,72.42999267578125,35.03,1
-0.3963406682014465,-1.0470622777938845,0.2859295904636383,9.005012512207031,2.447809219360352,72.42999267578125,35.03,1
-0.4838573634624481,-1.0637885332107544,0.2786553204059601,8.060998916625977,2.4525370597839355,72.42999267578125,35.0,1
-0.5456183552742004,-1.0577291250228882,0.2627915740013122,5.678228378295898,2.455571174621582,72.42999267578125,35.0,1
-0.5684596300125122,-1.0986227989196775,0.2302200198173523,2.902367115020752,2.4575181007385254,72.42999267578125,35.0,1
-0.5327379107475281,-1.1640503406524658,0.2485018968582153,0.7304781079292297,2.4587676525115967,72.42999267578125,35.0,1
-0.4818248748779297,-1.2116358280181885,0.2546363770961761,-0.8030354976654053,2.4595694541931152,72.42999267578125,35.0,1
-0.426760733127594,-1.2309778928756714,0.2361820340156555,-2.2815518379211426,2.4600841999053955,72.42999267578125,35.0,1
-0.3690326511859894,-1.2209993600845337,0.2355346530675888,-4.014962673187256,2.460414409637451,72.42999267578125,35.0,1
-0.2704105675220489,-1.141824722290039,0.2463147491216659,-5.9298624992370605,2.4606263637542725,72.42999267578125,35.0,1
-0.2239139080047607,-1.0462327003479004,0.2196461409330368,-8.097370147705078,2.46168065071106,72.54463958740234,35.0,1
-0.1940750330686569,-0.9736917614936828,0.1969339996576309,-10.738670349121094,2.4623570442199707,72.61820983886719,35.0,1
-0.1917194724082946,-0.921541392803192,0.1823586523532867,-13.590877532958984,2.462791204452514,72.6654281616211,35.0,1
-0.2014033645391464,-0.8880742788314819,0.1674072593450546,-15.618301391601562,2.4630699157714844,72.69572448730469,35.0,1
-0.2300090193748474,-0.872194766998291,0.1578123122453689,-15.740717887878418,2.4632487297058105,72.71517181396484,35.0,1
-0.2315731644630432,-0.8508086800575256,0.1572525948286056,-13.784374237060549,2.4633634090423584,72.72764587402344,35.0,1
-0.2213813960552215,-0.8370842933654785,0.1512956321239471,-10.51191520690918,2.463437080383301,72.73565673828125,35.0,1
-0.2092431336641311,-0.856265664100647,0.1530705690383911,-6.8677496910095215,2.463484287261963,72.74079895019531,35.0,1
-0.2014534920454025,-0.8797706961631775,0.1710029542446136,-3.3898751735687256,2.4759089946746826,72.74409484863281,35.0,1
-0.1964545547962188,-0.9228437542915344,0.1881086975336074,0.0063619334250688,2.483882427215576,72.74620819091797,35.0,1
-0.2100398391485214,-1.0064632892608645,0.2102817296981811,3.751456737518311,2.488999128341675,72.74756622314453,35.0,1
-0.229953646659851,-1.0713210105895996,0.2357066422700882,7.673855304718018,2.4922828674316406,72.7484359741211,35.0,1
-0.2875153720378876,-1.0345741510391235,0.3024028539657593,10.567194938659668,2.49439024925232,72.74899291992188,35.0,1
-0.3076618611812591,-0.9382210969924928,0.3452046513557434,11.499670028686523,2.4957425594329834,72.74935150146484,35.0,1
-0.2758085131645202,-0.8987783193588257,0.3390857279300689,10.973149299621582,2.496610403060913,72.74958038330078,35.0,1
-0.2217802256345749,-0.946237325668335,0.340756744146347,10.044134140014648,2.4971673488616943,72.7497329711914,35.0,1
-0.192705750465393,-0.987889289855957,0.3698179721832275,9.014453887939451,2.5057876110076904,72.74983215332031,35.0,1
-0.1628518849611282,-0.9754347205162048,0.388467788696289,7.511759281158447,2.511319637298584,72.74989318847656,35.0,1
-0.1660844832658767,-0.9450510144233704,0.3668495416641235,5.128716468811035,2.5148696899414062,72.74993133544922,35.0,1
-0.2017456293106079,-0.9199547171592712,0.3305850923061371,1.7006516456604004,2.517148017883301,72.74995422363281,35.0,1
-0.263815313577652,-0.9374359846115112,0.3241059780120849,-2.3228142261505127,2.518610000610352,72.74996948242188,35.0,1
-0.3260391652584076,-0.9654477834701538,0.3311435878276825,-5.513880729675293,2.519548177719116,72.7499771118164,35.0,1
-0.399557501077652,-0.9722285866737366,0.335659921169281,-6.207509994506836,2.5201504230499268,72.74998474121094,35.0,1
-0.4523351192474365,-0.9709823727607728,0.3329604864120483,-4.0122833251953125,2.5205368995666504,72.74999237060547,35.0,1
-0.4974002838134765,-0.9645848274230956,0.3368259072303772,-0.0563015788793563,2.5102267265319824,72.74999237060547,35.0,1
-0.5207227468490601,-0.9492837190628052,0.3616976141929626,4.245046615600586,2.503610134124756,72.74999237060547,35.0,1
-0.4909075796604156,-0.9282687902450562,0.3888543844223022,8.012107849121094,2.499364137649536,72.74999237060547,35.0,1
-0.3822095096111297,-0.9315759539604188,0.4062820374965668,10.741275787353516,2.4966392517089844,72.74999237060547,35.0,1
-0.3068555891513824,-0.9560893774032592,0.4006727933883667,12.112944602966309,2.4948904514312744,72.74999237060547,35.0,1
-0.3200732767581939,-0.9718207120895386,0.3690842092037201,12.033073425292969,2.493768215179444,72.74999237060547,35.0,1
-0.4405111372470855,-0.9875138998031616,0.3544102609157562,10.677759170532228,2.4930481910705566,72.74999237060547,35.0,1
-0.5625833868980408,-1.0031826496124268,0.3449933528900146,8.439452171325684,2.4925858974456787,72.74999237060547,35.0,1
-0.6353245973587036,-1.0748134851455688,0.3445478975772857,5.78137731552124,2.4899942874908447,72.7607421875,35.0,1
-0.6316257119178772,-1.137575387954712,0.344262033700943,3.1942641735076904,2.488331079483032,72.76763916015625,35.0,1
-0.5396876335144043,-1.194645643234253,0.3272852599620819,1.1578335762023926,2.4872639179229736,72.77206420898438,35.0,1
-0.463893711566925,-1.236867904663086,0.3219883143901825,-0.1920212507247924,2.486578941345215,72.77490997314453,35.0,1
-0.420851320028305,-1.275159239768982,0.3129912912845611,-1.31264328956604,2.486139297485352,72.7767333984375,35.0,1
-0.3932291865348816,-1.333319067955017,0.296021968126297,-2.794882535934448,2.4858572483062744,72.77790069580078,35.0,1
-0.3643073439598083,-1.3650449514389038,0.279534250497818,-4.75638484954834,2.4856762886047363,72.77865600585938,35.0,1
-0.2953670024871826,-1.318231463432312,0.2745511531829834,-6.606288909912109,2.485560178756714,72.77913665771484,35.0,1
-0.239929512143135,-1.2322114706039429,0.2545599639415741,-7.392202377319336,2.477222442626953,72.7794418334961,35.0,1
-0.2099507004022598,-1.1658133268356323,0.2305352240800857,-6.685646057128906,2.4718716144561768,72.7796401977539,35.0,1
-0.1963097900152206,-1.0952138900756836,0.1983242034912109,-5.042803764343262,2.468437910079956,72.77976989746094,35.0,1
-0.1987513899803161,-1.033113956451416,0.1720552593469619,-3.433223009109497,2.4662342071533203,72.77985382080078,35.0,1
-0.217111587524414,-0.959675133228302,0.1551973521709442,-2.486268281936645,2.464820146560669,72.7799072265625,35.0,1
-0.2232963293790817,-0.8733618855476379,0.1387811452150344,-2.412371158599853,2.4639127254486084,72.77993774414062,35.0,1
-0.2160698026418686,-0.7955799102783203,0.1282461732625961,-3.149532079696656,2.463330268859864,72.77996063232422,35.0,1
-0.1946389079093933,-0.7344683408737183,0.1214854344725608,-4.228055000305176,2.462956428527832,72.77997589111328,35.0,1
-0.1752880215644836,-0.689652681350708,0.1227445527911186,-4.6443305015563965,2.470979928970337,72.77998352050781,35.0,1
-0.1684675067663192,-0.666490375995636,0.1347481310367584,-3.324391365051269,2.4761288166046143,72.77999114990234,35.0,1
-0.1640904992818832,-0.6852127909660339,0.1816357523202896,-0.2991243302822113,2.479433059692383,72.77999114990234,35.0,1
-0.1612815856933593,-0.7420099377632141,0.2397144138813018,2.889054536819458,2.481553554534912,72.77999114990234,35.0,1
-0.1818700730800628,-0.8848168253898621,0.2601926326751709,4.5696210861206055,2.482914447784424,72.77999114990234,35.0,1
-0.2006803601980209,-1.0212442874908447,0.2733343541622162,4.490940093994141,2.483787775039673,72.77999114990234,35.0,1
-0.251936137676239,-1.1087955236434937,0.3097568452358246,3.4516563415527344,2.4843482971191406,72.77999114990234,35.0,1
-0.3072202503681183,-1.1369919776916504,0.3667173385620117,1.98220694065094,2.484707832336426,72.77999114990234,35.0,1
-0.3259050846099853,-1.155086874961853,0.392075777053833,0.0145822335034608,2.4954965114593506,72.77999114990234,35.0,1
-0.3322981595993042,-1.2282745838165283,0.3691649138927459,-2.5306880474090576,2.502419948577881,72.77999114990234,35.0,1
-0.3308030962944031,-1.3088289499282837,0.3824509382247925,-5.192295074462891,2.5068631172180176,72.77999114990234,35.0,1
-0.3242458701133728,-1.3325352668762207,0.4133682250976562,-6.7821364402771,2.509714365005493,72.77999114990234,35.0,1
-0.3256356120109558,-1.2973686456680298,0.3940247297286987,-6.07918643951416,2.5115442276000977,72.77999114990234,35.0,1
-0.3377230167388916,-1.25240957736969,0.3816111981868744,-3.0414535999298096,2.512718439102173,72.77999114990234,35.0,1
-0.3678711056709289,-1.2403507232666016,0.3960359990596771,1.2115843296051023,2.513472080230713,72.77999114990234,35.0,1
-0.3872184157371521,-1.2046232223510742,0.4108907878398895,5.513689994812012,2.513955593109131,72.77999114990234,35.0,1
-0.405232161283493,-1.136913180351257,0.3812393248081207,8.998213768005371,2.4954450130462646,72.75133514404297,35.0,1
-0.3664124011993408,-1.2110140323638916,0.3118307590484619,10.97285270690918,2.4835658073425293,72.73294067382812,35.0,1
-0.3135112226009369,-1.208187699317932,0.2616905570030212,11.380244255065918,2.475942611694336,72.72113800048828,35.0,1
-0.150813490152359,-0.9768651723861694,0.2742956578731537,10.928751945495604,2.471050262451172,72.71356201171875,35.0,1
-0.0631967708468437,-0.7556446194648743,0.3327648341655731,10.19477081298828,2.4679107666015625,72.70870208740234,35.0,1
-0.1245226636528968,-0.5632980465888977,0.3814825415611267,9.053802490234377,2.465895891189575,72.70558166503906,35.0,1
-0.1638780981302261,-0.5630121231079102,0.3791601359844208,7.361464500427246,2.4646029472351074,72.70358276367188,35.0,1
-0.1331564038991928,-0.6691863536834717,0.3776697218418121,5.566069602966309,2.463773250579834,72.70230102539062,35.0,1
-0.091049887239933,-1.028407096862793,0.3655177354812622,4.134447574615479,2.454519033432007,72.70147705078125,35.0,1
-0.1591905206441879,-1.2421410083770752,0.3241326212882995,2.846709489822388,2.448580265045166,72.70094299316406,35.0,1
-0.3652547001838684,-1.1665877103805542,0.2471940815448761,1.0995914936065674,2.4447691440582275,72.70060729980469,35.0,1
-0.4974948465824127,-0.8606043457984924,0.259394884109497,-1.3650743961334229,2.4423232078552246,72.70038604736328,35.0,1
-0.5711634159088135,-0.5410907864570618,0.2784201800823211,-4.1146745681762695,2.440753698348999,72.70024871826172,35.0,1
-0.4896908402442932,-0.4480008482933044,0.2402495592832565,-6.119242191314697,2.439746379852295,72.70015716552734,35.0,1
-0.4989819526672363,-0.5114121437072754,0.193362757563591,-6.373876571655273,2.4391000270843506,72.7000961303711,35.0,1
-0.5721177458763123,-0.7480279803276062,0.3480000495910644,-4.871388912200928,2.438685178756714,72.70005798339844,35.0,1
-0.5686721205711365,-0.8830810785293579,0.4584329128265381,-2.69268536567688,2.4416325092315674,72.70003509521484,35.0,1
-0.5832542181015015,-0.9921414852142334,0.4733246266841888,-0.91476571559906,2.44352388381958,72.70001983642578,35.0,1
-0.6429921388626099,-1.1349011659622192,0.4772835075855255,0.1760447174310684,2.444737672805786,72.70001220703125,35.0,1
-0.6645351648330688,-1.1145607233047483,0.4014552533626556,0.5357192754745483,2.445516586303711,72.70000457763672,35.0,1
-0.6839580535888672,-0.8719986081123352,0.2800219655036926,-0.1792622655630111,2.446016550064087,72.70000457763672,35.0,1
-0.6068581342697144,-0.7051406502723694,0.2468752712011337,-1.992309808731079,2.4463374614715576,72.70000457763672,35.0,1
-0.4958043396472931,-0.5420830845832825,0.1416370123624801,-4.194766521453857,2.4465432167053223,72.70000457763672,35.0,1
-0.3629608750343323,-0.3142910599708557,0.1132855787873268,-6.170640468597412,2.4466753005981445,72.70000457763672,35.0,1
-0.1153741329908371,-0.1737050414085388,0.0782979354262352,-7.947368621826172,2.4518094062805176,72.70000457763672,35.0,1
-0.0404538325965404,-0.2850049138069153,-0.078501708805561,-9.41716766357422,2.455104112625122,72.70000457763672,35.0,1
0.2035478204488754,-0.5915372967720032,-0.2574955224990845,-9.8373441696167,2.4572184085845947,72.70000457763672,35.0,1
0.1362230479717254,-0.8498276472091675,-0.680241048336029,-8.480499267578125,2.4585752487182617,72.70000457763672,35.0,1
0.1098112091422081,-0.9540079832077026,-1.1530545949935913,-5.402888298034668,2.4594459533691406,72.70000457763672,35.0,1
-0.270993709564209,-1.323144793510437,-0.0290466751903295,-1.6007407903671265,2.4600048065185547,72.70000457763672,35.0,1
-0.6441212296485901,-1.5600354671478271,0.5859191417694092,1.4268009662628174,2.4603633880615234,72.70000457763672,35.0,1
-0.2062422931194305,-1.7120583057403564,1.0869265794754028,2.7749955654144287,2.4605937004089355,72.70000457763672,35.0,1
0.2762831151485443,-1.4345669746398926,0.9718178510665894,3.0454816818237305,2.445133924484253,72.71075439453125,35.0,1
-0.1809549778699875,-1.1501312255859375,0.8587632775306702,3.691963911056519,2.4352126121521,72.7176513671875,35.0,1
-0.3232441246509552,-0.9452056884765624,0.7582225203514099,5.242515563964844,2.4288456439971924,72.72207641601562,35.0,1
-0.4985237419605255,-0.8248918056488037,0.5761479735374451,6.886016368865967,2.424759864807129,72.72491455078125,35.0,1
-0.6501925587654114,-0.8596367835998535,0.4760963320732116,7.682775020599365,2.42213773727417,72.72673797607422,35.0,1
-0.6243737936019897,-0.7755763530731201,0.294335663318634,7.180220127105713,2.420454978942871,72.7279052734375,35.0,1
-0.7029669880867004,-0.844782292842865,0.2392676621675491,5.22405481338501,2.41937518119812,72.7286605834961,35.0,1
-0.8093813061714172,-0.9003902077674866,0.1759393066167831,2.4353582859039307,2.418682098388672,72.72914123535156,35.0,1
-0.6705542206764221,-0.672980785369873,0.0681255161762237,0.359127402305603,2.3815135955810547,72.72944641113281,35.0,1
-0.7661895751953125,-0.6501935124397278,0.0045346138067543,-0.1636160314083099,2.357661008834839,72.72964477539062,35.0,1
-0.7044118046760559,-0.6747543811798096,0.0364966988563537,0.016808221116662,2.342353820800781,72.72977447509766,35.0,1
-0.7151463627815247,-0.7017117142677307,0.1297791898250579,-0.2973149418830871,2.3325304985046387,72.7298583984375,35.0,1
-0.7836107015609741,-0.7805868983268738,0.1784469783306121,-1.3300586938858032,2.3262264728546143,72.72991180419922,35.0,1
-0.7939605116844177,-0.8144111037254333,0.2376680374145507,-2.8526322841644287,2.32218074798584,72.72994232177734,35.0,1
-0.9909267425537108,-0.9536707997322084,0.5163770318031311,-4.4208574295043945,2.319584608078003,72.72996520996094,35.0,1
-1.0781439542770386,-0.8247264623641968,0.6000742316246033,-4.825381278991699,2.317918539047241,72.72998046875,35.0,1
-1.3020480871200562,-0.5740441679954529,0.5698196291923523,-3.311606407165528,2.2603869438171387,72.72998809814453,35.0,1
-1.552094578742981,-0.071706436574459,0.348884105682373,-0.5846908092498779,2.223466396331787,72.72999572753906,35.0,1
-1.287129282951355,-0.1243859007954597,0.447804719209671,1.99286150932312,2.199772834777832,72.72999572753906,35.0,1
-1.0499165058135986,0.110500618815422,0.3265597224235534,3.7186379432678223,2.18456768989563,72.72999572753906,35.0,1
-0.8920891880989075,0.272432804107666,0.2487516552209854,4.192025661468506,2.17480993270874,72.72999572753906,35.0,1
-0.7460225224494934,0.2364072054624557,0.1204500794410705,3.782886266708374,2.1685478687286377,72.72999572753906,35.0,1
-0.7642408013343811,0.2972546815872192,0.0325157307088375,4.487619400024414,2.164529323577881,72.72999572753906,35.0,1
-0.8207144737243652,0.2131520360708236,0.0544533692300319,7.7486162185668945,2.16195034980774,72.72999572753906,35.0,1
-0.6834250092506409,0.0080398907884955,-0.0490215793251991,12.184340476989746,2.153409719467163,72.72999572753906,35.0,1
-0.6568960547447205,-0.2131536602973938,0.0189207382500171,15.059593200683594,2.1479289531707764,72.72999572753906,35.0,1
-1.059704303741455,-0.6685783267021179,0.4879530370235443,16.67906379699707,2.144411563873291,72.72999572753906,35.0,1
-0.9767392873764038,-0.7257371544837952,0.6210177540779114,19.430816650390625,2.1421544551849365,72.72999572753906,35.0,1
-0.5988261699676514,-0.644865095615387,0.6952154636383057,24.012638092041016,2.1407058238983154,72.72999572753906,35.0,1
-0.7537452578544617,-0.7664970755577087,0.8323956727981567,27.268253326416016,2.1397762298583984,72.72999572753906,35.0,1
-0.7747945785522461,-0.8109668493270874,0.9596144556999208,23.07010078430176,2.1391797065734863,72.72999572753906,35.0,1
-0.6651517748832703,-0.6603761911392212,0.9348984360694884,13.013774871826172,2.138796806335449,72.72999572753906,35.0,1
-0.6731581687927246,-0.4965624809265136,0.8406683206558228,4.296016216278076,2.2253105640411377,72.79806518554688,35.0,1
-0.6391118168830872,-0.2738830149173736,0.8249790072441101,-1.0405945777893066,2.280830144882202,72.84175109863281,35.0,1
-0.5780783891677856,-0.2093490064144134,0.8652905225753784,-7.657399177551269,2.31645941734314,72.86978149414062,35.0,1
-0.600486159324646,-0.1679347902536392,0.874366819858551,-19.91073989868164,2.3393242359161377,72.88777160644531,35.0,1
-0.5868773460388184,-0.1357597559690475,0.8522025346755981,-35.469600677490234,2.353997707366944,72.8993148803711,35.0,1
-0.5165684819221497,-0.12070944160223,0.8715654611587524,-41.80015563964844,2.3634142875671387,72.90672302246094,35.0,1
-0.4826438128948211,-0.1054532453417778,0.8727959394454956,-28.3475284576416,2.369457244873047,72.9114761352539,35.0,1
-0.5000573396682739,-0.0900649204850196,0.8623900413513184,-4.509955406188965,2.373335361480713,72.9145278930664,35.0,1
-0.483243465423584,-0.0857873558998107,0.8725054264068604,8.186676979064941,2.422646760940552,72.91648864746094,35.0,1
-0.466855525970459,-0.0998355820775032,0.8678013682365417,2.6671183109283447,2.454292058944702,72.9177474975586,35.0,1
-0.4731320142745971,-0.125644251704216,0.8647825717926025,-4.762110710144043,2.474600315093994,72.9185562133789,35.0,1
-0.4715621173381805,-0.1254134476184845,0.8740408420562744,-4.944066047668457,2.487632989883423,72.91907501220703,35.0,1
-0.4929457604885101,-0.1140697747468948,0.8631889224052429,-0.8978816866874695,2.4959964752197266,72.91940307617188,35.0,1
-0.4786796867847442,-0.117985613644123,0.8674203157424927,6.037225723266602,2.501363754272461,72.91961669921875,35.0,1
-0.4751223027706146,-0.0981074720621109,0.8701357841491699,14.894346237182615,2.504808187484741,72.91975402832031,35.0,1
-0.4392527341842651,-0.1357308030128479,0.8886717557907104,17.855579376220703,2.507018566131592,72.91983795166016,35.0,1
-0.461015909910202,-0.1038975417613983,0.8837737441062927,8.879228591918945,2.550210237503052,72.9198989868164,35.0,1
-0.4749822616577148,-0.0834687873721122,0.8750327229499817,-6.873080730438232,2.577928066253662,72.91993713378906,35.0,1
-0.4839450418949127,-0.0871521085500717,0.8470321297645569,-20.073768615722656,2.5957157611846924,72.91996002197266,35.0,1
-0.4729035198688507,-0.1342980414628982,0.8626496195793152,-25.2922306060791,2.607131004333496,72.91997528076172,35.0,1
-0.4770132601261139,-0.1421625018119812,0.8502809405326843,-21.40791893005371,2.6144566535949707,72.91998291015625,35.0,1
-0.4796506464481354,-0.1584050059318542,0.8479411602020264,-11.664058685302734,2.619157791137696,72.91999053955078,35.0,1
-0.531723141670227,-0.1688285022974014,0.8240485191345215,-6.482200145721436,2.6221747398376465,72.91999053955078,35.0,1
-0.4923692047595978,-0.1307355165481567,0.8367044925689697,-12.664937019348145,2.6241109371185303,72.91999053955078,35.0,1
-0.4615163505077362,-0.1398762762546539,0.8448264002799988,-20.956830978393555,2.6570277214050293,72.91999053955078,35.0,1
-0.3969345688819885,-0.1793289333581924,0.8836252093315125,-22.16887664794922,2.678151845932007,72.91999053955078,35.0,1
-0.3275008201599121,-0.1430718600749969,0.9589040279388428,-18.228445053100582,2.6917080879211426,72.91999053955078,35.0,1
-0.249355599284172,-0.0974130555987358,0.9848225116729736,-15.35935878753662,2.7004077434539795,72.91999053955078,35.0,1
-0.2551842331886291,-0.0625140890479087,0.951075553894043,-15.07656478881836,2.7059905529022217,72.91999053955078,35.0,1
-0.3037069141864776,-0.0960956886410713,0.929418683052063,-16.886995315551758,2.709573268890381,72.91999053955078,35.0,1
-0.2676726877689361,-0.1120486482977867,0.9379116296768188,-18.90864372253418,2.7118725776672363,72.91999053955078,35.0,1
-0.2389502227306366,-0.1222863420844078,0.9377641677856444,-16.340423583984375,2.713348150253296,72.91999053955078,35.0,1
-0.2149200141429901,-0.1344540864229202,0.9544628262519836,-6.516849517822266,2.6784892082214355,73.1421127319336,35.0,1
-0.1883032619953155,-0.1534581929445266,0.892408013343811,6.751882076263428,2.656118869781494,73.28466033935547,35.0,1
-0.1656243950128555,-0.1432628333568573,0.9141603112220764,16.230701446533203,2.6417627334594727,73.37613677978516,35.0,1
