acc_x,acc_y,acc_z,bvp,eda,hr,temp,label
0.0,0.0,0.0,0.0,0.0,0.0,24.99,1
-0.0390624962747097,-0.1536458283662796,0.0468749962747097,0.0699999928474426,1.48417866230011,13.393332481384276,24.99,1
-0.0872713401913642,-0.3555640280246734,0.1139481663703918,0.1719512194395065,3.4751501083374023,31.36000061035156,24.99,1
-0.1292047351598739,-0.5212313532829285,0.1772736757993698,-0.2369102984666824,5.2069525718688965,46.98790740966797,24.99,1
-0.1758120059967041,-0.6420945525169373,0.2127966433763504,-1.1604068279266355,6.470396041870117,58.38930892944336,24.99,1
-0.18540820479393,-0.7403932213783264,0.2368471920490265,-2.0034849643707275,7.32580041885376,66.10853576660156,24.99,1
-0.1917047053575515,-0.777125895023346,0.2637339532375335,-2.5033559799194336,7.887068748474121,71.1734619140625,24.99,1
-0.2292586266994476,-0.7897571921348572,0.2476712018251419,-2.962787389755249,8.250575065612793,74.45376586914062,24.99,1
-0.2702203392982483,-0.8426153063774109,0.2317338585853576,-3.8097076416015625,8.301824569702148,76.56684875488281,25.01,1
-0.2629803121089935,-0.8877787590026855,0.2214902490377426,-5.360199928283691,8.33476448059082,77.92501068115234,25.01,1
-0.3366818726062774,-0.983938455581665,0.1365614831447601,-7.806463718414307,8.355916976928711,78.79716491699219,25.01,1
-0.2832414209842682,-0.944914162158966,0.1436143666505813,-10.91711139678955,8.369495391845703,79.35700988769531,25.01,1
-0.2489426732063293,-0.9478556513786316,0.1425434499979019,-13.916645050048828,8.378210067749023,79.71632385253906,25.01,1
-0.2549191415309906,-0.9385480284690856,0.1362584829330444,-16.128259658813477,8.383803367614746,79.9469223022461,25.01,1
-0.2475591003894806,-0.9269770979881288,0.1322250664234161,-17.751779556274414,8.387392044067383,80.09490966796875,25.01,1
-0.2428358048200607,-0.9307469725608826,0.1296366453170776,-19.768125534057617,8.389695167541504,80.18988037109375,25.01,1
-0.234206885099411,-0.9331662654876708,0.1335733085870742,-22.921459197998047,8.539058685302734,80.25082397460938,25.01,1
-0.2230715751647949,-0.9291210770606996,0.136099636554718,-26.976411819458008,8.63491153717041,80.2899398803711,25.01,1
-0.2159255594015121,-0.9321228861808776,0.1321231126785278,-31.35918617248535,8.69642448425293,80.3150405883789,25.01,1
-0.2057418823242187,-0.9340492486953736,0.1295711994171142,-36.34283828735352,8.735899925231934,80.33114624023438,25.01,1
-0.2048043608665466,-0.93528550863266,0.127933531999588,-42.686561584472656,8.76123332977295,80.34148406982422,25.01,1
-0.2153982669115066,-0.9248833060264589,0.1268825680017471,-50.11447143554688,8.777490615844727,80.34811401367188,25.01,1
-0.2277946025133133,-0.9126099944114684,0.1262081265449524,-57.07381439208984,8.787923812866211,80.35237121582031,25.01,1
-0.2413476258516311,-0.9103314876556396,0.1313730776309967,-62.31375503540039,8.7946195602417,80.3551025390625,25.01,1
-0.2500451803207397,-0.9144670367240906,0.1346876472234726,-66.24607849121094,8.802129745483398,80.35685729980469,25.01,1
-0.2612245380878448,-0.9283165335655212,0.1368147432804107,-70.58598327636719,8.806949615478516,80.35798645019531,25.01,1
-0.2739965915679931,-0.937204360961914,0.1437775641679763,-76.88558959960938,8.810042381286621,80.35871124267578,25.01,1
-0.2877907156944275,-0.9317125082015992,0.1538436859846115,-85.30980682373047,8.812026977539062,80.35917663574219,25.01,1
-0.2798496782779693,-0.9057970643043518,0.1547057628631591,-94.53500366210938,8.813301086425781,80.3594741821289,25.01,1
-0.2747535705566406,-0.9451437592506408,0.1440634429454803,-103.47174072265624,8.814118385314941,80.35966491699219,25.01,1
-0.2826787531375885,-1.059958577156067,0.1428315937519073,-112.55294799804688,8.814642906188965,80.35978698730469,25.01,1
-0.2597757875919342,-1.1000534296035769,0.1308455169200897,-119.99290466308594,8.814979553222656,80.35986328125,25.01,1
-0.2394802123308181,-1.0977951288223269,0.1063602194190025,-118.43702697753906,8.80693244934082,81.51350402832031,25.01,1
-0.2376512289047241,-1.051563739776611,0.0850491896271705,-100.29950714111328,8.80176830291748,82.25384521484375,25.01,1
-0.2420752644538879,-0.9995039701461792,0.0657752230763435,-63.22360610961914,8.798454284667969,82.72895050048828,25.01,1
-0.2505121231079101,-0.9548994898796082,0.0422107502818107,-6.538804054260254,8.796327590942383,83.03384399414062,25.01,1
-0.2391331046819687,-0.9150793552398682,0.0270884297788143,68.44407653808594,8.794962882995605,83.22950744628906,25.01,1
-0.2262329310178756,-0.8895250558853149,0.0173837952315807,149.65243530273438,8.794087409973145,83.35507202148438,25.01,1
-0.2123565673828125,-0.889919102191925,0.0055581447668373,218.01785278320312,8.793525695800781,83.43565368652344,25.01,1
-0.2146470695734024,-0.890172004699707,-0.002030876930803,265.0470886230469,8.79316520690918,83.48736572265625,25.01,1
-0.2273125201463699,-0.901529848575592,-0.0013032999122515,297.0978698730469,8.78512954711914,83.52055358886719,24.97,1
-0.224244937300682,-0.9032208919525146,0.0103591661900281,322.2984619140625,8.779973030090332,83.54185485839844,24.97,1
-0.2166785597801208,-0.9043061137199402,0.0234412383288145,341.55535888671875,8.776663780212402,83.5555191040039,24.97,1
-0.211822897195816,-0.8882092237472534,0.0374343357980251,349.8363647460937,8.774539947509766,83.56429290771484,24.97,1
-0.2087068110704422,-0.8834769129753113,0.0464143007993698,339.9461669921875,8.773177146911621,83.5699234008789,24.97,1
-0.2235004156827926,-0.891635537147522,0.0465793497860431,307.33892822265625,8.772302627563477,83.57353210449219,24.97,1
-0.2497874200344085,-0.924860179424286,0.0410874933004379,253.6544189453125,8.771740913391113,83.57585144042969,24.97,1
-0.2666569054126739,-0.95177960395813,0.0375631377100944,183.6027374267578,8.771380424499512,83.57733917236328,24.97,1
-0.2606894373893738,-1.0138370990753174,0.0129103111103177,100.8729248046875,8.756460189819336,83.57829284667969,24.97,1
-0.2624576389789581,-1.1320308446884155,-0.0141060044988989,12.726186752319336,8.746885299682617,83.57890319824219,24.97,1
-0.2803857028484344,-1.2358696460723877,-0.025845743715763,-65.54814147949219,8.740740776062012,83.57929992675781,24.97,1
-0.179935410618782,-1.280116319656372,-0.0221840851008892,-119.65287017822266,8.736797332763672,83.57955169677734,24.97,1
-0.0874833241105079,-1.2525335550308228,0.0137524046003818,-147.82879638671875,8.73426628112793,83.5797119140625,24.97,1
-0.0449462123215198,-1.0501060485839844,0.0312165990471839,-157.63473510742188,8.73264217376709,83.57981872558594,24.97,1
-0.028843892738223,-0.920199692249298,0.0144352419301867,-156.0065460205078,8.731599807739258,83.57988739013672,24.97,1
-0.0632925480604171,-0.9375932216644288,-0.0019318418344482,-147.88966369628906,8.730931282043457,83.57992553710938,24.97,1
-0.0518130622804164,-0.982342004776001,0.004358029924333,-138.009033203125,8.702500343322754,83.5799560546875,24.97,1
-0.0276528652757406,-0.9606792330741882,0.0251878295093774,-128.12147521972656,8.68425464630127,83.57997131347656,24.97,1
0.0046450812369585,-0.8796040415763855,0.038555197417736,-116.51698303222656,8.67254638671875,83.5799789428711,24.97,1
0.0253720432519912,-0.8163790702819824,0.0471336022019386,-102.55318450927734,8.665032386779785,83.57998657226562,24.97,1
-0.0061087808571755,-0.7534138560295105,0.0470409542322158,-88.68389129638672,8.660210609436035,83.57999420166016,24.97,1
-0.054300233721733,-0.7018108367919922,0.0581770502030849,-77.1179428100586,8.657115936279297,83.57999420166016,24.97,1
-0.0684334114193916,-0.6854883432388306,0.0709213316440582,-67.11612701416016,8.655129432678223,83.57999420166016,24.97,1
-0.0886988192796707,-0.7421867847442627,0.0902954265475273,-56.8283576965332,8.653855323791504,83.57999420166016,24.97,1
-0.1128995418548584,-0.8009636998176575,0.1027286052703857,-46.39290237426758,8.67048168182373,84.44698333740234,24.97,1
-0.1228323951363563,-0.917052149772644,0.1163052767515182,-37.50707626342773,8.681151390075684,85.00336456298828,24.97,1
-0.1068156361579895,-1.075517654418945,0.1306157708168029,-30.70481300354004,8.687997817993164,85.36042022705078,24.97,1
-0.0741458982229232,-1.221993923187256,0.1342016458511352,-24.74884796142578,8.692392349243164,85.58955383300781,24.97,1
-0.0643758922815322,-1.3831672668457031,0.1253073066473007,-18.6839599609375,8.695212364196777,85.73660278320312,24.97,1
-0.0860949382185936,-1.4754034280776978,0.1251972168684005,-13.054314613342283,8.697021484375,85.83096313476562,24.97,1
-0.1168262958526611,-1.3778575658798218,0.1195287853479385,-8.818164825439453,8.698183059692383,85.89152526855469,24.97,1
-0.1029612645506858,-1.175313949584961,0.1046955659985542,-6.010083198547363,8.698927879333496,85.93038940429688,24.97,1
-0.0884657129645347,-1.0565286874771118,0.0839809104800224,-3.964402675628662,8.68838882446289,85.95532989501953,24.99,1
-0.129543274641037,-1.0306791067123413,0.0594918876886367,-2.364996671676636,8.681625366210938,85.9713363647461,24.99,1
-0.1782955825328827,-1.0140902996063232,0.0437762439250946,-1.4066588878631592,8.677285194396973,85.98160552978516,24.99,1
-0.192788690328598,-0.9362712502479552,0.0280930735170841,-1.0782588720321655,8.67449951171875,85.98819732666016,24.99,1
-0.1685028821229934,-0.8583425879478455,0.0180285181850194,-1.0108137130737305,8.672712326049805,85.99242401123047,24.99,1
-0.141722097992897,-0.8083325028419495,0.0115696648135781,-0.9675312638282776,8.671565055847168,85.9951400756836,24.99,1
-0.1245357319712638,-0.7706411480903625,0.0186202935874462,-0.9254248142242432,8.670828819274902,85.99687957763672,24.99,1
-0.1191042885184288,-0.7464529871940613,0.0287427566945552,-0.7765957117080688,8.670356750488281,85.99800109863281,24.99,1
-0.1324120163917541,-0.764517068862915,0.024043221026659,-0.4768789708614349,8.65811824798584,85.99871826171875,24.99,1
-0.1353543847799301,-0.8376850485801697,0.0154295554384589,-0.28095543384552,8.650264739990234,85.99917602539062,24.99,1
-0.1372426152229309,-0.9014334082603456,0.0043040257878601,-0.3773427009582519,8.645224571228027,85.99947357177734,24.99,1
-0.1160632818937301,-0.9759300351142884,-0.0084334723651409,-0.5610060691833496,8.641989707946777,85.99966430664062,24.99,1
-0.0968738347291946,-1.040531039237976,-0.0222054403275251,-0.582141101360321,8.639914512634277,85.99978637695312,24.99,1
-0.0845591500401496,-1.0707926750183103,-0.0254457220435142,-0.5168876647949219,8.638582229614258,85.99986267089844,24.99,1
-0.0934496149420738,-1.1349951028823853,-0.0443184711039066,-0.4642640352249145,8.637727737426758,85.99990844726562,24.99,1
-0.1103505566716194,-1.187391996383667,-0.0564299151301384,-0.2047909647226333,8.637179374694824,85.99993896484375,24.99,1
-0.1379899233579635,-1.1538439989089966,-0.030615696683526,0.5886746644973755,8.644631385803223,85.99996185302734,24.99,1
-0.1333361864089965,-1.1043260097503662,-0.0028540692292153,1.843051075935364,8.649413108825684,85.9999771118164,24.99,1
-0.0911652669310569,-1.0725481510162354,0.0205595213919878,2.959721565246582,8.652482032775879,85.99998474121094,24.99,1
-0.0473090708255767,-1.0577527284622192,0.0579761117696762,3.1747758388519287,8.654451370239258,85.99999237060547,24.99,1
-0.0079691410064697,-1.0090734958648682,0.0931834727525711,2.2917513847351074,8.655714988708496,85.99999237060547,24.99,1
0.0116791874170303,-0.8770740628242493,0.1157775297760963,0.9548231959342957,8.656526565551758,85.99999237060547,24.99,1
-0.003700518514961,-0.7699732780456543,0.1246793270111084,-0.0249479059129953,8.657047271728516,85.99999237060547,24.99,1
-0.0583525225520134,-0.6956443786621094,0.1191964372992515,-0.4709972441196441,8.657381057739258,85.99999237060547,24.99,1
-0.1270116716623306,-0.6647377014160156,0.1156778335571289,-0.7070899605751038,8.643823623657227,86.58753967285156,24.99,1
-0.1822687238454818,-0.6616969108581543,0.1134197935461998,-0.9624953866004944,8.635123252868652,86.96459197998047,24.99,1
-0.2121317386627197,-0.7325165867805481,0.1287640333175659,-1.2804505825042725,8.62954044342041,87.20655822753906,24.99,1
-0.2368938773870468,-0.8115512132644653,0.1498066335916519,-1.6994504928588867,8.625957489013672,87.3618392944336,24.99,1
-0.2471870183944702,-0.907053291797638,0.1857016682624817,-2.161799669265747,8.623658180236816,87.46149444580078,24.99,1
-0.2369992434978485,-1.0746986865997314,0.2255303561687469,-2.4835867881774902,8.622182846069336,87.52544403076172,24.99,1
-0.2080702185630798,-1.1934794187545776,0.2622856497764587,-2.582613945007324,8.621235847473145,87.56648254394531,24.99,1
-0.1559185832738876,-1.308890461921692,0.2858730852603912,-2.488530397415161,8.620628356933594,87.59281921386719,24.99,1
-0.1392439901828766,-1.4277368783950806,0.3010101616382599,-2.123634099960327,8.637223243713379,87.6097183227539,24.97,1
-0.1789231747388839,-1.464821219444275,0.3051264882087707,-1.2195230722427368,8.647872924804688,87.62056732177734,24.97,1
-0.1708003431558609,-1.3094910383224487,0.2629859149456024,0.4712817072868347,8.654706954956055,87.62752532958984,24.97,1
-0.1543920189142227,-1.1930158138275146,0.224746972322464,2.709932327270508,8.659092903137207,87.63199615478516,24.97,1
-0.1718509793281555,-1.168648600578308,0.1778163164854049,4.608721733093262,8.661907196044922,87.6348648071289,24.97,1
-0.1998484581708908,-1.1642067432403564,0.1309055984020233,5.246878147125244,8.663713455200195,87.63670349121094,24.97,1
-0.2066200822591781,-1.0941828489303589,0.0952032282948494,4.574472427368164,8.664872169494629,87.63788604736328,24.97,1
-0.166183516383171,-0.96527898311615,0.0554981790482997,3.408533096313477,8.665616035461426,87.63864135742188,24.97,1
-0.1402336657047271,-0.8825559020042419,0.0188222117722034,2.49550199508667,8.653240203857422,87.63912963867188,24.97,1
-0.134776085615158,-0.8294689655303955,0.0008834632462821,1.877327799797058,8.64529800415039,87.63944244384766,24.97,1
-0.1424692720174789,-0.795400857925415,-0.0106285931542515,1.208343505859375,8.640201568603516,87.63964080810547,24.97,1
-0.1586018651723861,-0.7903311848640442,-0.018016368150711,0.3491187989711761,8.636930465698242,87.6397705078125,24.97,1
-0.1521615236997604,-0.8038710951805115,-0.0227574165910482,-0.6178608536720276,8.634831428527832,87.63985443115234,24.97,1
-0.1424307078123092,-0.8293535709381104,-0.0202021747827529,-1.6324961185455322,8.63348388671875,87.63990783691406,24.97,1
-0.1417838037014007,-0.8736956119537354,-0.0185623671859502,-2.545158624649048,8.632619857788086,87.63993835449219,24.97,1
-0.1469664275646209,-0.9133473634719848,-0.0231078080832958,-3.009045362472534,8.632064819335938,87.63996124267578,24.97,1
-0.1614878922700882,-0.9499890804290771,-0.0092314863577485,-2.891162395477295,8.6326265335083,87.63997650146484,24.97,1
-0.1820024698972702,-1.0406769514083862,-0.000326462497469,-2.485914945602417,8.632987022399902,87.63998413085938,24.97,1
-0.1783742308616638,-1.115668535232544,-0.0002095048403134,-2.032391309738159,8.633218765258789,87.6399917602539,24.97,1
-0.1704480648040771,-1.1358048915863037,0.027854423969984,-1.3902535438537598,8.633367538452148,87.6399917602539,24.97,1
-0.1653614938259124,-1.1207383871078491,0.0626575574278831,-0.4766059815883636,8.633462905883789,87.6399917602539,24.97,1
-0.1397061347961425,-1.083080768585205,0.0849922075867652,0.4751431941986084,8.633523941040039,87.6399917602539,24.97,1
-0.1008509024977684,-1.0589141845703125,0.0937275290489196,1.23638916015625,8.633563041687012,87.6399917602539,24.97,1
-0.0535247512161731,-1.0098189115524292,0.1105289012193679,1.6675918102264404,8.633588790893555,87.6399917602539,24.97,1
-0.0455446541309356,-0.8831501603126526,0.1269088238477707,1.672037124633789,8.621210098266602,88.17379760742188,24.97,1
-0.0460212603211402,-0.7738726139068604,0.1374205201864242,1.4205269813537598,8.613266944885254,88.51636505126953,24.97,1
-0.0799137651920318,-0.6981467604637146,0.132970780134201,1.2304617166519165,8.608168601989746,88.7362060546875,24.97,1
-0.1240551248192787,-0.6607458591461182,0.1301151812076568,0.9866811633110046,8.604897499084473,88.87728118896484,24.97,1
-0.1859691590070724,-0.6647329330444336,0.1170870810747146,0.2892679274082184,8.602798461914062,88.96781921386719,24.97,1
-0.2312997877597808,-0.7400627136230469,0.1199219450354576,-0.8640592098236084,8.60145092010498,89.02591705322266,24.97,1
-0.265988141298294,-0.8443827629089355,0.1329367458820343,-2.134419202804565,8.6005859375,89.06320190429688,24.97,1
-0.2714558243751526,-0.9617093205451964,0.1636799871921539,-3.2756776809692383,8.600030899047852,89.0871353149414,24.97,1
-0.2693668901920318,-1.0705894231796265,0.1946047842502594,-4.0725579261779785,8.630431175231934,89.10249328613281,24.97,1
-0.2456352263689041,-1.2244290113449097,0.2256460934877395,-4.293761253356934,8.649940490722656,89.11235046386719,24.97,1
-0.1688300967216491,-1.3287521600723269,0.2455666065216064,-4.002224922180176,8.662460327148438,89.1186752319336,24.97,1
-0.1195409893989563,-1.4348851442337036,0.2639482319355011,-3.4640414714813232,8.67049503326416,89.12273406982422,24.97,1
-0.1438878178596496,-1.502995252609253,0.2813422679901123,-2.699505090713501,8.675650596618652,89.12533569335938,24.97,1
-0.1595122069120407,-1.4291510581970217,0.2757114470005035,-1.3454687595367432,8.678959846496582,89.12700653076172,24.97,1
-0.1527457237243652,-1.241817831993103,0.2161201536655426,0.9636692404747008,8.681083679199219,89.1280746459961,24.97,1
-0.1707944869995117,-1.1775758266448977,0.1666823476552963,3.864241361618042,8.682446479797363,89.1287612915039,24.97,1
-0.2103660106658935,-1.1587401628494265,0.1293582320213318,6.087501049041748,8.668171882629395,89.12920379638672,24.97,1
-0.2357607334852218,-1.085076928138733,0.0830146670341491,6.665190696716309,8.659011840820312,89.12948608398438,24.97,1
-0.2296665161848068,-0.9874241948127748,0.0476762615144252,5.99697208404541,8.653133392333984,89.12966918945312,24.97,1
-0.1865711659193039,-0.8799740672111511,0.0249981041997671,5.084500312805176,8.649360656738281,89.1297836303711,24.97,1
-0.17011059820652,-0.8110187649726868,0.010444569401443,4.316216945648193,8.646939277648926,89.1298599243164,24.97,1
-0.1651449352502823,-0.76116943359375,0.001104948692955,3.554483652114868,8.6453857421875,89.1299057006836,24.97,1
-0.1619582623243332,-0.7235812544822693,-0.0048886821605265,2.632155418395996,8.644389152526855,89.12993621826172,24.97,1
-0.1543154567480087,-0.7274482250213623,0.0024604995269328,1.3595688343048096,8.643749237060547,89.12995910644531,24.97,1
-0.1550085246562957,-0.7523208856582642,0.0015790070174261,-0.2631833851337433,8.642420768737793,89.12997436523438,24.97,1
-0.189039945602417,-0.8130649328231812,0.0234044138342142,-1.7488117218017578,8.641568183898926,89.1299819946289,24.97,1
-0.2052815705537796,-0.8744380474090576,0.0318129286170005,-2.512326002120972,8.641020774841309,89.12998962402344,24.97,1
-0.1877156347036361,-0.9474104642868042,0.0148179316893219,-2.5401532649993896,8.640669822692871,89.12998962402344,24.97,1
-0.1876383870840072,-1.0390220880508425,0.0039115217514336,-2.3466391563415527,8.6404447555542,89.12998962402344,24.97,1
-0.2099799066781997,-1.1369975805282593,0.0137057388201355,-2.355008363723755,8.640299797058105,89.12998962402344,24.97,1
-0.1683396697044372,-1.244654893875122,-0.0247910916805267,-2.4750216007232666,8.640207290649414,89.12998962402344,24.97,1
-0.1248240321874618,-1.3249386548995972,-0.0327028185129165,-2.2725982666015625,8.64014720916748,89.12998962402344,24.97,1
-0.1416804045438766,-1.286895751953125,0.012599860318005,-1.508578896522522,8.639190673828125,89.59931182861328,24.97,1
-0.1469000726938247,-1.2288954257965088,0.030476963147521,-0.4773062467575073,8.638577461242676,89.90049743652344,24.97,1
-0.0998697876930236,-1.186076283454895,0.0363516844809055,0.2454089969396591,8.63818359375,90.09378051757812,24.97,1
-0.064090684056282,-1.1194130182266235,0.0681106150150299,0.4082696437835693,8.637930870056152,90.2178192138672,24.97,1
-0.0355319380760192,-1.0206546783447266,0.0996872186660766,0.2978297173976898,8.637768745422363,90.29741668701172,24.97,1
-0.0116068040952086,-0.8621150851249695,0.1423423588275909,0.2556163370609283,8.637664794921875,90.34849548339844,24.97,1
-0.0578285492956638,-0.7491779327392578,0.1753137558698654,0.2607693970203399,8.637598037719727,90.38127899169922,24.97,1
-0.104284331202507,-0.6822991371154785,0.1964728981256485,0.0240437611937522,8.637555122375488,90.4023208618164,24.97,1
-0.1564880758523941,-0.6953579187393188,0.1988560706377029,-0.7046678066253662,8.616869926452637,90.4158172607422,24.97,1
-0.2123805284500122,-0.7541182637214661,0.1947876662015915,-1.8601675033569336,8.603595733642578,90.42448425292967,24.97,1
-0.2762379646301269,-0.8310117125511169,0.2313612252473831,-3.0065317153930664,8.595077514648438,90.43004608154295,24.97,1
-0.3116202056407928,-0.885955274105072,0.2716253399848938,-3.656220436096192,8.589611053466797,90.4336166381836,24.97,1
-0.3175331652164459,-0.8932260274887085,0.2974645495414734,-3.661157131195069,8.586102485656738,90.43590545654295,24.97,1
-0.31013223528862,-0.864305317401886,0.291655570268631,-3.1806774139404297,8.583850860595703,90.43737030029295,24.97,1
-0.3165782690048218,-0.8177567720413208,0.3047210276126861,-2.4352588653564453,8.582406044006348,90.43831634521484,24.97,1
-0.3263127505779266,-0.7487002015113831,0.3634856343269348,-1.4804097414016724,8.5814790725708,90.4389190673828,24.97,1
-0.3381575644016266,-0.7603614330291748,0.3955996036529541,-0.0579803809523582,8.593737602233887,90.4393081665039,24.97,1
-0.3401610851287842,-0.8126271367073059,0.4106107354164123,2.126667261123657,8.601604461669922,90.43955993652344,24.97,1
-0.3022624254226684,-0.907743752002716,0.3866573572158813,4.685820579528809,8.60665225982666,90.4397201538086,24.97,1
-0.2443545907735824,-1.0191640853881836,0.3768832385540008,6.532344341278076,8.609891891479492,90.4398193359375,24.97,1
-0.1736060380935669,-1.0514827966690063,0.4209907352924347,6.914840221405029,8.611970901489258,90.43988800048828,24.97,1
-0.1114103645086288,-1.0498319864273071,0.4548941850662231,6.167930603027344,8.61330509185791,90.43992614746094,24.97,1
-0.189050018787384,-1.1439348459243774,0.3982826173305511,5.201376438140869,8.614161491394043,90.43995666503906,24.97,1
-0.2612657845020294,-1.1427490711212158,0.3059748411178589,4.416299343109131,8.614710807800293,90.43997192382812,24.97,1
-0.3355985879898071,-1.1195969581604004,0.2523347735404968,3.521981239318848,8.606341361999512,90.43997955322266,24.97,1
-0.5288432240486145,-1.0599571466445925,0.2123139053583145,2.2172138690948486,8.600970268249512,90.4399871826172,24.97,1
-0.619269847869873,-0.9489126801490784,0.1250552982091903,0.6347135901451111,8.59752368927002,90.43999481201172,24.97,1
-0.5821382999420166,-0.7433041334152222,0.1026443913578987,-0.9253954291343688,8.595312118530273,90.43999481201172,24.97,1
-0.4127672612667084,-0.566574215888977,0.1778267472982406,-2.324249505996704,8.593892097473145,90.43999481201172,24.97,1
-0.3152702450752258,-0.4699524343013763,0.1477056145668029,-3.411830186843872,8.592981338500977,90.43999481201172,24.97,1
0.0999575033783912,-0.3967505991458893,0.0332134440541267,-3.94856071472168,8.59239673614502,90.43999481201172,24.97,1
0.2824601531028747,-0.299393892288208,0.0101189278066158,-3.9168331623077393,8.592021942138672,90.43999481201172,24.97,1
0.23164664208889,-0.5727823972702026,-0.5812726020812988,-3.631361722946167,8.542203903198242,90.85198974609376,24.97,1
-0.5678576231002808,-1.0840939283370972,0.231532335281372,-3.322772264480591,8.510233879089355,91.11638641357422,24.97,1
-1.0809334516525269,-1.227497696876526,0.8203170299530029,-2.8667919635772705,8.489717483520508,91.28606414794922,24.97,1
-1.4101959466934204,-1.5042524337768557,1.0134385824203491,-2.058279037475586,8.476551055908203,91.39495086669922,24.97,1
-1.1960668563842771,-1.1724603176116943,-0.0661486163735389,-0.9053062796592712,8.468101501464844,91.46482849121094,24.97,1
-0.0566495098173618,-0.9819263219833374,0.6684669256210327,0.4543909430503845,8.462678909301758,91.50967407226562,24.97,1
-0.2882542312145233,-0.6245459914207458,1.0167498588562012,1.7712056636810305,8.459198951721191,91.5384521484375,24.97,1
-0.4144937098026275,-0.4791665077209472,1.0443357229232788,2.627009153366089,8.456965446472168,91.55691528320312,24.97,1
-0.5402891635894775,-0.3690769970417022,0.7989433407783508,2.7498881816864014,8.627215385437012,91.56876373291016,24.99,1
-0.6993862986564636,-0.2984278798103332,0.6526601910591125,2.3665926456451416,8.736472129821777,91.5763702392578,24.99,1
-0.7007257342338562,-0.3370559811592102,0.7211195826530457,1.8160966634750368,8.806587219238281,91.5812530517578,24.99,1
-0.5728364586830139,-0.2274986803531646,0.849019467830658,0.9397640228271484,8.851582527160645,91.58438873291016,24.99,1
-0.5635355710983276,-0.1292022317647934,0.869522750377655,-0.5863285660743713,8.880457878112793,91.58639526367188,24.99,1
-0.6695222854614258,-0.1276967525482177,0.8211050629615784,-2.586721181869507,8.898988723754883,91.58768463134766,24.99,1
-0.7487339973449707,-0.121132843196392,0.7900333404541016,-4.543982028961182,8.910881042480469,91.58851623535156,24.99,1
-0.9115229845046996,-0.1393116116523742,0.6301489472389221,-6.032907009124756,8.918512344360352,91.58905029296876,24.99,1
-0.9040361046791076,-0.1285865902900695,0.6842820644378662,-6.8809356689453125,8.975668907165527,91.58938598632812,24.99,1
-0.9328181147575378,-0.1049105674028396,0.6854349374771118,-7.332005023956299,9.012349128723145,91.58960723876952,24.99,1
-0.9512887597084044,-0.1009122133255004,0.5966103672981262,-7.911664009094238,9.035888671875,91.5897445678711,24.99,1
-0.8735777735710144,-0.0815529748797416,0.5675967335700989,-8.788798332214355,9.050994873046877,91.58983612060548,24.99,1
-0.8013162016868591,-0.0467382296919822,0.5545752644538879,-9.79593276977539,9.060688972473145,91.58989715576172,24.99,1
-0.7045629620552063,0.0819615870714187,0.591001033782959,-11.216090202331545,9.066909790039062,91.58993530273438,24.99,1
-0.720841109752655,0.1589559465646743,0.6871480345726013,-13.596321105957031,9.07090187072754,91.58995819091795,24.99,1
-0.6193320155143738,0.1859753876924514,0.7432518601417542,-16.6428279876709,9.073464393615724,91.58997344970705,24.99,1
-0.5373960137367249,0.1641304939985275,0.7904516458511353,-19.34665870666504,8.82859992980957,91.58998107910156,24.99,1
-0.568780779838562,0.1501117050647735,0.8039484024047852,-21.68011283874512,8.671460151672363,91.5899887084961,24.99,1
-0.5105528831481934,0.163506343960762,0.8405987024307251,-25.226821899414062,8.570616722106934,91.5899887084961,24.99,1
-0.4843811392784118,0.1777000278234481,0.8585209846496582,-31.09622001647949,8.505901336669922,91.5899887084961,24.99,1
-0.489976704120636,0.1812109351158142,0.8476313948631287,-37.99044799804688,8.464370727539062,91.5899887084961,24.99,1
-0.4991653859615326,0.1722684949636459,0.8518386483192444,-44.25621032714844,8.437718391418457,91.5899887084961,24.99,1
-0.4938666224479675,0.1609319746494293,0.8433430790901184,-51.225677490234375,8.420615196228027,91.5899887084961,24.99,1
-0.5184550285339355,0.1648523956537246,0.843488872051239,-61.64177322387695,8.409639358520508,91.5899887084961,24.99,1
-0.523038923740387,0.1561727523803711,0.8491802215576172,-74.85367584228516,8.320039749145508,91.9375,24.99,1
-0.5427739024162292,0.156200423836708,0.8360392451286316,-87.0796890258789,8.262539863586426,92.16051483154295,24.99,1
-0.5498409271240234,0.1562181860208511,0.833203911781311,-97.40478515625,8.225639343261719,92.30363464355467,24.99,1
-0.5543761253356934,0.1562295854091644,0.8313843607902527,-110.41856384277344,8.201959609985352,92.39547729492188,24.99,1
-0.5516887903213501,0.1618346720933914,0.8358144164085388,-130.72869873046875,8.186762809753418,92.45441436767578,24.99,1
-0.5443664193153381,0.1598339229822158,0.8330596089363098,-155.24473571777344,8.177010536193848,92.49224090576172,24.99,1
-0.5508629083633423,0.152952179312706,0.8312917351722717,-172.4644775390625,8.170751571655273,92.51651763916016,24.99,1
-0.555031955242157,0.1541336476802826,0.8245594501495361,-170.80772399902344,8.166735649108887,92.53209686279295,24.99,1
-0.5465118885040283,0.1548918485641479,0.8258368372917175,-147.04531860351562,8.142582893371582,92.5420913696289,24.95,1
-0.5354464054107666,0.1497806459665298,0.8322543501853943,-104.50391387939452,8.127083778381348,92.54850769042967,24.95,1
-0.5339429974555969,0.1520983427762985,0.8307749629020691,-44.5767707824707,8.11713695526123,92.55262756347656,24.95,1
-0.5329782366752625,0.1535857021808624,0.8298255801200867,34.06318664550781,8.110754013061523,92.55526733398438,24.95,1
-0.5267612934112549,0.1545402109622955,0.840411901473999,123.52970886230467,8.106657028198242,92.55696105957033,24.95,1
-0.5339671969413757,0.155152752995491,0.8360100388526917,197.9828948974609,8.104028701782227,92.55805206298828,24.95,1
-0.532993733882904,0.1555458456277847,0.8331851363182068,228.82066345214844,8.102341651916504,92.55874633789062,24.95,1
-0.5267712473869324,0.1557981073856353,0.8369700908660889,212.84930419921875,8.101259231567383,92.55919647216795,24.95,1
-0.5339735746383667,0.1559600085020065,0.83380126953125,175.0677032470703,8.093218803405762,92.55948638916016,24.95,1
-0.5385956168174744,0.1504661291837692,0.837365448474884,139.3645782470703,8.088059425354004,92.5596694946289,24.95,1
-0.5359640121459961,0.1525382399559021,0.8340550065040588,108.3629150390625,8.084748268127441,92.55978393554688,24.95,1
-0.5342751741409302,0.1538680046796798,0.8319305181503296,74.86837005615234,8.082623481750488,92.5598602294922,24.95,1
-0.5331913828849792,0.1547213792800903,0.8361649513244629,39.200828552246094,8.081259727478027,92.55990600585938,24.95,1
-0.5268980860710144,0.1440734714269638,0.838882327079773,10.09568691253662,8.080385208129883,92.5599365234375,24.95,1
-0.5116638541221619,0.1372402608394622,0.8462240099906921,-2.7606325149536133,8.07982349395752,92.5599594116211,24.95,1
-0.5578651428222656,0.1216595470905304,0.8341421484947205,6.446814060211182,8.079463005065918,92.55997467041016,24.95,1
-0.5091456174850464,0.1676384806632995,0.8543775677680969,35.65669631958008,8.094839096069336,92.55998229980467,24.95,1
-0.4778802692890167,0.1915473490953445,0.8561679124832153,72.65155792236328,8.104706764221191,92.55998992919922,24.95,1
-0.5081959366798401,0.1733040362596511,0.8349257707595825,101.70926666259766,8.111039161682129,92.55998992919922,24.95,1
-0.48846635222435,0.1671942919492721,0.8324893712997437,115.77830505371094,8.115102767944336,92.55998992919922,24.95,1
-0.5317828059196472,0.1856645196676254,0.8253280520439148,118.62347412109376,8.117711067199707,92.55998992919922,24.95,1
-0.5315919518470764,0.1639309972524643,0.8207322955131531,114.07594299316406,8.119384765625,92.55998992919922,24.95,1
-0.4866872429847717,0.1555814445018768,0.817782998085022,100.63557434082033,8.120458602905273,92.55998992919922,24.95,1
-0.5082499384880066,0.1726142764091491,0.8102925419807434,79.564453125,8.121148109436035,92.55998992919922,24.95,1
-0.4996965527534485,0.1611538827419281,0.8166811466217041,58.07456970214844,8.173462867736816,92.85018157958984,24.95,1
-0.4998052716255188,0.1985814571380615,0.837574303150177,39.955848693847656,8.207035064697266,93.03641510009766,24.95,1
-0.4382995069026947,0.1386336982250213,0.8453845381736755,22.14118766784668,8.2285795211792,93.15592193603516,24.95,1
-0.4212197661399841,0.1617382019758224,0.878385603427887,3.360900640487671,8.242405891418457,93.2326202392578,24.95,1
-0.46063894033432,0.1541742384433746,0.8659771084785461,-12.929393768310549,8.2512788772583,93.2818374633789,24.95,1
-0.4691425561904907,0.1773089915513992,0.8636118769645691,-24.66971206665039,8.256973266601562,93.31342315673828,24.95,1
-0.4634041488170624,0.1921555399894714,0.8732895255088806,-32.38668441772461,8.260627746582031,93.3336944580078,24.95,1
-0.4765148758888244,0.2072809785604477,0.8683045506477356,-35.90237808227539,8.262972831726074,93.3467025756836,24.95,1
-0.4737330377101898,0.2001942992210388,0.85950767993927,-35.270992279052734,8.339760780334473,93.35504913330078,24.97,1
