acc_x,acc_y,acc_z,bvp,eda,hr,temp,label
0.0,0.0,0.0,0.0,0.0,0.0,28.79,0
-0.0598958283662796,-0.1510416567325592,0.0364583320915699,39.361663818359375,0.1260534971952438,9.46833324432373,28.79,0
-0.1444359868764877,-0.3536585569381714,0.085365854203701,89.39512634277344,0.2951496541500091,22.169755935668945,28.79,0
-0.2179713547229766,-0.5348837375640869,0.1279069781303405,120.49940490722656,0.4422342181205749,33.21780776977539,28.79,0
-0.2769575715065002,-0.6510826945304871,0.1536048203706741,124.71892547607422,0.5495403409004211,41.277957916259766,28.79,0
-0.3114040195941925,-0.7352439761161804,0.1710033416748047,109.12673950195312,0.6221911311149597,46.73501968383789,28.79,0
-0.3395588994026184,-0.779359757900238,0.1824192851781845,83.01689147949219,0.6698604822158813,50.31563568115234,28.79,0
-0.3522140979766845,-0.8414073586463928,0.1898128241300583,52.72713470458984,0.7007336020469666,52.63462448120117,28.79,0
-0.3603662252426147,-0.8701963424682617,0.1889853626489639,22.17808532714844,0.7137448191642761,54.12845230102539,28.79,0
-0.3879845142364502,-0.8887002468109131,0.1716695874929428,-5.957362174987793,0.7221076488494873,55.088600158691406,28.79,0
-0.4113162159919739,-0.8949861526489258,0.1605501919984817,-29.658748626708984,0.7274779081344604,55.70516204833984,28.79,0
-0.4150986075401306,-0.893423855304718,0.1534125208854675,-47.50231170654297,0.7309251427650452,56.1009407043457,28.79,0
-0.411928653717041,-0.8924211859703064,0.1544290333986282,-59.21963119506836,0.7331376075744629,56.354957580566406,28.79,0
-0.4098942577838897,-0.914168417453766,0.14948371052742,-65.9513168334961,0.7345575094223022,56.51797866821289,28.79,0
-0.4477728307247162,-0.8833429217338562,0.1239190846681594,-69.56564331054688,0.7354687452316284,56.622596740722656,28.79,0
-0.4440925121307373,-0.9083428382873536,0.1299040913581848,-71.71674346923828,0.7360535264015198,56.689735412597656,28.79,0
-0.4417307078838348,-0.907593071460724,0.133744940161705,-73.49127960205078,0.744232714176178,56.73282241821289,28.79,0
-0.4402150213718414,-0.907111883163452,0.1306120008230209,-75.74067687988281,0.7494816780090332,56.76047134399414,28.79,0
-0.4392423331737518,-0.9068031311035156,0.128601461648941,-78.52767944335938,0.7528501152992249,56.77821731567383,28.79,0
-0.4386181235313415,-0.9066049456596376,0.1217134371399879,-80.98973846435547,0.755011796951294,56.78960418701172,28.79,0
-0.4326197803020477,-0.9064778089523317,0.1172930970788002,-82.69872283935547,0.7563990354537964,56.796913146972656,28.79,0
-0.4343681633472442,-0.906396210193634,0.1144563779234886,-83.36912536621094,0.7572892904281616,56.80160140991211,28.79,0
-0.4354901611804962,-0.9063438177108764,0.1126359328627586,-82.50603485107422,0.7578606009483337,56.80461120605469,28.79,0
-0.4362102150917053,-0.9063102006912231,0.1114676818251609,-79.412109375,0.7582272291183472,56.80654144287109,28.79,0
-0.4366723001003265,-0.9062886238098145,0.1107179597020149,-74.67518615722656,0.7474454045295715,56.80778121948242,28.85,0
-0.4369688332080841,-0.9062747955322266,0.1102368310093879,-69.74370574951172,0.7405262589454651,56.80857849121094,28.85,0
-0.4371591210365295,-0.906265914440155,0.1155258491635322,-66.12039184570312,0.7360859513282776,56.80908966064453,28.85,0
-0.4372812509536743,-0.9062601923942566,0.1189200356602668,-64.09609985351562,0.7332363724708557,56.809417724609375,28.85,0
-0.4373596310615539,-0.9062565565109252,0.1155004575848579,-62.27038192749024,0.7314077019691467,56.80962753295898,28.85,0
-0.437409907579422,-0.906254231929779,0.1189037412405014,-60.156524658203125,0.7302341461181641,56.80976104736328,28.85,0
-0.4374421834945678,-0.9062527418136596,0.1210877746343612,-59.52723693847656,0.729481041431427,56.80984878540039,28.85,0
-0.4374628961086273,-0.9062517881393432,0.1168915852904319,-66.2885513305664,0.7289977669715881,56.80990219116211,28.85,0
-0.4374761879444122,-0.9062511324882508,0.1141987144947052,-81.31439208984375,0.7273104786872864,56.7490348815918,28.85,0
-0.4318869411945343,-0.9062507152557372,0.1180683597922325,-102.43927001953124,0.7262276411056519,56.7099723815918,28.85,0
-0.433897852897644,-0.9062504768371582,0.1149538978934288,-129.4664764404297,0.7255327701568604,56.68490219116211,28.85,0
-0.4295905828475952,-0.906250298023224,0.1129552125930786,-168.89398193359375,0.7250868082046509,56.66881561279297,28.85,0
-0.4268264174461365,-0.9062501788139344,0.1172703504562377,-223.98898315429688,0.7248006463050842,56.65849304199219,28.85,0
-0.4306503236293793,-0.9062501192092896,0.12003955245018,-284.54205322265625,0.7246170043945312,56.6518669128418,28.85,0
-0.4331042766571045,-0.9062500596046448,0.1162188947200775,-340.84149169921875,0.7244991064071655,56.64761352539063,28.85,0
-0.4290812909603119,-0.9062500596046448,0.1193647906184196,-392.2939147949219,0.7244234681129456,56.6448860168457,28.85,0
-0.4264995753765106,-0.9062500596046448,0.1157858744263649,-452.4511413574219,0.725752055644989,56.64313507080078,28.85,0
-0.4248427748680115,-0.9062500596046448,0.1134891286492347,-517.6070556640625,0.726604700088501,56.64201354980469,28.85,0
-0.4293773174285888,-0.9062500596046448,0.1120152100920677,-573.582275390625,0.7271518707275391,56.64129257202149,28.85,0
-0.4266895651817322,-0.9062500596046448,0.1110693365335464,-617.6865234375,0.7275030016899109,56.64083099365234,28.85,0
-0.4249646961688995,-0.9062500596046448,0.1104623302817344,-668.9329223632812,0.7277283668518066,56.640533447265625,28.85,0
-0.4238577783107757,-0.9062500596046448,0.1100727841258049,-735.023193359375,0.7278729677200317,56.64034271240234,28.85,0
-0.4287452101707458,-0.9062500596046448,0.1154205724596977,-785.1315307617188,0.727965772151947,56.64022064208984,28.85,0
-0.4262838959693908,-0.9062500596046448,0.1188524737954139,-793.0592041015625,0.7280253171920776,56.64014053344727,28.85,0
-0.424704372882843,-0.9062500596046448,0.1154570952057838,-674.0678100585938,0.7276046276092529,56.64009094238281,28.85,0
-0.4236907362937927,-0.9062500596046448,0.1132781356573104,-392.9617919921875,0.7273346185684204,56.64005661010742,28.85,0
-0.4230402410030365,-0.9062500596046448,0.1118798106908798,-69.58354949951172,0.7271613478660583,56.64003753662109,28.85,0
-0.4226227700710296,-0.9062500596046448,0.1109824404120445,195.42442321777344,0.7270501852035522,56.64002227783203,28.85,0
-0.4223548769950866,-0.9062500596046448,0.1104065626859664,389.5841064453125,0.7269788384437561,56.6400146484375,28.85,0
-0.4165851771831512,-0.900652289390564,0.1100369989871978,516.3341674804688,0.7269330620765686,56.64001083374024,28.85,0
-0.412882536649704,-0.8970599174499512,0.1097998321056366,579.4468994140625,0.7269036769866943,56.64000701904297,28.85,0
-0.4105063676834106,-0.9003523588180542,0.1096476316452026,599.3922119140625,0.7268847823143005,56.6400032043457,28.85,0
-0.4089815020561218,-0.9024652242660522,0.1095499619841575,594.9812622070312,0.7287087440490723,56.6400032043457,28.91,0
-0.4080029129981994,-0.9094189405441284,0.1094872802495956,573.6680908203125,0.7298792600631714,56.6400032043457,28.91,0
-0.4129726886749267,-0.9194791913032532,0.1150448322296142,528.2238159179688,0.7306303977966309,56.6400032043457,28.91,0
-0.4161620140075683,-0.9259352684020996,0.1242091208696365,466.5950012207031,0.7311124801635742,56.6400032043457,28.91,0
-0.4350020587444305,-0.9244806170463562,0.1244924589991569,407.0328979492188,0.7314218282699585,56.6400032043457,28.91,0
-0.4582880735397339,-0.9123516082763672,0.1302720606327057,358.341064453125,0.7316203713417053,56.6400032043457,28.91,0
-0.4900250136852264,-0.8877745866775513,0.1339810788631439,312.7667541503906,0.7317477464675903,56.6400032043457,28.91,0
-0.5103919506072998,-0.8776001930236816,0.141959086060524,261.6911315917969,0.7318295240402222,56.6400032043457,28.91,0
-0.5346578359603882,-0.8934620022773743,0.1414811462163925,211.9215850830078,0.7300459146499634,56.80121612548828,28.91,0
-0.5726213455200195,-0.8868478536605835,0.1355766505002975,171.86424255371094,0.7289013266563416,56.9046745300293,28.91,0
-0.5969841480255127,-0.8714077472686768,0.1261897087097168,141.33917236328125,0.7281667590141296,56.9710693359375,28.91,0
-0.6182165741920471,-0.8614991307258606,0.1201657131314277,112.850830078125,0.7276953458786011,57.01367568969727,28.91,0
-0.6374400854110718,-0.8495426177978516,0.1162998601794242,84.89569854736328,0.727392852306366,57.04101943969727,28.91,0
-0.6385810971260071,-0.8306740522384644,0.1082212030887603,61.54959487915039,0.7271987199783325,57.05856704711914,28.91,0
-0.6225200295448303,-0.818565309047699,0.1086345613002777,45.05914306640625,0.727074146270752,57.06982803344727,28.91,0
-0.6122129559516907,-0.8107945919036865,0.1033020541071891,33.28352355957031,0.7269942164421082,57.07705307006836,28.91,0
-0.5888051390647888,-0.8114055395126343,0.0942821875214576,23.079086303710938,0.7306150794029236,57.08169174194336,28.91,0
-0.568185567855835,-0.8117976188659668,0.0940915271639823,14.334346771240234,0.7329387068748474,57.08466720581055,28.91,0
-0.5437575578689575,-0.8064514994621277,0.0939691737294197,8.149264335632324,0.7344298958778381,57.08657836914063,28.91,0
-0.51688551902771,-0.8030206561088562,0.0938906520605087,4.559787273406982,0.735386848449707,57.08780288696289,28.91,0
-0.4940428435802459,-0.8064166903495789,0.0994380339980125,2.6037771701812744,0.7360009551048279,57.08858871459961,28.91,0
-0.473785936832428,-0.814193844795227,0.1085958033800125,1.405843734741211,0.7363950610160828,57.08909606933594,28.91,0
-0.4551884531974792,-0.8247825503349304,0.1144727319478988,0.766051709651947,0.7366479635238647,57.08942031860352,28.91,0
-0.4320580959320068,-0.8819577693939209,0.1182442083954811,0.5990851521492004,0.7368102669715881,57.08962631225586,28.91,0
-0.4172143638134002,-0.9690294861793518,0.1038711965084075,0.5779174566268921,0.7355372905731201,57.08975982666016,28.91,0
-0.4188840687274933,-1.0137115716934204,0.1002452000975608,0.5105946063995361,0.7347203493118286,57.08984756469727,28.91,0
-0.4367489218711853,-0.9976037740707396,0.109113797545433,0.4494777917861938,0.7341960668563843,57.08990097045898,28.91,0
-0.4538113176822662,-0.9704733490943908,0.1092073768377304,0.3421876132488251,0.733859658241272,57.089935302734375,28.91,0
-0.4479676783084869,-0.925073742866516,0.1092674285173416,0.0297198053449392,0.7336437702178955,57.08995819091797,28.91,0
-0.405033141374588,-0.907134473323822,0.1093059703707695,-0.4394972026348114,0.7335051894187927,57.08997344970703,28.91,0
-0.3718824386596679,-0.9180131554603576,0.1093306988477706,-0.9555681943893432,0.7334162592887878,57.08998489379883,28.91,0
-0.3841948807239532,-0.919396698474884,0.0981510207056999,-1.5733588933944702,0.7333592176437378,57.089988708496094,28.91,0
-0.3976940810680389,-0.897893488407135,0.085378773510456,-2.288670539855957,0.7342408299446106,57.08999252319336,28.89,0
-0.4007593095302582,-0.8505073189735413,0.0715845078229904,-2.894602060317993,0.7348065972328186,57.08999633789063,28.89,0
-0.4027263820171356,-0.8312931060791016,0.0795254632830619,-3.34077525138855,0.7351696491241455,57.08999633789063,28.89,0
-0.3983909785747528,-0.818962574005127,0.0846215113997459,-3.6056079864501953,0.7354026436805725,57.08999633789063,28.89,0
-0.3956087529659271,-0.8502339720726013,0.1046851873397827,-3.295497417449951,0.735552191734314,57.08999633789063,28.89,0
-0.3938232958316803,-0.870302140712738,0.1231586709618568,-2.147103786468506,0.7356481552124023,57.08999633789063,28.89,0
-0.409470796585083,-0.8607896566390991,0.1350138932466507,-0.5323997139930725,0.7357097268104553,57.08999633789063,28.89,0
-0.425110250711441,-0.8546850681304932,0.1482196599245071,1.1343575716018677,0.7357492446899414,57.08999633789063,28.89,0
-0.4463422894477844,-0.8619630336761475,0.1622921377420425,2.8810935020446777,0.7330203056335449,57.19389343261719,28.89,0
-0.476761132478714,-0.9058180451393129,0.1881163716316223,4.64691162109375,0.7312690615653992,57.26056671142578,28.89,0
-0.4962821900844574,-0.9395594596862792,0.1990911066532135,6.063135623931885,0.7301452159881592,57.3033561706543,28.89,0
-0.4920163452625274,-0.9947993755340576,0.2173296064138412,6.914665222167969,0.7294239401817322,57.330814361572266,28.89,0
-0.5116698741912842,-1.0414447784423828,0.2066429257392883,7.149444103240967,0.7289611101150513,57.34843444824219,28.89,0
-0.557869017124176,-1.1385523080825806,0.1941870599985122,6.73048210144043,0.7286641001701355,57.359745025634766,28.89,0
-0.5931147336959839,-1.1169037818908691,0.1749980449676513,5.906316757202148,0.7284734845161438,57.367000579833984,28.89,0
-0.5765489935874939,-1.041435480117798,0.1626836359500885,5.169625759124756,0.7283511757850647,57.37165832519531,28.89,0
-0.5323314070701599,-0.9650154113769532,0.1603787392377853,4.510565757751465,0.7255184054374695,57.37464904785156,28.89,0
-0.5319439768791199,-0.9831466674804688,0.1421062648296356,3.3424434661865234,0.7237004637718201,57.37656784057617,28.89,0
-0.5204998254776001,-1.0115755796432495,0.1191844940185546,1.4248900413513184,0.7225338220596313,57.3777961730957,28.89,0
-0.4739711880683899,-0.9962329864501952,0.0932790711522102,-0.7622328996658325,0.7217851281166077,57.37858581542969,28.89,0
-0.4329162240028381,-0.9751914739608764,0.0766544640064239,-2.6781110763549805,0.7213046550750732,57.379093170166016,28.89,0
-0.4065695106983185,-0.961688220500946,0.0435946471989154,-4.312442302703857,0.7209963202476501,57.3794174194336,28.89,0
-0.3896617293357849,-0.9474248290061952,0.0167809873819351,-5.988212585449219,0.7207984328269958,57.3796272277832,28.89,0
-0.3844090402126312,-0.9326736330986024,-0.006024251691997,-7.851792335510254,0.7206714749336243,57.3797607421875,28.89,0
-0.3698426187038421,-0.9008160829544068,-0.0318548902869224,-9.620942115783691,0.7224260568618774,57.37984848022461,28.89,0
-0.3548969626426697,-0.8747739791870117,-0.0484315082430839,-10.756280899047852,0.7235520482063293,57.37990188598633,28.89,0
-0.3397079408168793,-0.8580616116523743,-0.0478738769888877,-10.857925415039062,0.7242746353149414,57.37993621826172,28.89,0
-0.3299604952335357,-0.8529343605041504,-0.0419182479381561,-10.03825855255127,0.724738359451294,57.37995910644531,28.89,0
-0.3181073665618896,-0.8608395457267761,-0.0269007179886102,-8.845884323120117,0.7250359654426575,57.379974365234375,28.89,0
-0.3105007112026214,-0.8883037567138672,0.0051277647726237,-7.546883583068848,0.7252269387245178,57.37998580932617,28.89,0
-0.3112169802188873,-0.9619064331054688,0.0312795750796794,-5.545340538024902,0.725349485874176,57.37998962402344,28.89,0
-0.3004810810089111,-1.042726993560791,0.0480623021721839,-2.2402923107147217,0.7254281044006348,57.3799934387207,28.89,0
-0.3047869503498077,-1.1449730396270752,0.0812235921621322,1.7257236242294312,0.7218064069747925,57.37999725341797,28.85,0
-0.3243435323238373,-1.126621961593628,0.1192979216575622,4.815435886383057,0.7194822430610657,57.37999725341797,28.85,0
-0.3480893671512604,-0.9972920417785645,0.1493296027183532,6.020816326141357,0.7179906964302063,57.37999725341797,28.85,0
-0.3577302992343902,-0.9422844648361206,0.1686022132635116,5.558371543884277,0.7170335054397583,57.37999725341797,28.85,0
-0.369515061378479,-0.9517659544944764,0.1865680366754531,4.394618034362793,0.7164192795753479,57.37999725341797,28.85,0
-0.3658823072910309,-0.9018728733062744,0.1980974674224853,3.3253560066223145,0.7160251140594482,57.37999725341797,28.85,0
-0.3523554801940918,-0.8362677097320557,0.1943008452653885,2.427793264389038,0.7157721519470215,57.37999725341797,28.85,0
-0.3604680597782135,-0.7773727774620056,0.1806688457727432,1.4039671421051023,0.7156097888946533,57.37999725341797,28.85,0
-0.376869797706604,-0.7563707232475281,0.1719206124544143,0.2597042620182037,0.7168827652931213,57.47314453125,28.85,0
-0.4209821224212646,-0.7988705635070801,0.1551109552383422,-0.9045268893241882,0.7176997065544128,57.53292083740234,28.85,0
-0.4380953311920166,-0.8373400568962097,0.1555190235376358,-2.2642836570739746,0.7182239294052124,57.57128143310547,28.85,0
-0.443479835987091,-0.86762535572052,0.1613786816596985,-3.796091318130493,0.7185603380203247,57.59590148925781,28.85,0
-0.4525330662727356,-0.8646696209907532,0.1707368344068527,-5.0478105545043945,0.7187762260437012,57.611698150634766,28.85,0
-0.4695384502410888,-0.8515772223472595,0.1767423599958419,-5.815266132354736,0.718914806842804,57.6218376159668,28.85,0
-0.4860492944717407,-0.8767619132995605,0.1805963665246963,-6.400921821594238,0.7190037369728088,57.62834548950195,28.85,0
-0.4910472333431244,-0.9265106916427612,0.18306964635849,-6.837665557861328,0.7190607786178589,57.63251876831055,28.85,0
-0.4886568486690521,-0.969632089138031,0.1790590733289718,-6.580556392669678,0.7158838510513306,57.63520050048828,28.85,0
-0.5039161443710327,-1.0085004568099976,0.1764853298664093,-5.265552043914795,0.7138450741767883,57.63692092895508,28.85,0
-0.5249042510986328,-1.0390417575836182,0.163638100028038,-2.974297046661377,0.7125366926193237,57.63802337646485,28.85,0
-0.5663620829582214,-1.0866302251815796,0.1553934812545776,0.2945514023303985,0.7116970419883728,57.63873291015625,28.85,0
-0.5593807101249695,-0.99961656332016,0.1501025557518005,4.373474597930908,0.7111582159996033,57.63918685913086,28.85,0
-0.5381070971488953,-0.9605695009231568,0.1411093771457672,7.961970329284668,0.7108123898506165,57.63947677612305,28.85,0
-0.5356504917144775,-1.0138802528381348,0.1577291637659073,9.41220760345459,0.7105904817581177,57.63966369628906,28.85,0
-0.5284761786460876,-1.0424941778182983,0.1516014635562896,8.823874473571777,0.7104480862617493,57.63978576660156,28.85,0
-0.4846877157688141,-1.0272703170776367,0.1364735066890716,7.848025798797607,0.7135702967643738,57.63986206054688,28.85,0
-0.4285979270935058,-0.9727182984352112,0.1323630362749099,7.361502647399902,0.7155739068984985,57.63991165161133,28.85,0
-0.398200511932373,-0.9321122169494628,0.1073340773582458,6.916724681854248,0.7168596982955933,57.63994216918945,28.85,0
-0.3786931931972503,-0.8948580026626587,0.0744786038994789,6.233626365661621,0.7176848649978638,57.63996124267578,28.85,0
-0.3661745190620422,-0.8709504008293152,0.0533938556909561,5.526559829711914,0.7182143926620483,57.63997650146485,28.85,0
-0.3469452261924743,-0.8332167863845825,0.0342651046812534,4.707382678985596,0.7185542583465576,57.639984130859375,28.85,0
-0.3290071785449981,-0.7810126543045044,0.016391597688198,3.5260703563690186,0.7187723517417908,57.63998794555664,28.85,0
-0.3230933547019958,-0.7587065696716309,0.0105191841721534,2.248498678207397,0.7189123034477234,57.63999176025391,28.85,0
-0.324895977973938,-0.7779784798622131,0.0123483808711171,1.3390623331069946,0.7171657085418701,57.63999557495117,28.83,0
-0.3372483551502228,-0.7959438562393188,0.0135222543030977,0.733942985534668,0.7160448431968689,57.63999557495117,28.83,0
-0.3451753854751587,-0.8298640847206116,0.042264450341463,-0.0233931150287389,0.7153255343437195,57.63999557495117,28.83,0
-0.3502624928951263,-0.9020121097564696,0.0551117621362209,-1.0467941761016846,0.7148638963699341,57.63999557495117,28.83,0
-0.3535271286964416,-0.9874969720840454,0.068954199552536,-1.7465449571609497,0.7145676612854004,57.63999557495117,28.83,0
-0.3780132830142975,-1.126322865486145,0.1002285778522491,-1.124414563179016,0.7143775224685669,57.63999557495117,28.83,0
-0.3993248343467712,-1.1426422595977783,0.1258964538574218,1.417212963104248,0.7142555117607117,57.63999557495117,28.83,0
-0.4130013883113861,-1.001975178718567,0.1367708444595337,5.158420562744141,0.7141772508621216,57.63999557495117,28.83,0
-0.4217782020568847,-0.9676809310913086,0.1269560754299163,8.333148956298828,0.7132091522216797,57.72597885131836,28.83,0
-0.4274106621742248,-0.9848572611808776,0.1262553036212921,9.929849624633787,0.7125878930091858,57.781158447265625,28.83,0
-0.414231926202774,-0.9734889268875122,0.1481966823339462,10.678662300109863,0.7121891975402832,57.81657028198242,28.83,0
-0.3945790231227875,-0.9326067566871644,0.1566796153783798,11.610610961914062,0.7119333148002625,57.83929443359375,28.83,0
-0.4043579995632171,-0.8559909462928772,0.1509279310703277,12.41288948059082,0.7117691040039062,57.85387802124024,28.83,0
-0.4274269342422485,-0.8236166834831238,0.1472368240356445,12.039266586303713,0.7116637229919434,57.86323547363281,28.83,0
-0.4422312378883362,-0.8196340203285217,0.1504658609628677,10.287650108337402,0.7115961313247681,57.86924362182617,28.83,0
-0.4349384605884552,-0.839469313621521,0.1693314015865326,8.031469345092773,0.7115527391433716,57.87309646606445,28.83,0
-0.4302583634853363,-0.8577962517738342,0.1870359927415847,6.193081855773926,0.7110655903816223,57.87556838989258,28.83,0
-0.4328527450561523,-0.8583618402481079,0.1983977705240249,4.977484703063965,0.7107529640197754,57.87715530395508,28.83,0
-0.4513109922409057,-0.8699203729629517,0.1944935619831085,4.097072124481201,0.7105523347854614,57.878173828125,28.83,0
-0.4631564319133758,-0.8885335326194763,0.1919880658388137,3.292041540145874,0.7104235887527466,57.87882995605469,28.83,0
-0.4651603698730469,-0.9340649843215942,0.1959779560565948,2.3025193214416504,0.7103409767150879,57.87924957275391,28.83,0
-0.4608485996723175,-0.9632844924926758,0.1873428970575332,0.8757517337799072,0.7102879285812378,57.879520416259766,28.83,0
-0.4636793434619903,-1.0100247859954834,0.165008082985878,-0.7671284079551697,0.710253894329071,57.87969207763672,28.83,0
-0.4934848248958587,-1.0736066102981567,0.1506748795509338,-1.986232876777649,0.7102320790290833,57.87980270385742,28.83,0
-0.5350033640861511,-1.1032142639160156,0.1414766609668731,-2.456899881362915,0.7115952372550964,57.87987518310547,28.83,0
-0.5448542237281799,-1.0550414323806765,0.1299760043621063,-2.300377130508423,0.7124699950218201,57.879920959472656,28.83,0
-0.5287848711013794,-1.0129313468933103,0.1225955411791801,-1.6876215934753418,0.7130314111709595,57.87995147705078,28.83,0
-0.5184724926948547,-1.0250918865203855,0.1178591847419738,-0.6531093120574951,0.7133916616439819,57.87997055053711,28.83,0
-0.5006590485572815,-1.032895803451538,0.1092218905687332,0.8741818070411682,0.7136228680610657,57.879981994628906,28.83,0
-0.4724340736865997,-1.009915113449097,0.1036789715290069,2.681884288787842,0.7137712240219116,57.87998962402344,28.83,0
-0.4151364862918854,-0.961580753326416,0.0945240706205368,4.024674892425537,0.7138664126396179,57.8799934387207,28.83,0
-0.3783662021160126,-0.9305625557899476,0.0774534344673156,4.3490142822265625,0.7139275074005127,57.87999725341797,28.83,0
-0.3603669106960296,-0.8938634991645813,0.0497051551938056,3.9803621768951416,0.7116717100143433,57.87999725341797,28.81,0
-0.3488160073757171,-0.8591166138648987,0.0263001322746276,3.482254266738892,0.7102240920066833,57.87999725341797,28.81,0
-0.3414033055305481,-0.8312203288078308,0.0112801361829042,2.9476428031921387,0.7092950940132141,57.87999725341797,28.81,0
-0.3254506886005401,-0.7965247631072998,-0.0039566061459481,2.292876005172729,0.7086989283561707,57.87999725341797,28.81,0
-0.320811003446579,-0.7798569202423096,-0.0081368964165449,1.629069209098816,0.7083163261413574,57.87999725341797,28.81,0
-0.3290290832519531,-0.8083449006080627,0.0003759826649911,1.0418602228164673,0.7080708146095276,57.87999725341797,28.81,0
-0.3343029618263244,-0.8378223776817322,0.0170346070080995,0.4823119938373565,0.7079132199287415,57.87999725341797,28.81,0
-0.3376874327659607,-0.8679348826408386,0.0389207042753696,-0.0881458148360252,0.7078121304512024,57.87999725341797,28.81,0
-0.3286638557910919,-0.909650444984436,0.0529659390449523,-0.6727699041366577,0.7086650729179382,57.962398529052734,28.81,0
-0.3228730261325836,-0.9700077176094056,0.0675771385431289,-1.1160169839859009,0.7092124819755554,58.01527786254883,28.81,0
-0.3415479063987732,-1.070317029953003,0.0769537612795829,-0.855915904045105,0.7095637321472168,58.04921340942383,28.81,0
-0.3871190249919891,-1.0619187355041504,0.0997644662857055,0.6902936697006226,0.7097891569137573,58.07099151611328,28.81,0
-0.416363924741745,-0.9837581515312196,0.1255986094474792,3.104844331741333,0.7099338173866272,58.08496856689453,28.81,0
-0.4071427583694458,-0.9112080931663512,0.1197863817214965,4.955300807952881,0.7100266814231873,58.093936920166016,28.81,0
-0.406822919845581,-0.9206273555755616,0.116056427359581,5.426301956176758,0.7100862860679626,58.09969329833984,28.81,0
-0.406617671251297,-0.9378676414489746,0.1304560750722885,5.441956996917725,0.7101244926452637,58.10338592529297,28.81,0
-0.3896926343441009,-0.8817582130432129,0.1396969407796859,6.358395099639893,0.7078540325164795,58.10575485229492,28.81,0
-0.3844288885593414,-0.8345548510551453,0.1400294303894043,8.060693740844727,0.7063969969749451,58.10727691650391,28.81,0
-0.4146375656127929,-0.8210557699203491,0.140242800116539,9.32151222229004,0.7054619789123535,58.10825347900391,28.81,0
-0.4452193081378937,-0.8347839117050171,0.1403797268867492,9.442777633666992,0.7048619389533997,58.10887908935547,28.81,0
-0.4704426825046539,-0.8715827465057373,0.157260924577713,8.567633628845215,0.7044768333435059,58.10927963256836,28.81,0
-0.4754340350627899,-0.8896003365516663,0.1792898476123809,7.010060787200928,0.7042297124862671,58.10953903198242,28.81,0
-0.4786371886730194,-0.8899674415588379,0.1990245133638382,5.204421043395996,0.7040711045265198,58.10970306396485,28.81,0
-0.4918883442878723,-0.8734096884727478,0.2060913145542144,3.7948849201202393,0.7039693593978882,58.10980987548828,28.81,0
-0.5059899687767029,-0.8739794492721558,0.2050286084413528,3.087367534637451,0.7061989903450012,58.10987854003906,28.81,0
-0.5150395631790161,-0.92472505569458,0.2155421823263168,2.701392412185669,0.7076298594474792,58.10992050170898,28.81,0
-0.4984559714794159,-0.9796817302703856,0.2110936343669891,2.0739428997039795,0.7085481286048889,58.10995101928711,28.81,0
-0.4766180217266083,-1.0205475091934204,0.208238810300827,1.1446433067321775,0.7091373801231384,58.10997009277344,28.81,0
-0.4905925691127777,-1.0635662078857422,0.1896134316921234,0.3763086199760437,0.7095155715942383,58.109981536865234,28.81,0
-0.5219517350196838,-1.1247597932815552,0.1832585036754608,0.2486583590507507,0.7097582817077637,58.109989166259766,28.81,0
-0.5532717704772949,-1.0688681602478027,0.1567891836166381,0.7614473104476929,0.7099140286445618,58.10999298095703,28.81,0
-0.5117956399917603,-1.0106090307235718,0.1398026943206787,1.2194985151290894,0.7100139856338501,58.1099967956543,28.81,0
-0.4907764494419098,-1.0124059915542605,0.1456950604915619,0.768273651599884,0.708700954914093,58.1099967956543,28.79,0
-0.5108741521835327,-1.0695369243621826,0.127085343003273,-0.5638260245323181,0.7078583836555481,58.1099967956543,28.79,0
-0.5013806223869324,-1.08380925655365,0.1039471551775932,-1.819939374923706,0.7073176503181458,58.1099967956543,28.79,0
-0.4393104910850525,-1.0425883531570437,0.0946961715817451,-2.346599578857422,0.7069706320762634,58.1099967956543,28.79,0
-0.3826841115951538,-0.9881463050842284,0.071966104209423,-2.401556491851806,0.7067479491233826,58.1099967956543,28.79,0
-0.3575401306152344,-0.9532085657119752,0.0405859276652336,-2.426076889038086,0.7066050171852112,58.1099967956543,28.79,0
-0.3525997102260589,-0.925189733505249,0.0092523889616131,-2.3379180431365967,0.7065132856369019,58.1099967956543,28.79,0
-0.3494292199611664,-0.9016110897064208,-0.0164534486830234,-1.8908419609069824,0.7064544558525085,58.1099967956543,28.79,0
-0.3306012749671936,-0.8584908246994019,-0.032949972897768,-1.2456767559051514,0.7082530856132507,58.697540283203125,28.79,0
-0.3073230385780334,-0.808427631855011,-0.037938717752695,-0.8352293968200684,0.709407389163971,59.07459259033203,28.79,0
-0.2979821860790252,-0.7762999534606934,-0.03554243221879,-0.6685574650764465,0.7101481556892395,59.31656265258789,28.79,0
-0.3031833171844482,-0.7724756002426147,-0.0284068621695041,-0.2678258121013641,0.7106235027313232,59.47184371948242,28.79,0
-0.3065210878849029,-0.7812168598175049,-0.0182298887521028,0.548222541809082,0.7109285593032837,59.57149505615234,28.79,0
-0.3142608404159546,-0.8484020233154297,0.0050944294780492,1.3943471908569336,0.7111243605613708,59.63544464111328,28.79,0
-0.3080322444438934,-0.98667973279953,0.0200626347213983,2.069896459579468,0.7112500071525574,59.67648315429688,28.79,0
-0.3208284080028534,-1.1202006340026855,0.0520594641566276,2.958412408828736,0.7113305926322937,59.70281982421875,28.79,0
-0.3794202208518982,-1.071540117263794,0.1173753812909126,4.574722766876221,0.7077098488807678,59.719722747802734,28.79,0
-0.405825525522232,-0.9899325966835022,0.1704869270324707,6.976938724517822,0.7053862810134888,59.730567932128906,28.79,0
-0.3947820365428924,-1.0047348737716677,0.1709842085838318,9.485837936401367,0.7038951516151428,59.73752975463867,28.79,0
-0.3709016442298889,-1.0310274362564087,0.1880966573953628,10.859455108642578,0.7029381990432739,59.74199676513672,28.79,0
-0.3555765748023987,-1.0199116468429563,0.2102739959955215,10.444071769714355,0.7023240923881531,59.74486541748047,28.79,0
-0.3569373786449432,-0.9344093203544616,0.224506139755249,9.038243293762209,0.7019299864768982,59.7467041015625,28.79,0
-0.3746039867401123,-0.857147753238678,0.2224439531564712,7.817214488983154,0.7016770839691162,59.74788665771485,28.79,0
-0.4027347266674042,-0.8131634593009949,0.2099250108003616,7.00496768951416,0.7015147805213928,59.74864196777344,28.79,0
-0.4207874238491058,-0.8073279857635498,0.201891079545021,6.372654438018799,0.7050831317901611,59.74913024902344,28.79,0
-0.4323725998401642,-0.8091809153556824,0.2023331373929977,6.017028331756592,0.7073730826377869,59.74944305419922,28.79,0
-0.4454050660133362,-0.8271633386611938,0.213812381029129,5.917780876159668,0.7088426351547241,59.74964141845703,28.79,0
-0.4649641215801239,-0.8331056237220764,0.215581327676773,5.685708522796631,0.7097856998443604,59.74977111816406,28.79,0
-0.4831137657165527,-0.8481146097183228,0.2055209726095199,5.264502048492432,0.7103909254074097,59.74985122680664,28.79,0
-0.5059567093849182,-0.902528703212738,0.1934670507907867,4.915379524230957,0.7107793092727661,59.74990463256836,28.79,0
-0.5206159949302673,-0.9486441016197203,0.1801337599754333,4.268588542938232,0.7110285758972168,59.74993896484375,28.79,0
-0.5132301449775696,-0.97823828458786,0.1603816747665405,2.4312329292297363,0.7111884951591492,59.749961853027344,28.79,0
-0.5084903240203857,-1.0028278827667236,0.142108142375946,-0.6394760608673096,0.7094547152519226,59.749977111816406,28.81,0
-0.5222419500350952,-1.040999174118042,0.1247834712266922,-3.727843999862671,0.7083420753479004,59.74998474121094,28.81,0
-0.553458034992218,-1.0487020015716553,0.1080677211284637,-5.559312343597412,0.707628071308136,59.7499885559082,28.81,0
-0.5678929090499878,-1.0256563425064087,0.1029382869601249,-5.835416793823242,0.7071698307991028,59.74999237060547,28.81,0
-0.5435697436332703,-0.9884759187698364,0.1220376119017601,-5.217273235321045,0.706875741481781,59.749996185302734,28.81,0
-0.5279605388641357,-0.9926044940948486,0.1286966800689697,-4.731019973754883,0.7066870331764221,59.749996185302734,28.81,0
-0.5011501312255859,-1.0400362014770508,0.1217745393514633,-4.945609092712402,0.7065659165382385,59.749996185302734,28.81,0
-0.4615536630153656,-1.0312906503677368,0.1229300871491432,-5.595628261566162,0.7064881920814514,59.749996185302734,28.81,0
-0.4193496108055115,-1.0032871961593628,0.1236716508865356,-6.310127258300781,0.7050611972808838,60.30887985229492,28.81,0
-0.381069928407669,-0.9517295360565186,0.1073542162775993,-7.2558817863464355,0.7041454315185547,60.66753768920898,28.81,0
-0.3509064614772796,-0.9074472784996032,0.0800893083214759,-8.57574462890625,0.7035577297210693,60.897705078125,28.81,0
-0.337147057056427,-0.8678339123725891,0.0513967089354991,-9.802510261535645,0.7031805515289307,61.04541397094727,28.81,0
-0.3339148461818695,-0.8256190419197083,0.0385812222957611,-10.346162796020508,0.7029385566711426,61.14020538330078,28.81,0
-0.3262428045272827,-0.7873324155807495,0.0303569827228784,-10.107504844665527,0.7027832269668579,61.20103454589844,28.81,0
-0.3101238012313843,-0.7515667080879211,0.0250791385769844,-9.266493797302246,0.7026835680007935,61.24007415771485,28.81,0
-0.3053773045539856,-0.7398098707199097,0.0216921214014291,-7.888458251953125,0.7026196122169495,61.2651252746582,28.81,0
-0.3191246092319488,-0.7714494466781616,0.0195185299962759,-6.065479755401611,0.7034967541694641,61.28120422363281,28.81,0
-0.3335446119308471,-0.819742739200592,0.0237214174121618,-4.22565507888794,0.7040596604347229,61.29151916503906,28.81,0
-0.3483963310718536,-0.867527961730957,0.0320163629949092,-2.826424598693848,0.7044209241867065,61.29814147949219,28.81,0
-0.3691228330135345,-0.9541714787483216,0.0373395830392837,-1.6991941928863523,0.704652726650238,61.302391052246094,28.81,0
-0.3936194777488708,-1.0545564889907837,0.0407557189464569,0.0344837568700313,0.7048014998435974,61.305118560791016,28.81,0
-0.4205355644226074,-1.1413689851760864,0.0597413219511508,3.103144884109497,0.7048969864845276,61.30686950683594,28.81,0
-0.4434065222740173,-1.0627336502075195,0.0999140590429306,7.229145526885986,0.7049582600593567,61.30799102783203,28.81,0
-0.4412904679775238,-0.9506944417953492,0.1256946176290512,11.034147262573242,0.7049975991249084,61.308712005615234,28.81,0
-0.4343347251415252,-0.9515652060508728,0.1198479905724525,13.074728965759276,0.7022685408592224,61.309173583984375,28.81,0
-0.4298709332942962,-0.9913084506988524,0.1160959601402282,13.259328842163086,0.7005171775817871,61.30947113037109,28.81,0
-0.4158107936382293,-1.00561785697937,0.1416769921779632,12.933554649353027,0.6993932723999023,61.309661865234375,28.81,0
-0.4179833531379699,-0.930834174156189,0.1580934375524521,13.13648796081543,0.6986719965934753,61.30978393554688,28.81,0
-0.4249753355979919,-0.8660489916801453,0.1574330180883407,13.316875457763672,0.6982091069221497,61.30986022949219,28.81,0
-0.4406579434871673,-0.846864640712738,0.1626069694757461,12.132162094116213,0.6979120969772339,61.30990982055664,28.81,0
-0.4451243579387665,-0.845748782157898,0.1603295356035232,8.996633529663086,0.6977214813232422,61.30994415283203,28.81,0
-0.4200017750263214,-0.856228232383728,0.1644657850265503,4.587689399719238,0.6975991725921631,61.30996322631836,28.81,0
-0.4094773232936859,-0.8629533648490906,0.1783157438039779,0.2249400317668914,0.6998160481452942,61.30997848510742,28.81,0
-0.4139188826084137,-0.8616713881492615,0.1760082989931106,-3.036973714828491,0.7012386918067932,61.30998611450195,28.81,0
-0.4279647767543793,-0.8384575843811035,0.1633319705724716,-4.94040584564209,0.7021516561508179,61.30998992919922,28.81,0
-0.4313808381557464,-0.8347558379173279,0.1607947945594787,-5.979207515716553,0.70273756980896,61.30999374389648,28.81,0
-0.4279752969741821,-0.8883580565452576,0.1703621298074722,-6.76049280166626,0.7031135559082031,61.30999755859375,28.81,0
-0.4257898330688476,-0.9395501613616944,0.1597085744142532,-7.301285266876221,0.7033548355102539,61.30999755859375,28.81,0
-0.4187895357608795,-0.9780001044273376,0.1472739577293396,-7.071539878845215,0.7035096883773804,61.30999755859375,28.81,0
-0.4422860145568847,-1.0698482990264893,0.133696362376213,-5.813504219055176,0.703609049320221,61.30999755859375,28.81,0
-0.4797558188438415,-1.1287912130355835,0.1305808275938034,-3.960057258605957,0.7013774514198303,61.83305358886719,28.81,0
-0.4870084524154663,-1.043466329574585,0.1117881312966346,-2.276226282119751,0.699945330619812,62.16872024536133,28.81,0
-0.4524783492088318,-0.9775142073631288,0.116521380841732,-1.4392555952072144,0.6990262866020203,62.38413238525391,28.81,0
-0.4359166920185089,-0.9743743538856506,0.1251566857099533,-1.733293533325195,0.6984364986419678,62.52237319946289,28.81,0
-0.4420816898345947,-1.0003482103347778,0.125100553035736,-2.7818081378936768,0.698058009147644,62.611087799072266,28.81,0
-0.4236469268798828,-1.0002235174179075,0.1194667518138885,-3.830855131149292,0.6978151202201843,62.66801834106445,28.81,0
-0.4006210267543793,-0.960959017276764,0.1046557575464248,-4.52915096282959,0.6976592540740967,62.70455551147461,28.81,0
-0.3802465498447418,-0.930163562297821,0.0895531401038169,-5.106249809265137,0.6975592374801636,62.72800064086914,28.81,0
-0.3783669471740722,-0.9104008078575134,0.0630678236484527,-5.723796367645264,0.6974950432777405,62.743045806884766,28.81,0
-0.3771606981754303,-0.8809248805046082,0.0404732972383499,-6.116519451141357,0.6974538564682007,62.75270080566406,28.81,0
-0.3707888424396515,-0.8620089292526245,0.0259734317660331,-6.114183902740479,0.6974273920059204,62.7588996887207,28.81,0
-0.3611019849777221,-0.8386741876602173,0.0222660284489393,-6.155675888061523,0.6974104046821594,62.76287841796875,28.81,0
-0.3548855185508728,-0.8628837466239929,0.0198868289589881,-6.683863639831543,0.6973994970321655,62.76543045043945,28.81,0
-0.3508961200714111,-0.9008111357688904,0.0239577703177928,-7.244943618774414,0.6973925232887268,62.767066955566406,28.81,0
-0.3371404111385345,-0.9027596712112428,0.020972492173314,-7.042548179626465,0.6973880529403687,62.76811981201172,28.81,0
-0.322715014219284,-0.9264011979103088,0.0134589383378624,-6.049262046813965,0.6973851919174194,62.76879501342773,28.81,0
-0.335848718881607,-1.0087462663650513,0.0198327209800481,-4.709642887115479,0.6964651346206665,62.76922607421875,28.81,0
-0.3666682839393616,-0.972026228904724,0.0519119203090667,-2.9686391353607178,0.6958746910095215,62.76950454711914,28.81,0
-0.3808487355709076,-0.9204725027084352,0.0724985003471374,-0.3574290871620178,0.6954957842826843,62.76968383789063,28.81,0
-0.3675578236579895,-0.8929860591888428,0.0857097879052162,3.281546831130981,0.6952525973320007,62.769798278808594,28.81,0
-0.3478329479694366,-0.8809446692466736,0.1109813526272773,7.44036340713501,0.6950965523719788,62.76987075805664,28.81,0
-0.3239791095256805,-0.9124016165733336,0.1216014102101326,10.764863014221191,0.6949964165687561,62.76991653442383,28.81,0
-0.3310621678829193,-0.9325888752937316,0.1564056277275085,11.676677703857422,0.6949321627616882,62.76994705200195,28.81,0
-0.3524009883403778,-0.9175549745559692,0.1899365186691284,10.13019561767578,0.6948909163475037,62.76996612548828,28.81,0
-0.3828883469104767,-0.8855159878730774,0.2002591639757156,8.062979698181152,0.6967008709907532,62.76997756958008,28.79,0
-0.4024533927440643,-0.8761507868766785,0.2068836390972137,7.108947277069092,0.6978623867034912,62.76998519897461,28.79,0
-0.4038135707378387,-0.8981295824050903,0.2167326211929321,6.804805755615234,0.6986078023910522,62.76998901367188,28.79,0
-0.4214797616004944,-0.968212068080902,0.2342486828565597,5.807127952575684,0.6990861296653748,62.76999282836914,28.79,0
-0.4384146928787231,-0.9796003103256226,0.2510872483253479,3.694437265396118,0.699393093585968,62.769996643066406,28.79,0
-0.4324892163276672,-0.942126452922821,0.2283066362142563,0.980837881565094,0.6995900869369507,62.769996643066406,28.79,0
-0.4118932783603668,-0.9292734265327454,0.1968940198421478,-1.6490728855133057,0.6997165083885193,62.769996643066406,28.79,0
-0.4154693186283111,-0.9602095484733582,0.1767352223396301,-3.695055723190308,0.6997976303100586,62.769996643066406,28.79,0
-0.41216641664505,-0.968867003917694,0.169396236538887,-5.065371036529541,0.697554349899292,63.25722885131836,28.79,0
-0.4100468158721924,-0.9520317912101746,0.1422954052686691,-6.141801834106445,0.696114718914032,63.56990432739258,28.79,0
-0.3862954676151275,-0.9244345426559448,0.1025125458836555,-7.21592903137207,0.6951908469200134,63.77056121826172,28.79,0
-0.3710532188415527,-0.9179198145866394,0.0601888783276081,-8.009137153625488,0.6945979595184326,63.89933013916016,28.79,0
-0.3332827687263489,-0.9361301064491272,-0.0005586619954556,-7.930629730224609,0.6942175030708313,63.98196792602539,28.79,0
-0.2978483140468597,-0.9142298102378844,-0.0395429395139217,-6.665754795074463,0.6939733624458313,64.03500366210938,28.79,0
-0.2639129757881164,-0.9001754522323608,-0.0701585784554481,-4.338601589202881,0.6938166618347168,64.06903839111328,28.79,0
-0.2309396713972091,-0.8911561369895935,-0.128990352153778,-1.6808315515518188,0.6937161087989807,64.09087371826172,28.79,0
-0.2097793072462082,-0.902161419391632,-0.1891362965106964,0.1429974287748336,0.6950287222862244,64.10488891601562,28.79,0
-0.1794064790010452,-0.9204195141792296,-0.2389300465583801,0.6578145027160645,0.695871114730835,64.11388397216797,28.79,0
-0.154317170381546,-0.9321364760398864,-0.2820803523063659,0.5582853555679321,0.696411669254303,64.11965942382812,28.79,0
-0.1494118422269821,-0.9564490914344788,-0.2985762059688568,0.4299269020557403,0.6967585682868958,64.12335968017578,28.79,0
-0.1518616676330566,-0.9608559608459472,-0.2867711782455444,0.0394523255527019,0.6969811916351318,64.12574005126953,28.79,0
-0.1646293699741363,-0.9580863118171692,-0.2847931683063507,-0.6697014570236206,0.6971240639686584,64.12726593017578,28.79,0
-0.1728229522705078,-0.9954932928085328,-0.2667304873466491,-1.303924322128296,0.697215735912323,64.12824249267578,28.79,0
-0.1612877994775772,-1.0027055740356443,-0.2439433336257934,-1.8506524562835691,0.6972745656967163,64.12886810302734,28.79,0
-0.1482874155044555,-1.0073341131210327,-0.2349176257848739,-2.570516347885132,0.6922627091407776,64.1292724609375,28.79,0
-0.1343467533588409,-1.0270977020263672,-0.2123321294784546,-3.28684663772583,0.6890463829040527,64.12953186035156,28.79,0
-0.1198026612401008,-1.0229874849319458,-0.1978380531072616,-3.664146900177002,0.6869823336601257,64.12969970703125,28.79,0
-0.0992735475301742,-0.9867631793022156,-0.1997321397066116,-3.820294618606568,0.6856577396392822,64.12980651855469,28.79,0
-0.0749035999178886,-0.9355276226997375,-0.212143212556839,-4.1390380859375,0.6848076581954956,64.12987518310547,28.79,0
-0.0256777182221412,-0.8858542442321777,-0.2201079130172729,-4.6552734375,0.6842621564865112,64.12992095947266,28.79,0
0.0171081647276878,-0.8427811861038208,-0.2252192050218582,-4.746531009674072,0.6839120984077454,64.12995147705078,28.79,0
0.0333701334893703,-0.8319327235221863,-0.2564882040023803,-3.62284517288208,0.6836874485015869,64.12996673583984,28.79,0
0.0438061282038688,-0.8137752413749695,-0.2933481633663177,-1.4042115211486816,0.6844614744186401,64.12997436523438,28.77,0
0.0840899944305419,-0.7853295207023621,-0.3337961137294769,0.761172890663147,0.6849582195281982,64.1299819946289,28.77,0
0.1099418625235557,-0.744683563709259,-0.359753280878067,1.953750491142273,0.685276985168457,64.12998962402344,28.77,0
0.126532107591629,-0.8081637620925903,-0.404399961233139,2.4718804359436035,0.6854815483093262,64.12998962402344,28.77,0
0.1427765488624572,-0.8880860805511475,-0.3770738840103149,3.259373426437378,0.6856128573417664,64.12998962402344,28.77,0
0.114016868174076,-0.8945934176445007,-0.3875264525413513,4.764279365539551,0.685697078704834,64.12998962402344,28.77,0
0.1571360826492309,-0.9323561191558838,-0.3438543379306793,6.471634864807129,0.6857511401176453,64.12998962402344,28.77,0
0.1456230878829956,-0.9509922862052916,-0.3102303147315979,7.406101226806641,0.6857858300209045,64.12998962402344,28.77,0
0.1326369345188141,-0.996538519859314,-0.3278367817401886,7.153134822845459,0.6844309568405151,64.57781219482422,28.77,0
0.1410964876413345,-1.0313652753829956,-0.3335378170013428,6.349514961242676,0.6835614442825317,64.86520385742188,28.77,0
0.0961453765630722,-0.9753462076187134,-0.3092075288295746,5.719155311584473,0.6830034852027893,65.04962921142578,28.77,0
0.0561027936637401,-0.9337986707687378,-0.3383759558200836,4.992195129394531,0.6826453804969788,65.16798400878906,28.77,0
0.013612444512546,-0.9183313846588136,-0.3403012454509735,3.5870392322540283,0.6824156045913696,65.24394226074219,28.77,0
-0.0080576399341225,-0.8972098231315613,-0.2687657177448272,1.846968173980713,0.6822681427001953,65.29268646240234,28.77,0
0.0340134911239147,-0.950828492641449,-0.1724783629179,0.6120657920837402,0.682173490524292,65.32396697998047,28.77,0
0.0218279007822275,-1.080399990081787,-0.2002510726451873,-0.0120424497872591,0.6821127533912659,65.34403991699219,28.77,0
0.0699856355786323,-1.4042558670043943,-0.4419849812984466,-0.5988531112670898,0.6839098930358887,65.35691833496094,28.77,0
0.0057283341884613,-1.416165828704834,-0.41238933801651,-1.5844722986221311,0.6850631833076477,65.36518859863281,28.77,0
-0.0019216592190787,-1.0039758682250977,-0.2758432924747467,-3.155620813369751,0.6858032941818237,65.37049102783203,28.77,0
-0.23633973300457,-0.8514115810394287,-0.2441936433315277,-5.299570083618164,0.686278223991394,65.37389373779297,28.77,0
-0.1684625595808029,-0.9494267106056212,-0.1623072028160095,-7.477930068969727,0.6865830421447754,65.37608337402344,28.77,0
-0.1696850955486297,-1.0347182750701904,-0.2441037744283676,-8.940362930297852,0.6867786645889282,65.37748718261719,28.77,0
-0.2096540629863739,-1.0782579183578491,-0.1846406161785125,-9.671077728271484,0.6869041919708252,65.37838745117188,28.77,0
-0.2576949596405029,-1.011036992073059,-0.1968605667352676,-10.40870189666748,0.6869847178459167,65.37896728515625,28.77,0
-0.3333070278167724,-1.04626727104187,-0.1711159795522689,-11.573504447937012,0.607621431350708,65.37933349609375,28.77,0
-0.3594394028186798,-1.0408872365951538,-0.1322034895420074,-12.70434284210205,0.5566906332969666,65.37957000732422,28.77,0
-0.3034385740756988,-1.132596731185913,-0.185600534081459,-13.039548873901367,0.524006187915802,65.37972259521484,28.77,0
-0.3458693325519562,-1.1746573448181152,-0.1750854849815368,-12.265873908996582,0.5030311942100525,65.37982177734375,28.77,0
-0.3675011694431305,-1.1232805252075195,-0.1179575622081756,-10.583541870117188,0.489570677280426,65.3798828125,28.77,0
-0.3645898997783661,-1.045527696609497,-0.0477095022797584,-8.432727813720703,0.4809324741363525,65.37992095947266,28.77,0
-0.3347327411174774,-0.995630383491516,-0.0250194370746612,-6.292953014373779,0.4753889739513397,65.37995147705078,28.77,0
-0.2763877213001251,-0.9692069888114928,-0.0720337778329849,-4.332226276397705,0.4718314707279205,65.37996673583984,28.77,0
-0.2781296670436859,-0.9578477144241332,0.0153483860194683,-2.321603775024414,0.5856626033782959,65.37997436523438,28.79,0
-0.3352252840995788,-0.9785468578338624,0.2057718187570572,-0.318369448184967,0.6587128639221191,65.3799819946289,28.79,0
-0.3662681877613067,-0.9526459574699402,0.2887901961803436,0.9170349836349488,0.7055923342704773,65.37998962402344,28.79,0
-0.3861897587776184,-0.9192309379577636,0.3532621562480926,0.6780646443367004,0.7356768846511841,65.37998962402344,28.79,0
-0.3989742696285248,-0.7746360301971436,0.4114298820495605,-0.7005336284637451,0.7549834251403809,65.37998962402344,28.79,0
-0.4967430233955383,-0.6482567191123962,0.4319652616977691,-1.9864870309829712,0.767373263835907,65.37998962402344,28.79,0
-0.5370942950248718,-0.5279693603515625,0.4899258613586426,-2.5394623279571533,0.7753243446350098,65.37998962402344,28.79,0
-0.5461961030960083,-0.3947980999946594,0.5495127439498901,-3.4460465908050537,0.7804268598556519,65.37998962402344,28.79,0
-0.7031770348548889,-0.3205319941043854,0.5709588527679443,-5.751059055328369,0.7722253203392029,65.82064819335938,28.79,0
-0.7367450594902039,-0.2280900776386261,0.7134705185890198,-7.620784282684326,0.7669620513916016,66.10343933105469,28.79,0
-0.7079070806503296,-0.112788438796997,0.7713396549224854,-6.062082767486572,0.7635843753814697,66.28491973876953,28.79,0
-0.6222272515296936,0.0339765846729278,0.7357056736946106,-1.7909064292907717,0.7614167928695679,66.40138244628906,28.79,0
-0.6176228523254395,0.2457152009010315,0.6344690322875977,1.379997730255127,0.7600257396697998,66.47611999511719,28.79,0
-0.569885790348053,-0.0270406827330589,1.1180830001831057,2.8452718257904053,0.7591330409049988,66.52408599853516,28.79,0
-0.6176197528839111,-0.0117553789168596,0.8070856928825378,6.32922887802124,0.7585601806640625,66.55486297607422,28.79,0
-0.8945547342300415,-0.1866727024316787,0.6242988705635071,13.032504081726074,0.7581925392150879,66.57461547851562,28.79,0
-0.5404871106147766,-0.3716956377029419,0.663734495639801,18.48070526123047,0.7630059123039246,66.58729553222656,28.79,0
-0.3692446053028106,-0.412063866853714,0.6834442019462585,19.110986709594727,0.7660948634147644,66.59542846679688,28.79,0
-0.5000553131103516,-0.3931876718997955,0.7352771759033203,17.88180923461914,0.7680771350860596,66.60064697265625,28.79,0
-0.5728065371513367,-0.3642807006835937,0.7797361612319946,20.17759323120117,0.7693492770195007,66.60399627685547,28.79,0
-0.56351637840271,-0.3737187385559082,0.8026695847511292,27.486909866333008,0.7701656818389893,66.60614776611328,28.79,0
-0.5071744918823242,-0.4021666347980499,0.7614092230796814,35.29444885253906,0.7706895470619202,66.60752868652344,28.79,0
-0.4262353479862213,-0.4316183924674988,0.7181373834609985,34.991920471191406,0.7710257768630981,66.60841369628906,28.79,0
-0.4134776592254638,-0.4505188465118408,0.7183568477630615,23.21530532836914,0.7712415456771851,66.6089859008789,28.79,0
-0.3605083227157593,-0.4346591830253601,0.7576821446418762,10.72812843322754,0.7791839241981506,66.6093521118164,28.79,0
-0.326515644788742,-0.4412747025489807,0.7381366491317749,10.442193031311035,0.7842808961868286,66.60958099365234,28.79,0
-0.1367678642272949,-0.3671513199806213,0.7367889881134033,15.406856536865234,0.7875518202781677,66.60973358154297,28.79,0
-0.1997252255678177,-0.381158709526062,0.7247285842895508,6.118363857269287,0.7896509170532227,66.60983276367188,28.79,0
-0.2513231933116913,-0.3453656733036041,0.7449778318405151,-19.457056045532227,0.7909979820251465,66.60989379882812,28.79,0
-0.4187823832035064,-0.3056024312973022,0.7131904363632202,-44.94813537597656,0.7918624877929688,66.60993194580078,28.79,0
-0.5598347187042236,-0.2576935589313507,0.6927911043167114,-61.69017791748047,0.7924172878265381,66.60995483398438,28.79,0
-0.8126894235610962,-0.1317862421274185,0.7020910978317261,-71.99002075195312,0.7927733063697815,66.60997009277344,28.79,0
-0.9133815169334412,-0.0789750516414642,0.6520815491676331,-72.48082733154297,0.7801485657691956,66.60997772216797,28.75,0
-1.0115865468978882,-0.0058994470164179,0.5136305689811707,-56.527320861816406,0.7720467448234558,66.6099853515625,28.75,0
-1.1753687858581543,0.035398494452238,0.6486916542053223,-27.79602432250977,0.7668474316596985,66.60999298095703,28.75,0
-1.1293349266052246,0.0507055893540382,0.6793883442878723,3.879684686660767,0.7635108232498169,66.60999298095703,28.75,0
-0.9038709402084352,-0.0010467151878401,0.6599032878875732,32.12482452392578,0.7613695859909058,66.60999298095703,28.75,0
-0.7983655333518982,-0.0398561432957649,0.6250078082084656,52.375396728515625,0.7599954605102539,66.60999298095703,28.75,0
-0.8538092970848083,-0.019979603588581,0.5914183855056763,61.92461013793945,0.759113609790802,66.60999298095703,28.75,0
-0.8837921023368835,0.0095693385228514,0.5082870721817017,64.96814727783203,0.7585477232933044,66.60999298095703,28.75,0
-0.880642294883728,0.0397276952862739,0.4493404328823089,69.425537109375,0.7191652655601501,67.0219955444336,28.75,0
-0.8786209225654602,0.0702771469950676,0.4339029490947723,78.75257873535156,0.6938918828964233,67.28639221191406,28.75,0
-0.92210590839386,0.0898820236325264,0.4463871717453003,91.70983123779295,0.6776728630065918,67.45606994628906,28.75,0
-0.9332187175750732,0.0576811097562313,0.4991810321807861,106.82119750976562,0.667264461517334,67.56495666503906,28.75,0
-0.8563836812973022,0.0538097396492958,0.538658857345581,122.62350463867188,0.6605849266052246,67.63483428955078,28.75,0
-0.7790865302085876,0.0177386701107025,0.5919823050498962,136.92030334472656,0.6562983989715576,67.67967987060547,28.75,0
-0.7574704885482788,0.0001881085918284,0.587017834186554,148.09066772460938,0.6535475850105286,67.70845794677734,28.75,0
-0.7659896612167358,-0.0054770573042333,0.5782341361045837,154.18438720703125,0.651782214641571,67.72692108154297,28.75,0
-0.7434679269790649,0.0076806880533695,0.6173794865608215,151.3489990234375,0.6974721550941467,67.73876953125,28.75,0
-0.7514058947563171,0.0385156720876693,0.6201096177101135,138.14039611816406,0.7267933487892151,67.74637603759766,28.75,0
-0.7117177844047546,0.0639015585184097,0.6498504877090454,119.70790100097656,0.7456099987030029,67.75125885009766,28.75,0
-0.6358683109283447,0.0578016638755798,0.7193164825439453,101.30496215820312,0.7576854228973389,67.75439453125,28.75,0
-0.581594705581665,0.0538871027529239,0.7582979798316956,81.54885864257812,0.765434741973877,67.75640106201172,28.75,0
-0.5635583400726318,0.0569727383553981,0.7777162790298462,59.36595916748047,0.7704077959060669,67.7576904296875,28.75,0
-0.5855702757835388,0.0309640485793352,0.8069711327552795,40.09673309326172,0.7735992074012756,67.7585220336914,28.75,0
-0.6108918190002441,0.0198709443211555,0.8089519143104553,27.150474548339844,0.7756472826004028,67.7590560913086,28.75,0
-0.6327394843101501,0.0127520281821489,0.7990275025367737,16.452733993530273,0.7893558740615845,67.75939178466797,28.75,0
-0.6579556465148926,0.0081835174933075,0.7870607972145081,4.457291126251221,0.798153281211853,67.75961303710938,28.75,0
-0.6629423499107361,0.0108494851738214,0.7849790453910828,-6.930746078491211,0.8037989735603333,67.75975036621094,28.75,0
-0.6381536722183228,0.0069625750184059,0.789240837097168,-15.084421157836914,0.8074220418930054,67.75984191894531,28.75,0
-0.622245728969574,0.0044681797735393,0.8031713962554932,-19.5073184967041,0.8097470998764038,67.75990295410156,28.75,0
-0.6288302540779114,0.0084651950746774,0.8009156584739685,-21.467947006225582,0.8112391829490662,67.75994110107422,28.75,0
-0.638653576374054,0.0054324748925864,0.7994680404663086,-24.30966567993164,0.8121967315673828,67.75996398925781,28.75,0
-0.6337620615959167,0.0034862495958805,0.8041368126869202,-31.15250396728516,0.8128112554550171,67.75997924804688,28.75,0
-0.6306229829788208,0.0078350491821765,0.7959374189376831,-41.315372467041016,0.8127467036247253,67.7599868774414,28.85,0
-0.6230107545852661,0.016223631799221,0.7906755208969116,-52.59139633178711,0.8127052783966064,67.75999450683594,28.85,0
-0.6237233877182007,0.0104113928973674,0.7928965091705322,-66.50562286376953,0.8126786947250366,67.75999450683594,28.85,0
-0.6297785043716431,0.0010836583096534,0.7943218350410461,-87.21806335449219,0.8126615881919861,67.75999450683594,28.85,0
-0.6336643695831299,0.0006954295095056,0.7896387577056885,-114.48931884765624,0.8126506209373474,67.75999450683594,28.85,0
-0.6305602788925171,0.000446286634542,0.7866334319114685,-140.5205535888672,0.8126435875892639,67.75999450683594,28.85,0
-0.6229705214500427,0.0114819500595331,0.790302574634552,-155.27699279785156,0.812639057636261,67.75999450683594,28.85,0
-0.6069042682647705,0.0185640025883913,0.792657196521759,-154.5006561279297,0.8126361966133118,67.75999450683594,28.85,0
-0.5909960865974426,0.0231088567525148,0.79416823387146,-142.3160858154297,0.8153886198997498,67.9892807006836,28.85,0
-0.5975804924964905,0.0260254833847284,0.78954017162323,-126.74403381347656,0.8171549439430237,68.13642120361328,28.85,0
-0.6074037551879883,0.0222994312644004,0.7921679019927979,-112.99624633789062,0.8182885050773621,68.23085021972656,28.85,0
-0.6137077212333679,0.0199082661420106,0.7938542366027832,-100.3905029296875,0.8190159201622009,68.29145050048828,28.85,0
-0.6121554970741272,0.018373753875494,0.7893386483192444,-85.46173095703125,0.8194827437400818,68.33033752441406,28.85,0
-0.6111593842506409,0.017388992011547,0.79203861951828,-67.54823303222656,0.8197823166847229,68.35529327392578,28.85,0
-0.6161178946495056,0.0167570281773805,0.7937712669372559,-49.62524032592773,0.8199746012687683,68.37130737304688,28.85,0
-0.6137021780014038,0.0163514707237482,0.7948831915855408,-34.42607879638672,0.8200979828834534,68.38158416748047,28.85,0
-0.6121519207954407,0.0160912070423364,0.7955967783927917,-22.999067306518555,0.8220131993293762,68.38818359375,28.85,0
-0.6111570596694946,0.01592418551445,0.7960547208786011,-16.471948623657227,0.8232423067092896,68.39241790771484,28.85,0
-0.6105186343193054,0.0158169995993375,0.7963485717773438,-15.33557415008545,0.8240310549736023,68.39513397216797,28.85,0
-0.6101089119911194,0.0157482139766216,0.7965371608734131,-17.415054321289062,0.8245372176170349,68.39688110351562,28.85,0
-0.6098459959030151,0.01570407114923,0.7966582179069519,-19.888803482055664,0.8248620629310608,68.39800262451172,28.85,0
-0.609677255153656,0.0156757440418005,0.7967358827590942,-22.32896614074707,0.8250705599784851,68.39871978759766,28.85,0
-0.6151667237281799,0.015657564625144,0.7967857122421265,-25.52499389648437,0.8252043128013611,68.39917755126953,28.85,0
-0.6186895966529846,0.0156458988785743,0.79121994972229,-28.99472045898437,0.8252902030944824,68.39947509765625,28.85,0
-0.6153525710105896,0.0156384110450744,0.7876481413841248,-31.275129318237305,0.8299356698989868,68.39966583251953,28.85,0
-0.6188088059425354,0.0156336072832345,0.7853559851646423,-31.1729793548584,0.8329168558120728,68.39978790283203,28.85,0
-0.621026873588562,0.0156305227428674,0.7894827723503113,-28.169713973999023,0.8348299860954285,68.39986419677734,28.85,0
-0.6168525218963623,0.0156285446137189,0.7921310663223267,-22.75296211242676,0.836057722568512,68.39990997314453,28.85,0
-0.6141736507415771,0.0156272742897272,0.7938306331634521,-16.349838256835938,0.8368456363677979,68.39994049072266,28.85,0
-0.6180522441864014,0.0156264603137969,0.7949212789535522,-10.445812225341797,0.8373512625694275,68.39996337890625,28.85,0
-0.6205413341522217,0.01562593691051,0.7956212162971497,-5.936849594116211,0.8376757502555847,68.39997863769531,28.85,0
-0.6165409088134766,0.0156256016343832,0.796070396900177,-3.025344133377075,0.8378840088844299,68.39998626708984,28.85,0
-0.6139736771583557,0.0156253855675458,0.7963586449623108,-1.2034810781478882,0.8430672883987427,68.39999389648438,28.89,0
-0.6179239153862,0.0156252477318048,0.7909458875656128,0.2666221261024475,0.8463935852050781,68.39999389648438,28.89,0
-0.6204589605331421,0.0156251583248376,0.7874722480773926,1.5396466255187988,0.848528265953064,68.39999389648438,28.89,0
-0.6220858097076416,0.0156251024454832,0.7908408641815186,2.0699944496154785,0.8498981595039368,68.39999389648438,28.89,0
-0.6175320744514465,0.0156250651925802,0.7930026650428772,1.489619255065918,0.850777268409729,68.39999389648438,28.89,0
-0.6146097183227539,0.0156250409781932,0.7943899631500244,0.0853859931230545,0.8513414263725281,68.39999389648438,28.89,0
-0.6183320879936218,0.015625026077032,0.7896824479103088,-1.6039366722106934,0.8517034649848938,68.39999389648438,28.89,0
-0.6151231527328491,0.0156250167638063,0.7922592163085938,-3.1501989364624023,0.8519358038902283,68.39999389648438,28.89,0
-0.6186615824699402,0.0156250111758708,0.7939128279685974,-4.3610382080078125,0.8566752672195435,68.61495208740234,28.89,0
-0.6153345704078674,0.0156250074505805,0.7893762588500977,-5.456934452056885,0.8597167730331421,68.75289916992188,28.89,0
-0.6187973022460938,0.0156250055879354,0.7920627593994141,-6.812246322631836,0.8616686463356018,68.84142303466797,28.89,0
-0.6210194826126099,0.0156250037252903,0.7881889939308167,-8.269550323486328,0.8629212379455566,68.89823150634766,28.89,0
-0.6224455237388611,0.0156250018626451,0.7857030630111694,-9.172520637512209,0.8637250661849976,68.9346923828125,28.89,0
-0.6177629232406616,0.0156250018626451,0.7841077446937561,-9.042645454406738,0.8642409443855286,68.95809173583984,28.89,0
-0.6147578954696655,0.0156250018626451,0.7830839157104492,-8.05290699005127,0.8645719885826111,68.97310638427734,28.89,0
-0.6128294467926025,0.0156250018626451,0.7880246639251709,-6.905441284179688,0.8647844195365906,68.98274230957031,28.89,0
-0.6115918755531311,0.0156250018626451,0.7911953926086426,-6.240715503692627,0.8718064427375793,68.98892211914062,28.89,0
-0.6163954138755798,0.0156250018626451,0.787632405757904,-5.832045555114746,0.876312792301178,68.99288940429688,28.89,0
-0.6194780468940735,0.0156250018626451,0.7853458523750305,-4.731462001800537,0.8792046904563904,68.99543762207031,28.89,0
-0.6214563250541687,0.0156250018626451,0.7894762754440308,-2.359273195266724,0.8810606002807617,68.9970703125,28.89,0
-0.6171280741691589,0.0156250018626451,0.7921269536018372,0.9364359378814696,0.8822515606880188,68.99812316894531,28.89,0
-0.6143504977226257,0.0156250018626451,0.7882301807403564,4.37340259552002,0.8830158710479736,68.99879455566406,28.89,0
-0.6181657910346985,0.0156250018626451,0.7857294678688049,7.23466157913208,0.8835063576698303,68.99922943115234,28.89,0
-0.6206141710281372,0.0156250018626451,0.7841246724128723,8.934714317321777,0.8838211297988892,68.99950408935547,28.89,0
-0.6165876388549805,0.0156250018626451,0.7830948233604431,9.19813632965088,0.8895317316055298,68.99967956542969,28.89,0
-0.6196014285087585,0.0156250018626451,0.7880316972732544,8.303159713745117,0.8931964635848999,68.99979400634766,28.89,0
-0.6215354800224304,0.0156250018626451,0.7856020927429199,6.815258979797363,0.8955482840538025,68.99987030029297,28.89,0
-0.6227766871452332,0.0156250018626451,0.7840428948402405,5.100903511047363,0.8970575332641602,68.99991607666016,28.89,0
-0.6235731840133667,0.0156250018626451,0.7886400818824768,3.388108730316162,0.8980260491371155,68.99994659423828,28.89,0
-0.6184865832328796,0.0156250018626451,0.7859925031661987,1.959338665008545,0.8986476063728333,68.99996948242188,28.89,0
-0.6208200454711914,0.0156250018626451,0.7842934727668762,0.8167339563369751,0.8990464806556702,68.9999771118164,28.89,0
-0.6223175525665283,0.0156250018626451,0.7888008952140808,-0.3428504467010498,0.8993024826049805,68.99998474121094,28.89,0
-0.6232785582542419,0.0156250018626451,0.7916935086250305,-1.4524277448654177,0.9035981893539428,68.99999237060547,28.81,0
-0.6182975172996521,0.0156250018626451,0.7879520654678345,-2.12866473197937,0.9063549041748048,68.99999237060547,28.81,0
-0.6151009798049927,0.0156250018626451,0.7855510115623474,-2.5053136348724365,0.9081240296363832,68.99999237060547,28.81,0
-0.6186473965644836,0.0156250018626451,0.7896079421043396,-3.159021377563477,0.90925931930542,68.99999237060547,28.81,0
-0.6209232807159424,0.0156250018626451,0.7922114133834839,-4.255640029907227,0.9099879264831544,68.99999237060547,28.81,0
-0.616786003112793,0.0156250018626451,0.7938821911811829,-5.317644119262695,0.9104554653167723,68.99999237060547,28.81,0
-0.6197287440299988,0.0156250018626451,0.7893565893173218,-5.562103271484375,0.9107555150985718,68.99999237060547,28.81,0
-0.6216171979904175,0.0156250018626451,0.7864523530006409,-4.3826823234558105,0.9109480977058412,68.99999237060547,28.81,0
-0.6172313094139099,0.0156250018626451,0.79018634557724,-1.9348220825195312,0.915662407875061,69.22211456298828,28.81,0
-0.6144167184829712,0.0156250018626451,0.7869848608970642,0.9007228016853333,0.9186877608299256,69.36466217041016,28.81,0
-0.6182082295417786,0.0156250018626451,0.7849302887916565,3.404684066772461,0.9206292629241944,69.45613861083984,28.81,0
-0.6206414103507996,0.0156250018626451,0.7892095446586609,5.402082920074463,0.9218751788139344,69.51484680175781,28.81,0
-0.6166051626205444,0.0156250018626451,0.7863579988479614,6.823619365692139,0.9226747751235962,69.55252075195312,28.81,0
-0.6196126937866211,0.0156250018626451,0.7845280170440674,7.370456695556641,0.9231879115104676,69.57669830322266,28.81,0
-0.621542751789093,0.0156250018626451,0.7833536267280579,6.861567497253418,0.9235171675682068,69.59220886230469,28.81,0
-0.6227813363075256,0.0156250018626451,0.7881977558135986,5.628600120544434,0.9237284660339355,69.60216522216797,28.81,0
-0.6179783940315247,0.0156250018626451,0.7913064360618591,4.285635948181152,0.925241231918335,69.60855865478516,28.81,0
-0.6204939484596252,0.0156250018626451,0.7933014035224915,3.1873486042022705,0.9262120127677916,69.61265563964844,28.81,0
-0.6221082806587219,0.0156250018626451,0.7889838814735413,2.349975824356079,0.926835000514984,69.61528778076172,28.81,0
-0.623144268989563,0.0156250018626451,0.791810929775238,1.6943731307983398,0.9272348284721376,69.61697387695312,28.81,0
-0.6182113289833069,0.0156250018626451,0.7936251759529114,1.0228646993637085,0.9274913668632508,69.61805725097656,28.81,0
-0.6150456666946411,0.0156250018626451,0.7947894334793091,0.11544681340456,0.9276560544967652,69.6187515258789,28.81,0
-0.6130141019821167,0.0156250018626451,0.7955365777015686,-0.9111211895942688,0.927761733531952,69.61920166015625,28.81,0
-0.6173081398010254,0.0156250018626451,0.7904183268547058,-1.8027808666229248,0.9278295040130616,69.61949157714844,28.81,0
-0.6200637817382812,0.0156250018626451,0.7927314639091492,-2.6436898708343506,0.9301680326461792,69.61967468261719,28.81,0
-0.6218321919441223,0.0156250018626451,0.7886181473731995,-3.552342176437378,0.931668758392334,69.61978912353516,28.81,0
-0.6173692941665649,0.0156250018626451,0.7915762066841125,-4.203531742095947,0.9326318502426147,69.61986541748047,28.81,0
-0.6201030611991882,0.0212227758020162,0.793474555015564,-4.101954460144043,0.9332498908042908,69.61991119384766,28.81,0
-0.6218574047088623,0.0192173309624195,0.7946928143501282,-2.9548301696777344,0.9336465001106262,69.61994171142578,28.81,0
-0.6173855066299438,0.0179303511977195,0.7954745888710022,-0.8035542964935303,0.9339010119438172,69.61996459960938,28.81,0
-0.6201134324073792,0.0171044413000345,0.7903785109519958,1.7700084447860718,0.9340643882751464,69.61997985839844,28.81,0
-0.6218640804290771,0.0165744200348854,0.7927059531211853,3.8729772567749023,0.9341692328453064,69.61998748779297,28.81,0
-0.6173897981643677,0.0162342824041843,0.794199526309967,5.190298557281494,0.9337775707244872,69.6199951171875,28.83,0
-0.6145184636116028,0.0160160027444362,0.7951580286026001,6.071505069732666,0.9335262179374696,69.6199951171875,28.83,0
-0.6182735562324524,0.0158759225159883,0.7901753783226013,6.586856842041016,0.9333649277687072,69.6199951171875,28.83,0
-0.6206833720207214,0.0157860275357961,0.7869777679443359,6.401689052581787,0.9332614541053772,69.6199951171875,28.83,0
-0.622229814529419,0.0157283376902341,0.7849257588386536,5.555595874786377,0.9331949949264526,69.6199951171875,28.83,0
-0.6176244616508484,0.015691315755248,0.7892066836357117,4.4680705070495605,0.9331523776054382,69.6199951171875,28.83,0
-0.6202667951583862,0.0156675577163696,0.7863561511039734,3.4047367572784424,0.9331250190734864,69.6199951171875,28.83,0
-0.6219624876976013,0.0156523119658231,0.7845268249511719,2.4500746726989746,0.9331074953079224,69.6199951171875,28.83,0
-0.6230506896972656,0.0156425274908542,0.7889506816864014,1.6260555982589722,0.9321780204772948,69.84211730957031,28.83,0
-0.6181512475013733,0.0156362485140562,0.7917896509170532,0.817806601524353,0.9315814971923828,69.98465728759766,28.83,0
-0.6150071024894714,0.0156322177499532,0.7936115264892578,-0.0304779596626758,0.9311987161636353,70.07613372802734,28.83,0
-0.6185871362686157,0.0156296323984861,0.7891829013824463,-0.8650467991828918,0.930953085422516,70.13484191894531,28.83,0
-0.6208845973014832,0.0156279727816581,0.7863408923149109,-1.6979788541793823,0.930795431137085,70.17251586914062,28.83,0
-0.6223589777946472,0.0156269073486328,0.7901148200035095,-2.583599090576172,0.9306942820549012,70.19669342041016,28.83,0
-0.617707371711731,0.015626223757863,0.7925366759300232,-3.4994490146636963,0.9306293725967408,70.21220397949219,28.83,0
-0.6147222518920898,0.0156257860362529,0.7940909266471863,-4.216161727905273,0.9305877089500428,70.22216033935547,28.83,0
-0.6184043288230896,0.0156255047768354,0.7894905805587769,-4.088563919067383,0.9305609464645386,70.22855377197266,28.83,0
-0.6207672953605652,0.0156253241002559,0.786538302898407,-2.4625890254974365,0.9305437803268432,70.23265075683594,28.83,0
-0.6166859269142151,0.0156252086162567,0.7902414798736572,0.3614082038402557,0.9305327534675598,70.23528289794922,28.83,0
-0.6196644902229309,0.0156251341104507,0.787020206451416,3.226963996887207,0.9305256605148317,70.23696899414062,28.83,0
-0.6215759515762329,0.0156250856816768,0.7849529981613159,5.219963550567627,0.9305211305618286,70.23805236816406,28.83,0
-0.6172048449516296,0.0156250558793544,0.78362637758255,6.237428188323975,0.9305182099342346,70.2387466430664,28.83,0
-0.6143997311592102,0.0156250353902578,0.7827750444412231,6.607354640960693,0.9305163621902466,70.23919677734375,28.83,0
-0.6181973814964294,0.0156250223517417,0.7822287082672119,6.500824928283691,0.9305151700973512,70.23948669433594,28.83,0
-0.6206344962120056,0.0156250149011611,0.7818780541419983,5.787596702575684,0.9309737086296082,70.23966979980469,28.83,0
-0.6166006922721863,0.0156250093132257,0.7816530466079712,4.477234840393066,0.9312679171562196,70.23978424072266,28.83,0
-0.6140120625495911,0.0156250055879354,0.787106454372406,2.998621702194214,0.931456744670868,70.23986053466797,28.83,0
-0.6123508214950562,0.0156250037252903,0.7906060814857483,1.831195831298828,0.9315779209136964,70.23990631103516,28.83,0
-0.6168825030326843,0.0156250018626451,0.7872542142868042,1.125,0.9316557049751282,70.23993682861328,28.83,0
-0.6197906732559204,0.0156250018626451,0.7851031422615051,0.7362905144691467,0.9317055940628052,70.23995971679688,28.83,0
-0.6216569542884827,0.0156250018626451,0.7893205285072327,0.3041278123855591,0.9317376017570496,70.23997497558594,28.83,0
-0.6228546500205994,0.0156250018626451,0.786429226398468,-0.467604786157608,0.9317581653594972,70.23998260498047,28.83,0
-0.623623251914978,0.0156250018626451,0.7845737338066101,-1.489496827125549,0.9308531284332277,70.239990234375,28.77,0
-0.6241164803504944,0.0156250018626451,0.7889807820320129,-2.510711193084717,0.930272340774536,70.239990234375,28.77,0
-0.6244329810142517,0.0156250018626451,0.7862111926078796,-3.542238235473633,0.9298996329307556,70.239990234375,28.77,0
-0.6246361136436462,0.0156250018626451,0.7900316119194031,-4.494401454925537,0.929660439491272,70.239990234375,28.77,0
-0.62476646900177,0.0156250018626451,0.7924833297729492,-4.664788246154785,0.9295069575309752,70.239990234375,28.77,0
-0.6248501539230347,0.0156250018626451,0.7884588837623596,-3.2622857093811035,0.9294084310531616,70.239990234375,28.77,0
-0.6249038577079773,0.0156250018626451,0.7914740443229675,-0.4169018566608429,0.9293452501296996,70.239990234375,28.77,0
-0.6193405389785767,0.0156250018626451,0.793408989906311,2.770480155944824,0.9293046593666076,70.239990234375,28.77,0
-0.6213681101799011,0.0156250018626451,0.7890529632568359,5.274528503417969,0.9260653853416444,70.44778442382812,28.77,0
-0.6226692795753479,0.0156250018626451,0.7918552756309509,6.88506555557251,0.9239866137504578,70.58113098144531,28.77,0
-0.6179065108299255,0.0156250018626451,0.7936536073684692,7.832633018493652,0.9226526021957396,70.66670989990234,28.77,0
-0.6204478144645691,0.0156250018626451,0.7948076725006104,8.118295669555664,0.9217965006828308,70.72162628173828,28.77,0
-0.6220786571502686,0.0156250018626451,0.7955483198165894,7.603015422821045,0.921247124671936,70.75686645507812,28.77,0
-0.6231252551078796,0.0156250018626451,0.7904258370399475,6.512832164764404,0.9208945631980896,70.77948760986328,28.77,0
-0.6181991100311279,0.0156250018626451,0.7871385216712952,5.351062774658203,0.9206683039665222,70.79399871826172,28.77,0
-0.6206355690956116,0.0156250018626451,0.7906267046928406,4.437125205993652,0.9205231070518494,70.80331420898438,28.77,0
-0.6221991777420044,0.0156250018626451,0.7872674465179443,3.8219521045684814,0.9199706315994264,70.80929565429688,28.77,0
-0.6176047921180725,0.0156250018626451,0.785111665725708,3.3161096572875977,0.9196161031723022,70.8131332397461,28.77,0
-0.6202541589736938,0.0156250018626451,0.7837281823158264,2.561579942703247,0.9193885922431946,70.81558990478516,28.77,0
-0.6219543814659119,0.0156250018626451,0.782840371131897,1.4145896434783936,0.9192425608634948,70.81716918945312,28.77,0
-0.6174477338790894,0.0156250018626451,0.782270610332489,0.1662090718746185,0.919148862361908,70.81818389892578,28.77,0
-0.6201533675193787,0.0156250018626451,0.7819049954414368,-0.8713797330856323,0.9190887212753296,70.81883239746094,28.77,0
-0.6218897104263306,0.0156250018626451,0.781670331954956,-1.802355170249939,0.91905015707016,70.81925201416016,28.77,0
-0.6230040192604065,0.0156250018626451,0.7815197706222534,-2.9515182971954346,0.9190253615379332,70.81951904296875,28.77,0
-0.618121325969696,0.0212227758020162,0.7814231514930725,-4.251449108123779,0.918091595172882,70.81969451904297,28.77,0
-0.6205856800079346,0.0192173309624195,0.7813611030578613,-4.971027851104736,0.9174923896789552,70.8198013305664,28.77,0
-0.62216717004776,0.0179303511977195,0.7813212871551514,-4.257727146148682,0.9171078205108644,70.81986999511719,28.77,0
-0.6231820583343506,0.0171044413000345,0.7812957763671875,-2.0194315910339355,0.916861057281494,70.81991577148438,28.77,0
-0.6238333582878113,0.0165744200348854,0.7868771553039551,0.8965811133384705,0.916702687740326,70.8199462890625,28.77,0
-0.6186535358428955,0.0162342824041843,0.7848612070083618,3.4271042346954346,0.916601061820984,70.8199691772461,28.77,0
-0.6209272146224976,0.0160160027444362,0.783567488193512,4.975814342498779,0.9165358543395996,70.81997680664062,28.77,0
-0.6223863363265991,0.0158759225159883,0.7827372550964355,5.45379638671875,0.9164940118789672,70.81998443603516,28.77,0
-0.6233227252960205,0.0213838014751672,0.7822044491767883,5.133586883544922,0.9146307110786438,70.81999206542969,28.79,0
-0.6239235997200012,0.0193206667900085,0.7874602675437927,4.433699607849121,0.9134349822998048,70.81999206542969,28.79,0
-0.624309241771698,0.0179966669529676,0.7852354049682617,3.558225631713867,0.9126676321029664,70.81999206542969,28.79,0
-0.6245567202568054,0.0171469990164041,0.7838075757026672,2.516331911087036,0.912175178527832,70.81999206542969,28.79,0
-0.6247155070304871,0.0166017320007085,0.7828913331031799,1.536020278930664,0.9118591547012328,70.81999206542969,28.79,0
-0.624817430973053,0.0162518098950386,0.7879011034965515,0.9319908022880554,0.9116563200950624,70.81999206542969,28.79,0
-0.6248828172683716,0.0160272512584924,0.7855182886123657,0.5837677121162415,0.9115261435508728,70.81999206542969,28.79,0
-0.6249247789382935,0.0158831421285867,0.7839891314506531,0.1023527905344963,0.9114426374435424,70.81999206542969,28.79,0
-0.6249517202377319,0.0157906599342823,0.783007800579071,-0.6150051951408386,0.9090940356254578,71.02061462402344,28.79,0
-0.619371235370636,0.0157313104718923,0.782378077507019,-1.462282419204712,0.9075868129730223,71.14936828613281,28.79,0
-0.6157900094985962,0.0156932231038808,0.7819739580154419,-2.446672916412353,0.9066196084022522,71.23199462890625,28.79,0
-0.6190895438194275,0.0156687814742326,0.787312388420105,-3.651610374450684,0.9059988856315612,71.28501892089844,28.79,0
-0.6212069988250732,0.015653096139431,0.7851405143737793,-4.958673477172852,0.9056005477905272,71.31904602050781,28.79,0
-0.6225658655166626,0.0156430304050445,0.7837467193603516,-5.973017692565918,0.9053449034690856,71.34088134765625,28.79,0
-0.6234379410743713,0.015636570751667,0.7828522324562073,-6.1224045753479,0.9051808714866638,71.35489654541016,28.79,0
-0.6239975690841675,0.0156324263662099,0.7822782397270203,-4.889137268066406,0.9050756096839904,71.3638916015625,28.79,0
-0.6243566870689392,0.0156297665089368,0.7875076532363892,-2.292079210281372,0.9040898084640504,71.36965942382812,28.79,0
-0.6189894080162048,0.015628058463335,0.7852658033370972,0.8792451620101929,0.9034572243690492,71.37335968017578,28.79,0
-0.6211427450180054,0.0156269632279872,0.7838271260261536,3.6595942974090576,0.903051257133484,71.37574005126953,28.79,0
-0.6169268488883972,0.0156262591481208,0.7885016202926636,5.5441741943359375,0.9027907252311708,71.37726593017578,28.79,0
-0.6142213344573975,0.0156258083879947,0.7859036922454834,6.502809047698975,0.9026235342025756,71.37824249267578,28.79,0
-0.6180828809738159,0.0156255196779966,0.784236490726471,6.720339775085449,0.90251624584198,71.37886810302734,28.79,0
-0.6205610036849976,0.0156253334134817,0.7831665873527527,6.347630023956299,0.9024474024772644,71.3792724609375,28.79,0
-0.6221513152122498,0.0212229881435632,0.788077712059021,5.384766101837158,0.9024031758308412,71.37953186035156,28.79,0
-0.6175740957260132,0.0192174669355154,0.7912294268608093,4.071835994720459,0.9005387425422668,71.37969970703125,28.79,0
-0.6146367192268372,0.0179304387420415,0.7932519912719727,3.0393965244293213,0.8993422389030457,71.37980651855469,28.79,0
-0.6183494329452515,0.017104497179389,0.7945499420166016,2.563130140304565,0.8985744118690491,71.37987518310547,28.79,0
-0.6263298392295837,0.0165744554251432,0.7897851467132568,2.235994338989258,0.8980816602706909,71.37992095947266,28.79,0
-0.625853419303894,0.0162343066185712,0.7923251390457153,1.6677998304367063,0.8977654576301575,71.37995147705078,28.79,0
-0.6199498772621155,0.0160160176455974,0.7883573770523071,0.8374305367469788,0.8975625038146973,71.37996673583984,28.79,0
-0.6217591166496277,0.015875931829214,0.7858111262321472,-0.1934306770563125,0.897432267665863,71.37997436523438,28.79,0
-0.6229202151298523,0.0157860331237316,0.7897748351097107,-1.2920522689819336,0.8973487019538879,71.3799819946289,28.79,0
-0.6180675625801086,0.0157283414155244,0.7867207527160645,-2.2478647232055664,0.8982129096984863,71.37998962402344,28.77,0
-0.6205511689186096,0.0156913194805383,0.7847608327865601,-3.129943370819092,0.8987675309181213,71.37998962402344,28.77,0
-0.6221449971199036,0.0156675595790147,0.7835030555725098,-4.276387691497803,0.8991234302520752,71.37998962402344,28.77,0
-0.6231678128242493,0.0156523119658231,0.7826958894729614,-5.631895542144775,0.8993518352508545,71.37998962402344,28.77,0
-0.6238241791725159,0.0156425274908542,0.7821778655052185,-6.344149112701416,0.8994984030723572,71.37998962402344,28.77,0
-0.6242454051971436,0.0156362485140562,0.7818454504013062,-5.472096920013428,0.8995924592018127,71.37998962402344,28.77,0
-0.6245157718658447,0.0156322177499532,0.781632125377655,-3.071020126342773,0.8996528387069702,71.37998962402344,28.77,0
-0.6246892213821411,0.0156296323984861,0.7870929837226868,-0.2153418511152267,0.8996915817260742,71.37998962402344,28.77,0
-0.6248005628585815,0.0156279727816581,0.784999668598175,2.115246057510376,0.8974214792251587,71.57703399658203,28.77,0
-0.6248720288276672,0.0156269073486328,0.7892540693283081,3.7076127529144287,0.8959646224975586,71.70348358154297,28.77,0
-0.6193200945854187,0.015626223757863,0.7919843196868896,4.725919723510742,0.8950297236442566,71.78463745117188,28.77,0
-0.6213549375534058,0.0156257860362529,0.7881386876106262,5.200281620025635,0.8944297432899475,71.83671569824219,28.77,0
-0.6226608157157898,0.0156255047768354,0.791268527507782,5.14644193649292,0.8940446972846985,71.87013244628906,28.77,0
-0.6234988570213318,0.0156253241002559,0.7932770848274231,4.732137680053711,0.8937976360321045,71.8915786743164,28.77,0
-0.6184388995170593,0.0156252086162567,0.7889682650566101,4.079343318939209,0.893639087677002,71.90534210205078,28.77,0
-0.6207894682884216,0.0156251341104507,0.786203145980835,3.1552741527557373,0.8935373425483704,71.91417694091797,28.77,0
-0.6222979426383972,0.0156250856816768,0.7844286561012268,2.182506561279297,0.8930127024650574,71.91984558105469,28.77,0
-0.6232659816741943,0.0156250558793544,0.7832898497581482,1.5439101457595823,0.892676055431366,71.9234848022461,28.77,0
-0.6238871812820435,0.0156250353902578,0.7881568074226379,1.130513072013855,0.8924599885940552,71.92581939697266,28.77,0
-0.624285876750946,0.0156250223517417,0.7856823801994324,0.4639701843261719,0.8923213481903076,71.92731475830078,28.77,0
-0.624541699886322,0.0156250149011611,0.7840944528579712,-0.5154953002929688,0.892232358455658,71.92827606201172,28.77,0
-0.6247059106826782,0.0156250093132257,0.7830753922462463,-1.5094826221466064,0.8921752572059631,71.92889404296875,28.77,0
-0.6248112916946411,0.0156250055879354,0.7880191802978516,-2.4160594940185547,0.8921386003494263,71.92929077148438,28.77,0
-0.6248788833618164,0.0156250037252903,0.791191816329956,-3.162647008895874,0.8921151161193848,71.9295425415039,28.77,0
-0.6249222755432129,0.0156250018626451,0.7876300811767578,-3.5092086791992188,0.8907228708267212,71.92970275878906,28.77,0
-0.624950110912323,0.0156250018626451,0.7853443622589111,-3.427093029022217,0.8898294568061829,71.9298095703125,28.77,0
-0.6249679923057556,0.0156250018626451,0.7838775515556335,-3.030468463897705,0.8892560601234436,71.92987823486328,28.77,0
-0.6193816661834717,0.0156250018626451,0.7829362154006958,-2.202725648880005,0.8888881206512451,71.92992401123047,28.77,0
-0.6213944554328918,0.0156250018626451,0.7823321223258972,-0.7830492258071899,0.888651967048645,71.9299545288086,28.77,0
-0.6226861476898193,0.0156250018626451,0.7875422239303589,1.123973369598389,0.888500452041626,71.92996978759766,28.77,0
-0.6179172992706299,0.0156250018626451,0.7852879762649536,3.2505998611450195,0.8884031772613525,71.92997741699219,28.77,0
-0.620454728603363,0.0156250018626451,0.7838413119316101,5.231549263000488,0.8883407711982727,71.92998504638672,28.77,0
-0.6220831274986267,0.0156250018626451,0.7885107398033142,6.617451190948486,0.8873828649520874,71.92999267578125,28.77,0
-0.6231281161308289,0.0156250018626451,0.7915073037147522,7.119925022125244,0.8867681622505188,71.92999267578125,28.77,0
-0.6237987279891968,0.0156250018626451,0.7878325581550598,6.77960729598999,0.8863736987113953,71.92999267578125,28.77,0
-0.6242290735244751,0.0156250018626451,0.7910720705986023,5.844695568084717,0.8861204981803894,71.92999267578125,28.77,0
-0.6245052814483643,0.0156250018626451,0.7875532507896423,4.632102966308594,0.8859580159187317,71.92999267578125,28.77,0
-0.6246825456619263,0.0156250018626451,0.7852950692176819,3.449099540710449,0.8858537673950195,71.92999267578125,28.77,0
-0.6247962713241577,0.0156250018626451,0.7894436717033386,2.532282829284668,0.8857868909835815,71.92999267578125,28.77,0
-0.6248692870140076,0.0156250018626451,0.7865082025527954,1.9940786361694336,0.8857439756393433,71.92999267578125,28.77,0
-0.624916136264801,0.0156250018626451,0.7846243977546692,1.6952636241912842,0.8847981691360474,72.11628723144531,28.77,0
-0.6249461770057678,0.0156250018626451,0.7890132665634155,1.216895341873169,0.8841912150382996,72.23583984375,28.77,0
-0.624965488910675,0.0156250018626451,0.7918297648429871,0.1898084580898285,0.8838016986846924,72.31256103515625,28.77,0
-0.6249778270721436,0.0156250018626451,0.78803950548172,-1.1965796947479248,0.8835517764091492,72.36180114746094,28.77,0
-0.6249857544898987,0.0156250018626451,0.785607099533081,-2.337064027786255,0.8833913803100586,72.39339447021484,28.77,0
-0.6249908804893494,0.0156250018626451,0.7896438837051392,-3.061796188354492,0.8832884430885315,72.4136734008789,28.77,0
-0.6193963885307312,0.0156250018626451,0.792234480381012,-3.8887276649475098,0.8832224011421204,72.42668914794922,28.77,0
-0.6214039325714111,0.0156250018626451,0.7882992029190063,-5.1896586418151855,0.8831800222396851,72.4350357055664,28.77,0
-0.6226922273635864,0.0156250018626451,0.785773754119873,-6.561907768249512,0.8836117386817932,72.44039916992188,28.77,0
-0.6235190033912659,0.0156250018626451,0.7841531038284302,-7.159514427185059,0.8838887810707092,72.44384002685547,28.77,0
-0.6240496039390564,0.0156250018626451,0.7831130623817444,-6.332113265991211,0.8840665221214294,72.446044921875,28.77,0
-0.6243900656700134,0.0156250018626451,0.7824456095695496,-4.04209041595459,0.8841806054115295,72.44746398925781,28.77,0
-0.6190108060836792,0.0156250018626451,0.7876150608062744,-0.938831090927124,0.8842537999153137,72.44837188720703,28.77,0
-0.6155586838722229,0.0156250018626451,0.7909324765205383,2.05578351020813,0.8843008279800415,72.4489517211914,28.77,0
-0.6189411282539368,0.0212227758020162,0.7874636650085449,4.335812091827393,0.8843309879302979,72.44932556152344,28.77,0
-0.6211117506027222,0.0192173309624195,0.7908353209495544,5.773925304412842,0.8843503594398499,72.44956970214844,28.77,0
-0.616907000541687,0.0179303511977195,0.7929990887641907,6.417382717132568,0.8829856514930725,72.44972229003906,28.77,0
-0.6198063492774963,0.0171044413000345,0.7887898683547974,6.271434783935547,0.8821098208427429,72.44982147216797,28.77,0
-0.6216670274734497,0.0165744200348854,0.7860886454582214,5.461258888244629,0.8815478086471558,72.44988250732422,28.77,0
-0.6228610873222351,0.0162342824041843,0.7899529337882996,4.303636074066162,0.8811871409416199,72.44992065429688,28.77,0
-0.6236273646354675,0.0160160027444362,0.7924328446388245,3.1200835704803467,0.8809556365013123,72.449951171875,28.77,0
-0.6241191029548645,0.0158759225159883,0.7884265184402466,2.1491756439208984,0.880807101726532,72.44996643066406,28.77,0
-0.6244347095489502,0.0157860275357961,0.7858554720878601,1.5547634363174438,0.8807117938995361,72.4499740600586,28.77,0
-0.624637246131897,0.0157283376902341,0.7842055559158325,1.216294765472412,0.8806506395339966,72.44998168945312,28.77,0
-0.6247671842575073,0.0212890896946191,0.7887445092201233,0.7662177085876465,0.8801524043083191,72.44998931884766,28.75,0
-0.6248505711555481,0.0192598868161439,0.7916573286056519,0.0474750399589538,0.8798326849937439,72.44998931884766,28.75,0
-0.6249040961265564,0.0179576613008976,0.7879288196563721,-0.7899430990219116,0.879627525806427,72.44998931884766,28.75,0
-0.624938428401947,0.0171219669282436,0.7855361104011536,-1.6282861232757568,0.8794958591461182,72.44998931884766,28.75,0
-0.6249604821205139,0.0165856666862964,0.78400057554245,-2.477970600128174,0.8794113397598267,72.44998931884766,28.75,0
-0.6249746680259705,0.0162415001541376,0.7830151319503784,-3.4567408561706543,0.879357099533081,72.44998931884766,28.75,0
-0.6249837279319763,0.0160206351429224,0.7823827862739563,-4.797791481018066,0.8793222904205322,72.44998931884766,28.75,0
-0.6249895691871643,0.0158788952976465,0.7875747084617615,-6.374916076660156,0.8792999982833862,72.44998931884766,28.75,0
-0.6249933242797852,0.0157879348844289,0.785308837890625,-7.218642711639404,0.8779085278511047,72.62195587158203,28.75,0
-0.6249957084655762,0.0157295614480972,0.7838547229766846,-6.298407077789307,0.8770155310630798,72.73231506347656,28.75,0
-0.6249972581863403,0.015692101791501,0.7885193228721619,-3.848495960235596,0.8764424920082092,72.80313873291016,28.75,0
-0.6249982118606567,0.015668062493205,0.7859150171279907,-1.1083645820617676,0.8760747313499451,72.84858703613281,28.75,0
-0.6249988675117493,0.0156526342034339,0.7842437624931335,1.180315375328064,0.8758387565612793,72.87775421142578,28.75,0
-0.6249992847442627,0.0156427342444658,0.7831712365150452,3.15420150756836,0.875687301158905,72.89646911621094,28.75,0
-0.6249995231628418,0.0212341547012329,0.782482922077179,4.847254753112793,0.8755900859832764,72.90848541259766,28.75,0
-0.6194019317626953,0.0192246325314044,0.7876390218734741,5.897933006286621,0.8755277395248413,72.91619110107422,28.75,0
-0.6214075088500977,0.017935037612915,0.7853500843048096,6.203192234039307,0.8759466409683228,72.92113494873047,28.75,0
-0.6282923221588135,0.0171074494719505,0.7838811874389648,5.962016105651856,0.8762154579162598,72.92430877685547,28.75,0
-0.6271128058433533,0.0165763515979051,0.7885363101959229,5.212535381317139,0.8763879537582397,72.92634582519531,28.75,0
-0.6207581162452698,0.0162355229258537,0.7915236949920654,4.068785667419434,0.8764986991882324,72.92765808105469,28.75,0
-0.6222777962684631,0.0160167980939149,0.7878430485725403,3.0446040630340576,0.8765697479248047,72.92849731445312,28.75,0
-0.6232530474662781,0.0158764328807592,0.7854810357093811,2.512733459472656,0.8766153454780579,72.92903900146484,28.75,0
-0.6238788962364197,0.0157863553613424,0.7839652299880981,2.114088296890259,0.8766446113586426,72.92938232421875,28.75,0
-0.6186827421188354,0.015728548169136,0.7829924821853638,1.2384752035140991,0.8766633868217468,72.92960357666016,28.75,0
-0.620945930480957,0.021289225667715,0.7879660129547119,-0.1725132912397384,0.875298261642456,72.92974853515625,28.75,0
-0.622398316860199,0.019259974360466,0.7911577224731445,-1.6082255840301514,0.8744221925735474,72.92984008789062,28.75,0
-0.6233304142951965,0.017957717180252,0.7876082062721252,-2.6334779262542725,0.8738600015640259,72.92990112304688,28.75,0
-0.6239285469055176,0.0171220041811466,0.7853303551673889,-3.320086479187012,0.8734992146492004,72.92993927001953,28.75,0
-0.6243124008178711,0.0165856909006834,0.7838685512542725,-4.115387439727783,0.8732677102088928,72.92996215820312,28.75,0
-0.618960976600647,0.0162415169179439,0.7829304337501526,-5.338698387145996,0.8731191158294678,72.92997741699219,28.75,0
-0.6211245059967041,0.0160206444561481,0.7823284268379211,-6.696960926055908,0.8730237483978271,72.92998504638672,28.75,0
-0.622512936592102,0.0158789027482271,0.7819420695304871,-7.321417808532715,0.8729625940322876,72.92999267578125,28.75,0
-0.6234039664268494,0.0157879404723644,0.7816941142082214,-6.532742977142334,0.8729233145713806,72.92999267578125,28.75,0
-0.6239757537841797,0.0157295651733875,0.7815350294113159,-4.507605075836182,0.8728981018066406,72.92999267578125,28.75,0
-0.624342679977417,0.0156921036541461,0.7814329266548157,-1.9719995260238647,0.8728819489479065,72.92999267578125,28.75,0
-0.6245781779289246,0.015668062493205,0.7813674211502075,0.5544326305389404,0.8728715777397156,72.92999267578125,28.75,0
-0.6191315054893494,0.0156526342034339,0.7869231104850769,2.8743538856506348,0.8728649020195007,72.92999267578125,28.75,0
-0.6212339401245117,0.0156427342444658,0.7848906517028809,4.732151031494141,0.8728606104850769,72.92999267578125,28.75,0
-0.6225831508636475,0.0156363807618618,0.7835863828659058,5.770327568054199,0.8728578686714172,72.92999267578125,28.75,0
-0.6234490275382996,0.0212300773710012,0.7883471250534058,5.938591003417969,0.8728561401367188,72.92999267578125,28.75,0
-0.6184068918228149,0.0192220155149698,0.7858045101165771,5.65248966217041,0.8737732172012329,73.09479522705078,28.75,0
-0.6263666749000549,0.0179333575069904,0.7841728329658508,5.343496322631836,0.8743617534637451,73.20055389404297,28.75,0
-0.6258770823478699,0.0171063710004091,0.7887234687805176,4.991151332855225,0.8747394680976868,73.26842498779297,28.75,0
-0.6199650764465332,0.0165756586939096,0.7916437983512878,4.36737060546875,0.8749818205833435,73.31198120117188,28.75,0
-0.6217688918113708,0.016235077753663,0.7879201173782349,3.5980589389801025,0.8751373887062073,73.33993530273438,28.75,0
-0.6229264736175537,0.0160165131092071,0.7855305075645447,3.01121187210083,0.8752371668815613,73.35787200927734,28.75,0
-0.6236693263053894,0.0158762503415346,0.7839969992637634,2.5127997398376465,0.8753012418746948,73.369384765625,28.75,0
-0.624146044254303,0.015786238014698,0.783012866973877,1.6591438055038452,0.8753423690795898,73.37677001953125,28.75,0
-0.6244519948959351,0.01572847366333,0.7879790663719177,0.3374801874160766,0.8749098181724548,73.38150787353516,28.75,0
-0.6246483325958252,0.01569140329957,0.7911661267280579,-1.087482213973999,0.8746322393417358,73.38455200195312,28.75,0
-0.6247743368148804,0.0156676135957241,0.787613570690155,-2.342285633087158,0.8744540810585022,73.38650512695312,28.75,0
-0.6248551607131958,0.015652347356081,0.7909315228462219,-3.5058038234710693,0.874339759349823,73.38775634765625,28.75,0
-0.6249070763587952,0.015642549842596,0.7874630689620972,-4.743295669555664,0.8742663860321045,73.38855743408203,28.75,0
-0.6249403953552246,0.0156362615525722,0.785237193107605,-6.121406555175781,0.8742192983627319,73.38907623291016,28.75,0
-0.6249617338180542,0.015632227063179,0.7838087677955627,-7.439290523529053,0.8741890788078308,73.389404296875,28.75,0
-0.6249754428863525,0.0156296379864215,0.7828920483589172,-8.016339302062988,0.8741697072982788,73.38961791992188,28.75,0
-0.6193864941596985,0.0156279765069484,0.7823037505149841,-7.093346118927002,0.8736979961395264,73.38975524902344,28.75,0
-0.6213975548744202,0.0212246850132942,0.7819262146949768,-4.716899871826172,0.8733952641487122,73.38983917236328,28.75,0
-0.6226881742477417,0.0192185547202825,0.7816839814186096,-1.8268718719482424,0.8732010126113892,73.38990020751953,28.75,0
-0.6235163807868958,0.0179311372339725,0.7815285325050354,0.6941406726837158,0.873076319694519,73.38993835449219,28.75,0
-0.6240478754043579,0.0171049460768699,0.7814287543296814,2.695317029953003,0.8729963302612305,73.38996124267578,28.75,0
-0.6243889927864075,0.0165747441351413,0.7869625091552734,4.402300834655762,0.8729449510574341,73.38997650146484,28.75,0
-0.6246078610420227,0.0218322649598121,0.7905137538909912,5.752107620239258,0.8729119896888733,73.38998413085938,28.75,0
-0.6247483491897583,0.0196084659546613,0.7927927374839783,6.371138095855713,0.872890830039978,73.3899917602539,28.75,0
-0.6248385310173035,0.0181813593953847,0.794255256652832,6.195184230804443,0.8724183440208435,73.3899917602539,28.73,0
-0.6248964071273804,0.0172655247151851,0.7895960211753845,5.677435874938965,0.8721151351928711,73.3899917602539,28.73,0
-0.6249335408210754,0.0166777949780225,0.7922037839889526,5.212619781494141,0.8719205856323242,73.3899917602539,28.73,0
-0.61935955286026,0.0163006223738193,0.7938773036003113,4.81759786605835,0.8717957139015198,73.3899917602539,28.73,0
-0.6213802695274353,0.016058575361967,0.7893534898757935,4.384966850280762,0.8717155456542969,73.3899917602539,28.73,0
-0.6226770877838135,0.0159032437950372,0.7864503264427185,3.885209321975708,0.8716641068458557,73.3899917602539,28.73,0
-0.6235092878341675,0.0158035606145858,0.7901850342750549,3.224149227142334,0.8716310858726501,73.3899917602539,28.73,0
-0.624043345451355,0.0157395899295806,0.7869839668273926,2.2267067432403564,0.8716099262237549,73.3899917602539,28.73,0
-0.6243860721588135,0.0156985372304916,0.7905275225639343,0.8414297699928284,0.8715963363647461,73.52255249023438,28.73,0
-0.6246060132980347,0.0156721919775009,0.7872037887573242,-0.71033775806427,0.8715876340866089,73.60762023925781,28.73,0
-0.6247471570968628,0.0156552847474813,0.7850707769393921,-2.111003875732422,0.87158203125,73.6622085571289,28.73,0
-0.6248377561569214,0.015644434839487,0.789299726486206,-3.224825143814087,0.8715784549713135,73.6972427368164,28.73,0
-0.6248958706855774,0.0156374722719192,0.7920136451721191,-4.229800224304199,0.8715761303901672,73.7197265625,28.73,0
-0.6249331831932068,0.0156330037862062,0.7937552332878113,-5.426452159881592,0.8715746402740479,73.7341537475586,28.73,0
-0.6249571442604065,0.0156301371753215,0.7892751097679138,-6.817762851715088,0.8715736865997314,73.74341583251953,28.73,0
-0.6249725222587585,0.0156282968819141,0.7864000797271729,-7.796607494354248,0.8715730905532837,73.74935913085938,28.73,0
-0.6249823570251465,0.0156271159648895,0.7845550179481506,-7.428817749023437,0.8692773580551147,73.753173828125,28.73,0
-0.6249886751174927,0.0156263578683137,0.7889687418937683,-5.308356761932373,0.8678040504455566,73.75562286376953,28.73,0
-0.6249927282333374,0.0156258717179298,0.7862034440040588,-2.04521918296814,0.8668586015701294,73.75719451904297,28.73,0
-0.6249953508377075,0.0156255587935447,0.7844288349151611,1.1952990293502808,0.8662518262863159,73.7582015991211,28.73,0
-0.6193992495536804,0.0156253594905138,0.7888877391815186,3.5793960094451904,0.8658624887466431,73.75885009765625,28.73,0
-0.6158080101013184,0.0156252309679985,0.7917492389678955,5.037720680236816,0.8656126260757446,73.75926208496094,28.73,0
-0.6246988773345947,0.0156251490116119,0.7879878282546997,5.866112232208252,0.865452229976654,73.75952911376953,28.73,0
-0.6248067617416382,0.0156250949949026,0.7855739593505859,6.222179889678955,0.8653493523597717,73.75969696044922,28.73,0
-0.6192781925201416,0.0156250614672899,0.7840248942375183,6.167660236358643,0.866660475730896,73.75980377197266,28.73,0
-0.6213280558586121,0.0156250391155481,0.7830307483673096,5.874727249145508,0.8675018548965454,73.75987243652344,28.73,0
-0.6226435303688049,0.0156250242143869,0.7879905700683594,5.464620113372803,0.8680418133735657,73.75991821289062,28.73,0
-0.6178900003433228,0.0156250149011611,0.7911734580993652,4.8646745681762695,0.868388295173645,73.75994873046875,28.73,0
-0.6204372048377991,0.0156250093132257,0.7876182794570923,4.089163780212402,0.868610680103302,73.75997161865234,28.73,0
-0.6220718622207642,0.0156250055879354,0.7853367924690247,3.3299572467803955,0.8687533736228943,73.75997924804688,28.73,0
-0.623120903968811,0.0156250037252903,0.783872663974762,2.6027097702026367,0.8688449859619141,73.7599868774414,28.73,0
-0.6181963086128235,0.0156250018626451,0.7829330563545227,1.6631041765213013,0.8689037561416626,73.75999450683594,28.73,0
-0.6206337809562683,0.0156250018626451,0.7879278659820557,0.4582466185092926,0.8680235743522644,73.75999450683594,28.73,0
-0.6221979856491089,0.0156250018626451,0.785535454750061,-0.7842789888381958,0.8674587607383728,73.75999450683594,28.73,0
-0.623201847076416,0.0156250018626451,0.7840001583099365,-1.9363354444503784,0.8670963048934937,73.75999450683594,28.73,0
-0.6238460540771484,0.0156250018626451,0.7830148935317993,-3.0267512798309326,0.8668636679649353,73.75999450683594,28.73,0
-0.6242594718933105,0.0156250018626451,0.7879803776741028,-4.095522880554199,0.866714358329773,73.75999450683594,28.73,0
-0.6245247721672058,0.0156250018626451,0.7855691909790039,-5.300872325897217,0.8666185736656189,73.75999450683594,28.73,0
-0.6246950030326843,0.0156250018626451,0.78402179479599,-6.737172603607178,0.8665571212768555,73.75999450683594,28.73,0
-0.6248042583465576,0.0156250018626451,0.783028781414032,-7.823706150054932,0.8665176630020142,73.75999450683594,28.73,0
-0.6248744130134583,0.0156250018626451,0.7823915481567383,-7.568015575408935,0.8669512867927551,73.9068832397461,28.73,0
-0.6249194145202637,0.0156250018626451,0.7819826006889343,-5.720117568969727,0.8672295212745667,74.00114440917969,28.73,0
-0.624948263168335,0.0156250018626451,0.7817201614379883,-3.0044829845428467,0.8674080967903137,74.06163787841797,28.73,0
-0.6249668002128601,0.0156250018626451,0.781551718711853,-0.1977201551198959,0.8675227165222168,74.10045623779297,28.73,0
-0.6249787211418152,0.0156250018626451,0.787041425704956,2.345091819763184,0.8675962686538696,74.12537384033203,28.73,0
-0.6249863505363464,0.0156250018626451,0.7905643582344055,4.317266941070557,0.8676434755325317,74.141357421875,28.73,0
-0.624991238117218,0.0156250018626451,0.7872273921966553,5.407349109649658,0.8676737546920776,74.15161895751953,28.73,0
-0.6249943971633911,0.0156250018626451,0.785085916519165,5.694904804229736,0.8676931858062744,74.158203125,28.73,0
-0.6249964237213135,0.0156250018626451,0.7893094420433044,5.646574020385742,0.8667874336242676,74.16242980957031,28.73,0
-0.6249976754188538,0.0156250018626451,0.786422073841095,5.504498481750488,0.866206169128418,74.1651382446289,28.73,0
-0.6249985098838806,0.0156250018626451,0.7845691442489624,5.065812587738037,0.8658331632614136,74.16687774658203,28.73,0
-0.6249990463256836,0.0156250018626451,0.7889778017997742,4.2110772132873535,0.8655937910079956,74.16799926757812,28.73,0
-0.6249994039535522,0.0212227758020162,0.7862092852592468,3.272056579589844,0.8654401898384094,74.16871643066406,28.73,0
-0.6249996423721313,0.0192173309624195,0.784432590007782,2.5655524730682373,0.8653416037559509,74.16917419433594,28.73,0
-0.6249997615814209,0.0179303511977195,0.7832924127578735,1.879291296005249,0.8652783036231995,74.16947174072266,28.73,0
-0.6249998211860657,0.0171044413000345,0.7825607061386108,0.7940248250961304,0.8652377128601074,74.16966247558594,28.73,0
-0.6249998807907104,0.0165744200348854,0.7820911407470703,-0.608204185962677,0.865670919418335,74.16978454589844,28.73,0
-0.6249999403953552,0.0162342824041843,0.7873875498771667,-1.884244561195373,0.8659489750862122,74.16986083984375,28.73,0
-0.6249999403953552,0.0160160027444362,0.7907865047454834,-2.9037580490112305,0.8661273717880249,74.16990661621094,28.73,0
-0.6249999403953552,0.0158759225159883,0.787369966506958,-3.848211765289306,0.8662418723106384,74.16993713378906,28.73,0
-0.6249999403953552,0.0213838014751672,0.78517746925354,-4.851973533630371,0.8663153648376465,74.16996002197266,28.73,0
-0.6249999403953552,0.0249184425920248,0.7837704420089722,-6.072925090789795,0.8663625121116638,74.16997528076172,28.73,0
-0.6249999403953552,0.021588996052742,0.7828674912452698,-7.515655040740967,0.8663927912712097,74.16998291015625,28.73,0
-0.6249999403953552,0.0194523502141237,0.7878857851028442,-8.455846786499023,0.8664122223854065,74.16999053955078,28.73,0
-0.6249999403953552,0.0180811733007431,0.7855084538459778,-7.866209506988525,0.8645882606506348,74.16999053955078,28.73,0
-0.6249999403953552,0.017201229929924,0.7839828133583069,-5.682196140289307,0.8634177446365356,74.16999053955078,28.73,0
-0.6249999403953552,0.0166365336626768,0.7830037474632263,-2.8690874576568604,0.8626665472984314,74.16999053955078,28.73,0
-0.6249999403953552,0.016274144873023,0.7823754549026489,-0.1789000481367111,0.862184464931488,74.16999053955078,28.73,0
-0.6249999403953552,0.0216393582522869,0.7819722294807434,2.289100646972656,0.8618751168251038,74.16999053955078,28.73,0
-0.6249999403953552,0.019484668970108,0.7817134857177734,4.485541820526123,0.8616765737533569,74.16999053955078,28.73,0
-0.6249999403953552,0.0181019138544797,0.7815474271774292,6.102880477905273,0.8615491986274719,74.16999053955078,28.73,0
-0.6249999403953552,0.0228123143315315,0.7814408540725708,6.922258377075195,0.8614674210548401,74.16999053955078,28.73,0
-0.6249999403953552,0.0202374048531055,0.7869702577590942,7.003848552703857,0.8618742823600769,74.3061294555664,28.73,0
-0.6249999403953552,0.0185849759727716,0.7905187010765076,6.583308219909668,0.8621353507041931,74.39350128173828,28.73,0
-0.6249999403953552,0.017524542286992,0.7871981263160706,5.922928810119629,0.8623028993606567,74.44956970214844,28.73,0
-0.6249999403953552,0.0168440174311399,0.7850671410560608,5.234025001525879,0.8624104261398315,74.48554992675781,28.73,0
-0.6249999403953552,0.0164072960615158,0.7892974019050598,4.65937089920044,0.8624794483184814,74.5086441040039,28.73,0
-0.6194021701812744,0.0161270331591367,0.786414384841919,4.269095420837402,0.8625237345695496,74.5234603881836,28.73,0
-0.6214076280593872,0.015947176143527,0.784564197063446,3.9147446155548096,0.8625521063804626,74.53296661376953,28.73,0
-0.6226946115493774,0.0158317536115646,0.7833768725395203,3.2574334144592285,0.8625703454017639,74.53907012939453,28.73,0
-0.62352055311203,0.0157576818019151,0.7826148867607117,2.101181030273437,0.864418089389801,74.54298400878906,28.73,0
-0.618452787399292,0.0157101470977067,0.7877236604690552,0.5172595977783203,0.8656038641929626,74.54550170898438,28.73,0
-0.6207983493804932,0.0212774164974689,0.7910022139549255,-1.2228904962539673,0.8663648366928101,74.54711151123047,28.73,0
-0.6223036050796509,0.0248501691967248,0.7875084280967712,-2.8268487453460693,0.8668531775474548,74.54814910888672,28.73,0
-0.6232696175575256,0.0215451829135417,0.7852662801742554,-4.307581424713135,0.8671665787696838,74.54881286621094,28.73,0
-0.6238895654678345,0.0194242317229509,0.7838274240493774,-5.988676071166992,0.867367684841156,74.54924011230469,28.73,0
-0.6242873668670654,0.0180631279945373,0.7829040288925171,-7.866419792175293,0.8674967885017395,74.54951477050781,28.73,0
-0.6245426535606384,0.0171896498650312,0.7823114395141602,-9.21833324432373,0.8675796389579773,74.54969024658203,28.73,0
-0.624706506729126,0.0166291017085313,0.7819311618804932,-9.22251319885254,0.866714596748352,74.5498046875,28.73,0
-0.6248116493225098,0.0162693746387958,0.7816871404647827,-7.695435523986816,0.8661594390869141,74.54987335205078,28.73,0
-0.6248791217803955,0.0216362960636615,0.7815305590629578,-5.081790447235107,0.8658031821250916,74.54991912841797,28.73,0
-0.6249224543571472,0.0194827038794755,0.7814300656318665,-2.05387282371521,0.8655745387077332,74.5499496459961,28.73,0
-0.6249502301216125,0.0181006528437137,0.7813655734062195,0.763418972492218,0.8654277920722961,74.54997253417969,28.73,0
-0.6249680519104004,0.0172137320041656,0.7813241481781006,3.0335469245910645,0.865333616733551,74.54998016357422,28.73,0
-0.6249794960021973,0.0166445560753345,0.7812975645065308,4.712503910064697,0.8652731776237488,74.54998779296875,28.73,0
-0.6249868273735046,0.0162792932242155,0.781280517578125,5.822205066680908,0.8652344346046448,74.54999542236328,28.73,0
-0.6249915361404419,0.0160448886454105,0.7812696099281311,6.337306022644043,0.8629145622253418,74.54999542236328,28.75,0
-0.6249945759773254,0.0214922353625297,0.7812625765800476,6.359766483306885,0.8614258170127869,74.54999542236328,28.75,0
-0.624996542930603,0.0193902533501386,0.7868558168411255,6.10906982421875,0.8604704141616821,74.54999542236328,28.75,0
-0.6249977946281433,0.0180413220077753,0.7848474979400635,5.729650020599365,0.8598572611808777,74.54999542236328,28.75,0
-0.6305963397026062,0.017175655812025,0.7835586667060852,5.2497100830078125,0.8594638109207153,74.54999542236328,28.75,0
-0.6285914182662964,0.022217895835638,0.7883293628692627,4.662271499633789,0.8592113256454468,74.54999542236328,28.75,0
-0.6217069625854492,0.0254537146538496,0.7913908958435059,3.930612325668335,0.8590492606163025,74.54999542236328,28.75,0
-0.6228867173194885,0.021932503208518,0.7877578139305115,3.0096709728240967,0.8589452505111694,74.54999542236328,28.75,0
-0.6292415857315063,0.01967279240489,0.7854263186454773,1.9421813488006592,0.858878493309021,74.67538452148438,28.75,0
-0.6277220249176025,0.018222639337182,0.7839301228523254,0.8487143516540527,0.8588356971740723,74.75585174560547,28.75,0
-0.6267468333244324,0.0172920152544975,0.7829699516296387,-0.2399280667304992,0.8588082194328308,74.8074951171875,28.75,0
-0.6261210441589355,0.0166947953402996,0.7823537588119507,-1.3899606466293335,0.8587905764579773,74.84063720703125,28.75,0
-0.625719428062439,0.0219093076884746,0.7819583415985107,-2.5328164100646973,0.85877925157547,74.86190795898438,28.75,0
-0.6198639273643494,0.0252556819468736,0.7817045450210571,-3.5850846767425537,0.8587719798088074,74.87555694580078,28.75,0
-0.6217039823532104,0.0218054167926311,0.7815417051315308,-4.794173717498779,0.8587673306465149,74.88431549072266,28.75,0
-0.6228848099708557,0.0195912364870309,0.7814372181892395,-6.476489067077637,0.8587643504142761,74.88993835449219,28.75,0
-0.6236425638198853,0.0181703027337789,0.786967933177948,-8.193800926208496,0.8596802949905396,74.89354705810547,28.75,0
-0.6241288781166077,0.0172584280371665,0.7849194407463074,-8.819389343261719,0.8602680563926697,74.89585876464844,28.75,0
-0.6244409680366516,0.0222710147500038,0.7836048603057861,-7.712592124938965,0.8606452941894531,74.89734649658203,28.75,0
-0.6246412396430969,0.0198900289833545,0.7827612161636353,-5.365076541900635,0.860887348651886,74.89830017089844,28.75,0
-0.6247697472572327,0.0183620508760213,0.7822198271751404,-2.6799087524414062,0.8610426783561707,74.89891052246094,28.75,0
-0.6248522400856018,0.0229792557656765,0.7818723917007446,-0.1255650967359542,0.8611423969268799,74.89929962158203,28.75,0
-0.6249051690101624,0.0203445386141538,0.7816494107246399,2.208685398101806,0.8612063527107239,74.89955139160156,28.75,0
-0.6249391436576843,0.0186537280678749,0.7815062999725342,4.172407627105713,0.8612474203109741,74.89971160888672,28.75,0
-0.6249609589576721,0.0175686627626419,0.7870122790336609,5.536506175994873,0.8594377040863037,74.89981842041016,28.75,0
-0.6249749660491943,0.0168723315000534,0.7849478721618652,6.168291091918945,0.8582763075828552,74.89988708496094,28.75,0
-0.6249839067459106,0.0164254661649465,0.7836230993270874,6.093669414520264,0.8575310111045837,74.8999252319336,28.75,0
-0.6249896883964539,0.0161386933177709,0.788370668888092,5.605124473571777,0.857052743434906,74.89995574951172,28.75,0
-0.6249933838844299,0.0159546583890914,0.7858196496963501,5.230700492858887,0.8567457795143127,74.89997100830078,28.75,0
-0.624995768070221,0.0214343294501304,0.7841825485229492,5.208954334259033,0.8565487861633301,74.89997863769531,28.75,0
-0.6249972581863403,0.0193530935794115,0.788729727268219,5.180668354034424,0.8564223647117615,74.89998626708984,28.75,0
-0.6249982118606567,0.0180174764245748,0.7916478514671326,4.682450771331787,0.8563412427902222,74.89999389648438,28.75,0
-0.6249988675117493,0.0171603541821241,0.787922739982605,3.64979100227356,0.8572074174880981,74.89999389648438,28.73,0
-0.6249992847442627,0.0166103020310401,0.7855321764945984,2.381633996963501,0.8577632904052734,74.89999389648438,28.73,0
-0.6249995231628418,0.0162573102861642,0.7839980721473694,1.2059638500213623,0.8581200242042542,74.89999389648438,28.73,0
-0.6249997019767761,0.0160307809710502,0.7830135822296143,0.2436969876289367,0.8583489656448364,74.89999389648438,28.73,0
-0.6249998211860657,0.0214831810444593,0.7823817729949951,-0.6210282444953918,0.858495831489563,74.89999389648438,28.73,0
-0.6249998807907104,0.0193844437599182,0.787574052810669,-1.5951204299926758,0.8585901260375977,74.89999389648438,28.73,0
-0.6249999403953552,0.0180375948548316,0.7853084206581116,-2.840022325515747,0.8586506247520447,74.89999389648438,28.73,0
-0.6249999403953552,0.0171732641756534,0.7838544845581055,-4.391269683837891,0.8586894273757935,74.89999389648438,28.73,0
-0.6249999403953552,0.0166185870766639,0.7885192036628723,-6.128364086151123,0.857337236404419,75.0074691772461,28.73,0
-0.6194021701812744,0.0162626262754201,0.785914957523346,-7.708866119384766,0.856469452381134,75.07644653320312,28.73,0
-0.6214076280593872,0.0160341914743185,0.7842437028884888,-8.554759979248047,0.8559125661849976,75.12071228027344,28.73,0
-0.6226946115493774,0.0214853696525096,0.7831711769104004,-8.144640922546387,0.8555551767349243,75.14911651611328,28.73,0
-0.62352055311203,0.0193858481943607,0.782482922077179,-6.380351066589356,0.8553258180618286,75.16734313964844,28.73,0
-0.6240505576133728,0.023636270314455,0.7876390218734741,-3.6861283779144287,0.8551786541938782,75.17903900146484,28.73,0
-0.624390721321106,0.0207661725580692,0.7853500843048096,-0.7712988257408142,0.8550841808319092,75.1865463256836,28.73,0
-0.6246089935302734,0.0189243089407682,0.7838811874389648,1.790708065032959,0.8550235629081726,75.19136810302734,28.73,0
-0.6247490644454956,0.02334008179605,0.782938539981842,3.8683483600616455,0.8563618063926697,75.1944580078125,28.73,0
-0.6248389482498169,0.0205760952085256,0.7879313826560974,5.395117282867432,0.8572205901145935,75.19644165039062,28.73,0
-0.6248966455459595,0.0188023280352354,0.7855377197265625,6.034564971923828,0.8577717542648315,75.19771575927734,28.73,0
-0.624933660030365,0.0176640264689922,0.7840015888214111,5.843052864074707,0.8581254482269287,75.19853210449219,28.73,0
-0.6249574422836304,0.0169335305690765,0.7886135578155518,5.512362003326416,0.8583524227142334,75.19905853271484,28.73,0
-0.6249727010726929,0.016464740037918,0.7859755158424377,5.404038429260254,0.8584980964660645,75.19939422607422,28.73,0
-0.624982476234436,0.0161638967692852,0.7842825651168823,5.248540878295898,0.8585915565490723,75.1996078491211,28.73,0
-0.6249887347221375,0.0159708335995674,0.7831961512565613,4.915884017944336,0.8586515188217163,75.19974517822266,28.73,0
-0.6193950176239014,0.0214447099715471,0.7824989557266235,4.433711051940918,0.8563946485519409,75.19983673095703,28.73,0
-0.6214030385017395,0.0193597543984651,0.7820515036582947,3.651380062103272,0.8549463748931885,75.19989776611328,28.73,0
-0.6226916909217834,0.0180217511951923,0.7817643880844116,2.611938714981079,0.854016900062561,75.19993591308594,28.73,0
-0.6235186457633972,0.0171630978584289,0.7815800905227661,1.5902100801467896,0.8534204363822937,75.19995880126953,28.73,0
-0.6240493655204773,0.0166120622307062,0.7814618349075317,0.5332750082015991,0.8530376553535461,75.1999740600586,28.73,0
-0.6243899464607239,0.0218562148511409,0.7813859581947327,-0.7504603266716003,0.8527920246124268,75.19998168945312,28.73,0
-0.6246085166931152,0.0196238346397876,0.786935031414032,-2.075848340988159,0.8526343703269958,75.19998931884766,28.73,0
-0.6247487664222717,0.0181912221014499,0.7848983407020569,-3.227342367172241,0.852533221244812,75.19998931884766,28.73,0
-0.6248387694358826,0.0172718539834022,0.7835912704467773,-4.37471866607666,0.8538454174995422,75.19998931884766,28.73,0
-0.6248965263366699,0.0222796313464641,0.782752513885498,-5.766650199890137,0.854687511920929,75.19998931884766,28.73,0
-0.6249336004257202,0.0198955591768026,0.7822142243385315,-7.268949508666992,0.8552279472351074,75.19998931884766,28.73,0
-0.6249573826789856,0.0239633731544017,0.7818687558174133,-8.207961082458496,0.8555747270584106,75.19998931884766,28.73,0
-0.6249726414680481,0.0265738628804683,0.7872448563575745,-7.721461296081543,0.855797290802002,75.19998931884766,28.73,0
-0.6249824166297913,0.0226513501256704,0.7850971817970276,-5.57855749130249,0.8559401035308838,75.19998931884766,28.73,0
-0.6249887347221375,0.0201341062784194,0.7837188839912415,-2.5374674797058105,0.8560317754745483,75.19998931884766,28.73,0
-0.6249927878379822,0.0185186844319105,0.7828344106674194,0.4065023362636566,0.8560906052589417,75.19998931884766,28.73,0
-0.6249953508377075,0.0174819994717836,0.7822667956352234,2.815246343612671,0.8542922735214233,75.30030822753906,28.73,0
-0.6249970197677612,0.0168167147785425,0.7819024920463562,4.629732608795166,0.8531382083892822,75.36468505859375,28.73,0
-0.6249980926513672,0.0163897741585969,0.7816687226295471,5.765504837036133,0.852397620677948,75.40599822998047,28.73,0
-0.6249987483024597,0.0161157883703708,0.7815186977386475,6.128955364227295,0.851922333240509,75.43251037597656,28.73,0
-0.6249992251396179,0.02153773419559,0.7814224362373352,5.846306324005127,0.8516173362731934,75.44952392578125,28.73,0
-0.6249995231628418,0.0250172261148691,0.7869584560394287,5.299495697021484,0.851421594619751,75.46044158935547,28.73,0
-0.6249997019767761,0.0272501651197671,0.7849133610725403,4.826776504516602,0.8512960076332092,75.46745300292969,28.73,0
-0.6249998211860657,0.0286831352859735,0.783600926399231,4.437430381774902,0.8512154221534729,75.4719467163086,28.73,0
-0.6249998807907104,0.0240049604326486,0.7827587127685547,3.943955421447754,0.852999746799469,75.4748306274414,28.73,0
-0.6249999403953552,0.0210027769207954,0.7822182178497314,3.312005043029785,0.854144811630249,75.4766845703125,28.73,0
-0.6249999403953552,0.0190761480480432,0.7818713188171387,2.648510217666626,0.8548796772956848,75.47787475585938,28.73,0
-0.6249999403953552,0.0178397484123706,0.7816487550735474,1.9146159887313845,0.8553512692451477,75.4786376953125,28.73,0
-0.6249999403953552,0.0170462988317012,0.7815058827400208,1.0352312326431274,0.8556538820266724,75.4791259765625,28.73,0
-0.6249999403953552,0.016537107527256,0.7814142107963562,0.1233828589320182,0.8558480739593506,75.47943878173828,28.73,0
-0.6249999403953552,0.0162103381007909,0.7813553810119629,-0.7519775032997131,0.8559727072715759,75.47964477539062,28.73,0
-0.6249999403953552,0.0160006359219551,0.7813176512718201,-1.732894778251648,0.8560526967048645,75.47977447509766,28.73,0
-0.6249999403953552,0.0214638356119394,0.7812933921813965,-2.921272754669189,0.8551858067512512,75.4798583984375,28.73,0
-0.6249999403953552,0.0193720292299985,0.7812778353691101,-4.296525955200195,0.8546295166015625,75.47991180419922,28.73,0
-0.6249999403953552,0.0236274022608995,0.7868656516075134,-5.866938591003418,0.8542724847793579,75.47994232177734,28.73,0
-0.6249999403953552,0.0263582561165094,0.7848538160324097,-7.347639083862305,0.8540433645248413,75.47996520996094,28.73,0
-0.6249999403953552,0.0225129853934049,0.7835627198219299,-7.853628158569336,0.8538963198661804,75.47998046875,28.73,0
-0.6249999403953552,0.0200453121215105,0.7827341556549072,-6.666495800018311,0.853801965713501,75.47998809814453,28.73,0
-0.6249999403953552,0.0240594763308763,0.7878001928329468,-4.170695781707764,0.8537414073944092,75.47999572753906,28.73,0
-0.6249999403953552,0.0266355350613594,0.7854535579681396,-1.4512715339660645,0.8537025451660156,75.47999572753906,28.73,0
-0.6249999403953552,0.0226909276098012,0.7839475870132446,0.7775460481643677,0.8532187342643738,75.47999572753906,28.73,0
-0.6249999403953552,0.0201595053076744,0.7829811573028564,2.4801487922668457,0.8529082536697388,75.47999572753906,28.73,0
-0.6249999403953552,0.0185349844396114,0.7823609709739685,3.841474294662476,0.8527089953422546,75.47999572753906,28.73,0
-0.6249999403953552,0.0230902340263128,0.7819629311561584,4.858397483825684,0.8525810837745667,75.47999572753906,28.73,0
-0.6249999403953552,0.0204157568514347,0.7817075252532959,5.360532283782959,0.8524990081787109,75.47999572753906,28.73,0
-0.6249999403953552,0.0186994317919015,0.7815436124801636,5.378254413604736,0.8524463772773743,75.47999572753906,28.73,0
-0.6249999403953552,0.0231957677751779,0.7870361804962158,5.203333377838135,0.8524125814437866,75.47999572753906,28.73,0
-0.6194021701812744,0.0204834826290607,0.7905610203742981,4.954941749572754,0.8523908853530884,75.47999572753906,28.73,0
-0.6214076280593872,0.0187428947538137,0.7872253060340881,4.448028087615967,0.8509998321533203,75.50507354736328,28.73,0
-0.6282923817634583,0.0232236590236425,0.78508460521698,3.64982008934021,0.8501071333885193,75.52117156982422,28.73,0
-0.627112865447998,0.0205013826489448,0.7837108373641968,2.908291339874268,0.8495342135429382,75.53150177001953,28.73,0
-0.6207581162452698,0.018754381686449,0.782829225063324,2.4574990272521973,0.8491665720939636,75.53813171386719,28.73,0
-0.6222777962684631,0.017633257433772,0.782263457775116,2.0643117427825928,0.8489306569099426,75.5423812866211,28.73,0
-0.6232530474662781,0.0169137846678495,0.7819004058837891,1.3426693677902222,0.8487792611122131,75.54511260986328,28.73,0
-0.6238788962364197,0.0164520684629678,0.7816674113273621,0.1952888369560241,0.8486821055412292,75.54686737060547,28.73,0
-0.6242805123329163,0.0161557644605636,0.7815178632736206,-1.1644021272659302,0.8486197590827942,75.54798889160156,28.73,0
-0.6301360726356506,0.0159656144678592,0.7814218997955322,-2.4418046474456787,0.8481208086013794,75.54871368408203,28.73,0
-0.6282960176467896,0.0214413609355688,0.7813603281974792,-3.5768346786499023,0.847800612449646,75.54917907714844,28.73,0
-0.6271151900291443,0.0249553807079792,0.7813208103179932,-4.853365421295166,0.8475950956344604,75.54947662353516,28.73,0
-0.6263574361801147,0.0216127019375562,0.7812954187393188,-6.500144481658936,0.8474631905555725,75.54966735839844,28.73,0
-0.6258711218833923,0.0194675624370574,0.7812791466712952,-8.194650650024414,0.8473785519599915,75.54978942871094,28.73,0
-0.6255590319633484,0.0180909354239702,0.7812687158584595,-9.120871543884276,0.8473242521286011,75.54986572265625,28.73,0
-0.6253587603569031,0.017207495868206,0.7812620401382446,-8.515104293823242,0.8472893834114075,75.54991149902344,28.73,0
-0.6252302527427673,0.0222383290529251,0.7812577486038208,-6.284913539886475,0.8472670316696167,75.54994201660156,28.73,0
-0.6251477599143982,0.019869053736329,0.7812549471855164,-3.295285224914551,0.8467934131622314,75.54996490478516,28.73,0
-0.6250948309898376,0.0183485895395278,0.7812531590461731,-0.6494508981704712,0.8464894890785217,75.54998016357422,28.73,0
-0.6250608563423157,0.0229706168174743,0.7812520265579224,1.381672739982605,0.8462944030761719,75.54998779296875,28.73,0
-0.6250390410423279,0.0203389935195446,0.7812513113021851,3.179526329040528,0.8461692333221436,75.54999542236328,28.73,0
-0.6250250339508057,0.0186501704156398,0.7812508344650269,4.738116264343262,0.8460888862609863,75.54999542236328,28.73,0
-0.6250160932540894,0.0175663810223341,0.781250536441803,5.595026969909668,0.8460373282432556,75.54999542236328,28.73,0
-0.6250103116035461,0.0168708674609661,0.7812503576278687,5.679207801818848,0.8460042476654053,75.54999542236328,28.73,0
-0.6250066161155701,0.0164245255291461,0.7812502384185791,5.392885684967041,0.8459830284118652,75.54999542236328,28.73,0
-0.625004231929779,0.0161380898207426,0.7812501788139343,5.037177085876465,0.8459693789482117,75.54999542236328,28.75,0
-0.6250027418136597,0.0159542709589004,0.7868478894233704,4.651270389556885,0.8459606170654297,75.54999542236328,28.75,0
-0.6250017881393433,0.0158363077789545,0.7848424315452576,4.321218490600586,0.8459550142288208,75.54999542236328,28.75,0
