acc_x,acc_y,acc_z,bvp,eda,hr,temp,label
0.0,0.0,0.0,0.0,0.0,0.0,35.91,0
-0.0338541641831398,-0.1562499850988388,0.0312499981373548,0.3383333086967468,0.160862997174263,12.444998741149902,35.91,0
-0.0834603682160377,-0.3700457215309143,0.0731707289814949,3.4026832580566406,0.3766548335552215,29.13951110839844,35.91,0
-0.1266092211008072,-0.5560111999511719,0.1096345484256744,9.413787841796877,0.5643565654754639,43.66086196899414,35.91,0
-0.1687650382518768,-0.6916830539703369,0.1362368762493133,16.269304275512695,0.7012951374053955,54.25497055053711,35.91,0
-0.1808371394872665,-0.7780489325523376,0.1542477756738662,21.4448184967041,0.7940083146095276,61.42763137817383,35.91,0
-0.2054174095392227,-0.8458234667778015,0.1605124324560165,23.42977523803711,0.8548414707183838,66.13392639160156,35.91,0
-0.2269161790609359,-0.8952970504760742,0.1589904129505157,22.08367347717285,0.894240140914917,69.18196105957031,35.91,0
-0.2575356066226959,-0.9159862399101256,0.1636001467704773,18.479604721069336,0.9200783371925354,71.14542388916016,35.91,0
-0.2548374235630035,-0.9292840361595154,0.1609683781862259,14.179479598999023,0.9366856217384338,72.40742492675781,35.91,0
-0.2587012648582458,-0.9378232955932616,0.1648748517036438,10.121542930603027,0.9473500847816468,73.21781921386719,35.91,0
-0.261181503534317,-0.943304717540741,0.167382463812828,6.5996527671813965,0.9541956782341005,73.73802185058594,35.91,0
-0.2627733647823334,-0.9468227624893188,0.1577967703342437,3.379167318344116,0.9585893154144288,74.0718994140625,35.91,0
-0.2637949585914612,-0.949080526828766,0.1572426408529281,0.1086267903447151,0.9614089727401732,74.28617095947266,35.91,0
-0.2700483202934265,-0.9561272263526917,0.1624847650527954,-3.6955511569976807,0.9632185101509094,74.42367553710938,35.91,0
-0.274061381816864,-0.9606494307518004,0.1602511256933212,-8.064292907714844,0.9643797874450684,74.51192474365234,35.91,0
-0.2822345197200775,-0.9579537510871888,0.1588176935911178,-12.644864082336426,0.9628297090530396,74.56855773925781,35.93,0
-0.2818818092346191,-0.9562237858772278,0.157897800207138,-16.917131423950195,0.9618349671363832,74.60489654541016,35.93,0
-0.2760576903820038,-0.955113649368286,0.1573074609041214,-18.4658317565918,0.9611966013908386,74.62821960449219,35.93,0
-0.2835156619548797,-0.954401195049286,0.1513308435678482,-16.98413848876953,0.9607868790626526,74.6431884765625,35.93,0
-0.2827039659023285,-0.9483461976051332,0.1530931740999221,-14.313636779785156,0.9605239629745485,74.65279388427734,35.93,0
-0.2821830809116363,-0.9444604516029358,0.1542241275310516,-10.676019668579102,0.9603552222251892,74.6589584350586,35.93,0
-0.2874465584754944,-0.9475646018981934,0.1549499183893203,-5.561527729034424,0.9602469801902772,74.66291046142578,35.93,0
-0.2964221537113189,-0.9495566487312316,0.1554156839847564,0.1245674192905426,0.960177481174469,74.66545104980469,35.93,0
-0.3021821677684784,-0.9508350491523744,0.1557145863771438,4.465013027191162,0.961051106452942,74.66708374023438,35.93,0
-0.3002808392047882,-0.9516554474830629,0.1559064090251922,6.645005702972412,0.9616117477416992,74.66812896728516,35.93,0
-0.2990606725215912,-0.9521819353103638,0.1560295075178146,6.868914604187012,0.9619715213775636,74.6688003540039,35.93,0
-0.292679876089096,-0.9525197744369508,0.1561084985733032,5.285804748535156,0.9622024297714232,74.66922760009766,35.93,0
-0.2885850369930267,-0.9527366161346436,0.1561591923236847,1.62949800491333,0.962350606918335,74.66950225830078,35.93,0
-0.2803594172000885,-0.9528757333755492,0.1561917215585708,-3.6116302013397217,0.9624456763267516,74.669677734375,35.93,0
-0.2806784808635711,-0.9529650211334229,0.1562125980854034,-9.221359252929688,0.9625067114830016,74.66979217529297,35.93,0
-0.2808832228183746,-0.9530223608016968,0.1562259942293167,-13.745665550231934,0.9625458717346193,74.66986846923828,35.93,0
-0.281014621257782,-0.9530591368675232,0.1562345921993255,-16.731504440307617,0.961193859577179,74.7236557006836,35.93,0
-0.2810989618301391,-0.9474849700927734,0.1562401056289672,-18.7551212310791,0.9603261947631836,74.75817108154297,35.93,0
-0.2755553126335144,-0.9439077973365784,0.1618414223194122,-20.000022888183597,0.959769368171692,74.78031921386719,35.93,0
-0.2831932604312897,-0.941612184047699,0.1598382592201233,-20.268707275390625,0.9594120383262634,74.7945327758789,35.93,0
-0.2936926186084747,-0.9457367658615112,0.1641505062580108,-18.459970474243164,0.9591827392578124,74.80365753173828,35.93,0
-0.3004305064678192,-0.9539814591407776,0.1725156456232071,-14.884570121765137,0.959035575389862,74.80950927734375,35.93,0
-0.3047544956207275,-0.9592723846435548,0.183481678366661,-12.357216835021973,0.9589411616325378,74.81327056884766,35.93,0
-0.2851382791996002,-0.9626678228378296,0.1961168199777603,-11.616621017456056,0.9588805437088012,74.81568145751953,35.93,0
-0.2725497186183929,-0.9592490196228028,0.1930297762155532,-10.371095657348633,0.9579234719276428,74.81723022460938,35.93,0
-0.2756666541099548,-0.9570550322532654,0.1854509115219116,-7.271775245666504,0.9573092460632324,74.81822204589844,35.93,0
-0.294460266828537,-0.9556470513343812,0.1805872321128845,-4.161463737487793,0.9569150805473328,74.81885528564453,35.93,0
-0.3121186792850494,-0.954743504524231,0.171868234872818,-3.2652952671051025,0.956662118434906,74.81926727294922,35.93,0
-0.3234508335590362,-0.9429681301116944,0.1550773382186889,-3.754211187362671,0.9564998149871826,74.81952667236328,35.93,0
-0.3195276260375976,-0.9298135638237,0.1554974466562271,-2.22294282913208,0.9563956260681152,74.81969451904297,35.93,0
-0.3114121556282043,-0.9157739877700806,0.1501692831516266,5.100895404815674,0.9563287496566772,74.8198013305664,35.93,0
-0.3118018805980682,-0.9179597496986388,0.1411522030830383,18.63196182250977,0.956285834312439,74.81986999511719,35.93,0
-0.3120519816875458,-0.924960196018219,0.1353655606508255,31.85812759399414,0.9567172527313232,74.81991577148438,35.95,0
-0.3178102672100067,-0.9350504279136658,0.1260542422533035,37.9527587890625,0.9569941163063048,74.8199462890625,35.95,0
-0.3271033763885498,-0.958319127559662,0.1144810020923614,36.62263488769531,0.9571717977523804,74.8199691772461,35.95,0
-0.3330671489238739,-0.9732516407966614,0.1070539653301239,30.84657859802246,0.9572858214378356,74.81997680664062,35.95,0
-0.3368943631649017,-0.9604433178901672,0.1022877171635627,22.25320625305176,0.9573589563369752,74.81998443603516,35.95,0
-0.3337526619434356,-0.9466259479522704,0.0992290154099464,12.75823211669922,0.957405924797058,74.81999206542969,35.95,0
-0.3261387348175049,-0.9321609735488892,0.1028638929128646,5.231873989105225,0.9574360847473145,74.81999206542969,35.95,0
-0.3212525546550751,-0.939671516418457,0.1163920983672142,0.3051608204841614,0.9574553966522216,74.81999206542969,35.95,0
-0.3181168735027313,-0.9556868672370912,0.1306714862585067,-3.852475643157959,0.9560906291007996,74.81999206542969,35.95,0
-0.3049090504646301,-0.971562385559082,0.1398351788520813,-8.122018814086914,0.95521479845047,74.81999206542969,35.95,0
-0.2852374613285064,-0.9985436797142028,0.145715907216072,-11.18439769744873,0.9546527862548828,74.81999206542969,35.95,0
-0.2614178359508514,-1.0214564800262451,0.1494898200035095,-11.756033897399902,0.9542921185493468,74.81999206542969,35.95,0
-0.2685228586196899,-1.0305628776550293,0.1631072610616684,-10.213364601135254,0.9540606141090392,74.81999206542969,35.95,0
-0.2898757755756378,-1.0140156745910645,0.1662483662366867,-7.955136299133301,0.953912079334259,74.81999206542969,35.95,0
-0.325969934463501,-1.0201900005340576,0.1738619208335876,-6.083191871643066,0.9538167715072632,74.81999206542969,35.95,0
-0.3379375636577606,-1.035347819328308,0.1899434179067611,-5.136248588562012,0.9537556171417236,74.81999206542969,35.95,0
-0.289639949798584,-1.0842597484588623,0.1834702640771865,-5.162670612335205,0.9546345472335817,74.89522552490234,35.95,0
-0.2026675641536712,-1.1492352485656738,0.2017072737216949,-5.695517539978027,0.9551985859870912,74.94351196289062,35.95,0
-0.1412559300661087,-1.1517482995986938,0.2078129649162292,-5.861921787261963,0.955560564994812,74.97449493408203,35.95,0
-0.1074432507157325,-1.0470033884048462,0.1781445890665054,-4.979919910430908,0.9557928442955016,74.99437713623047,35.95,0
-0.0689508914947509,-0.9573929905891418,0.1479095965623855,-3.13850474357605,0.955941915512085,75.00714111328125,35.95,0
-0.0274553894996643,-0.9166795015335084,0.1229087337851524,-1.1327979564666748,0.9560375809669496,75.01532745361328,35.95,0
-0.0288148373365402,-0.9129430651664734,0.1236579492688179,0.2546612024307251,0.956098973751068,75.02058410644531,35.95,0
-0.063273899257183,-0.9105452299118042,0.1241387501358985,0.8691943287849426,0.9561383724212646,75.02395629882812,35.95,0
-0.11337660998106,-0.8978108763694763,0.1300450712442398,0.9626299142837524,0.9561637043952942,75.026123046875,35.95,0
-0.1343341022729873,-0.87844318151474,0.1338354051113128,0.7180725932121277,0.9561799168586732,75.02751159667969,35.95,0
-0.1421856433153152,-0.8716118335723877,0.1306700557470321,0.1598813086748123,0.9561903476715088,75.02840423583984,35.95,0
-0.130430981516838,-0.8784234523773193,0.1454320400953292,-0.6819815039634705,0.9561970233917236,75.02897644042969,35.95,0
-0.1284852921962738,-0.8883925080299377,0.1605032086372375,-1.7417140007019043,0.9562013149261476,75.02934265136719,35.95,0
-0.1384322047233581,-0.9003878831863403,0.1757727861404419,-2.973505973815918,0.9562040567398072,75.02957916259766,35.95,0
-0.1504133343696594,-0.9024880528450012,0.1855719238519668,-4.025527000427246,0.9562058448791504,75.02973175048828,35.95,0
-0.1860910058021545,-0.892640233039856,0.1974582225084304,-3.873078584671021,0.9562069773674012,75.02983093261719,35.95,0
-0.2201824337244033,-0.8863204717636108,0.2106839418411255,-1.62570059299469,0.9543716311454772,75.02989196777344,35.91,0
-0.2476581186056137,-0.8878626227378845,0.2247692197561264,1.9947429895401,0.9531938433647156,75.0299301147461,35.91,0
-0.2876815497875213,-0.8944500684738159,0.2338083386421203,4.884182453155518,0.9524379968643188,75.02995300292969,35.91,0
-0.3133662641048431,-0.9042752385139464,0.2340113520622253,5.5454607009887695,0.9519529342651368,75.02996826171875,35.91,0
-0.3298492431640625,-0.9385693669319152,0.2341416329145431,4.103309154510498,0.9516416192054749,75.02997589111328,35.91,0
-0.3572203814983368,-1.0277506113052368,0.2510185539722442,1.5334168672561646,0.9514418840408324,75.02998352050781,35.91,0
-0.3915789425373077,-1.1185686588287354,0.2674469649791717,-1.3267024755477903,0.9513136744499208,75.02999114990234,35.91,0
-0.4416171610355377,-1.176850438117981,0.2835875451564789,-3.6601405143737793,0.9512314200401306,75.02999114990234,35.91,0
-0.4457399249076843,-1.169470191001892,0.2939456403255462,-4.781436443328857,0.9507192969322203,75.02999114990234,35.91,0
-0.3812123835086822,-1.0695717334747314,0.3061906397342682,-4.623288631439209,0.950390636920929,75.02999114990234,35.91,0
-0.3398023247718811,-1.0110604763031006,0.3028532266616821,-3.7730400562286377,0.9501797556877136,75.02999114990234,35.91,0
-0.3244232833385467,-1.0015002489089966,0.2895159423351288,-3.066183567047119,0.9500443935394288,75.02999114990234,35.91,0
-0.359336107969284,-1.0625382661819458,0.2529679536819458,-3.099794149398804,0.949957549571991,75.02999114990234,35.91,0
-0.3873389065265655,-1.107306718826294,0.2183180153369903,-3.91669511795044,0.949901819229126,75.02999114990234,35.91,0
-0.3829183876514435,-1.0912543535232544,0.201679453253746,-5.161032676696777,0.9498660564422609,75.02999114990234,35.91,0
-0.3297016024589538,-1.0417684316635132,0.1630129069089889,-6.572197437286377,0.9498431086540222,75.02999114990234,35.91,0
-0.2619634866714477,-0.9820224046707152,0.1493944972753524,-7.950701713562012,0.9489105343818665,75.09806060791016,35.91,0
-0.19610196352005,-0.932485282421112,0.1462527513504028,-8.94282341003418,0.9483120441436768,75.1417465209961,35.91,0
-0.1818246990442276,-0.9062929749488832,0.1274432390928268,-9.271409034729004,0.947927951812744,75.16978454589844,35.91,0
-0.2062490135431289,-0.8950820565223694,0.1041768342256546,-8.98071575164795,0.947681486606598,75.18777465820312,35.91,0
-0.2331186830997467,-0.910278618335724,0.0724524706602096,-8.013163566589355,0.947523295879364,75.1993179321289,35.91,0
-0.2391665428876876,-0.9480197429656982,0.0520935989916324,-6.091769695281982,0.9474217891693116,75.20672607421875,35.91,0
-0.220656618475914,-0.97783762216568,0.0446262210607528,-3.1999971866607666,0.947356641292572,75.21147918701172,35.91,0
-0.2087780088186264,-0.991375207901001,0.0454318635165691,0.3001783192157745,0.9473148584365844,75.21453094482422,35.91,0
-0.1899594515562057,-0.9888673424720764,0.0683399736881256,3.757299661636353,0.9459108710289,75.21649169921875,35.91,0
-0.1722850054502487,-1.0040512084960938,0.0886388570070266,6.065445899963379,0.9450098872184752,75.2177505493164,35.91,0
-0.1833336651325225,-1.0193932056427002,0.1072632893919944,6.138729095458984,0.9444316625595092,75.21855926513672,35.91,0
-0.2352062612771988,-1.0460320711135864,0.1416064649820327,4.286993026733398,0.9440606236457824,75.21907806396484,35.91,0
-0.2740928828716278,-1.0631273984909058,0.1860370486974716,2.364227294921875,0.9438225030899048,75.21940612792969,35.91,0
-0.3102436065673828,-0.9901315569877625,0.214550033211708,1.6282848119735718,0.9436696767807008,75.21961975097656,35.91,0
-0.3054541945457458,-0.932091474533081,0.2384458035230636,1.4246925115585327,0.9435716271400452,75.21975708007812,35.91,0
-0.2855873107910156,-0.917235791683197,0.253780722618103,0.8712947368621826,0.9435086846351624,75.21984100341797,35.91,0
-0.2504467964172363,-0.941288948059082,0.2804151177406311,0.2582104802131653,0.9443861842155457,75.21990203857422,35.95,0
-0.2278956323862075,-0.9567248225212096,0.3198986351490021,-0.0707453787326812,0.9449493288993835,75.21994018554688,35.95,0
-0.2246191352605819,-0.9106529355049132,0.3228457868099212,-0.4287359416484833,0.9453107118606568,75.21996307373047,35.95,0
-0.2617008984088897,-0.8754888772964478,0.2911504507064819,-0.615482747554779,0.9455426335334778,75.21997833251953,35.95,0
-0.3022911548614502,-0.8585203886032104,0.2708102166652679,0.1531526744365692,0.945691466331482,75.21998596191406,35.95,0
-0.3507307469844818,-0.8756198883056641,0.2521592378616333,1.6925307512283323,0.945786952972412,75.2199935913086,35.95,0
-0.3986098170280456,-0.903386652469635,0.2457879036664962,2.7234060764312744,0.9458482265472412,75.2199935913086,35.95,0
-0.4237380623817444,-0.9100102186203004,0.2584924697875976,2.682777404785156,0.945887565612793,75.2199935913086,35.95,0
-0.4118750691413879,-0.8974675536155701,0.2666455209255218,2.814337730407715,0.946372091770172,75.2199935913086,35.95,0
-0.409859836101532,-0.8950161337852478,0.2830732464790344,4.822608470916748,0.9466830492019652,75.2199935913086,35.95,0
-0.4029688239097595,-0.9102362990379332,0.3216044902801513,8.669360160827637,0.9468826055526732,75.2199935913086,35.95,0
-0.3929487764835357,-0.9311992526054382,0.3407338261604309,12.628334999084473,0.9470106363296508,75.2199935913086,35.95,0
-0.3977140486240387,-0.9558476209640504,0.3418143987655639,15.437670707702637,0.947092831134796,75.2199935913086,35.95,0
-0.4063698947429657,-1.0164477825164795,0.3257145285606384,17.140228271484375,0.9471455812454224,75.2199935913086,35.95,0
-0.4231202602386474,-1.0609352588653564,0.3153825402259826,17.845914840698242,0.94717937707901,75.2199935913086,35.95,0
-0.4674563407897949,-1.100680232048035,0.2975565195083618,17.116533279418945,0.9472010731697084,75.2199935913086,35.95,0
-0.5015064477920532,-1.1093930006027222,0.2917145788669586,14.59564208984375,0.9444607496261596,75.27731323242188,35.95,0
-0.5009667277336121,-1.0590065717697144,0.2711722552776336,10.48440647125244,0.9427021741867064,75.31410217285156,35.95,0
-0.4558382034301758,-1.0322692394256592,0.2355982661247253,5.678593635559082,0.9415736198425292,75.33770751953125,35.95,0
-0.4268773198127746,-1.0486974716186523,0.207171157002449,1.5985438823699951,0.9408493638038636,75.35285949707031,35.95,0
-0.4138896465301513,-1.1432067155838013,0.1889282613992691,-0.8012599945068359,0.940384566783905,75.36257934570312,35.95,0
-0.3999571502208709,-1.2206506729125977,0.1828188002109527,-1.9114071130752563,0.940086305141449,75.36882019042969,35.95,0
-0.3462338745594024,-1.2311652898788452,0.1733003258705139,-2.957015037536621,0.9398949146270752,75.3728256225586,35.95,0
-0.2725729346275329,-1.176337480545044,0.1615941375494003,-4.745789527893066,0.9397720694541932,75.37539672851562,35.95,0
-0.2141060382127761,-1.1243587732315063,0.154081791639328,-7.287343978881836,0.9406110644340516,75.37704467773438,35.95,0
-0.1709875762462616,-1.0518174171447754,0.1324674636125564,-10.501866340637209,0.9411494731903076,75.37810516357422,35.95,0
-0.1545121818780899,-0.9940690398216248,0.1074010878801345,-14.255736351013184,0.9414950013160706,75.3787841796875,35.95,0
-0.1775258630514145,-0.934618353843689,0.0801193863153457,-17.19139289855957,0.9417167901992798,75.37921905517578,35.95,0
-0.2146858125925064,-0.8684774041175842,0.0626115575432777,-16.940113067626953,0.9418590664863586,75.37950134277344,35.95,0
-0.2385329306125641,-0.8148364424705505,0.0513760410249233,-12.662477493286133,0.9419503808021544,75.37967681884766,35.95,0
-0.2314455509185791,-0.7804127335548401,0.0441657342016696,-6.044572830200195,0.9420089721679688,75.37979125976562,35.95,0
-0.2212994992733001,-0.7639193534851074,0.0395385734736919,1.0183219909667969,0.942046582698822,75.37986755371094,35.95,0
-0.2315816730260849,-0.7477371096611023,0.0701557770371437,8.191240310668945,0.9406935572624208,75.37991333007812,35.97,0
-0.2717668116092682,-0.7653411030769348,0.1289885640144348,15.853924751281738,0.9398252964019777,75.37994384765625,35.97,0
-0.3087508678436279,-0.8102250099182129,0.1779395937919616,23.88107109069824,0.9392681121826172,75.37996673583984,35.97,0
-0.3268873393535614,-0.8894088864326477,0.1981580108404159,31.21063804626465,0.9389105439186096,75.37997436523438,35.97,0
-0.3329285085201263,-1.0073978900909424,0.2111330181360244,35.82835006713867,0.9386810660362244,75.3799819946289,35.97,0
-0.3424031734466553,-1.0887141227722168,0.2362529635429382,35.94000244140625,0.9385337829589844,75.37998962402344,35.97,0
-0.3484834730625152,-1.096116065979004,0.2859601378440857,31.895273208618164,0.9384392499923706,75.37998962402344,35.97,0
-0.3299943506717682,-1.0784751176834106,0.3122615814208984,26.254409790039062,0.938378632068634,75.37998962402344,35.97,0
-0.2509557902812958,-1.0783497095108032,0.3067492246627807,21.52741241455078,0.9397168755531312,75.37998962402344,35.97,0
-0.1946356296539306,-1.0726714134216309,0.2752228379249573,18.25386619567871,0.9405756592750548,75.37998962402344,35.97,0
-0.2032747864723205,-1.063429594039917,0.316566526889801,15.246700286865234,0.9411267638206482,75.37998962402344,35.97,0
-0.2983832955360412,-0.9847277402877808,0.270327478647232,11.19240665435791,0.9414804577827454,75.37998962402344,35.97,0
-0.3426251411437988,-0.9118303060531616,0.2406539022922516,5.681543350219727,0.94170743227005,75.37998962402344,35.97,0
-0.3654192388057709,-0.8706467151641846,0.2048177868127823,-1.1044079065322876,0.9418531060218812,75.37998962402344,35.97,0
-0.3744494020938873,-0.8442174196243286,0.1818202286958694,-8.697888374328613,0.9419465661048888,75.37998962402344,35.97,0
-0.3914399743080139,-0.838452160358429,0.1782572716474533,-15.78139591217041,0.942006528377533,75.37998962402344,35.97,0
-0.3967457711696625,-0.8459479212760925,0.1871663182973861,-20.35942649841309,0.9406678676605223,75.41223907470703,35.97,0
-0.4001507461071014,-0.8507582545280457,0.1928836405277252,-21.5203857421875,0.9398087859153748,75.43292999267578,35.97,0
-0.3911403119564056,-0.8538452982902527,0.1909549087285995,-20.560117721557617,0.9392575025558472,75.44621276855469,35.97,0
-0.396553486585617,-0.867021918296814,0.1953149288892746,-19.431564331054688,0.9389036893844604,75.4547348022461,35.97,0
-0.400027334690094,-0.909064531326294,0.2205040454864502,-18.700159072875977,0.938676655292511,75.460205078125,35.97,0
-0.3910610973834991,-0.95283842086792,0.2422667443752288,-17.718477249145508,0.93853098154068,75.46371459960938,35.97,0
-0.3797093033790588,-0.9921255111694336,0.2562327980995178,-16.028047561645508,0.9384374618530272,75.4659652709961,35.97,0
-0.3388377428054809,-1.0733155012130735,0.2707931697368622,-13.71798610687256,0.9383774399757384,75.46741485595703,35.97,0
-0.3349998295307159,-1.1422117948532104,0.2913327217102051,-11.24314785003662,0.9365028738975524,75.46833801269531,35.97,0
-0.3549279570579529,-1.1808277368545532,0.2989160716533661,-9.579705238342283,0.9352998733520508,75.46893310546875,35.97,0
-0.3677166998386383,-1.138435959815979,0.2813915312290191,-9.536820411682127,0.93452787399292,75.46931457519531,35.97,0
-0.3703259825706482,-1.0776447057724,0.258949726819992,-10.537498474121094,0.9340324401855468,75.46955871582031,35.97,0
-0.349609375,-1.0274368524551392,0.2221567779779434,-11.190423011779783,0.9337145090103148,75.46971893310547,35.97,0
-0.3587057590484619,-1.0399985313415527,0.2041429579257965,-10.996811866760254,0.9335104823112488,75.46981811523438,35.97,0
-0.3869343996047973,-1.076048731803894,0.1981804966926574,-10.550131797790527,0.9333795309066772,75.46988677978516,35.97,0
-0.3882565796375274,-1.1159770488739014,0.1831585764884948,-10.50709342956543,0.933295488357544,75.46992492675781,35.97,0
-0.3555184304714203,-1.1136118173599243,0.1735183745622635,-11.110007286071776,0.9337005019187928,75.46995544433594,35.93,0
-0.3289112150669098,-1.039322853088379,0.1113541051745414,-12.231350898742676,0.9339604377746582,75.469970703125,35.93,0
-0.2054785043001175,-0.9356707334518432,0.0938517525792121,-13.126510620117188,0.9341272115707396,75.46997833251953,35.93,0
-0.1038754060864448,-0.8579572439193726,0.110608622431755,-12.429158210754396,0.9342342615127563,75.46998596191406,35.93,0
-0.0778568014502525,-0.8080852031707764,0.1325577646493911,-8.932866096496582,0.9343029856681824,75.4699935913086,35.93,0
-0.1003439798951149,-0.7928735017776489,0.1298501342535019,-2.576349973678589,0.9343470335006714,75.4699935913086,35.93,0
-0.1875460296869278,-0.8222959637641907,0.1057214364409446,5.432981491088867,0.9343753457069396,75.4699935913086,35.93,0
-0.2547028362751007,-0.8411775827407837,0.073443703353405,13.252676010131836,0.9343935251235962,75.4699935913086,35.93,0
-0.2754091024398803,-0.8812835812568665,0.0527297146618366,19.10206413269043,0.9339462518692015,75.4699935913086,35.93,0
-0.2551105618476867,-0.9518035054206848,0.0562299937009811,22.08919334411621,0.9336591958999634,75.4699935913086,35.93,0
-0.2252907902002334,-0.9970591068267822,0.0640740469098091,23.024534225463867,0.9334749579429626,75.4699935913086,35.93,0
-0.1669697612524032,-1.0652860403060913,0.0803034529089927,23.800329208374023,0.933356761932373,75.4699935913086,35.93,0
-0.1239449083805084,-1.1202657222747805,0.0963163301348686,25.226076126098636,0.933280885219574,75.4699935913086,35.93,0
-0.1299206763505935,-1.1499507427215576,0.1065924689173698,26.14103889465332,0.9332321882247924,75.4699935913086,35.93,0
-0.1729400008916854,-1.1410119533538818,0.1411759853363037,25.19486618041992,0.9332009553909302,75.4699935913086,35.93,0
-0.211742877960205,-1.0848956108093262,0.1801630109548568,22.542016983032227,0.9331809282302856,75.4699935913086,35.93,0
-0.1974599063396453,-1.0096988677978516,0.2051826417446136,19.162925720214844,0.931331992149353,75.49507141113281,35.93,0
-0.0987295284867286,-0.983833074569702,0.198847696185112,15.425251007080078,0.9301454424858092,75.51116943359375,35.93,0
-0.0241745095700025,-0.9840272068977356,0.1891845166683197,10.973811149597168,0.9293839931488036,75.52149963378906,35.93,0
-0.0323071330785751,-0.9953473806381226,0.1885810196399688,5.426618576049805,0.9288953542709352,75.52812957763672,35.93,0
-0.0599172785878181,-1.0026119947433472,0.1937915086746215,-1.3253251314163208,0.9285817742347716,75.53237915039062,35.93,0
-0.1336136311292648,-1.0016762018203735,0.219526395201683,-9.029537200927734,0.9283804893493652,75.53511047363281,35.93,0
-0.203298807144165,-0.9730868339538574,0.2360415756702423,-16.34532356262207,0.928251326084137,75.536865234375,35.93,0
-0.2312254160642624,-0.9379464983940125,0.241042286157608,-20.685497283935547,0.9281684756278992,75.5379867553711,35.93,0
-0.2323537766933441,-0.887406587600708,0.233055904507637,-20.307357788085938,0.9290331602096558,75.53871154785156,35.93,0
-0.2330778986215591,-0.8493751883506775,0.2279307097196579,-16.628999710083008,0.92958801984787,75.53917694091797,35.93,0
-0.2335425913333892,-0.8193710446357727,0.219043880701065,-13.15425968170166,0.929944097995758,75.53947448730469,35.93,0
-0.261829674243927,-0.8225072026252747,0.2133408188819885,-12.128116607666016,0.9301726222038268,75.53966522216797,35.93,0
-0.2967760264873504,-0.8525086641311646,0.220876470208168,-13.225059509277344,0.9303193092346193,75.53978729248047,35.93,0
-0.3359959125518799,-0.9221418499946594,0.2481035143136978,-14.957213401794434,0.9304134249687196,75.53986358642578,35.93,0
-0.3667627573013305,-0.9724262356758118,0.2711740434169769,-15.982828140258787,0.930473804473877,75.53990936279297,35.93,0
-0.3753115832805633,-1.0270869731903076,0.2859793901443481,-15.376359939575195,0.930512547492981,75.5399398803711,35.93,0
-0.3807977437973022,-1.0901539325714111,0.3010783791542053,-12.9379301071167,0.9287013411521912,75.53996276855469,35.95,0
-0.3843184411525726,-1.1306266784667969,0.3107680380344391,-9.614041328430176,0.927539050579071,75.53997802734375,35.95,0
-0.3977733552455902,-1.1342086791992188,0.3057907521724701,-6.897001266479492,0.9267931580543518,75.53998565673828,35.95,0
-0.400810182094574,-1.09172523021698,0.2969988286495209,-5.47221040725708,0.9263144731521606,75.53999328613281,35.95,0
-0.3803679347038269,-1.0140818357467651,0.2577700316905975,-4.66175651550293,0.9260072708129884,75.53999328613281,35.95,0
-0.3784448206424713,-1.0146347284317017,0.2325952649116516,-3.407225608825684,0.925810158252716,75.53999328613281,35.95,0
-0.3940040171146393,-1.0485761165618896,0.2220373153686523,-1.7244089841842651,0.925683617591858,75.53999328613281,35.95,0
-0.4095867872238159,-1.137531042098999,0.2096640616655349,-0.9740711450576782,0.9256024360656738,75.53999328613281,35.95,0
-0.4027935862541199,-1.1890194416046145,0.1961258500814438,-2.509537696838379,0.9241731762886048,75.53999328613281,35.95,0
-0.3480541408061981,-1.154888391494751,0.1706444770097732,-5.952558517456055,0.923255980014801,75.53999328613281,35.95,0
-0.2793388664722442,-1.0658117532730105,0.1430964469909668,-9.021909713745115,0.922667384147644,75.53999328613281,35.95,0
-0.2296435683965683,-0.9918542504310608,0.1254177093505859,-9.483378410339355,0.9222896099090576,75.53999328613281,35.95,0
-0.203349769115448,-0.9275992512702942,0.1196702867746353,-7.271718978881836,0.922047197818756,75.53999328613281,35.95,0
-0.2032692432403564,-0.8807662725448608,0.1103841513395309,-4.096940994262695,0.9218916296958924,75.53999328613281,35.95,0
-0.2312064319849014,-0.8563093543052673,0.0876315161585807,-1.1961506605148315,0.9217917919158936,75.53999328613281,35.95,0
-0.2491349130868911,-0.8294187784194946,0.0674324110150337,1.4249156713485718,0.92172771692276,75.53999328613281,35.95,0
-0.2550426125526428,-0.8177597522735596,0.0488720126450061,3.816315174102783,0.9230637550354004,75.56865692138672,35.95,0
-0.230844959616661,-0.8606575727462769,0.0425587929785251,5.75222635269165,0.9239211678504944,75.58705139160156,35.95,0
-0.2041207551956176,-0.9049803018569946,0.0497028827667236,7.689601898193359,0.924471378326416,75.5988540649414,35.95,0
-0.1589818298816681,-0.9390218257904052,0.0822764188051223,10.641786575317385,0.9248244762420654,75.60643005371094,35.95,0
-0.1412098109722137,-1.0000520944595337,0.1199735626578331,14.915159225463867,0.9250510931015016,75.61128997802734,35.95,0
-0.1410003006458282,-1.056011199951172,0.1553609669208526,19.62439727783203,0.9251965284347534,75.61441040039062,35.95,0
-0.1688547134399414,-1.1143136024475098,0.1668750196695327,22.997608184814453,0.9252898693084716,75.61641693115234,35.95,0
-0.2203167229890823,-1.1237398386001587,0.179861843585968,23.2814884185791,0.925349771976471,75.6176986694336,35.95,0
-0.2757331728935241,-1.023431420326233,0.2049893736839294,20.203521728515625,0.9235520958900452,75.61852264404297,35.95,0
-0.2273296415805816,-0.964656949043274,0.2155169993638992,15.405191421508787,0.9223984479904176,75.61905670166016,35.95,0
-0.1626804023981094,-0.9717211127281188,0.205479696393013,10.9609375,0.9216581583023072,75.61939239501953,35.95,0
-0.1323877871036529,-1.054623246192932,0.2046361118555069,7.858091354370117,0.9211830496788024,75.61961364746094,35.95,0
-0.1129477322101593,-1.096629619598389,0.2600724995136261,5.633995532989502,0.9208781719207764,75.6197509765625,35.95,0
-0.173243299126625,-1.078804612159729,0.2844528257846832,3.00295352935791,0.9206824898719788,75.61984252929688,35.95,0
-0.2119375169277191,-1.0169856548309326,0.2777076065540313,-0.4588725864887237,0.920556902885437,75.61990356445312,35.95,0
-0.2367692440748214,-0.949324905872345,0.267781138420105,-3.242937564849853,0.9204763174057008,75.61994171142578,35.95,0
-0.2694981396198272,-0.889110803604126,0.2558131515979767,-3.410266160964966,0.9208835363388062,75.61996459960938,35.97,0
-0.2960994243621826,-0.8504688739776611,0.2425349950790405,-1.0349231958389282,0.9211448431015016,75.61997985839844,35.97,0
-0.3131706118583679,-0.8200728893280029,0.2340138405561447,1.725423812866211,0.9213125705718994,75.61998748779297,35.97,0
-0.3185281455516815,-0.8117620944976807,0.2229476869106292,2.787505626678467,0.9214202165603638,75.6199951171875,35.97,0
-0.321966290473938,-0.8232219815254211,0.2214438319206237,1.8175212144851685,0.9214892983436584,75.6199951171875,35.97,0
-0.3409660160541534,-0.875358521938324,0.2428698390722274,-0.184250459074974,0.9215335845947266,75.6199951171875,35.97,0
-0.3643544912338257,-0.9368056058883668,0.2678153812885284,-2.1388139724731445,0.9215620160102844,75.6199951171875,35.97,0
-0.4017549753189087,-0.9930320978164672,0.2894217669963836,-3.2677502632141118,0.9215802550315856,75.6199951171875,35.97,0
-0.4145609140396118,-1.0571038722991943,0.2920919358730316,-3.046436548233032,0.9215919971466064,75.6199951171875,35.97,0
-0.4115834534168243,-1.1094170808792114,0.2938055098056793,-1.6755867004394531,0.921599507331848,75.6199951171875,35.97,0
-0.4040749371051788,-1.1373908519744873,0.3061007261276245,-0.5486564636230469,0.921604335308075,75.6199951171875,35.97,0
-0.3992564082145691,-1.144147276878357,0.3139910995960235,-1.4411990642547607,0.9216074347496032,75.6199951171875,35.97,0
-0.3905663788318634,-1.1092987060546875,0.2966635823249817,-4.76539945602417,0.9216094017028807,75.6199951171875,35.97,0
-0.3793918192386627,-1.042152762413025,0.2799459993839264,-8.926417350769043,0.9216106534004213,75.6199951171875,35.97,0
-0.3666228652000427,-1.0046601295471191,0.2636198401451111,-12.023046493530272,0.921611487865448,75.6199951171875,35.97,0
-0.3752218186855316,-1.0309795141220093,0.2475448846817016,-13.917137145996094,0.921612024307251,75.6199951171875,35.97,0
-0.3919356763362884,-1.0758585929870603,0.2316311299800872,-15.992473602294922,0.9193170070648192,75.61641693115234,35.97,0
-0.3970638811588287,-1.127050518989563,0.2158208191394806,-19.12992286682129,0.9178442358970642,75.61412048339844,35.97,0
-0.3555726706981659,-1.1151204109191897,0.1888813525438308,-22.37576484680176,0.9168990850448608,75.6126480102539,35.97,0
-0.306554913520813,-1.0794754028320312,0.1603976041078567,-23.538036346435547,0.9162925481796264,75.61170196533203,35.97,0
-0.2471092641353607,-1.0398072004318235,0.1645094752311706,-21.26022148132324,0.9159032702445984,75.61109161376953,35.97,0
-0.1809715926647186,-0.9975571036338806,0.1951370984315872,-16.35917854309082,0.9156534671783448,75.61070251464844,35.97,0
-0.1441260278224945,-0.9704434275627136,0.1700099557638168,-10.706168174743652,0.9154931902885436,75.6104507446289,35.97,0
-0.1820561736822128,-0.9530434012413024,0.1258959323167801,-5.466232776641846,0.9153903126716614,75.61029052734375,35.97,0
-0.2175931185483932,-0.936279296875,0.0975860878825187,-1.0896751880645752,0.9162424802780152,75.61018371582031,35.97,0
-0.251594215631485,-0.9255210757255554,0.0682229101657867,2.284994602203369,0.9167893528938292,75.61011505126953,35.97,0
-0.2734141647815704,-0.9410081505775452,0.0493793115019798,5.37138557434082,0.9171403050422668,75.61007690429688,35.97,0
-0.2762214243412018,-0.9565446376800536,0.0484821237623691,9.57683277130127,0.917365550994873,75.61004638671875,35.97,0
-0.2668274044990539,-0.9217329025268556,0.0646996796131134,15.62177276611328,0.9175100922584534,75.61003112792969,35.97,0
-0.2496033161878585,-0.8881971836090088,0.0863027274608612,22.764793395996094,0.917602837085724,75.61002349853516,35.97,0
-0.2273543328046798,-0.8610780835151672,0.1113618686795234,28.975261688232425,0.9176623821258544,75.61001586914062,35.97,0
-0.1962828934192657,-0.8660657405853271,0.1274433881044387,31.47401428222656,0.9177005887031556,75.6100082397461,35.97,0
-0.1595497131347656,-0.8916575908660889,0.1489591300487518,28.40589141845703,0.9177250862121582,75.6100082397461,35.95,0
-0.2367364019155502,-0.8688965439796448,0.1907555609941482,20.96993637084961,0.9177408218383788,75.6100082397461,35.95,0
-0.314259260892868,-0.8318987488746643,0.211980327963829,12.823182106018066,0.917750895023346,75.6100082397461,35.95,0
-0.3808022737503052,-0.858535647392273,0.2144056111574173,6.986026287078857,0.9177573919296264,75.6100082397461,35.95,0
-0.4235057532787323,-0.9484007358551024,0.2215597927570343,4.06406831741333,0.9177615642547609,75.6100082397461,35.95,0
-0.4005304276943207,-1.0844398736953735,0.265335351228714,2.8122918605804443,0.9177642464637756,75.6100082397461,35.95,0
-0.2458418309688568,-1.1101664304733276,0.3717968463897705,1.3426146507263184,0.917765974998474,75.6100082397461,35.95,0
-0.1857560127973556,-1.081894040107727,0.4009332656860351,-1.434818148612976,0.91776704788208,75.6100082397461,35.95,0
-0.0800230875611305,-1.00777268409729,0.4308269023895263,-4.539185047149658,0.9150134921073914,75.6100082397461,35.95,0
-0.0233653411269187,-0.9434125423431396,0.4276198148727417,-5.900856018066406,0.9132463932037354,75.6100082397461,35.95,0
-0.1213522404432296,-0.8853166103363037,0.3639861643314361,-4.904593467712402,0.9121123552322388,75.6100082397461,35.95,0
-0.3129833936691284,-0.8816205859184265,0.2895631194114685,-3.007765293121338,0.911384642124176,75.6100082397461,35.95,0
-0.4583523571491241,-0.9016398191452026,0.2306071370840072,-1.7331689596176147,0.9109176397323608,75.6100082397461,35.95,0
-0.5404462218284607,-0.9200847744941713,0.2039681375026703,-1.312872290611267,0.9106178879737854,75.6100082397461,35.95,0
-0.5651404857635498,-0.9263238906860352,0.198068305850029,-1.3118432760238647,0.9104255437850952,75.6100082397461,35.95,0
-0.5138145685195923,-0.930327832698822,0.233466550707817,-1.4652336835861206,0.9103021025657654,75.6100082397461,35.95,0
-0.4193010032176971,-0.916104018688202,0.3065630793571472,-1.681895732879639,0.91205894947052,75.63150024414062,35.95,0
-0.3362565338611603,-0.8845848441123962,0.3646677732467651,-1.8961710929870603,0.9131864309310912,75.64529418945312,35.95,0
-0.2661700546741485,-0.8867487907409668,0.3683693706989288,-2.055176019668579,0.9139099717140198,75.65414428710938,35.95,0
-0.2211925834417343,-0.9217241406440736,0.3483537435531616,-2.2109549045562744,0.91437429189682,75.65982055664062,35.95,0
-0.1251553446054458,-0.9553648233413696,0.3131177723407745,-2.790990114212036,0.9146722555160522,75.66346740722656,35.95,0
-0.0523286238312721,-0.9321712851524352,0.2625164687633514,-4.381299018859863,0.9148634672164916,75.66580963134766,35.95,0
-0.0447770468890666,-0.9060914516448976,0.2076523751020431,-6.713090419769287,0.9149861931800842,75.66731262207031,35.95,0
-0.1127019450068473,-0.945332646369934,0.1556504368782043,-8.614331245422363,0.9150649309158324,75.66827392578125,35.95,0
-0.173085555434227,-1.009699821472168,0.1166808158159256,-9.37586784362793,0.912361204624176,75.66889190673828,35.95,0
-0.2118362784385681,-1.0678002834320068,0.0804768055677414,-9.556476593017578,0.9106261134147644,75.6692886352539,35.95,0
-0.1807265281677246,-1.0603036880493164,0.0908298045396804,-10.360236167907717,0.9095126390457152,75.66954040527344,35.95,0
-0.1439687609672546,-1.044297218322754,0.1086693108081817,-12.588513374328612,0.9087980389595032,75.6697006225586,35.95,0
-0.0923908650875091,-1.011634111404419,0.0921288058161735,-15.924424171447754,0.9083394408226012,75.66980743408203,35.95,0
-0.0536933653056621,-0.9794772267341614,0.0647207424044609,-18.642013549804688,0.9080451726913452,75.66987609863281,35.95,0
-0.0400550849735736,-0.9756340980529784,0.0415340475738048,-18.616214752197266,0.9078563451766968,75.669921875,35.95,0
-0.0257050488144159,-1.0067545175552368,0.0490452572703361,-15.060072898864746,0.9077351689338684,75.66995239257812,35.95,0
-0.038887120783329,-1.0155302286148071,0.0650610700249672,-8.93742561340332,0.9081166386604308,75.66996765136719,35.99,0
-0.1033243611454963,-1.0435529947280884,0.0977301970124244,-1.7696142196655271,0.9083614349365234,75.66997528076172,35.99,0
-0.150274246931076,-1.0671342611312866,0.1298909038305282,5.259260654449463,0.9085185527801514,75.66998291015625,35.99,0
-0.1636106520891189,-1.0542784929275513,0.1449320167303085,11.271087646484377,0.9086194038391112,75.66999053955078,35.99,0
-0.1945602893829345,-1.0460283756256104,0.1433890014886856,15.838481903076172,0.9086841344833374,75.66999053955078,35.99,0
-0.2312153130769729,-1.035136103630066,0.1535943299531936,19.59714698791504,0.9087256193161012,75.66999053955078,35.99,0
-0.2827272713184356,-1.011352777481079,0.1769368350505828,24.15520477294922,0.9087522625923156,75.66999053955078,35.99,0
-0.310186892747879,-0.9848944544792176,0.1975144892930984,30.684375762939453,0.9087693691253662,75.66999053955078,35.99,0
-0.2942222654819488,-0.9903061389923096,0.2107200473546981,38.15964126586914,0.9083210825920104,75.66999053955078,35.99,0
-0.2839770913124084,-1.038561224937439,0.2191946059465408,43.3115119934082,0.9080333709716796,75.66999053955078,35.99,0
-0.3109889626502991,-1.069528579711914,0.2358286529779434,42.67327117919922,0.9078487753868104,75.66999053955078,35.99,0
-0.3843013644218445,-1.0446194410324097,0.2744922935962677,34.77252197265625,0.9077302813529968,75.66999053955078,35.99,0
-0.4593379199504852,-1.0230363607406616,0.3104999363422394,21.122005462646484,0.9076542258262634,75.66999053955078,35.99,0
-0.5130898356437683,-1.104347825050354,0.3336075842380523,5.838018894195557,0.9076054096221924,75.66999053955078,35.99,0
-0.4692158699035644,-1.1565288305282593,0.3260456323623657,-6.492496490478516,0.9075741171836852,75.66999053955078,35.99,0
-0.4074734449386596,-1.1620267629623413,0.3267905712127685,-13.73915195465088,0.907554030418396,75.66999053955078,35.99,0
-0.3062751889228821,-1.0927839279174805,0.3440619707107544,-17.189476013183594,0.9052461385726928,75.695068359375,35.99,0
-0.2357342094182968,-1.0259567499160769,0.3383524417877197,-19.751205444335938,0.903765082359314,75.71116638183594,35.99,0
-0.2184539437294006,-0.960679829120636,0.2843084037303924,-23.179298400878903,0.9028146266937256,75.72149658203125,35.99,0
-0.2409511059522628,-0.9243866205215454,0.2216371893882751,-26.47193717956543,0.9022046327590942,75.7281265258789,35.99,0
-0.2721818089485168,-0.901095688343048,0.1702228635549545,-27.27732276916504,0.9018132090568542,75.73237609863281,35.99,0
-0.3090172111988067,-0.8861489295959473,0.1260325610637664,-24.98543357849121,0.901561975479126,75.735107421875,35.99,0
-0.332656055688858,-0.8709591627120972,0.1032715439796447,-21.35075569152832,0.9014008045196532,75.73686218261719,35.99,0
-0.331032782793045,-0.8500156998634338,0.0942626073956489,-18.25872230529785,0.9012973308563232,75.73798370361328,35.99,0
-0.3187955021858215,-0.8365753889083862,0.0884811878204345,-16.582534790039062,0.9026080965995787,75.73870849609375,35.99,0
-0.3109423220157623,-0.8167546391487122,0.090368777513504,-16.86823272705078,0.9034492373466492,75.73917388916016,35.99,0
-0.3115003705024719,-0.7928392887115479,0.1083734482526779,-18.95392417907715,0.9039890170097352,75.73947143554688,35.99,0
-0.3174562752246856,-0.7774918079376221,0.1255255788564682,-21.11997604370117,0.9043354392051696,75.73966217041016,35.99,0
-0.2988873422145843,-0.7620449066162109,0.1365328282117843,-21.342103958129883,0.904557764530182,75.73978424072266,35.99,0
-0.2645797729492187,-0.7689252495765686,0.1324011087417602,-19.20255279541016,0.9047004580497742,75.73986053466797,35.99,0
-0.2481609135866165,-0.7789384722709656,0.1241518333554267,-15.78386116027832,0.9047920107841492,75.73990631103516,35.99,0
-0.2544175684452057,-0.8077554702758789,0.1412490159273147,-12.14258098602295,0.9048507809638976,75.73993682861328,35.99,0
-0.2640304863452911,-0.8766285181045532,0.1746121048927307,-8.874346733093262,0.903052031993866,75.73995971679688,35.97,0
-0.2701995074748993,-0.9320228099822998,0.2072181701660156,-6.612184047698975,0.9018977284431458,75.73997497558594,35.97,0
-0.296549528837204,-1.0403428077697754,0.2505339682102203,-5.762331008911133,0.9011569619178772,75.73998260498047,35.97,0
-0.296666145324707,-1.137845158576965,0.2727337777614593,-5.861807823181152,0.9006815552711487,75.739990234375,35.97,0
-0.2967409789562225,-1.178025484085083,0.2589914500713348,-5.9256463050842285,0.9003764986991882,75.739990234375,35.97,0
-0.3023867607116699,-1.1534309387207031,0.255770206451416,-5.379072189331055,0.9001806974411011,75.739990234375,35.97,0
-0.2836188077926636,-1.0648765563964844,0.2593007683753967,-4.344040393829346,0.9000550508499146,75.739990234375,35.97,0
-0.221194639801979,-1.0136451721191406,0.2671642601490021,-3.1352648735046387,0.8999744057655334,75.739990234375,35.97,0
-0.2371121495962143,-1.0199521780014038,0.2778083682060241,-1.514054536819458,0.8990048170089722,75.739990234375,35.97,0
-0.3592825829982757,-1.029597520828247,0.2454547137022018,1.7152985334396362,0.8983826041221619,75.739990234375,35.97,0
-0.454477846622467,-1.0357873439788818,0.219094231724739,7.853935241699219,0.8979833126068115,75.739990234375,35.97,0
-0.4987753629684448,-1.011770725250244,0.1797864884138107,16.626253128051758,0.8977270722389221,75.739990234375,35.97,0
-0.4432363510131836,-0.9683693647384644,0.1601588129997253,25.544626235961918,0.8975626230239868,75.739990234375,35.97,0
-0.396399050951004,-0.9237235188484192,0.1531606763601303,31.32524681091309,0.8974570631980896,75.739990234375,35.97,0
-0.3495482504367828,-0.8111057877540588,0.1318763494491577,32.430381774902344,0.8973893523216248,75.739990234375,35.97,0
-0.3026887774467468,-0.7220408916473389,0.0958262011408805,30.416837692260746,0.8973459005355835,75.739990234375,35.97,0
-0.328594833612442,-0.7992307543754578,0.0894846096634864,28.39739799499512,0.8959408402442932,75.77581787109375,35.97,0
-0.4235886633396148,-0.9327333569526672,0.135794922709465,27.807205200195312,0.8950391411781311,75.79881286621094,35.97,0
-0.4957458078861236,-1.001614332199097,0.1487208902835846,26.869571685791016,0.8944604992866516,75.81356811523438,35.97,0
-0.4972698986530304,-1.023427128791809,0.1122338324785232,22.71751976013184,0.8940891623497009,75.82303619384766,35.97,0
-0.4758568704128265,-1.031827449798584,0.0776229873299598,15.040948867797852,0.8938508629798889,75.82910919189453,35.97,0
-0.3949419260025024,-1.0316206216812134,0.0554117411375045,6.603643417358398,0.8936979174613953,75.8330078125,35.97,0
-0.1750821471214294,-1.0202922821044922,0.0747444853186607,0.0211465582251548,0.8935997486114502,75.83551025390625,35.97,0
0.3074754476547241,-0.990631341934204,0.1599221974611282,-4.582873821258545,0.8935367465019226,75.83712005615234,35.97,0
0.4380243420600891,-0.7644789814949036,0.1082266345620155,-8.275480270385742,0.8939552903175354,75.83815002441406,35.97,0
0.4882164597511291,-0.636140763759613,0.0582580789923667,-11.419017791748049,0.8942238688468933,75.83881378173828,35.97,0
0.5708068609237671,-0.6097583770751953,0.0821688771247863,-13.683557510375977,0.8943962454795837,75.83924102783203,35.97,0
0.422288715839386,-0.6823921203613281,0.0135468346998095,-14.77855110168457,0.8945068717002869,75.83950805664062,35.97,0
0.3101850152015686,-0.7569931149482727,-0.0920663550496101,-14.807730674743652,0.8945778608322144,75.83968353271484,35.97,0
0.2830255031585693,-0.8048677444458008,-0.1542450487613678,-14.349973678588867,0.8946233987808228,75.83979797363281,35.97,0
0.2655960917472839,-0.9027642011642456,-0.1437677890062332,-13.77677059173584,0.8946526050567627,75.8398666381836,35.97,0
0.2376175820827484,-0.9935774207115172,-0.1034574434161186,-12.280410766601562,0.8946713805198669,75.83991241455078,35.97,0
0.2308581322431564,-1.0350627899169922,-0.066393032670021,-8.507811546325684,0.8910109400749207,75.8399429321289,35.97,0
0.2097269743680954,-1.0336967706680298,-0.059400551021099,-2.6833271980285645,0.8886618614196777,75.8399658203125,35.97,0
0.2409484088420868,-1.0608090162277222,-0.1780642122030258,2.860109329223633,0.8871543407440186,75.83997344970703,35.97,0
0.6752198338508606,-1.2797280550003052,-0.2318246215581894,5.969745635986328,0.8861868977546692,75.83998107910156,35.97,0
0.8979324698448181,-1.4202176332473757,-0.0256206560879945,6.65769100189209,0.8855660557746887,75.8399887084961,35.97,0
0.4083081185817718,-1.3088558912277222,0.1458936035633087,6.121131896972656,0.88516765832901,75.8399887084961,35.97,0
0.1836597919464111,-1.2877702713012695,0.1272127628326416,5.06028413772583,0.8849120140075684,75.8399887084961,35.97,0
0.1906333565711975,-1.2182610034942627,0.1096267029643058,3.99615740776062,0.8847479224205017,75.8399887084961,35.97,0
0.1055441945791244,-1.1400673389434814,0.0703521072864532,3.893639326095581,0.8841837048530579,75.8399887084961,35.97,0
0.146101027727127,-1.050702691078186,0.0507457070052623,5.196393013000488,0.8838216066360474,75.8399887084961,35.97,0
0.1721280664205551,-0.9149848222732544,0.071750096976757,7.193180084228516,0.8835892081260681,75.8399887084961,35.97,0
0.1944285035133361,-0.8054977655410767,0.1020228266716003,9.148126602172852,0.8834400773048401,75.8399887084961,35.97,0
0.1639574468135833,-0.7688219547271729,0.1718300879001617,10.972329139709473,0.8833444118499756,75.8399887084961,35.97,0
0.1332073211669922,-0.8404476642608643,0.1942372769117355,12.597984313964844,0.8832830190658569,75.8399887084961,35.97,0
-0.0152751486748456,-1.1271172761917114,0.1862258166074752,13.874103546142578,0.8832436203956604,75.8399887084961,35.97,0
-0.037791583687067,-1.0423921346664429,0.214671179652214,14.62855625152588,0.8832182884216309,75.8399887084961,35.97,0
-0.1082190796732902,-0.9488359689712524,0.2217302173376083,13.991374969482422,0.8822838664054871,75.89015197753906,35.97,0
-0.2205886840820312,-1.0511324405670166,0.2318580746650695,10.737903594970703,0.8816841840744019,75.9223403930664,35.97,0
-0.3206898868083954,-1.0664005279541016,0.1991731375455856,5.124758720397949,0.8812993168830872,75.94300079345703,35.97,0
-0.35694020986557,-1.0146231651306152,0.178197830915451,-1.060471773147583,0.8810523748397827,75.95626068115234,35.97,0
-0.4305835664272308,-0.9646021127700806,0.1479437500238418,-6.60971212387085,0.880893886089325,75.96476745605469,35.97,0
-0.4946369528770447,-0.9436970353126526,0.1397239714860916,-11.238503456115724,0.8807922005653381,75.97022247314453,35.97,0
-0.5357427000999451,-0.8910969495773315,0.1232534497976303,-13.811328887939451,0.8807269334793091,75.97372436523438,35.97,0
-0.6628819704055786,-0.8629390001296997,0.1126836165785789,-12.460222244262695,0.880685031414032,75.9759750366211,35.97,0
-0.6940926909446716,-0.8952488303184509,0.1506827026605606,-7.294068336486816,0.8889210224151611,75.9774169921875,35.97,0
-0.6749374866485596,-0.921581208705902,0.1974594295024871,-1.0911725759506226,0.8942064046859741,75.97834014892578,35.97,0
-0.6514492034912109,-0.9160887002944946,0.1994891613721847,2.8393328189849854,0.8975982666015625,75.97893524169922,35.97,0
-0.6307780146598816,-0.8565861582756042,0.1951939463615417,2.703433990478516,0.899774968624115,75.97931671142578,35.97,0
-0.6343057751655579,-0.8239986300468445,0.2092308551073074,-0.8588763475418091,0.9011718034744264,75.97956085205078,35.97,0
-0.6365696787834167,-0.8254769444465637,0.2126411646604538,-4.724877834320068,0.902068257331848,75.97972106933594,35.97,0
-0.6156314015388489,-0.8488167524337769,0.1532541811466217,-5.858806610107422,0.9026435017585754,75.97982025146484,35.97,0
-0.6357811093330383,-0.8358060121536255,0.081556387245655,-4.702062129974365,0.9030126929283142,75.97988891601562,35.97,0
-0.6878964304924011,-0.7938697934150696,0.0523381941020488,-4.131693840026856,0.91288959980011,75.97992706298828,35.97,0
-0.8556876182556152,-0.7053820490837097,0.1175542548298835,-6.112251281738281,0.9192280173301696,75.9799575805664,35.97,0
-1.0641262531280518,-0.6374001502990723,0.1817972660064697,-8.963174819946289,0.9232956767082214,75.97997283935547,35.97,0
-1.15310800075531,-0.5657843947410583,0.1894380897283554,-8.077140808105469,0.9259060621261596,75.97998046875,35.97,0
-1.1990158557891846,-0.5198255181312561,0.177548199892044,-1.514886736869812,0.927581250667572,75.97998809814453,35.97,0
-1.2116835117340088,-0.490331768989563,0.2035046070814132,7.4934587478637695,0.928656280040741,75.97999572753906,35.97,0
-1.1414440870285034,-0.4770021736621856,0.1977708339691162,12.790849685668944,0.929346203804016,75.97999572753906,35.97,0
-1.096368432044983,-0.4740457832813263,0.1996890008449554,10.48336696624756,0.9297889471054076,75.97999572753906,35.97,0
-0.9666815400123596,-0.4217685461044311,0.2289088517427444,2.238654375076294,0.92548269033432,75.97999572753906,35.97,0
-0.8274782299995422,-0.3658289313316345,0.2588559985160827,-5.825241565704346,0.922719180583954,75.97999572753906,35.97,0
-0.6877655982971191,-0.3467234373092651,0.2780743539333343,-9.223227500915527,0.9209457635879515,75.97999572753906,35.97,0
-0.5813127160072327,-0.3512559533119201,0.307200938463211,-10.071141242980955,0.9198076725006104,75.97999572753906,35.97,0
-0.5465840697288513,-0.3653602004051208,0.3482837975025177,-12.51404857635498,0.9190773367881776,75.97999572753906,35.97,0
-0.5634816288948059,-0.3744114935398102,0.3802461624145508,-14.973827362060549,0.9186086058616638,75.97999572753906,35.97,0
-0.6023143529891968,-0.3466334640979767,0.4063555598258972,-11.963092803955078,0.9183078408241272,75.97999572753906,35.97,0
-0.6832126975059509,-0.2952204644680023,0.4287088513374328,-2.446663856506348,0.9181147813796996,75.97999572753906,35.97,0
-0.7799108028411865,-0.2678243517875671,0.4430539011955261,9.381805419921877,0.9207451939582824,76.03373718261719,35.97,0
-0.8251727819442749,-0.2166564464569091,0.4466619491577148,19.362215042114254,0.9224332571029664,76.06822204589844,35.97,0
-0.8654148578643799,-0.1502331793308258,0.4713684916496277,25.75990104675293,0.9235165119171144,76.0903549194336,35.97,0
-0.8968376517295837,-0.1076065525412559,0.4928214848041534,28.43253898620605,0.9242116808891296,76.10456085205078,35.97,0
-0.9058074951171876,-0.0466645918786525,0.5009909868240356,28.33489990234375,0.9246578216552734,76.1136703491211,35.97,0
-0.8891726732254028,0.0148355476558208,0.4894404113292694,26.771141052246094,0.9249441623687744,76.11952209472656,35.97,0
-0.8728996515274048,0.0710961148142814,0.4764301478862762,24.30950355529785,0.9251278638839722,76.12327575683594,35.97,0
-0.8512610197067261,0.1351897865533828,0.451287567615509,19.809967041015625,0.925245761871338,76.12568664550781,35.97,0
-0.826179027557373,0.2043102830648422,0.4183591902256012,11.60229778289795,0.9234853982925416,76.12722778320312,35.97,0
-0.7820940017700195,0.2654611766338348,0.3860321044921875,0.2411267310380935,0.9223556518554688,76.12821960449219,35.97,0
-0.7649983167648315,0.3326931595802307,0.3764820098876953,-10.754201889038086,0.9216306805610656,76.12885284423828,35.97,0
-0.7820161581039429,0.3870343267917633,0.3647555112838745,-17.473608016967773,0.921165406703949,76.12926483154297,35.97,0
-0.7649483680725098,0.4554940164089203,0.3404368162155151,-18.934005737304688,0.920866847038269,76.12952423095703,35.97,0
-0.7651907801628113,0.5050252676010132,0.3304282426834106,-17.202186584472656,0.9206752181053162,76.12969207763672,35.97,0
-0.7989329695701599,0.5368115901947021,0.3128097653388977,-15.030362129211426,0.9205522537231444,76.12979888916016,35.97,0
-0.7870001196861267,0.6019924283027649,0.2903077006340027,-14.127423286437988,0.920473337173462,76.12986755371094,35.97,0
-0.796135663986206,0.6270284056663513,0.2870627045631408,-15.0239896774292,0.9181273579597472,76.12991333007812,35.97,0
-0.8187916278839111,0.6095083951950073,0.2737846970558166,-17.150609970092773,0.9166218042373656,76.12994384765625,35.97,0
-0.7941464781761169,0.592667281627655,0.2764591872692108,-19.020496368408203,0.9156556725502014,76.12996673583984,35.97,0
-0.7559395432472229,0.6042507290840149,0.2781755328178406,-19.12421226501465,0.9150356650352478,76.12997436523438,35.97,0
-0.7706049680709839,0.6116843223571777,0.2624836564064026,-17.506961822509766,0.9146377444267272,76.1299819946289,35.97,0
-0.7800164222717285,0.6108570098876953,0.2468157410621643,-16.010534286499023,0.9143823981285096,76.12998962402344,35.97,0
-0.7748605608940125,0.6215215921401978,0.2591520845890045,-16.329191207885742,0.914218544960022,76.12998962402344,35.97,0
-0.7659540772438049,0.6395610570907593,0.2670688331127167,-18.41095733642578,0.9141134023666382,76.12998962402344,35.97,0
-0.7378473281860352,0.6623333096504211,0.2441604733467102,-21.14053726196289,0.9158819913864136,76.12998962402344,35.97,0
-0.7310055494308472,0.682545006275177,0.2742413878440857,-23.5693302154541,0.9170169234275818,76.12998962402344,35.97,0
-0.7210171222686768,0.7011135220527649,0.2879478335380554,-25.04200935363769,0.9177452921867372,76.12998962402344,35.97,0
-0.675422728061676,0.7018341422080994,0.2575594186782837,-24.88007354736328,0.9182127118110656,76.12998962402344,35.97,0
-0.6125761866569519,0.7134921550750732,0.2380578815937042,-22.411651611328125,0.9185126423835754,76.12998962402344,35.97,0
-0.5722449421882629,0.7657557725906372,0.2367384582757949,-17.735797882080078,0.9187051653862,76.12998962402344,35.97,0
-0.5967426300048828,0.9168488383293152,0.2414894998073578,-12.642881393432615,0.9188287258148192,76.12998962402344,35.97,0
-0.6068660616874695,0.9466383457183838,0.2557339966297149,-9.815196990966797,0.9189079999923706,76.12998962402344,35.97,0
-0.5461893677711487,0.881788969039917,0.2144953310489654,-10.09994125366211,0.9194181561470032,76.1908950805664,35.97,0
-0.518446147441864,0.8289768099784851,0.1768351793289184,-11.676295280456545,0.9197455644607544,76.22998046875,35.97,0
-0.5286309719085693,0.800682783126831,0.1582648307085037,-12.580431938171388,0.9199556708335876,76.25506591796875,35.97,0
-0.5575581192970276,0.844100832939148,0.1575430035591125,-12.741493225097656,0.9200904965400696,76.27116394042969,35.97,0
-0.5705241560935974,0.8607684969902039,0.1570797711610794,-12.63706398010254,0.9201770424842834,76.281494140625,35.97,0
-0.5340628027915955,0.865867018699646,0.1679780483245849,-11.219415664672852,0.9202325344085692,76.28812408447266,35.97,0
-0.5386528968811035,0.8579434156417847,0.1749719381332397,-6.375982761383057,0.920268177986145,76.2923812866211,35.97,0
-0.5471963286399841,0.8528585433959961,0.2130468636751175,2.8011364936828613,0.9202910661697388,76.29511260986328,35.97,0
-0.5022990107536316,0.8551931381225586,0.2430789321660995,14.759366989135742,0.9244371652603148,76.29686737060547,35.97,0
-0.4343020915985107,0.856691300868988,0.2735473215579986,26.54626846313477,0.9270979166030884,76.29798889160156,35.97,0
-0.3514811396598816,0.8632505536079407,0.3322845995426178,35.88379669189453,0.928805410861969,76.29871368408203,35.97,0
-0.2815380990505218,0.8730576634407043,0.3923698961734772,42.15911102294922,0.9299011826515198,76.29917907714844,35.97,0
-0.1862727254629135,0.8793513178825378,0.4421247541904449,45.88888931274414,0.9306043982505798,76.29947662353516,35.97,0
-0.113941341638565,0.8442057967185974,0.4908478558063507,47.76297378540039,0.9310556650161744,76.29966735839844,35.97,0
-0.0451321229338645,0.7936625480651855,0.5501044392585754,48.19540023803711,0.931345283985138,76.29978942871094,35.97,0
0.0494056455790996,0.7108468413352966,0.6161207556724548,47.47336959838867,0.9315311312675476,76.29986572265625,35.97,0
0.1436611860990524,0.6241137981414795,0.6808773279190063,45.992557525634766,0.9293550252914428,76.29991149902344,35.97,0
0.192953422665596,0.5348668694496155,0.7392277121543884,43.94240951538086,0.9279585480690002,76.29994201660156,35.97,0
0.2469774335622787,0.4384089410305023,0.731891393661499,41.032493591308594,0.9270623326301576,76.29996490478516,35.97,0
0.2704513967037201,0.3709100186824798,0.7383789420127869,36.86148071289063,0.9264872074127196,76.29998016357422,35.97,0
0.2631245255470276,0.3723752796649933,0.8097155690193176,31.110916137695312,0.9261181354522704,76.29998779296875,35.97,0
0.2472270131111145,0.4236955642700195,0.8498975038528442,23.544187545776367,0.9258812665939332,76.29999542236328,35.97,0
0.0914827734231948,0.7085298299789429,0.8532928824424744,14.149173736572266,0.925729274749756,76.29999542236328,35.97,0
0.0307195056229829,0.589040219783783,0.7435163855552673,3.222614049911499,0.9256317019462584,76.29999542236328,35.97,0
0.0085184620693326,0.428392082452774,0.6618725657463074,-8.145834922790527,0.9269462823867798,76.29999542236328,35.97,0
-0.1680643409490585,0.2413307428359985,0.4863272309303283,-17.823863983154297,0.927789866924286,76.29999542236328,35.97,0
-0.3933404982089996,0.1380788534879684,0.306499034166336,-24.17080307006836,0.9283312559127808,76.29999542236328,35.97,0
-0.5938875675201416,0.0550244152545928,0.1631067842245102,-26.91476821899414,0.9286786913871764,76.29999542236328,35.97,0
-0.873727023601532,0.0465070493519306,0.0319014713168144,-25.4764461517334,0.9289016723632812,76.29999542236328,35.97,0
-1.0085296630859375,0.0186499990522861,-0.0411029942333698,-19.097152709960938,0.9290447235107422,76.29999542236328,35.97,0
-1.2013959884643557,0.0063707213848829,-0.1047463789582252,-9.575687408447266,0.9291365742683412,76.29999542236328,35.97,0
-1.4091330766677856,0.0096861366182565,-0.1399912685155868,-1.0471200942993164,0.9291954636573792,76.29999542236328,35.97,0
-1.5816311836242676,0.028607103973627,-0.1514138579368591,3.5017189979553223,0.928774356842041,76.36448669433594,35.97,0
-1.7315149307250977,0.0407494902610778,-0.3154819011688232,4.439737796783447,0.9285041093826294,76.40586853027344,35.97,0
-1.497433066368103,0.0597373247146606,-0.2808269560337066,4.844662666320801,0.928330659866333,76.43242645263672,35.97,0
-1.028139591217041,0.0439337491989135,-0.0850564241409301,7.228987693786621,0.9282193779945374,76.44947052001953,35.97,0
-0.8445273637771606,0.0505852475762367,0.0069912015460431,10.202888488769531,0.9281479716300964,76.46041107177734,35.97,0
-0.8610422015190125,0.0604515708982944,0.0940509364008903,10.527868270874023,0.9281021356582642,76.4674301147461,35.97,0
-0.9108248949050904,0.0667832121253013,0.1163342222571373,8.368338584899902,0.9280726909637452,76.47193145751953,35.97,0
-1.0435324907302856,0.0652487203478813,0.07465660572052,7.190266609191895,0.9280537962913512,76.47482299804688,35.97,0
-1.212663173675537,0.053068421781063,-0.0416540801525116,8.8417387008667,0.9303367137908936,76.47667694091797,35.97,0
-1.1476705074310305,0.0452518053352832,-0.0715133845806121,11.936460494995115,0.931801736354828,76.47786712646484,35.97,0
-1.038788676261902,0.0570288747549057,-0.0570887215435504,14.287898063659668,0.93274188041687,76.47863006591797,35.97,0
-1.030490159988403,0.0645867213606834,-0.0590273514389991,14.833202362060549,0.9333452582359314,76.47911834716797,35.97,0
-1.0307624340057373,0.0750346854329109,-0.0714670047163963,13.166157722473145,0.9337324500083924,76.47943878173828,35.97,0
-1.064523696899414,0.0705440416932106,-0.0906456038355827,8.47077751159668,0.9339809417724608,76.47964477539062,35.97,0
-1.0749942064285278,0.067662201821804,-0.0973555520176887,-0.0524483248591423,0.9341403841972352,76.47977447509766,35.97,0
-1.0425292253494265,0.0714105814695358,-0.073672741651535,-11.465657234191896,0.9342427253723145,76.4798583984375,35.97,0
-1.0272928476333618,0.0682182982563972,-0.0360833778977394,-22.89204788208008,0.9315541386604308,76.47991180419922,35.99,0
-1.0231127738952637,0.060571901500225,-0.0063629117794334,-32.037628173828125,0.9298287034034728,76.47994232177734,35.99,0
-1.026028037071228,0.0612626560032367,0.012709972448647,-38.04287338256836,0.9287214279174804,76.47996520996094,35.99,0
-1.0278987884521484,0.0729014948010444,0.0193520784378051,-40.22721481323242,0.928010880947113,76.47998046875,35.99,0
-1.0067082643508911,0.085968405008316,0.0180168244987726,-37.03255462646485,0.9275548458099364,76.47998809814453,35.99,0
-1.0043050050735474,0.0775606706738472,0.0283554848283529,-27.89607048034668,0.9272621870040894,76.47999572753906,35.99,0
-1.013958215713501,0.0609695240855217,0.0349902398884296,-15.76329517364502,0.927074372768402,76.47999572753906,35.99,0
-1.0257508754730225,0.0559200532734394,0.0336502715945243,-5.003640174865723,0.9269538521766664,76.47999572753906,35.99,0
-1.0333187580108645,0.0526795946061611,0.0327903553843498,3.230422258377075,0.9282536506652832,76.47999572753906,35.99,0
-1.0269798040390017,0.0617956034839153,0.0322385132312774,10.45632553100586,0.9290878176689148,76.47999572753906,35.99,0
-1.017314076423645,0.0732435062527656,0.0262865964323282,13.549405097961426,0.9296231269836426,76.47999572753906,35.99,0
-1.0167089700698853,0.074992336332798,0.0280647724866867,5.829168319702148,0.9299666285514832,76.47999572753906,35.99,0
-1.0219184160232544,0.070516861975193,0.0348036773502826,-15.698229789733888,0.9301871061325072,76.47999572753906,35.99,0
-1.0252615213394165,0.073242537677288,0.0391283184289932,-45.305267333984375,0.9303285479545592,76.47999572753906,35.99,0
-1.021809220314026,0.0749917179346084,0.0363058522343635,-69.56816101074219,0.9304193258285522,76.47999572753906,35.99,0
-1.0195937156677246,0.0705164670944213,0.0400923304259777,-76.62290954589844,0.9304776191711426,76.47999572753906,35.99,0
-1.0237696170806885,0.0732422843575477,0.0369245000183582,-67.75141143798828,0.9286789298057556,76.58030700683594,35.99,0
-1.0264495611190796,0.0637960061430931,0.0404893420636653,-56.54460906982422,0.9275246262550354,76.64468383789062,35.99,0
-1.0281693935394287,0.0577339269220829,0.0427770540118217,-45.77373504638672,0.9267838597297668,76.68599700927734,35.99,0
-1.0180774927139282,0.0650391802191734,0.044245172291994,-27.12150764465332,0.9263085126876832,76.71250915527344,35.99,0
-1.0116010904312134,0.064129501581192,0.0451873280107975,-3.3577444553375244,0.9260034561157228,76.72952270507812,35.99,0
-1.0074448585510254,0.0635457187891006,0.0457919500768184,15.213520050048828,0.9258076548576356,76.74044036865234,35.99,0
-1.0103754997253418,0.0687688589096069,0.0405821874737739,21.428028106689453,0.925682008266449,76.74745178222656,35.99,0
-1.0178539752960205,0.0721207708120346,0.0428366363048553,14.012803077697754,0.9256014227867126,76.75194549560547,35.99,0
-1.0226532220840454,0.0798696056008338,0.0442834123969078,1.3617249727249146,0.9264678955078124,76.75482940673828,35.99,0
-1.0145375728607178,0.0848423615097999,0.0396140925586223,2.6042606830596924,0.927023947238922,76.75668334960938,35.99,0
-1.0149271488189695,0.0824358165264129,0.0366175919771194,27.136211395263672,0.9273808002471924,76.75787353515625,35.99,0
-1.0151771306991575,0.0752936601638794,0.0346946120262146,62.15366363525391,0.9276098012924194,76.75863647460938,35.99,0
-1.0097397565841677,0.0707102343440055,0.0334605537354946,87.52056884765625,0.9277567863464355,76.75912475585938,35.99,0
-1.0174459218978882,0.067768856883049,0.0270708315074443,91.57583618164062,0.9278510808944702,76.75943756103516,35.99,0
-1.0167936086654663,0.0602834746241569,0.022970275953412,72.79747009277344,0.9279115796089172,76.7596435546875,35.99,0
-1.016374945640564,0.0610775612294673,0.0203387755900621,40.18619155883789,0.9279504418373108,76.75977325439453,35.99,0
-1.0161062479019165,0.0503916107118129,0.0186500307172536,11.921032905578612,0.9275161027908324,76.75985717773438,35.99,0
-1.021531581878662,0.0491317585110664,0.0175662897527217,0.0336765311658382,0.927237331867218,76.7599105834961,35.99,0
-1.0250133275985718,0.0539210326969623,0.0112730339169502,-1.3935058116912842,0.9270584583282472,76.75994110107422,35.99,0
-1.0216498374938965,0.0569945126771926,0.0072343843057751,-4.698966979980469,0.9269436597824096,76.75996398925781,35.99,0
-1.01949143409729,0.0589668937027454,0.0046426113694906,-12.398292541503906,0.9268699884414672,76.75997924804688,35.99,0
-1.01810622215271,0.0602326542139053,0.0029793607536703,-19.53181266784668,0.9268227219581604,76.7599868774414,35.99,0
-1.0228151082992554,0.0610449463129043,0.0019119821954518,-23.05641746520996,0.9267923831939696,76.75999450683594,35.99,0
-1.025836944580078,0.0615662299096584,0.0068247746676206,-23.43387222290039,0.9267728924751282,76.75999450683594,35.99,0
-1.0277762413024902,0.0674985349178314,0.0099775223061442,-22.325469970703125,0.9235472083091736,76.75999450683594,35.99,0
-1.0290207862854004,0.0713055431842804,0.0120007740333676,-21.46010971069336,0.9214771389961244,76.75999450683594,35.99,0
-1.024221658706665,0.0737486630678176,0.0132991801947355,-21.78608512878418,0.9201486706733704,76.75999450683594,35.99,0
-1.0211418867111206,0.0697187408804893,0.0141324223950505,-21.418481826782227,0.919296145439148,76.75999450683594,35.99,0
-1.0191653966903689,0.0671325698494911,0.0146671496331691,-16.804668426513672,0.9187490344047546,76.75999450683594,35.99,0
-1.023494839668274,0.0654729157686233,0.0150103066116571,-7.14078950881958,0.9183979630470276,76.75999450683594,35.99,0
-1.0262731313705444,0.0644078478217125,0.0152305252850055,4.234170913696289,0.9181726574897766,76.75999450683594,35.99,0
-1.02245831489563,0.0637243464589119,0.0153718488290905,13.303757667541504,0.9180280566215516,76.75999450683594,35.99,0
-1.025607943534851,0.0632857158780098,0.0154625419527292,18.55805015563965,0.9197713136672974,76.85314178466797,35.99,0
-1.0220314264297483,0.0630042254924774,0.0155207440257072,20.4790096282959,0.9208900332450868,76.91291809082031,35.99,0
-1.0197362899780271,0.062823586165905,0.0099603198468685,19.99213409423828,0.9216079711914062,76.95127868652344,35.99,0
-1.0238611698150637,0.0627076625823974,0.0063919597305357,17.791667938232422,0.92206871509552,76.97589874267578,35.99,0
-1.0209105014801023,0.0626332685351371,0.0041019916534423,14.423449516296388,0.922364354133606,76.99169921875,35.99,0
-1.024614691734314,0.062585525214672,0.0082301963120698,10.538702011108398,0.922554075717926,77.00183868408203,35.99,0
-1.026991844177246,0.0625548884272575,0.0052816662937402,6.820453643798828,0.922675848007202,77.00834655761719,35.99,0
-1.022919535636902,0.0625352263450622,0.0089872442185878,3.531486749649048,0.9227539896965028,77.01251983642578,35.99,0
-1.0259039402008057,0.062522605061531,0.0057674958370625,0.4176960289478302,0.9218863248825072,77.01519775390625,35.99,0
-1.0222214460372925,0.0625145062804222,0.0092990212142467,-2.701901912689209,0.9213294982910156,77.01691436767578,35.99,0
-1.0254559516906738,0.0625093057751655,0.0115653509274125,-5.606689453125,0.9209721684455872,77.01802062988281,35.99,0
-1.0275317430496216,0.0625059753656387,0.0130197508260607,-8.051192283630371,0.9207428097724916,77.01873016357422,35.99,0
-1.023266077041626,0.0625038370490074,0.0139531008899211,-10.232553482055664,0.920595645904541,77.01918029785156,35.99,0
-1.0205285549163818,0.0625024586915969,0.0145520716905593,-12.925735473632812,0.920501172542572,77.01947021484375,35.99,0
-1.0243695974349976,0.0625015795230865,0.0149364564567804,-16.642393112182617,0.9204405546188354,77.01966094970703,35.99,0
-1.0268346071243286,0.0625010132789611,0.0151831321418285,-19.94108772277832,0.920401692390442,77.01978302001953,35.99,0
-1.022818684577942,0.0625006482005119,0.0153414346277713,-19.52511978149414,0.919458508491516,77.01985931396484,35.99,0
-1.0202414989471436,0.0625004172325134,0.015443024225533,-13.52247142791748,0.918853223323822,77.01990509033203,35.99,0
-1.018587589263916,0.0625002682209014,0.0155082186684012,-3.8808748722076416,0.9184647798538208,77.01993560791016,35.99,0
-1.0231239795684814,0.0625001713633537,0.0155500564724206,5.588185787200928,0.91821551322937,77.01995849609375,35.99,0
-1.026035189628601,0.0625001117587089,0.0155769055709242,12.496041297912598,0.918055534362793,77.01997375488281,35.99,0
-1.022305607795715,0.0625000745058059,0.0155941359698772,16.316484451293945,0.9179528951644896,77.01998138427734,35.99,0
-1.0255099534988403,0.0625000447034835,0.0100074186921119,17.277873992919922,0.9178870320320128,77.01998901367188,35.99,0
-1.0275663137435913,0.0625000298023223,0.0120199592784047,16.092803955078125,0.9178447723388672,77.01998901367188,35.99,0
-1.0232882499694824,0.0625000223517417,0.0133114922791719,13.806116104125977,0.9187358617782592,77.01998901367188,35.99,0
-1.020542860031128,0.0625000149011612,0.0141403237357735,10.945029258728027,0.9193077087402344,77.01998901367188,35.99,0
-1.0187809467315674,0.0625000074505806,0.0146722206845879,7.443051338195801,0.9196746945381165,77.01998901367188,35.99,0
-1.0232480764389038,0.0625000074505806,0.0150135606527328,3.6265151500701904,0.919910192489624,77.01998901367188,35.99,0
-1.020517110824585,0.0625000074505806,0.0152326133102178,0.3891152441501617,0.9200612902641296,77.01998901367188,35.99,0
-1.0243622064590454,0.0625000074505806,0.0097754141315817,-1.8425124883651731,0.9201582670211792,77.01998901367188,35.99,0
-1.0268298387527466,0.0625000074505806,0.0062732980586588,-3.679473638534546,0.9202204942703248,77.01998901367188,35.99,0
-1.0284134149551392,0.0625000074505806,0.0096236160025,-5.997588634490967,0.9202604293823242,77.01998901367188,35.99,0
-1.023831844329834,0.0625000074505806,0.011773657053709,-9.036476135253906,0.9198268055915833,77.10955810546875,35.99,0
-1.0208916664123535,0.0625000074505806,0.0131534300744533,-12.391029357910156,0.919548511505127,77.16703796386719,35.99,0
-1.0246026515960691,0.0625000074505806,0.0140388887375593,-15.708125114440918,0.91936993598938,77.20392608642578,35.99,0
-1.0213863849639893,0.0625000074505806,0.0146071249619126,-19.259130477905277,0.9192553162574768,77.22760009765625,35.99,0
-1.0193222761154177,0.0625000074505806,0.0149717861786484,-23.798564910888672,0.919181764125824,77.24279022216797,35.99,0
-1.0179977416992188,0.0625000074505806,0.0096080303192138,-28.954404830932617,0.919134557247162,77.2525405883789,35.99,0
-1.017147660255432,0.0625000074505806,0.0117636555805802,-31.63617515563965,0.919104278087616,77.25879669189453,35.99,0
-1.0166021585464478,0.0625000074505806,0.0131470113992691,-27.90808486938477,0.9190848469734192,77.26280975341797,35.99,0
-1.016252040863037,0.0625000074505806,0.0140347694978117,-17.21478271484375,0.9190723299980164,77.265380859375,35.99,0
-1.0216251611709597,0.0625000074505806,0.0146044818684458,-3.251771211624145,0.9190643429756165,77.26703643798828,35.99,0
-1.0250732898712158,0.0625000074505806,0.0093723153695464,9.499249458312988,0.9190592169761658,77.26809692382812,35.99,0
-1.027286171913147,0.0625000074505806,0.0116123873740434,18.61717414855957,0.9190558791160583,77.2687759399414,35.99,0
-1.028706192970276,0.0625000074505806,0.0130499359220266,23.583635330200195,0.9190537929534912,77.26921081542969,35.99,0
-1.024019718170166,0.0625000074505806,0.0083746975287795,24.857728958129883,0.9190524220466614,77.26949310302734,35.99,0
-1.026610016822815,0.0625000074505806,0.0053743990138173,23.59031105041504,0.9190515279769896,77.2696762084961,35.99,0
-1.022674560546875,0.0625000074505806,0.0034489799290895,21.16837882995605,0.9190509915351868,77.26979064941406,35.99,0
-1.020148992538452,0.0625000074505806,0.0022133567836135,18.2885684967041,0.918132781982422,77.26986694335938,36.0,0
-1.0185282230377195,0.0625000074505806,0.007018179167062,14.83906078338623,0.9175435304641724,77.26991271972656,36.0,0
-1.0174881219863892,0.0625000074505806,0.010101637803018,11.052614212036133,0.9171653985977172,77.26994323730469,36.0,0
-1.0168206691741943,0.0625000074505806,0.012080424465239,7.924088954925537,0.916922688484192,77.26996612548828,36.0,0
-1.0219900608062744,0.0625000074505806,0.0133502958342432,5.941459655761719,0.9167669415473938,77.26997375488281,36.0,0
-1.025307536125183,0.0625000074505806,0.0085674514994025,4.120988368988037,0.9166669845581056,77.26998138427734,36.0,0
-1.0274364948272705,0.0625000074505806,0.0110958712175488,1.0861927270889282,0.9166028499603271,77.26998901367188,36.0,0
-1.0232049226760864,0.0625000074505806,0.0127184661105275,-3.1040568351745605,0.916561722755432,77.26998901367188,36.0,0
-1.0204893350601196,0.0625000074505806,0.0137597536668181,-7.068514347076416,0.9142399430274964,77.26998901367188,36.0,0
-1.0243444442749023,0.0625000074505806,0.0088302176445722,-10.167974472045898,0.912750005722046,77.26998901367188,36.0,0
-1.0268183946609497,0.0625000074505806,0.0056667253375053,-13.586477279663086,0.9117938280105592,77.26998901367188,36.0,0
-1.028406023979187,0.0625000074505806,0.0036365780979394,-18.76097869873047,0.9111801981925964,77.26998901367188,36.0,0
-1.023827075958252,0.0625000074505806,0.0079315211623907,-24.83667755126953,0.9107863903045654,77.26998901367188,36.0,0
-1.0264863967895508,0.0625000074505806,0.01068776845932,-27.997699737548828,0.9105336666107178,77.26998901367188,36.0,0
-1.0225951671600342,0.0625000074505806,0.0124565688893198,-24.029029846191406,0.910371482372284,77.26998901367188,36.0,0
-1.02569580078125,0.0625000074505806,0.0135916834697127,-12.382424354553224,0.910267412662506,77.26998901367188,36.0,0
-1.022087812423706,0.0625000074505806,0.0087223602458834,2.740496158599853,0.9115777611732484,77.35955810546875,36.0,0
-1.0197724103927612,0.0625000074505806,0.0055975085124373,15.845379829406738,0.9124186635017396,77.41703796386719,36.0,0
-1.0238842964172363,0.0625000074505806,0.0035921586677432,23.900665283203125,0.912958323955536,77.45392608642578,36.0,0
-1.0209252834320068,0.0625000074505806,0.0023052406031638,26.755739212036133,0.9133046269416808,77.47760009765625,36.0,0
-1.0190263986587524,0.0625000074505806,0.0014793707523494,25.7541446685791,0.9135268926620485,77.49279022216797,36.0,0
-1.0178078413009644,0.0625000074505806,0.0065471492707729,22.80778312683105,0.9136695265769958,77.5025405883789,36.0,0
-1.0170258283615112,0.0625000074505806,0.0097993575036525,19.62725067138672,0.913761019706726,77.50879669189453,36.0,0
-1.0165239572525024,0.0625000074505806,0.0062886634841561,16.819496154785156,0.9138197898864746,77.51280975341797,36.0,0
-1.0217996835708618,0.0625000074505806,0.0040357024408876,14.043180465698242,0.912480354309082,77.515380859375,36.0,0
-1.0251853466033936,0.0625000074505806,0.0025898814201354,11.258379936218262,0.911620795726776,77.51703643798828,36.0,0
-1.0217602252960205,0.0625000074505806,0.0072598112747073,8.95894718170166,0.91106915473938,77.51809692382812,36.0,0
-1.0251599550247192,0.0625000074505806,0.0046589290723204,6.920838832855225,0.9107151627540588,77.5187759399414,36.0,0
-1.0273417234420776,0.0625000074505806,0.0085876071825623,3.8717665672302246,0.910487949848175,77.51921081542969,36.0,0
-1.0231441259384155,0.0625000074505806,0.0111088063567876,-0.7683019042015076,0.9103421568870544,77.51949310302734,36.0,0
-1.0204503536224363,0.0625000074505806,0.0071289925836026,-5.906323432922363,0.9102485775947572,77.5196762084961,36.0,0
-1.024319410324097,0.0625000074505806,0.0045749768614768,-10.206730842590332,0.9101885557174684,77.51979064941406,36.0,0
-1.0268023014068604,0.0625000074505806,0.002935956697911,-13.665087699890137,0.908772885799408,77.51986694335938,36.03,0
-1.0283957719802856,0.0625000074505806,0.007481902372092,-17.50020408630371,0.9078643918037416,77.51991271972656,36.03,0
-1.0238205194473269,0.0625000074505806,0.004801454488188,-22.7629337310791,0.9072813391685486,77.51994323730469,36.03,0
-1.0264822244644165,0.0625000074505806,0.0086790714412927,-28.375778198242188,0.9069072008132936,77.51996612548828,36.03,0
-1.0281903743743896,0.0625000074505806,0.0111675029620528,-30.519670486450195,0.9066671133041382,77.51997375488281,36.03,0
-1.029286503791809,0.0625000074505806,0.0071666603907942,-25.661815643310547,0.9065130352973938,77.51998138427734,36.03,0
-1.0299899578094482,0.0625000074505806,0.0045991502702236,-14.408295631408691,0.9064141511917114,77.51998901367188,36.03,0
-1.0248435735702517,0.0569022297859191,0.0085492441430687,-0.8918488621711731,0.9063506722450256,77.51998901367188,36.03,0
-1.0215409994125366,0.0645054504275322,0.0054864129051566,11.103277206420898,0.9072281718254088,77.51998901367188,36.03,0
-1.025019288063049,0.0637869834899902,0.0091186380013823,19.890161514282227,0.9077913165092468,77.51998901367188,36.03,0
-1.0216537714004517,0.0633259117603302,0.0058518168516457,25.031099319458008,0.90815269947052,77.51998901367188,36.03,0
-1.0194939374923706,0.0630300194025039,0.0093531338497996,26.814828872680664,0.9083846211433412,77.51998901367188,36.03,0
-1.0181078910827637,0.0628401339054107,0.0116000771522521,26.207643508911133,0.9085334539413452,77.51998901367188,36.03,0
-1.0172183513641355,0.062718279659748,0.0130420364439487,24.220157623291016,0.9086289405822754,77.51998901367188,36.03,0
-1.0166475772857666,0.0626400783658027,0.0083696283400058,21.41852760314941,0.9086902141571044,77.51998901367188,36.03,0
-1.021878957748413,0.0625898912549018,0.0053711459040641,18.20548439025879,0.9087295532226562,77.51998901367188,36.03,0
-1.0196384191513062,0.0625576898455619,0.0034468923695385,15.086678504943848,0.9073776602745056,77.6023941040039,36.03,0
-1.0237983465194702,0.0625370219349861,0.0022120170760899,12.271964073181152,0.906510055065155,77.6552734375,36.03,0
-1.0264679193496704,0.0625237599015235,0.0014195452677085,9.38370418548584,0.905953288078308,77.689208984375,36.03,0
-1.0225833654403689,0.0625152513384819,0.0065087568946182,6.118650913238525,0.9055960178375244,77.71099090576172,36.03,0
-1.0200904607772827,0.0625097900629043,0.00417694542557,2.9557197093963623,0.9053667187690736,77.72496795654297,36.03,0
-1.0240885019302368,0.0625062808394432,0.0026805230882018,0.4172069132328033,0.905219554901123,77.73393249511719,36.03,0
-1.0210564136505127,0.0625040307641029,0.0017202054150402,-2.0501868724823,0.9051251411437988,77.73968505859375,36.03,0
-1.0191105604171753,0.0625025853514671,0.0011039287783205,-5.532383441925049,0.9050645232200624,77.74337768554688,36.03,0
-1.023459553718567,0.0625016614794731,0.0007084379321895,-10.13155746459961,0.9036484956741332,77.7457504272461,36.03,0
-1.0206527709960938,0.0625010654330253,0.0060524092987179,-14.881494522094728,0.9027397632598876,77.74727630615234,36.03,0
-1.0188515186309814,0.0625006854534149,0.0094818621873855,-19.090484619140625,0.9021565914154052,77.74825286865234,36.03,0
-1.0176955461502075,0.0625004395842552,0.0116826873272657,-23.12787437438965,0.9017823934555054,77.7488784790039,36.03,0
-1.016953706741333,0.0625002831220626,0.0074972761794924,-27.7465763092041,0.9015422463417052,77.74928283691406,36.03,0
-1.0220754146575928,0.0625001788139343,0.0048113204538822,-32.43381118774414,0.9013881087303162,77.74954223632812,36.03,0
-1.0197645425796509,0.0625001117587089,0.0086854025721549,-34.39569854736328,0.9012892246246338,77.74970245361328,36.03,0
-1.0182815790176392,0.0625000745058059,0.0111715653911232,-30.316686630249023,0.901225745677948,77.74980926513672,36.03,0
-1.0173298120498655,0.0625000447034835,0.0127670420333743,-19.91049194335937,0.9011849761009216,77.7498779296875,36.0,0
-1.016719102859497,0.0625000298023223,0.0137909268960356,-6.672698497772217,0.9011588096618652,77.74992370605469,36.0,0
-1.02192485332489,0.0625000223517417,0.0088502233847975,5.369304656982422,0.9011420607566832,77.74995422363281,36.0,0
-1.0252656936645508,0.0625000149011612,0.0056795640848577,14.336740493774414,0.901131272315979,77.74996948242188,36.0,0
-1.0274096727371216,0.0625000074505806,0.0036448172759264,19.915977478027344,0.9011243581771852,77.7499771118164,36.0,0
-1.0231877565383911,0.0625000074505806,0.0023390338756144,22.178024291992188,0.9011199474334716,77.74998474121094,36.0,0
-1.020478367805481,0.0625000074505806,0.0015010572969913,21.72732734680176,0.9011170864105223,77.74999237060547,36.0,0
-1.0187395811080933,0.0625000074505806,0.0065610664896667,19.71846008300781,0.9011152982711792,77.74999237060547,36.0,0
-1.023221492767334,0.0625000074505806,0.004210514947772,17.071487426757812,0.9006548523902893,77.74999237060547,36.0,0
-1.0260977745056152,0.0625000074505806,0.0027020662091672,14.222806930541992,0.9003593325614929,77.74999237060547,36.0,0
-1.022345781326294,0.0625000074505806,0.0073318048380315,11.54561710357666,0.9001696705818176,77.74999237060547,36.0,0
-1.0255358219146729,0.0625000074505806,0.0103029049932956,9.311659812927246,0.9000479578971863,77.74999237060547,36.0,0
-1.0275830030441284,0.0625000074505806,0.0066118114627897,7.229588508605957,0.8999698758125305,77.74999237060547,36.0,0
-1.028896689414978,0.0625000074505806,0.0042430800385773,4.761341571807861,0.8999197483062744,77.74999237060547,36.0,0
-1.0241420269012451,0.0625000074505806,0.0027229646220803,1.858974814414978,0.8998875617980957,77.74999237060547,36.0,0
-1.021090745925903,0.0625000074505806,0.0073452163487672,-1.2037601470947266,0.8998669385910034,77.74999237060547,36.0,0
-1.0191326141357422,0.0625000074505806,0.0103115113452076,-4.433896541595459,0.8993948101997375,77.81806182861328,36.0,0
-1.0178760290145874,0.0625000074505806,0.0066173342056572,-7.861025333404541,0.8990917801856995,77.86174774169922,36.0,0
-1.022667407989502,0.0625000074505806,0.004246624186635,-11.006159782409668,0.8988973498344421,77.88978576660156,36.0,0
-1.0257421731948853,0.0625000074505806,0.0027252389118075,-13.343375205993652,0.8987725377082825,77.90777587890625,36.0,0
-1.0277154445648191,0.0625000074505806,0.0017489014426246,-15.219435691833496,0.8986924886703491,77.91931915283203,36.0,0
-1.0289816856384275,0.0625000074505806,0.0011223442852497,-17.77401351928711,0.8986411094665527,77.92672729492188,36.0,0
-1.0241965055465698,0.0625000074505806,0.0063180304132401,-21.992849349975582,0.8986080884933472,77.93148040771484,36.0,0
-1.0267235040664673,0.0625000074505806,0.0040545482188463,-27.33344841003418,0.8985869288444519,77.93453216552734,36.0,0
-1.0283451080322266,0.0625000074505806,0.0026019755750894,-30.74999046325684,0.8985733389854431,77.93649291992188,36.0,0
-1.0237879753112793,0.0625000074505806,0.0016697981627658,-28.106054306030277,0.8985646367073059,77.93775177001953,36.0,0
-1.0208635330200195,0.0625000074505806,0.0010715803364291,-18.054759979248047,0.898559033870697,77.93856048583984,36.0,0
-1.0189868211746216,0.0625000074505806,0.0062854527495801,-3.919794797897339,0.8985554575920105,77.93907928466797,36.0,0
-1.01778244972229,0.0625000074505806,0.0040336418896913,9.2711763381958,0.8985531330108643,77.93940734863281,36.0,0
-1.0170094966888428,0.0625000074505806,0.0025885591749101,18.599782943725582,0.8985516428947449,77.93962097167969,36.0,0
-1.016513466835022,0.0625000074505806,0.0016611883183941,23.68711853027344,0.8985506892204285,77.93975830078125,36.0,0
-1.0161951780319214,0.0625000074505806,0.0010660550324246,25.30389213562012,0.8985500931739807,77.9398422241211,36.0,0
-1.021588683128357,0.0625000074505806,0.0006841327412985,24.729286193847656,0.9072715044021606,77.93990325927734,36.05,0
-1.025049924850464,0.0625000074505806,0.0004390370158944,23.23919105529785,0.9128683805465698,77.93994140625,36.05,0
-1.0272711515426636,0.0625000074505806,0.0002817486820276,21.29414176940918,0.9164601564407348,77.9399642944336,36.05,0
-1.0230988264083862,0.0625000074505806,0.0001808100932976,18.76335906982422,0.918765127658844,77.93997955322266,36.05,0
-1.0260190963745115,0.0625000074505806,0.0001160335086751,16.017902374267578,0.9202443361282348,77.93998718261719,36.05,0
-1.022295355796814,0.0625000074505806,7.446362724294886e-05,13.87985610961914,0.9211935997009276,77.93999481201172,36.05,0
-1.025503396987915,0.0625000074505806,4.7786470531718805e-05,12.307156562805176,0.9218027591705322,77.93999481201172,36.05,0
-1.021964430809021,0.0625000074505806,3.0666604288853705e-05,10.215950965881348,0.922193706035614,77.93999481201172,36.05,0
-1.025291085243225,0.0625000074505806,1.968006108654663e-05,7.007413864135742,0.9132638573646544,77.93999481201172,36.05,0
-1.0274258852005005,0.0625000074505806,1.2629530829144642e-05,3.2072274684906006,0.9075332283973694,77.93999481201172,36.05,0
-1.023198127746582,0.0625000074505806,0.0056058792397379,-0.6752913594245911,0.9038556218147278,77.93999481201172,36.05,0
-1.0204850435256958,0.0625000074505806,0.0035975305363535,-4.786192417144775,0.9014955759048462,77.93999481201172,36.05,0
-1.024341702461243,0.0625000074505806,0.0023086881265044,-9.16904640197754,0.8999810218811035,77.93999481201172,36.05,0
-1.0212188959121704,0.0625000074505806,0.0014815831091254,-13.436235427856444,0.8990090489387512,77.93999481201172,36.05,0
-1.0248125791549685,0.0625000074505806,0.0065485690720379,-17.40707778930664,0.8983852863311768,77.93999481201172,36.05,0
-1.0215210914611816,0.0625000074505806,0.0042024948634207,-21.477930068969727,0.8979849815368652,77.93999481201172,36.05,0
-1.0194088220596311,0.0625000074505806,0.0026969192549586,-26.358139038085938,0.8981870412826538,78.00090026855469,36.05,0
-1.0236510038375854,0.0625000074505806,0.0017307274974882,-31.90463256835937,0.8983167409896851,78.03998565673828,36.05,0
-1.0263733863830566,0.0625000074505806,0.0011106813326478,-35.4783821105957,0.8983999490737915,78.06507110595703,36.05,0
-1.0225226879119873,0.0625000074505806,0.0007127713179215,-33.00698471069336,0.8984533548355103,78.08116912841797,36.05,0
-1.0200515985488892,0.0625000074505806,0.0004574155900627,-23.11299133300781,0.8984876275062561,78.09149932861328,36.05,0
-1.0240634679794312,0.0625000074505806,0.0002935430093202,-8.907007217407227,0.8985096216201782,78.09812927246094,36.05,0
-1.0210403203964231,0.0625000074505806,0.0001883790100691,5.178608417510986,0.89852374792099,78.10237884521484,36.05,0
-1.02469801902771,0.0625000074505806,0.0001208908070111,16.514375686645508,0.8985328078269958,78.10511016845703,36.05,0
-1.0214475393295288,0.0625000074505806,7.758076390018687e-05,24.032634735107425,0.8962432742118835,78.10686492919922,36.05,0
-1.0193616151809692,0.0625000074505806,4.978686774848029e-05,27.33124351501465,0.8947739601135254,78.10798645019531,36.05,0
-1.018022894859314,0.0625000074505806,3.195034514646977e-05,27.04060935974121,0.8938310146331787,78.10871124267578,36.05,0
-1.017163872718811,0.0625000074505806,2.050389230134897e-05,24.75112533569336,0.893225908279419,78.10917663574219,36.05,0
-1.0222103595733645,0.0625000074505806,1.315821828029584e-05,21.748523712158203,0.8928375840187073,78.1094741821289,36.05,0
-1.0254489183425903,0.0625000074505806,8.44418718770612e-06,18.331275939941406,0.8925883769989014,78.10966491699219,36.05,0
-1.021929383277893,0.0625000074505806,5.418993168859743e-06,14.676591873168944,0.892428457736969,78.10978698730469,36.05,0
-1.0252685546875,0.0625000074505806,3.4775978292600485e-06,11.54305934906006,0.8923258185386658,78.10986328125,36.05,0
-1.0274114608764648,0.0625000074505806,2.2317221919365693e-06,9.392417907714844,0.8931781649589539,78.10990905761719,36.03,0
-1.0287866592407229,0.0625000074505806,1.4321908565761987e-06,7.625341892242432,0.8937251567840576,78.10993957519531,36.03,0
-1.0240713357925415,0.0625000074505806,9.190976584250166e-07,5.488213062286377,0.8940761685371399,78.1099624633789,36.03,0
-1.0210453271865845,0.0625000074505806,5.898239692214702e-07,3.1530139446258545,0.8943014740943909,78.10997772216797,36.03,0
-1.0191034078598022,0.0625000074505806,0.0055981529876589,1.167187213897705,0.8944460153579712,78.1099853515625,36.03,0
-1.0178571939468384,0.0625000074505806,0.0035925724077969,-0.7162399291992188,0.8945388197898865,78.10999298095703,36.03,0
-1.0226552486419678,0.0625000074505806,0.0023055062629282,-3.515578508377075,0.8945983648300171,78.10999298095703,36.03,0
-1.0257344245910645,0.0625000074505806,0.0014795411843806,-7.651454925537109,0.8946365714073181,78.10999298095703,36.03,0
-1.0221126079559326,0.0625000074505806,0.0065472587011754,-12.215134620666504,0.8928250074386597,78.10999298095703,36.03,0
-1.019788384437561,0.0625000074505806,0.0042016538791358,-16.089641571044922,0.8916624784469604,78.10999298095703,36.03,0
-1.0182968378067017,0.0625000074505806,0.0026963795535266,-19.36424446105957,0.8909164071083069,78.10999298095703,36.03,0
-1.0229374170303345,0.0625000074505806,0.0017303811619058,-23.160253524780277,0.890437662601471,78.10999298095703,36.03,0
-1.025915503501892,0.0625000074505806,0.0011104589793831,-28.09336853027344,0.8901304006576538,78.10999298095703,36.03,0
-1.0222288370132446,0.0625000074505806,0.0007126286509446,-32.484397888183594,0.8899332284927368,78.10999298095703,36.03,0
-1.0198630094528198,0.0625000074505806,0.0004573240585159,-32.3359375,0.8898066878318787,78.10999298095703,36.03,0
-1.023942470550537,0.0625000074505806,0.0002934842486865,-24.717254638671875,0.8897255063056946,78.10999298095703,36.03,0
-1.0265604257583618,0.0625000074505806,0.0001883412915049,-11.401803970336914,0.8896733522415161,78.15298461914062,36.03,0
-1.022642731666565,0.0625000074505806,0.0001208665999001,2.5171494483947754,0.8896399140357971,78.18058013916016,36.03,0
-1.020128607749939,0.0625000074505806,7.756522973068058e-05,13.090351104736328,0.889618456363678,78.19828796386719,36.03,0
-1.0241129398345947,0.0625000074505806,4.977689968654886e-05,19.2880802154541,0.8896046876907349,78.20964813232422,36.03,0
-1.0210720300674438,0.0625000074505806,3.1943949579726905e-05,21.721336364746094,0.8895958662033081,78.2169418334961,36.03,0
-1.0247184038162231,0.0625000074505806,2.049978866125457e-05,21.5130672454834,0.8895902037620544,78.22161865234375,36.03,0
-1.0270583629608154,0.0625000074505806,1.3155584383639509e-05,19.87114906311035,0.8895865678787231,78.22462463378906,36.03,0
-1.0285600423812866,0.0625000074505806,8.442496437055524e-06,17.703279495239258,0.8895842432975769,78.22655487060547,36.03,0
-1.0295237302780151,0.0625000074505806,5.417908141680528e-06,15.495238304138184,0.8900416493415833,78.22779083251953,36.03,0
-1.0301421880722046,0.0625000074505806,3.4769016110658413e-06,13.555188179016112,0.890335202217102,78.22858428955078,36.03,0
-1.024941325187683,0.0625000074505806,0.0056000058539211,12.06297779083252,0.8905235528945923,78.22909545898438,36.03,0
-1.0216037034988403,0.0625000074505806,0.0035937614738941,10.779348373413086,0.8906444311141968,78.22942352294922,36.03,0
-1.0250595808029177,0.0625000074505806,0.0023062692489475,9.088605880737305,0.8907220363616943,78.22962951660156,36.03,0
-1.0216795206069946,0.0625000074505806,0.0014800308272242,6.6386237144470215,0.8907718062400818,78.22976684570312,36.03,0
-1.0195103883743286,0.0625000074505806,0.0009497986175119,3.5652668476104736,0.8908037543296814,78.22985076904297,36.03,0
-1.018118381500244,0.0625000074505806,0.0006095260614529,-0.1015948429703712,0.8908242583274841,78.22990417480469,36.03,0
-1.01722514629364,0.0625000074505806,0.0003911587409675,-4.457435607910156,0.8890013694763184,78.22994232177734,36.03,0
-1.022249698638916,0.0625000074505806,0.000251023157034,-9.097789764404297,0.8878315091133118,78.22996520996094,36.03,0
-1.0198763608932495,0.0625000074505806,0.0001610922190593,-13.30810832977295,0.8870807886123657,78.22998046875,36.03,0
-1.0183532238006592,0.0625000074505806,0.0001033797161653,-16.991674423217773,0.8865990042686462,78.22998809814453,36.03,0
-1.0173758268356323,0.0625000074505806,6.634314922848716e-05,-20.989229202270508,0.8862898349761963,78.22999572753906,36.03,0
-1.0223463773727417,0.0625000074505806,4.257521504769102e-05,-26.080345153808597,0.886091411113739,78.22999572753906,36.03,0
-1.019938349723816,0.0625000074505806,2.7322323148837316e-05,-30.977602005004883,0.8859640955924988,78.22999572753906,36.03,0
-1.0239908695220947,0.0625000074505806,1.7533893696963787e-05,-31.813201904296875,0.8858823776245117,78.22999572753906,36.03,0
-1.0265915393829346,0.0625000074505806,1.125224389397772e-05,-25.38849639892578,0.8867477774620056,78.22999572753906,36.03,0
-1.02266263961792,0.0625000074505806,7.221042324090376e-06,-12.803447723388672,0.8873031735420227,78.22999572753906,36.03,0
-1.020141363143921,0.0625000074505806,4.634049219021108e-06,1.4421077966690063,0.8876595497131348,78.22999572753906,36.03,0
-1.018523335456848,0.0625000074505806,2.973866003230796e-06,13.2746000289917,0.8878882527351379,78.22999572753906,36.03,0
-1.0174850225448608,0.0625000074505806,1.9084559426119085e-06,20.95399284362793,0.8880350589752197,78.22999572753906,36.03,0
-1.016818642616272,0.0625000074505806,1.2247371614648728e-06,24.592458724975582,0.8881292343139648,78.22999572753906,36.03,0
-1.016391038894653,0.0625000074505806,7.859658239794953e-07,25.347501754760746,0.8881896734237671,78.22999572753906,36.03,0
-1.0217143297195437,0.0625000074505806,5.043876285526494e-07,24.55306434631348,0.8882284760475159,78.22999572753906,36.03,0
-1.0195327997207642,0.0625000074505806,3.236869474676496e-07,22.83233070373535,0.8877944350242615,78.29806518554688,36.03,0
-1.0181328058242798,0.0625000074505806,2.0772364450749595e-07,20.191137313842773,0.8875159025192261,78.34175109863281,36.03,0
-1.0172343254089355,0.0625000074505806,1.3330507897535426e-07,16.930585861206055,0.8873371481895447,78.36978149414062,36.03,0
-1.022255539894104,0.0625000074505806,8.554752639611253e-08,13.928177833557127,0.8872224688529968,78.38777160644531,36.03,0
-1.0254778861999512,0.0625000074505806,0.0055978293530642,11.768537521362305,0.8871488571166992,78.3993148803711,36.03,0
-1.021947979927063,0.0625000074505806,0.0035923647228628,9.988521575927734,0.8871016502380371,78.40672302246094,36.03,0
-1.025280475616455,0.0625000074505806,0.0023053728509694,7.663959503173828,0.8870713114738464,78.4114761352539,36.03,0
-1.027419090270996,0.0625000074505806,0.0014794556191191,4.603021144866943,0.8870518803596497,78.4145278930664,36.03,0
-1.0231937170028689,0.0625000074505806,0.0065472042188048,1.320299506187439,0.8865804672241211,78.41648864746094,36.03,0
-1.0204821825027466,0.0625000074505806,0.0042016189545392,-1.943534016609192,0.8862779140472412,78.4177474975586,36.03,0
-1.0187420845031738,0.0625000074505806,0.0026963572017848,-5.413783550262451,0.8860837817192078,78.4185562133789,36.03,0
-1.0232231616973877,0.0625000074505806,0.0017303668428212,-9.184880256652832,0.8859592080116272,78.41907501220703,36.03,0
-1.0260988473892212,0.0625000074505806,0.0011104497825726,-13.127548217773438,0.8858792185783386,78.41940307617188,36.03,0
-1.0223464965820312,0.0625000074505806,0.0007126227719709,-17.15165901184082,0.885827898979187,78.41961669921875,36.03,0
-1.0199384689331057,0.0625000074505806,0.0004573202750179,-21.453737258911133,0.885794997215271,78.41975402832031,36.03,0
-1.0183931589126587,0.0625000074505806,0.0002934818330686,-26.622055053710938,0.8857738375663757,78.41983795166016,36.03,0
-1.0174014568328855,0.0625000074505806,0.0001883397490018,-32.428672790527344,0.8862192034721375,78.4198989868164,36.0,0
-1.016764998435974,0.0625000074505806,0.0001208656103699,-35.96514892578125,0.8865050077438354,78.41993713378906,36.0,0
-1.0219544172286987,0.0625000074505806,7.756458944641054e-05,-33.09008026123047,0.8866884112358093,78.41996002197266,36.0,0
-1.0196868181228638,0.0625000074505806,4.977648859494366e-05,-22.88329315185547,0.8868061304092407,78.41997528076172,36.0,0
-1.0182316303253174,0.0625000074505806,3.194368400727399e-05,-8.795425415039062,0.8868817090988159,78.41998291015625,36.0,0
-1.022895574569702,0.0625000074505806,2.049961767625064e-05,4.838219165802002,0.8869301676750183,78.41999053955078,36.0,0
-1.0202908515930176,0.0625000074505806,1.3155474334780592e-05,15.482688903808594,0.8869612812995911,78.41999053955078,36.0,0
-1.0186192989349363,0.0625000074505806,8.442426405963488e-06,22.29578399658203,0.8869812488555908,78.41999053955078,36.0,0
-1.0231443643569946,0.0625000074505806,5.41786312169279e-06,25.636255264282227,0.8851580023765564,78.41999053955078,36.0,0
-1.0260483026504517,0.0625000074505806,3.47687273460906e-06,26.572649002075195,0.8839879631996155,78.41999053955078,36.0,0
-1.0223140716552734,0.0625000074505806,2.231256758022937e-06,25.88384437561035,0.8832370638847351,78.41999053955078,36.0,0
-1.0255154371261597,0.0625000074505806,1.431892201253504e-06,23.71859169006348,0.8827552199363708,78.41999053955078,36.0,0
-1.0275698900222778,0.0625000074505806,9.18905982416618e-07,20.340726852416992,0.8824459910392761,78.41999053955078,36.0,0
-1.0288883447647097,0.0625000074505806,5.897009600630554e-07,16.625335693359375,0.8822475075721741,78.41999053955078,36.0,0
-1.024136662483215,0.0625000074505806,0.0055981529876589,13.538826942443848,0.8821201324462891,78.41999053955078,36.0,0
-1.026685118675232,0.0625000074505806,0.0035925724077969,11.296554565429688,0.882038414478302,78.41999053955078,36.0,0
-1.028320550918579,0.0625000074505806,0.0023055062629282,9.26288604736328,0.8824448585510254,78.38058471679688,36.0,0
-1.0293700695037842,0.0625000074505806,0.0014795411843806,6.739718914031982,0.8827056884765625,78.35529327392578,36.0,0
-1.030043601989746,0.0625000074505806,0.0009494843543507,3.737621307373047,0.8828731179237366,78.33906555175781,36.0,0
-1.0248780250549316,0.0625000074505806,0.0006093244301155,0.8079264163970947,0.8829805254936218,78.32865142822266,36.0,0
-1.027160882949829,0.0625000074505806,0.0003910293453373,-1.871097207069397,0.883049488067627,78.32196807861328,36.0,0
-1.0286258459091189,0.0625000074505806,0.0002509401238057,-4.908728122711182,0.8830937147140503,78.31768035888672,36.0,0
-1.02396821975708,0.0625000074505806,0.0001610389299457,-8.799860954284668,0.8831220865249634,78.31492614746094,36.0,0
-1.0209791660308838,0.0625000074505806,0.0001033455191645,-13.00943660736084,0.8831403255462646,78.31316375732422,36.0,0
-1.0246587991714478,0.0625000074505806,6.632120494032279e-05,-16.735517501831055,0.8831520080566406,78.31202697753906,36.0,0
-1.0270200967788696,0.0625000074505806,4.2561132431728765e-05,-20.38060188293457,0.8831595182418823,78.3113021850586,36.0,0
-1.0285354852676392,0.0625000074505806,2.731328459049109e-05,-25.17745590209961,0.8831643462181091,78.31083679199219,36.0,0
-1.0295079946517944,0.0625000074505806,1.752809293975588e-05,-30.749271392822266,0.8831674456596375,78.31053924560547,36.0,0
-1.0301320552825928,0.0625000074505806,1.1248521332163364e-05,-33.61917495727539,0.883169412612915,78.31034851074219,36.0,0
-1.0249347686767578,0.0625000074505806,7.21865353625617e-06,-29.692968368530277,0.8831706643104553,78.31022644042969,36.0,0
-1.027197241783142,0.0625000074505806,4.63251626570127e-06,-18.596668243408203,0.8831714987754822,78.31014251708984,36.0,0
-1.023051381111145,0.0625000074505806,2.9728823847108288e-06,-4.371453762054443,0.8831720352172852,78.31008911132812,36.0,0
-1.0259885787963867,0.0625000074505806,1.907824753288878e-06,8.28630542755127,0.8813363313674927,78.31005859375,36.03,0
-1.0222758054733276,0.0625000074505806,1.2243320952620709e-06,17.01836585998535,0.8801582455635071,78.3100357055664,36.03,0
-1.0198930501937866,0.0625000074505806,7.857058790250449e-07,21.58673477172852,0.879402220249176,78.31002044677734,36.03,0
-1.0239617824554443,0.0625000074505806,5.042207931182929e-07,22.816728591918945,0.8789170384407043,78.31001281738281,36.03,0
-1.026572823524475,0.0625000074505806,3.235798828882253e-07,22.05122947692871,0.8786057233810425,78.31000518798828,36.03,0
-1.0282484292984009,0.0625000074505806,2.0765494923580266e-07,20.374143600463867,0.8784059286117554,78.31000518798828,36.03,0
-1.023725986480713,0.0625000074505806,1.332609969040277e-07,18.248191833496094,0.8782777190208435,78.31000518798828,36.03,0
-1.0264215469360352,0.0625000074505806,8.551923968980192e-08,15.981069564819336,0.8781954050064087,78.31000518798828,36.03,0
-1.022553563117981,0.0625000074505806,5.488132615028008e-08,13.88846206665039,0.8795197606086731,78.31000518798828,36.03,0
-1.0200713872909546,0.0625000074505806,3.5219674288100584e-08,11.86127471923828,0.8803696632385254,78.31000518798828,36.03,0
-1.0184783935546875,0.0625000074505806,2.2601959415169404e-08,9.396005630493164,0.8809150457382202,78.31000518798828,36.03,0
-1.0230538845062256,0.0625000074505806,-0.0055977599695324,6.309256553649902,0.8812650442123413,78.31000518798828,36.03,0
-1.0259902477264404,0.0625000074505806,-0.0035923200193792,3.09237003326416,0.8814896941184998,78.31000518798828,36.03,0
-1.0222768783569336,0.0625000074505806,-0.0023053442128002,0.1932172775268554,0.8816338181495667,78.31000518798828,36.03,0
-1.019893765449524,0.0625000074505806,-0.0014794372254982,-2.7743079662323,0.8817263245582581,78.31000518798828,36.03,0
-1.018364429473877,0.0625000074505806,-0.0009494176483713,-6.462817192077637,0.8817856907844543,78.31000518798828,36.03,0
-1.022980809211731,0.0625000074505806,-0.000609281589277,-10.76089859008789,0.8813644647598267,78.28850555419922,36.03,0
-1.0259432792663574,0.0625000074505806,-0.0003910018422175,-15.059667587280272,0.8810941576957703,78.27471160888672,36.03,0
-1.0222467184066772,0.0625000074505806,-0.0002509224868845,-19.251399993896484,0.8809207081794739,78.26586151123047,36.03,0
-1.0254721641540527,0.0625000074505806,0.0054367468692362,-23.96915054321289,0.8808093667030334,78.26017761230469,36.03,0
-1.021944284439087,0.0625000074505806,0.0090867653489112,-29.59409713745117,0.8807379603385925,78.25653076171875,36.03,0
-1.025278091430664,0.0625000074505806,0.005831363145262,-34.61898422241211,0.8806921243667603,78.25418853759766,36.03,0
-1.027417540550232,0.0625000074505806,0.0037422331515699,-35.16389846801758,0.8806626796722412,78.252685546875,36.03,0
-1.0231927633285522,0.0625000074505806,0.002401549834758,-27.82180404663086,0.8806437849998474,78.25172424316406,36.03,0
-1.0260792970657349,0.0625000074505806,0.0015411764616146,-13.512351036071776,0.8787956237792969,78.25110626220703,36.03,0
-1.0279316902160645,0.0625000074505806,0.0009890383807942,2.7712972164154053,0.8776095509529114,78.2507095336914,36.03,0
-1.0291204452514648,0.0625000074505806,0.0006347079179249,16.23415184020996,0.8768483996391296,78.25045776367188,36.03,0
-1.0298833847045898,0.0625000074505806,0.0004073190211784,25.085208892822266,0.8763599395751953,78.25029754638672,36.03,0
-1.0247752666473389,0.0625000074505806,0.0002613938995636,29.75143814086914,0.8760464787483215,78.25019073486328,36.03,0
-1.021497130393982,0.0625000074505806,0.0001677475520409,31.244855880737305,0.8758453130722046,78.2501220703125,36.03,0
-1.024991154670715,0.0625000074505806,0.0001076507251127,30.594669342041016,0.8757162094116211,78.25007629394531,36.03,0
-1.02163565158844,0.0625000074505806,6.908403884153813e-05,28.611831665039062,0.8756333589553833,78.25004577636719,36.03,0
-1.0194822549819946,0.0625000074505806,4.433415961102583e-05,25.64122009277344,0.876957356929779,78.25003051757812,36.03,0
-1.023698091506958,0.0625000074505806,2.8451111575122923e-05,21.87549591064453,0.8778070211410522,78.2500228881836,36.03,0
-1.0264036655426023,0.0625000074505806,1.8258286218042485e-05,18.068832397460938,0.8783522844314575,78.25001525878906,36.03,0
-1.0281399488449097,0.0625000074505806,1.1717117558873724e-05,15.217520713806152,0.8787022233009338,78.25000762939453,36.03,0
-1.0236563682556152,0.0625000074505806,0.0056052939034998,13.179923057556152,0.8789267539978027,78.25000762939453,36.03,0
-1.020779013633728,0.0625000074505806,0.0035971549805253,10.568252563476562,0.8790708780288696,78.25000762939453,36.03,0
-1.024530291557312,0.0625000074505806,0.0023084469139575,6.628045082092285,0.879163384437561,78.25000762939453,36.03,0
-1.02693772315979,0.0625000074505806,0.0014814283931627,2.340402364730835,0.8792227506637573,78.25000762939453,36.03,0
-1.0228848457336426,0.0625000074505806,0.0009506954811513,-1.1348401308059692,0.8769654631614685,78.25000762939453,36.03,0
-1.0202839374542236,0.0625000074505806,0.000610101618804,-4.228451728820801,0.8755168914794922,78.25000762939453,36.03,0
-1.0242125988006592,0.0625000074505806,0.0003915280976798,-8.17700481414795,0.8745872378349304,78.25000762939453,36.03,0
-1.0211360454559326,0.0625000074505806,0.0002512602077331,-13.096954345703123,0.8739906549453735,78.25000762939453,36.03,0
-1.0191617012023926,0.0625000074505806,0.0001612443447811,-17.90586280822754,0.8736078143119812,78.25000762939453,36.03,0
-1.017894625663757,0.0625000074505806,0.0001034773376886,-21.962820053100582,0.873362123966217,78.25000762939453,36.03,0
-1.022679328918457,0.0625000074505806,6.64058024995029e-05,-25.91339111328125,0.8732044696807861,78.25000762939453,36.03,0
-1.0201520919799805,0.0625000074505806,4.2615421989467e-05,-31.038843154907227,0.8731032609939575,78.25000762939453,36.03,0
-1.018530249595642,0.0625000074505806,2.734812551352661e-05,-37.376834869384766,0.8730383515357971,78.23209381103516,36.03,0
-1.0230871438980105,0.0625000074505806,1.7550451957504265e-05,-41.84543991088867,0.8729966878890991,78.22059631347656,36.03,0
-1.02601158618927,0.0625000074505806,1.1262869520578532e-05,-39.50765228271485,0.872969925403595,78.21321868896484,36.03,0
-1.027888298034668,0.0625000074505806,7.227861260616919e-06,-28.37026596069336,0.8729527592658997,78.20848083496094,36.03,0
-1.023494839668274,0.0625000074505806,4.638425252778688e-06,-11.854496955871582,0.8729417324066162,78.2054443359375,36.03,0
-1.0262731313705444,0.0625000074505806,2.976674295496196e-06,4.4084248542785645,0.8729346394538879,78.2034912109375,36.03,0
-1.02245831489563,0.0625000074505806,1.910258106363472e-06,16.797536849975586,0.872930109500885,78.20223999023438,36.03,0
-1.020010232925415,0.0625000074505806,1.2258936976650148e-06,24.44363594055176,0.872927188873291,78.2014389038086,36.03,0
-1.0240370035171509,0.0625000074505806,7.867080284995609e-07,27.95684051513672,0.8733845949172974,78.20092010498047,36.03,0
-1.0266211032867432,0.0625000074505806,5.048639195592841e-07,28.5670108795166,0.8736781477928162,78.20059204101562,36.03,0
-1.022681713104248,0.0625000074505806,3.2399259453086415e-07,27.464649200439453,0.8738665580749512,78.20037841796875,36.03,0
-1.0201536417007446,0.0625000074505806,2.0791979693512985e-07,25.19879531860352,0.8739874362945557,78.20024108886719,36.03,0
-1.024129033088684,0.0625000074505806,1.3343095872642152e-07,21.871013641357425,0.8740650415420532,78.20015716552734,36.03,0
-1.0266802310943604,0.0625000074505806,8.562830799974108e-08,18.05879020690918,0.8741148114204407,78.2000961303711,36.03,0
-1.0283173322677612,0.0625000074505806,5.495131816246612e-08,14.827740669250488,0.8741467595100403,78.20005798339844,36.03,0
-1.0237702131271362,0.0625000074505806,3.526459124714165e-08,12.481963157653809,0.874167263507843,78.20003509521484,36.03,0
-1.0264499187469482,0.0625000074505806,2.263078435760235e-08,10.091681480407717,0.8732622265815735,78.20001983642578,36.03,0
-1.0281696319580078,0.0625000074505806,-0.0055977599695324,6.8416829109191895,0.8726813793182373,78.20001220703125,36.03,0
-1.0292731523513794,0.0625000074505806,-0.0035923200193792,3.1868529319763184,0.8723086714744568,78.20000457763672,36.03,0
-1.024383544921875,0.0625000074505806,-0.0023053442128002,0.00665322272107,0.8720694780349731,78.20000457763672,36.03,0
-1.026843547821045,0.0625000074505806,-0.0014794372254982,-2.8797037601470947,0.8719159364700317,78.20000457763672,36.03,0
-1.0228244066238403,0.0625000074505806,-0.0009494176483713,-6.3907341957092285,0.871817409992218,78.20000457763672,36.03,0
-1.0258429050445557,0.0625000074505806,-0.000609281589277,-10.592832565307615,0.8717542290687561,78.20000457763672,36.03,0
-1.0221822261810305,0.0625000074505806,-0.0003910018422175,-14.52548599243164,0.8717136383056641,78.20000457763672,36.03,0
-1.0254307985305786,0.0625000074505806,-0.0002509224868845,-17.67618751525879,0.8721465468406677,78.20000457763672,36.03,0
-1.027515530586243,0.0625000074505806,-0.0001610276085557,-20.840967178344727,0.8724243640899658,78.20000457763672,36.03,0
-1.023255705833435,0.0625000074505806,-0.0001033382504829,-25.21136283874512,0.872602641582489,78.20000457763672,36.03,0
-1.0205219984054563,0.0625000074505806,-6.63165410514921e-05,-30.39127922058105,0.8727170825004578,78.20000457763672,36.03,0
-1.0243654251098633,0.0625000074505806,-4.255813837517053e-05,-33.1494026184082,0.872790515422821,78.20000457763672,36.03,0
-1.021234154701233,0.0625000074505806,-2.731136373768095e-05,-29.18012237548828,0.8728376030921936,78.20000457763672,36.03,0
-1.0192246437072754,0.0625000074505806,-1.752686148392968e-05,-17.182031631469727,0.8728678226470947,78.20000457763672,36.03,0
-1.0235328674316406,0.0625000074505806,-1.1247730981267525e-05,-0.80176842212677,0.8728872537612915,78.20000457763672,36.03,0
-1.0262975692749023,0.0625000074505806,-7.2181464929599315e-06,14.181197166442873,0.8719818592071533,78.13909912109375,36.03,0
-1.0280717611312866,0.0625000074505806,-4.632191121345386e-06,24.075841903686523,0.8714008331298828,78.10001373291016,36.03,0
-1.0292104482650757,0.0625000074505806,-2.972673655676772e-06,28.52330780029297,0.871027946472168,78.0749282836914,36.03,0
-1.0299410820007324,0.0625000074505806,-1.907690830194042e-06,28.99860572814941,0.8707886338233948,78.05883026123047,36.03,0
-1.0248122215270996,0.0625000074505806,-1.2242461480127531e-06,27.24364280700684,0.8706350922584534,78.04850006103516,36.03,0
-1.0215208530426023,0.0625000074505806,-7.85650684065331e-07,24.56973648071289,0.8705365657806396,78.0418701171875,36.03,0
-1.0250064134597778,0.0625000074505806,-5.041853796683426e-07,21.58912849426269,0.870473325252533,78.0376205444336,36.03,0
-1.021645426750183,0.0625000074505806,-3.2355714552068093e-07,18.41886138916016,0.8704327344894409,78.0348892211914,36.03,0
-1.0194885730743408,0.0625000074505806,-2.076403546880101e-07,15.277350425720217,0.8690295219421387,78.03313446044922,36.03,0
-1.0181044340133667,0.0625000074505806,-1.332516319507704e-07,12.569872856140137,0.8681290149688721,78.03201293945312,36.03,0
-1.02281391620636,0.0625000074505806,-8.551322849825739e-08,10.320060729980469,0.8675511479377747,78.03128814697266,36.03,0
-1.0258362293243408,0.0625000074505806,-5.48774679032249e-08,7.840896606445312,0.8671802878379822,78.03082275390625,36.03,0
-1.027775764465332,0.0625000074505806,-3.521720159938013e-08,4.408468246459961,0.866942286491394,78.03052520751953,36.03,0
-1.0290204286575315,0.0625000074505806,-2.2600373128511823e-08,0.3320462107658386,0.8667895793914795,78.03033447265625,36.03,0
-1.029819130897522,0.0625000074505806,-1.4503618750438818e-08,-3.40889573097229,0.8666915893554688,78.03021240234375,36.03,0
-1.0247340202331543,0.0625000074505806,-9.307587589546529e-09,-6.791243076324463,0.8666287064552307,78.03013610839844,36.03,0
-1.0214706659317017,0.0625000074505806,-5.973074035381387e-09,-10.688640594482422,0.8679654598236084,78.03009033203125,36.03,0
-1.0193763971328735,0.0625000074505806,-3.833175110656839e-09,-15.21033763885498,0.8688233494758606,78.03005981445312,36.03,0
-1.018032431602478,0.0625000074505806,-2.4599111636547373e-09,-19.534385681152344,0.8693738579750061,78.03003692626953,36.03,0
-1.0227677822113037,0.0625000074505806,-1.5786293383612815e-09,-23.369752883911133,0.8697271347045898,78.03002166748047,36.03,0
-1.0202088356018066,0.0625000074505806,-1.013073402944542e-09,-27.507715225219727,0.8699538707733154,78.03001403808594,36.03,0
-1.018566608428955,0.0625000074505806,-6.501321703211714e-10,-32.8752326965332,0.8700993657112122,78.0300064086914,36.03,0
-1.0175127983093262,0.0625000074505806,-4.1721739951761084e-10,-38.67354965209961,0.8701927661895752,78.0300064086914,36.03,0
-1.0224342346191406,0.0625000074505806,-2.6774610306645736e-10,-41.19799423217773,0.8702526688575745,78.0300064086914,36.03,0
-1.025592565536499,0.0625000074505806,-1.7182404110638316e-10,-36.1007080078125,0.8698318004608154,78.0300064086914,36.03,0
-1.0220216512680054,0.0625000074505806,-0.0055977744050323,-22.81626319885254,0.8695617318153381,78.0300064086914,36.03,0
-1.0253278017044067,0.0625000074505806,-0.003592329332605,-5.5173444747924805,0.8693884015083313,78.0300064086914,36.03,0
-1.0274494886398315,0.0625000074505806,-0.0023053502663969,10.621207237243652,0.8692771792411804,78.0300064086914,36.03,0
-1.023213267326355,0.0625000074505806,-0.0014794410672038,22.80869674682617,0.8692058324813843,78.0300064086914,36.03,0
-1.026092529296875,0.0625000074505806,-0.000949420093093,30.619178771972656,0.8691600561141968,78.0300064086914,36.03,0
-1.027940273284912,0.0625000074505806,-0.0006092831608839,34.506568908691406,0.8691306710243225,78.0300064086914,36.03,0
-1.023528218269348,0.0625000074505806,-0.0003910028608515,35.055931091308594,0.8691117763519287,78.0300064086914,36.03,0
-1.0262945890426636,0.0625000074505806,-0.0002509231271687,33.08338928222656,0.8677225112915039,77.82221221923828,36.03,0
-1.0224721431732178,0.0625000074505806,-0.0001610280160093,29.63932037353516,0.8668310046195984,77.6888656616211,36.03,0
-1.0200190544128418,0.0625000074505806,-0.0001033385124173,25.64857482910156,0.8662588596343994,77.60328674316406,36.03,0
-1.0240426063537598,0.0625000074505806,-6.631670839851722e-05,21.70108795166016,0.865891695022583,77.54837036132812,36.03,0
-1.0266246795654297,0.0625000074505806,-0.0056403325870633,18.232765197753903,0.8656560778617859,77.51313018798828,36.03,0
-1.0282816886901855,0.0625000074505806,-0.0092174150049686,15.440947532653809,0.8655048608779907,77.49050903320312,36.03,0
-1.0237473249435425,0.0625000074505806,-0.0059152063913643,12.907727241516112,0.8654078245162964,77.47599792480469,36.03,0
-1.020837426185608,0.0625000074505806,0.0018017352558672,9.856186866760254,0.8653455376625061,77.46668243408203,36.03,0
-1.0245678424835205,0.0625000074505806,-0.0044415243901312,6.124508857727051,0.865764856338501,77.46070098876953,36.03,0
-1.0269618034362793,0.0625000074505806,-0.0028503146022558,2.40059757232666,0.8660339713096619,77.45686340332031,36.03,0
-1.0284980535507202,0.0625000074505806,-0.0018291678279638,-0.7451179623603821,0.8662066459655762,77.45440673828125,36.03,0
-1.0238862037658691,0.0625000074505806,-0.0011738545726984,-3.6451706886291504,0.8663174510002136,77.45282745361328,36.03,0
-1.020926594734192,0.0625000074505806,-0.0007533123134635,-7.018104553222656,0.8663885593414307,77.45181274414062,36.03,0
-1.0246250629425049,0.0625000074505806,-0.0004834324936382,-11.052763938903809,0.8664342164993286,77.45116424560547,36.03,0
-1.0214006900787354,0.0625000074505806,-0.0003102391492575,-15.307873725891112,0.8664635419845581,77.45074462890625,36.03,0
-1.0249292850494385,0.0625000074505806,-0.0001990936289075,-19.249467849731445,0.8664823174476624,77.45047760009766,36.03,0
-1.0271937847137451,0.0625000074505806,-0.0001277668343391,-22.78924369812012,0.8651172518730164,77.45030212402344,36.03,0
-1.023049235343933,0.0625000074505806,-8.199339936254546e-05,-26.669443130493164,0.8642411828041077,77.4501953125,36.03,0
-1.020389437675476,0.0625000074505806,-5.261864498606883e-05,-31.71390914916992,0.8636789917945862,77.45012664794922,36.03,0
-1.024280309677124,0.0625000074505806,-3.376761742401868e-05,-36.53107452392578,0.8633182048797607,77.45008087158203,36.03,0
-1.026777267456055,0.0625000074505806,-2.167011371057015e-05,-36.90327835083008,0.8630867004394531,77.4500503540039,36.03,0
-1.0227818489074707,0.0625000074505806,-1.3906631465943065e-05,-29.532745361328125,0.8629381060600281,77.45002746582031,36.03,0
-1.0258156061172483,0.0625000074505806,-8.924475878302474e-06,-15.849905967712402,0.8628427386283875,77.45001983642578,36.03,0
-1.0221647024154663,0.0625000074505806,-5.727215011575026e-06,-0.7314707636833191,0.8627815842628479,77.45001220703125,36.03,0
-1.0254195928573608,0.0625000074505806,-3.6753970107383793e-06,11.628942489624023,0.8622830510139465,77.45000457763672,36.03,0
-1.0275083780288696,0.0625000074505806,-2.358658321099938e-06,19.5324821472168,0.8619630932807922,77.45000457763672,36.03,0
-1.0288488864898682,0.0625000074505806,-1.5136511137825437e-06,23.06759452819824,0.861757755279541,77.45000457763672,36.03,0
-1.0297091007232666,0.0625000074505806,-9.713741064842909e-07,23.36581039428711,0.8616260290145874,77.45000457763672,36.03,0
-1.024663329124451,0.0625000074505806,-6.233719886949984e-07,22.002349853515625,0.8615414500236511,77.45000457763672,36.03,0
-1.0270230770111084,0.0625000074505806,-4.000442572760221e-07,20.03109169006348,0.8614872097969055,77.45000457763672,36.03,0
-1.028537392616272,0.0625000074505806,-2.567253716279083e-07,17.7127742767334,0.8614524006843567,77.45000457763672,36.03,0
-1.02950918674469,0.0625000074505806,-1.6475156883188904e-07,15.214725494384766,0.8614300489425659,77.45000457763672,36.03,0
-1.0301328897476196,0.0625000074505806,-1.0572807696007659e-07,12.999000549316406,0.8618749976158142,77.59330749511719,36.03,0
-1.0305330753326416,0.0625000074505806,-6.785019479593758e-08,11.329878807067873,0.8621605038642883,77.68527221679688,36.03,0
-1.025192141532898,0.0625000074505806,-4.35423501699006e-08,9.742841720581056,0.8623437285423279,77.7442855834961,36.03,0
-1.021764636039734,0.0625000074505806,0.0055977459996938,7.420314788818359,0.8624613285064697,77.78215789794922,36.03,0
-1.0195651054382324,0.0625000074505806,0.0035923111718147,4.224544525146484,0.8625367879867554,77.80646514892578,36.03,0
-1.0237512588500977,0.0625000074505806,-0.0032924355473369,0.9126163721084596,0.8625852465629578,77.82205963134766,36.03,0
-1.026437759399414,0.0625000074505806,-0.0021128957159817,-2.12992787361145,0.8626163005828857,77.83206939697266,36.03,0
-1.0225640535354614,0.0625000074505806,-0.0013559348881244,-5.576391696929932,0.8626362681388855,77.83849334716797,36.03,0
-1.0200780630111694,0.0625000074505806,0.004727613646537,-9.876775741577148,0.8617308735847473,77.84261322021484,36.03,0
-1.024080514907837,0.0625000074505806,0.0030339104123413,-14.356149673461914,0.861149787902832,77.84526062011719,36.03,0
-1.026648998260498,0.0625000074505806,0.0019469890976324,-18.21596336364746,0.8607769012451172,77.84695434570312,36.03,0
-1.0282973051071167,0.0625000074505806,0.0012494655093178,-21.67817687988281,0.860537588596344,77.8480453491211,36.03,0
-1.0237573385238647,0.0625000074505806,0.0008018350345082,-25.877609252929688,0.8603840470314026,77.84874725341797,36.03,0
-1.0264416933059692,0.0625000074505806,0.0005145715549588,-31.427875518798828,0.8602855205535889,77.84919738769531,36.03,0
-1.022566556930542,0.0625000074505806,0.0003302223922219,-36.261531829833984,0.8602222800254822,77.8494873046875,36.03,0
-1.0256774425506592,0.0625000074505806,0.0002119177224813,-35.68777084350586,0.8601816892623901,77.84967041015625,36.03,0
-1.027673840522766,0.0625000074505806,0.0001359965972369,-26.49926376342773,0.8606145977973938,77.84978485107422,36.0,0
-1.0233572721481323,0.0625000074505806,8.727479143999517e-05,-10.764854431152344,0.8608924150466919,77.84986114501953,36.0,0
-1.0205870866775513,0.0625000074505806,0.0056537822820246,5.910191059112549,0.8610706925392151,77.84990692138672,36.0,0
-1.024407148361206,0.0625000074505806,0.0036282720975577,19.10833168029785,0.8611850738525391,77.84993743896484,36.0,0
-1.026858687400818,0.0625000074505806,0.0023284160997718,27.517234802246094,0.8612585067749023,77.84996032714844,36.0,0
-1.0284318923950195,0.0625000074505806,0.0014942433917894,31.666847229003903,0.8613055944442749,77.8499755859375,36.0,0
-1.029441475868225,0.0625000074505806,0.0009589194087311,32.62810516357422,0.861335813999176,77.84998321533203,36.0,0
-1.0244916677474976,0.0625000074505806,0.000615379307419,31.561176300048828,0.8613552451133728,77.84999084472656,36.0,0
-1.0269129276275637,0.0625000074505806,0.0003949150268454,29.292984008789062,0.8613677024841309,77.84999084472656,36.0,0
