acc_x,acc_y,acc_z,bvp,eda,hr,temp,label
0.0,0.0,0.0,0.0,0.0,0.0,34.61,0
-0.0312499981373548,-0.1510416567325592,0.0468749962747097,38.8849983215332,0.9400964975357056,10.416666030883787,34.61,0
-0.0731707289814949,-0.3578506112098694,0.1181402429938316,89.18585205078125,2.201201677322388,24.39024543762207,34.61,0
-0.1096345484256744,-0.5327553749084473,0.1502284109592437,120.66943359375,3.2981460094451904,36.54485321044922,34.61,0
-0.1415750682353973,-0.6496814489364624,0.200329452753067,129.2312469482422,4.098426342010498,45.41229248046875,34.61,0
-0.1577104330062866,-0.7343350648880005,0.2452294081449508,126.56060791015624,4.640249729156494,51.415924072265625,34.61,0
-0.1627444773912429,-0.8009861707687378,0.2580310106277466,121.97222137451172,4.995763778686523,55.35517120361328,34.61,0
-0.2106394469738006,-0.8274148106575012,0.2607426643371582,115.70471954345705,5.226012706756592,57.90642547607422,34.61,0
-0.2135411649942398,-0.8612099289894104,0.2792599499225616,105.24896240234376,5.39725399017334,59.54987335205078,34.61,0
-0.2042169421911239,-0.8885261416435242,0.279972493648529,89.25492095947266,5.507318019866943,60.60618591308594,34.61,0
-0.1926328688859939,-0.9060673713684082,0.2804300785064697,67.70893096923828,5.577996253967285,61.28450393676758,34.61,0
-0.1907941550016403,-0.9061328172683716,0.2751265466213226,40.9249382019043,5.62336540222168,61.71992492675781,34.61,0
-0.1952116042375564,-0.922967493534088,0.271722674369812,11.49345874786377,5.6524834632873535,61.99938201904297,34.61,0
-0.2316326946020126,-0.9337714910507202,0.2583428025245666,-13.567493438720703,5.671170711517334,62.17873001098633,34.61,0
-0.2158219218254089,-0.9351072311401368,0.2553539574146271,-29.68270874023437,5.683163642883301,62.293827056884766,34.61,0
-0.222468689084053,-0.9359644651412964,0.2478381097316742,-37.57054901123047,5.690859794616699,62.36769104003906,34.61,0
-0.2155386805534362,-0.9309167861938475,0.243014857172966,-48.04579162597656,5.653566360473633,62.41509246826172,34.61,0
-0.205493614077568,-0.9276775121688844,0.2343217879533767,-67.46843719482422,5.62963342666626,62.44551086425781,34.61,0
-0.1990472674369812,-0.9255987405776978,0.2343408465385437,-94.72881317138672,5.614274978637695,62.465030670166016,34.61,0
-0.1949103772640228,-0.924264669418335,0.228755310177803,-127.20169830322266,5.604418754577637,62.47755813598633,34.61,0
-0.1866577863693237,-0.9290063381195068,0.2307686060667038,-170.32455444335938,5.598093509674072,62.485599517822266,34.61,0
-0.1813617348670959,-0.93204927444458,0.2320606261491775,-230.4062957763672,5.594034194946289,62.49075698852539,34.61,0
-0.1779630333185196,-0.9284042716026306,0.2384875416755676,-295.01220703125,5.591429233551025,62.49406814575195,34.61,0
-0.1813797205686569,-0.9260650873184204,0.2426119595766067,-350.3586120605469,5.589757442474365,62.496192932128906,34.61,0
-0.1779745817184448,-0.9189661741256714,0.2452587783336639,-397.14398193359375,5.593734264373779,62.49755859375,34.63,0
-0.1813871413469314,-0.9144105315208436,0.2525551319122314,-458.2004089355469,5.596286296844482,62.49843215942383,34.63,0
-0.1835771203041076,-0.9114869832992554,0.2572375237941742,-537.9627075195312,5.59792423248291,62.49899291992188,34.63,0
-0.1849825233221054,-0.9096108078956604,0.2602424025535583,-618.7595825195312,5.59897518157959,62.49935531616211,34.63,0
-0.191482201218605,-0.9140045642852784,0.2621707618236542,-667.18896484375,5.599649906158447,62.49958801269531,34.63,0
-0.1956533193588256,-0.916824221611023,0.2578105032444,-581.0068969726562,5.600082874298096,62.49973678588867,34.63,0
-0.1983301043510437,-0.9242314696311952,0.2494145631790161,-375.37890625,5.600360870361328,62.49983215332031,34.63,0
-0.2000479102134704,-0.9289849996566772,0.2440265268087387,-149.5408935546875,5.600539207458496,62.49989318847656,34.63,0
-0.1955525279045105,-0.9320355653762816,0.2349710166454315,41.27814102172852,5.600193977355957,62.12017822265625,34.63,0
-0.1870698779821396,-0.928395450115204,0.2291597127914428,183.73275756835935,5.599972724914551,61.87649917602539,34.63,0
-0.1816262006759643,-0.9148638844490052,0.2142347991466522,267.1735534667969,5.599830627441406,61.72011947631836,34.63,0
-0.1893283128738403,-0.9341689944267272,0.1934612989425659,301.6760559082031,5.5997395515441895,61.6197624206543,34.63,0
-0.1942710876464843,-0.9577534794807434,0.1857278496026992,313.81524658203125,5.5996809005737305,61.55535888671875,34.63,0
-0.2030408382415771,-0.9728885889053344,0.1807649582624435,321.2794494628906,5.599643230438232,61.51403045654297,34.63,0
-0.2142665386199951,-0.9881992340087892,0.1831778436899185,320.3768310546875,5.599618911743164,61.48750686645508,34.63,0
-0.2158727794885635,-0.9980247020721436,0.2015196084976196,299.8103942871094,5.599603652954102,61.47048568725586,34.63,0
-0.2225013375282287,-0.9763412475585938,0.2076925337314605,266.9902648925781,5.593166828155518,61.459564208984375,34.63,0
-0.2323529422283172,-0.951230525970459,0.2060561776161193,233.84060668945312,5.589035987854004,61.45255279541016,34.63,0
-0.2274795919656753,-0.9239203929901124,0.2050060629844665,203.7073516845703,5.586385250091553,61.448055267333984,34.63,0
-0.213156595826149,-0.9007965326309204,0.1987343877553939,166.14498901367188,5.584683895111084,61.44516754150391,34.63,0
-0.2039649337530136,-0.8971524834632874,0.1835140287876129,118.20117950439452,5.583592414855957,61.44331741333008,34.63,0
-0.1980662494897842,-0.9004117250442505,0.1625509411096573,71.88522338867188,5.582891941070557,61.4421272277832,34.63,0
-0.1998785883188247,-0.9081010818481444,0.1435002535581588,36.76336288452149,5.582442283630371,61.44136428833008,34.63,0
-0.2066394090652465,-0.924231231212616,0.1368723958730697,11.361696243286133,5.582153797149658,61.44087600708008,34.63,0
-0.2053803503513336,-0.9345826506614684,0.1382167935371399,-11.671289443969728,5.581509590148926,61.4405632019043,34.63,0
-0.1989745795726776,-0.9524211287498474,0.1558728814125061,-34.91815948486328,5.581096172332764,61.44036102294922,34.63,0
-0.2004614919424057,-0.9750643968582152,0.1839968562126159,-57.20602035522461,5.580831050872803,61.44023132324219,34.63,0
-0.2014157176017761,-0.9951933026313782,0.202045202255249,-69.85393524169922,5.580660820007324,61.44014739990234,34.63,0
-0.2132236361503601,-1.0305019617080688,0.2248231470584869,-61.15761566162109,5.580551624298096,61.44009399414063,34.63,0
-0.2263990491628646,-1.0475633144378662,0.2450384944677353,-32.68415832519531,5.58048152923584,61.440059661865234,34.63,0
-0.2460498213768005,-1.0529145002365112,0.2580115497112274,-3.344957113265991,5.580436706542969,61.44003677368164,34.63,0
-0.2530627846717834,-1.045153021812439,0.2719346880912781,11.85410499572754,5.580407619476318,61.44002151489258,34.63,0
-0.2463677376508712,-1.0177810192108154,0.2864675223827362,14.894241333007812,5.580389022827148,61.44001388549805,34.63,0
-0.2308757007122039,-0.9834219813346864,0.2622072100639343,12.252363204956056,5.580377101898193,61.44001007080078,34.63,0
-0.2209337949752807,-0.9837633967399596,0.2186494618654251,7.726723670959473,5.580369472503662,61.44000625610352,34.63,0
-0.2201514393091201,-0.983982503414154,0.1683055162429809,6.710445880889893,5.58036470413208,61.44000244140625,34.63,0
-0.202856034040451,-0.9953186511993408,0.1415954381227493,12.66452693939209,5.580361843109131,61.44000244140625,34.63,0
-0.1749635189771652,-0.9913979768753052,0.1356499940156936,21.153608322143555,5.580359935760498,61.44000244140625,34.63,0
-0.1178792864084243,-0.9440997242927552,0.1542256474494934,25.802499771118164,5.580358505249023,61.44000244140625,34.63,0
-0.0812459141016006,-0.8913553357124329,0.1661464422941208,26.32466125488281,5.580357551574707,61.44000244140625,34.63,0
-0.0745300501585006,-0.8183225989341736,0.1793942898511886,25.88949966430664,5.590915203094482,61.13906478881836,34.63,0
-0.0814157426357269,-0.771454393863678,0.2046893239021301,25.280641555786133,5.597690582275391,60.94594192504883,34.63,0
-0.0970301330089569,-0.7581704258918762,0.2265199869871139,23.08429336547852,5.602038383483887,60.82200622558594,34.63,0
-0.1350394189357757,-0.7832321524620056,0.2517251968383789,19.18132972717285,5.604828834533691,60.742469787597656,34.63,0
-0.1650293618440628,-0.8105108737945557,0.2790960073471069,14.871014595031738,5.606619358062744,60.6914291381836,34.63,0
-0.1898729652166366,-0.8560056686401367,0.3022587895393371,10.714862823486328,5.607768535614014,60.65867233276367,34.63,0
-0.2282072603702545,-0.9803637862205504,0.3227210938930511,5.887391090393066,5.608506202697754,60.63765335083008,34.63,0
-0.2640035450458526,-1.076962947845459,0.3414503931999206,-0.0909930244088172,5.608979225158691,60.62416458129883,34.63,0
-0.2757799923419952,-1.1165636777877808,0.3590675592422485,-6.521360397338867,5.625349521636963,60.61550521850586,34.63,0
-0.3001307547092438,-1.186759352684021,0.3591777086257934,-12.690068244934082,5.635855197906494,60.60995101928711,34.63,0
-0.3213554620742798,-1.1590358018875122,0.3312595188617706,-18.773256301879883,5.642597198486328,60.60638427734375,34.63,0
-0.3181829154491424,-1.0684733390808103,0.2909521460533142,-25.081005096435547,5.646924018859863,60.604095458984375,34.63,0
-0.3273425102233886,-1.027148962020874,0.2538896203041076,-31.260587692260746,5.64970064163208,60.60262680053711,34.63,0
-0.3332206308841705,-1.0230203866958618,0.2077139317989349,-37.10713958740234,5.651482582092285,60.6016845703125,34.63,0
-0.3257973194122314,-1.0371642112731934,0.1724832653999328,-43.36334228515625,5.652626037597656,60.60108184814453,34.63,0
-0.2874467968940735,-1.0294476747512815,0.1442764848470688,-50.978702545166016,5.653359889984131,60.60069274902344,34.63,0
-0.251640111207962,-0.9797133803367616,0.114979438483715,-58.99338912963867,5.668519973754883,60.60044479370117,34.63,0
-0.223063662648201,-0.936601221561432,0.0905805081129074,-63.93971252441406,5.678248882293701,60.600284576416016,34.63,0
-0.2159204930067062,-0.8865432739257812,0.0693249031901359,-62.68949508666992,5.684492111206055,60.60018157958984,34.63,0
-0.2001408636569976,-0.8376256227493286,0.0612820573151111,-55.0516242980957,5.688498973846436,60.60011672973633,34.63,0
-0.1844166368246078,-0.8006352782249451,0.0617183931171894,-44.3570556640625,5.691070079803467,60.600074768066406,34.63,0
-0.1743257194757461,-0.7824947834014893,0.0675961822271347,-34.54901885986328,5.69271993637085,60.60004806518555,34.63,0
-0.1678499579429626,-0.776451051235199,0.0825637578964233,-27.25882911682129,5.693778991699219,60.60002899169922,34.63,0
-0.1636941879987716,-0.8061591982841492,0.1033646389842033,-21.763578414916992,5.694458484649658,60.60001754760742,34.63,0
-0.1666250228881836,-0.8700063824653625,0.1335067749023437,-16.932985305786133,5.710042953491211,60.60000991821289,34.63,0
-0.1685058623552322,-0.9221753478050232,0.1696435809135437,-12.245906829833984,5.7200446128845215,60.600006103515625,34.63,0
-0.1753106564283371,-0.9724476933479308,0.2264207452535629,-7.532703876495361,5.726462841033936,60.60000228881836,34.63,0
-0.1796775758266449,-1.0494917631149292,0.262857049703598,-2.5913634300231934,5.730581760406494,60.60000228881836,34.63,0
-0.2104688882827758,-1.1213253736495972,0.2974353432655334,2.6325204372406006,5.733224868774414,60.60000228881836,34.63,0
-0.2358267605304718,-1.1562285423278809,0.336419016122818,7.69737958908081,5.734920978546143,60.60000228881836,34.63,0
-0.2520999908447265,-1.0834652185440063,0.3390454053878784,11.53883934020996,5.73600959777832,60.60000228881836,34.63,0
-0.2513476610183716,-1.0255743265151978,0.2903508841991424,12.732253074645996,5.736708164215088,60.60000228881836,34.63,0
-0.2340715229511261,-0.9940210580825806,0.2423082292079925,10.46725845336914,5.778011798858643,60.51401901245117,34.63,0
-0.2229847013950348,-0.990565299987793,0.1834883391857147,5.320079803466797,5.80451774597168,60.45883941650391,34.63,0
-0.2158698141574859,-0.988347589969635,0.151338905096054,-0.906465709209442,5.82152795791626,60.423431396484375,34.63,0
-0.2224994301795959,-0.9365444183349608,0.130707249045372,-6.163370132446289,5.832444190979004,60.40070724487305,34.63,0
-0.2379494905471801,-0.8641157150268555,0.1230648085474968,-9.293334007263184,5.839449405670166,60.38612365722656,34.63,0
-0.2478644549846649,-0.8064395785331726,0.1181603297591209,-10.617692947387695,5.843945026397705,60.376766204833984,34.63,0
-0.237433984875679,-0.7694263458251953,0.1374040096998214,-11.700457572937012,5.846829891204834,60.37075805664063,34.63,0
-0.2251425385475158,-0.7568689584732056,0.1665468215942382,-14.104202270507812,5.848681449890137,60.36690521240234,34.63,0
-0.228450134396553,-0.776799201965332,0.190846785902977,-17.588542938232422,5.912759304046631,60.36443328857422,34.63,0
-0.2529638707637787,-0.8343715071678162,0.2064411044120788,-19.39109992980957,5.953880786895752,60.36284637451172,34.63,0
-0.2742931246757507,-0.9049047231674194,0.2276441752910614,-16.3813419342041,5.980270385742188,60.3618278503418,34.63,0
-0.2823832631111145,-0.9837555289268494,0.2692399621009826,-8.04062557220459,5.99720573425293,60.36117172241211,34.63,0
-0.2539883852005005,-1.0791395902633667,0.2903359830379486,3.4954922199249268,6.008073806762695,60.36075210571289,34.63,0
-0.2469617426395416,-1.1851338148117063,0.298276424407959,15.477239608764648,6.015048027038574,60.36048126220703,34.63,0
-0.231256902217865,-1.185981512069702,0.3033721148967743,25.620500564575195,6.019523620605469,60.36030960083008,34.63,0
-0.2211784422397613,-1.141743302345276,0.2898489236831665,32.73531723022461,6.022396087646484,60.360198974609375,34.63,0
-0.2482973039150238,-1.1357449293136597,0.2363883256912231,37.10057067871094,6.087128639221191,60.36012649536133,34.63,0
-0.2265162169933319,-1.1151021718978882,0.190884843468666,39.27140808105469,6.1286702156066895,60.36008071899414,34.63,0
-0.190147265791893,-1.0738658905029297,0.1560855507850647,39.25657272338867,6.15532922744751,60.360050201416016,34.63,0
-0.1556122153997421,-0.9802295565605164,0.1281555891036987,37.83193588256836,6.1724371910095215,60.36003112792969,34.63,0
-0.1502429395914077,-0.8977480530738831,0.1102317497134208,36.437618255615234,6.183416366577148,60.36001968383789,34.63,0
-0.1747861057519912,-0.8280228972434998,0.0875337123870849,34.73674774169922,6.190462112426758,60.36001205444336,34.63,0
-0.1625476330518722,-0.7944728136062622,0.0785651952028274,30.72542762756348,6.19498348236084,60.360008239746094,34.63,0
-0.1434981375932693,-0.7897356152534485,0.0784074887633323,23.819860458374023,6.197885036468506,60.36000442504883,34.63,0
-0.1368710398674011,-0.8202822208404541,0.0727085098624229,15.458178520202637,6.241061210632324,60.36000442504883,34.63,0
-0.1382159292697906,-0.8342875242233276,0.0690512359142303,6.799745559692383,6.268769264221191,60.36000442504883,34.63,0
-0.1558723151683807,-0.8432753086090088,0.0723019838333129,-1.966725826263428,6.286550998687744,60.36000442504883,34.63,0
-0.1783987283706665,-0.8770320415496826,0.0631925761699676,-10.519506454467772,6.297962188720703,60.36000442504883,34.63,0
-0.1816593259572982,-0.9154884815216064,0.0797377750277519,-18.5159912109375,6.3052849769592285,60.36000442504883,34.63,0
-0.1781540215015411,-0.9625586867332458,0.1295399516820907,-26.38834571838379,6.309984683990479,60.36000442504883,34.63,0
-0.1759045124053955,-1.0151567459106443,0.1615001261234283,-34.761417388916016,6.313000679016113,60.36000442504883,34.63,0
-0.1968520134687423,-1.1272799968719482,0.1596192270517349,-42.99366760253906,6.31493616104126,60.36000442504883,34.63,0
-0.2158926874399185,-1.193636417388916,0.1864010542631149,-48.280235290527344,6.339589595794678,60.67885208129883,34.63,0
-0.222514122724533,-1.1018736362457275,0.2371747344732284,-46.36347198486328,6.355410575866699,60.88346862792969,34.63,0
-0.1987745016813278,-1.0149966478347778,0.2193783819675445,-34.833499908447266,6.365563869476318,61.0147819519043,34.63,0
-0.1443553566932678,-0.9704395532608032,0.2135554850101471,-16.346155166625977,6.372079372406006,61.09905242919922,34.63,0
-0.0814434066414833,-0.9586387276649476,0.1986231356859207,3.044948101043701,6.376260757446289,61.15312957763672,34.63,0
-0.0690590143203735,-0.9678589701652528,0.1778448671102523,18.77426528930664,6.378944396972656,61.187835693359375,34.63,0
-0.1002958416938781,-0.93459153175354,0.1813038885593414,29.305509567260746,6.380666255950928,61.210105895996094,34.63,0
-0.1147440671920776,-0.8908513188362122,0.1835236996412277,34.15434265136719,6.381771564483643,61.22439956665039,34.63,0
-0.1240161061286926,-0.8515858054161072,0.1849482357501983,33.56882858276367,6.393956661224365,61.23357009887695,34.63,0
-0.1131730452179908,-0.8319852352142334,0.1802646517753601,29.775300979614254,6.401776313781738,61.23945617675781,34.63,0
-0.1174101382493972,-0.8306022882461548,0.1884545385837555,25.889890670776367,6.406794548034668,61.24323272705078,34.63,0
-0.125727042555809,-0.8297147750854492,0.1993081122636795,23.546924591064453,6.410015106201172,61.24565887451172,34.63,0
-0.1254665702581405,-0.8459385633468628,0.2174688577651977,22.996309280395508,6.412081718444824,61.247215270996094,34.63,0
-0.1308971941471099,-0.8731433749198914,0.2291233837604522,24.255115509033203,6.413408279418945,61.24821472167969,34.63,0
-0.1511755734682083,-0.9689707159996032,0.2254070341587066,26.614200592041016,6.414259433746338,61.24885559082031,34.63,0
-0.1697868555784225,-1.108836054801941,0.2342176437377929,28.08155059814453,6.4148054122924805,61.24926376342773,34.63,0
-0.1817304939031601,-1.2377779483795166,0.2454695701599121,27.221176147460938,6.406893253326416,61.24952697753906,34.63,0
-0.2005907893180847,-1.2757432460784912,0.2638859450817108,24.85625457763672,6.401815891265869,61.24969482421875,34.63,0
-0.2126942425966262,-1.2049449682235718,0.2701067626476288,22.844188690185547,6.398557186126709,61.24980545043945,34.63,0
-0.2092659920454025,-1.0979351997375488,0.2293167114257812,21.610280990600582,6.396466255187988,61.24987411499024,34.63,0
-0.1566859632730484,-1.040458083152771,0.1807489097118377,19.33882713317871,6.395124435424805,61.24991989135742,34.63,0
-0.1229431331157684,-1.0259636640548706,0.1327875703573227,13.617874145507812,6.39426326751709,61.24995040893555,34.63,0
-0.1292777955532074,-0.9942708611488342,0.0964109674096107,4.766091346740723,6.393710613250732,61.24996948242188,34.63,0
-0.1277452409267425,-0.9291501045227052,0.0786643326282501,-2.798908472061157,6.393355846405029,61.24998092651367,34.63,0
-0.1211639642715454,-0.8593704700469971,0.0616777911782264,-4.461614608764648,6.3756842613220215,61.2499885559082,34.65,0
-0.1169404760003089,-0.8201876878738403,0.0507768057286739,-0.2335968762636184,6.364343643188477,61.24999237060547,34.65,0
-0.1086323112249374,-0.8062379956245422,0.04378117993474,6.3417181968688965,6.357065677642822,61.249996185302734,34.65,0
-0.120093934237957,-0.81967693567276,0.0392917916178703,12.660765647888184,6.352395057678223,61.249996185302734,34.65,0
-0.1330471187829971,-0.8283013105392456,0.0420085340738296,17.840896606445312,6.349397659301758,61.249996185302734,34.65,0
-0.141359731554985,-0.8282381296157837,0.0717408508062362,20.900094985961918,6.347474098205566,61.249996185302734,34.65,0
-0.1578898280858993,-0.8337953686714172,0.1132124438881874,21.14725875854492,6.346240043640137,61.249996185302734,34.65,0
-0.1796934455633163,-0.870948314666748,0.1398265212774276,19.263805389404297,6.345448017120361,61.249996185302734,34.65,0
-0.1880879700183868,-0.95636647939682,0.1681014597415924,16.034542083740234,6.323823928833008,61.51869201660156,34.65,0
-0.1934750974178314,-1.0223784446716309,0.1974422335624694,11.32899284362793,6.3099470138549805,61.69112396240234,34.65,0
-0.202530026435852,-1.13751220703125,0.2162714451551437,5.593649864196777,6.301041603088379,61.8017807006836,34.65,0
-0.2195364981889724,-1.183409571647644,0.2451482713222503,1.035306096076965,6.295326232910156,61.87279510498047,34.65,0
-0.2080591768026352,-1.1288973093032837,0.2636797726154327,0.0123710772022604,6.291658878326416,61.918365478515625,34.65,0
-0.217487022280693,-1.0043500661849976,0.2419855743646621,2.583811044692993,6.289305210113525,61.94761276245117,34.65,0
-0.223537266254425,-0.952411651611328,0.2224657088518142,6.204429626464844,6.287794589996338,61.96638107299805,34.65,0
-0.171442225575447,-0.952667236328125,0.2099389731884002,8.542263984680176,6.286825180053711,61.978424072265625,34.65,0
-0.1268150806427002,-0.952831208705902,0.1963022649288177,10.164359092712402,6.260496616363525,61.98615264892578,34.65,0
-0.1149692684412002,-0.9249475598335266,0.1819532364606857,12.892720222473145,6.243600368499756,61.99111175537109,34.65,0
-0.1241606250405311,-0.8566734790802002,0.1615493148565292,16.022916793823242,6.232757091522217,61.99429702758789,34.65,0
-0.1356568932533264,-0.8072613477706909,0.1484552472829818,16.37654685974121,6.225798606872559,61.996341705322266,34.65,0
-0.1374367624521255,-0.7811492681503296,0.1512477695941925,12.229161262512209,6.221333026885986,61.99765396118164,34.65,0
-0.1441767513751983,-0.7867831587791443,0.1698331832885742,5.863224983215332,6.2184672355651855,61.99849319458008,34.65,0
-0.1485020816326141,-0.8015941977500916,0.1873580068349838,1.9033236503601076,6.216628074645996,61.9990348815918,34.65,0
-0.1568756103515625,-0.8334901332855225,0.2153977453708648,3.514292001724243,6.215447902679443,61.99938201904297,34.65,0
-0.1678470224142074,-0.8763502240180969,0.2333920449018478,10.219335556030272,6.1967878341674805,61.999603271484375,34.65,0
-0.1916811764240265,-0.9990175366401672,0.2505375146865845,18.8177547454834,6.184813022613525,61.9997444152832,34.65,0
-0.2125743329524994,-1.1617050170898438,0.2559427320957184,25.779502868652344,6.177127838134766,61.99983596801758,34.65,0
-0.2147868126630783,-1.327683925628662,0.2650092542171478,29.21895408630371,6.172195911407471,61.99989318847656,34.65,0
-0.2218044251203537,-1.2998530864715576,0.2708276212215423,29.627742767333984,6.169031143188477,61.99993133544922,34.65,0
-0.2207101583480835,-1.1644395589828491,0.2521704137325287,28.9192008972168,6.1670002937316895,61.99995422363281,34.65,0
-0.1976168155670166,-1.0607455968856812,0.2010128796100616,28.507492065429688,6.165696620941162,61.99996948242188,34.65,0
-0.1604057401418686,-1.0053963661193848,0.1569873690605163,28.19312286376953,6.164860248565674,61.99998092651367,34.65,0
-0.142123594880104,-0.9866697788238524,0.1175387799739837,26.84137344360352,6.14274787902832,61.9999885559082,34.66,0
-0.1415867060422897,-0.9634565711021424,0.0810273960232734,24.293670654296875,6.1285576820373535,61.99999237060547,34.66,0
-0.1412421613931656,-0.9261685609817504,0.0631942674517631,22.01383781433105,6.11945104598999,61.999996185302734,34.66,0
-0.1410210579633712,-0.8854459524154663,0.0517499931156635,21.06307983398437,6.113606929779053,61.999996185302734,34.66,0
-0.1296836137771606,-0.8593125343322754,0.0500034913420677,20.2523136138916,6.109856605529785,61.999996185302734,34.66,0
-0.1224078983068466,-0.8481393456459045,0.0488826856017112,17.571718215942383,6.107450008392334,61.999996185302734,34.66,0
-0.1233365386724472,-0.8409690260887146,0.0481634177267551,12.791946411132812,6.105905532836914,61.999996185302734,34.66,0
-0.1295302659273147,-0.8363675475120544,0.0588973797857761,7.352899074554443,6.10491418838501,61.999996185302734,34.66,0
-0.1279072612524032,-0.8390123844146729,0.0825791433453559,2.128465175628662,6.091884136199951,62.20420455932617,34.66,0
-0.1380612552165985,-0.8798940777778625,0.1033745110034942,-3.649679660797119,6.083521842956543,62.33525466918945,34.66,0
-0.1445775032043457,-0.9453140497207642,0.1223175525665283,-11.112299919128418,6.078155517578125,62.41935348510742,34.66,0
-0.1543570309877395,-1.0208834409713743,0.1736585348844528,-19.4982852935791,6.074711799621582,62.47332382202149,34.66,0
-0.1662307530641555,-1.0805751085281372,0.2178017646074295,-25.617938995361328,6.072501659393311,62.507957458496094,34.66,0
-0.2018394917249679,-1.1244795322418213,0.2293370217084884,-26.22055053710937,6.071083545684815,62.53018569946289,34.66,0
-0.2023000419139862,-1.113470435142517,0.2647285759449005,-20.88231468200684,6.070173263549805,62.54444885253906,34.66,0
-0.2025955915451049,-1.0336344242095947,0.2650497257709503,-11.78890895843506,6.069589138031006,62.55360412597656,34.66,0
-0.2027852535247802,-0.999193549156189,0.2260714024305343,-1.2099545001983645,6.056361198425293,62.559478759765625,34.66,0
-0.1637225449085235,-0.977091372013092,0.2234484553337097,9.365792274475098,6.047872066497803,62.56324768066406,34.66,0
-0.1218610256910324,-0.9573096632957458,0.2273629754781723,18.55660629272461,6.04242467880249,62.56566619873047,34.66,0
-0.1173878088593483,-0.911028265953064,0.2130817621946334,25.758798599243164,6.038928508758545,62.56721878051758,34.66,0
-0.1201149374246597,-0.8645341992378235,0.1983191221952438,31.73138236999512,6.036684989929199,62.56821441650391,34.66,0
-0.1386583745479583,-0.8346970081329346,0.1776497662067413,36.89337921142578,6.035245418548584,62.56885528564453,34.66,0
-0.1617540270090103,-0.8155491948127747,0.1643853634595871,39.94810485839844,6.034321308135986,62.56926345825195,34.66,0
-0.1933688074350357,-0.8144568204879761,0.1838619112968444,39.53320693969727,6.033728122711182,62.56952667236328,34.66,0
-0.2080595791339874,-0.8249513506889343,0.2355452477931976,36.22892379760742,6.053086280822754,62.56969451904297,34.66,0
-0.2118895053863525,-0.8204905390739441,0.2687126398086548,31.654359817504883,6.06550931930542,62.56980514526367,34.66,0
-0.1975540071725845,-0.8232256174087524,0.2788020074367523,26.551210403442383,6.073482036590576,62.56987380981445,34.66,0
-0.1883543133735656,-0.8417741656303406,0.2740812301635742,20.936880111694336,6.0785980224609375,62.56991958618164,34.66,0
-0.1992437988519668,-0.876068651676178,0.2710517346858978,15.144972801208496,6.081881523132324,62.569950103759766,34.66,0
-0.217427596449852,-0.920467972755432,0.2691075801849365,9.522130012512209,6.083988666534424,62.569969177246094,34.66,0
-0.22349913418293,-0.9489609003067015,0.256664365530014,4.02211332321167,6.085340976715088,62.56998062133789,34.66,0
-0.2609821557998657,-1.0736037492752075,0.2318857014179229,-1.2020390033721924,6.086208820343018,62.56998825073242,34.66,0
-0.3018299043178558,-1.1871789693832395,0.2383752912282943,-5.701023578643799,6.102832317352295,62.56999206542969,34.65,0
-0.3224458694458008,-1.1872940063476562,0.2481377124786377,-9.218746185302734,6.113500118255615,62.56999588012695,34.65,0
-0.2964915931224823,-1.0922056436538696,0.2376093417406082,-11.429644584655762,6.120346546173096,62.56999588012695,34.65,0
-0.2518467605113983,-1.0479767322540283,0.2196572870016098,-11.505005836486816,6.124740123748779,62.56999588012695,34.65,0
-0.1840118467807769,-1.0811686515808103,0.2137344628572464,-8.651482582092285,6.127559661865234,62.56999588012695,34.65,0
-0.1292837560176849,-1.0912737846374512,0.2099335491657257,-3.101541757583618,6.129368782043457,62.56999588012695,34.65,0
-0.0941624194383621,-1.0249875783920288,0.1962987929582595,3.533940553665161,6.130529880523682,62.56999588012695,34.65,0
-0.0828191190958023,-0.9432645440101624,0.1819510161876678,8.93863582611084,6.131275177001953,62.56999588012695,34.65,0
-0.086735188961029,-0.8964171409606934,0.1559501141309738,11.572318077087402,6.144147396087647,62.69897079467773,34.65,0
-0.0724549740552902,-0.8775487542152405,0.1168731302022934,11.632390975952148,6.152408123016357,62.78173828125,34.65,0
-0.0632907524704933,-0.8654400706291199,0.0861979946494102,10.309563636779783,6.15770959854126,62.83485412597656,34.65,0
-0.0630074590444564,-0.8576694130897522,0.0721102356910705,8.317808151245117,6.161111831665039,62.86894226074219,34.65,0
-0.0796189829707145,-0.8358893394470215,0.074265070259571,5.760634422302246,6.163295269012451,62.89081573486328,34.65,0
-0.1014748513698577,-0.8219121694564819,0.0756479203701019,2.880016326904297,6.164696216583252,62.90485382080078,34.65,0
-0.1155006885528564,-0.8465290665626526,0.0877308994531631,0.0067850495688617,6.165595531463623,62.91386413574219,34.65,0
-0.1245016604661941,-0.8847178816795349,0.1066806092858314,-2.68257737159729,6.166172504425049,62.91964340209961,34.65,0
-0.1246801912784576,-0.942811906337738,0.1524280905723571,-4.498019695281982,6.164247512817383,62.92335510253906,34.65,0
-0.1303925365209579,-1.0416687726974487,0.1873839646577835,-4.061655044555664,6.163012027740479,62.92573547363281,34.65,0
-0.1508517116308212,-1.1219028234481812,0.2098166346549987,-0.3530963659286499,6.162219047546387,62.92726516723633,34.65,0
-0.1807745546102523,-1.0838279724121094,0.2633970379829407,6.329515933990479,6.161710262298584,62.9282455444336,34.65,0
-0.1943795382976532,-0.9922204613685608,0.2809885442256927,14.028644561767578,6.161383628845215,62.92887496948242,34.65,0
-0.1975126713514328,-0.9390298128128052,0.2642889022827148,19.57137489318848,6.161174297332764,62.92927932739258,34.65,0
-0.165936678647995,-0.9496772885322572,0.2647675573825836,20.86060905456543,6.16103982925415,62.92953872680664,34.65,0
-0.1456730365753173,-0.9789013266563416,0.253879189491272,19.20524024963379,6.160953521728516,62.92970275878906,34.65,0
-0.1718534082174301,-0.9920578598976136,0.2412938922643661,17.845565795898438,6.154012680053711,62.9298095703125,34.65,0
-0.1830566972494125,-0.978109896183014,0.2388151437044143,18.380958557128903,6.149558067321777,62.92987823486328,34.65,0
-0.1734529882669448,-0.9411699771881104,0.2316266596317291,20.562402725219727,6.14669942855835,62.9299201965332,34.65,0
-0.1728876680135727,-0.9174640774726868,0.227013498544693,24.57402610778809,6.144865036010742,62.92995071411133,34.65,0
-0.172524869441986,-0.9134465456008912,0.2296508103609085,30.988977432250977,6.143687725067139,62.929969787597656,34.65,0
-0.183487594127655,-0.9052705764770508,0.2425388395786285,38.99281692504883,6.142932415008545,62.92998123168945,34.65,0
-0.2017183899879455,-0.8944259285926819,0.2564074099063873,46.565372467041016,6.142447471618652,62.929988861083984,34.65,0
-0.2246134132146835,-0.8986619710922241,0.2821007668972015,51.42858505249024,6.142136573791504,62.92999267578125,34.65,0
-0.2449038922786712,-0.90138041973114,0.298589289188385,50.67316818237305,6.140559673309326,62.92999649047852,34.66,0
-0.2803162634372711,-0.903124988079071,0.3035728931427002,41.38957977294922,6.139547824859619,62.92999649047852,34.66,0
-0.3254329860210418,-0.8986467719078064,0.3067710995674133,24.171873092651367,6.1388983726501465,62.92999649047852,34.66,0
-0.3599840700626373,-0.9181640148162842,0.3032257556915283,4.93993616104126,6.138481616973877,62.92999649047852,34.66,0
-0.3821569681167602,-0.975471258163452,0.2953527867794037,-9.178972244262695,6.138214111328125,62.92999649047852,34.66,0
-0.3683973848819732,-1.023443341255188,0.2679092586040497,-15.506169319152832,6.138042449951172,62.92999649047852,34.66,0
-0.3427739441394806,-1.0262401103973389,0.2391020357608795,-16.47842025756836,6.137932300567627,62.92999649047852,34.66,0
-0.326330304145813,-0.983252763748169,0.1702352464199066,-16.19596290588379,6.137861728668213,62.92999649047852,34.66,0
-0.3213754892349243,-0.9332748651504515,0.0924538597464561,-17.32592010498047,6.146997451782227,63.02314376831055,34.66,0
-0.3293913304805755,-0.9067996740341188,0.0089515931904315,-19.767114639282227,6.152860164642334,63.08292007446289,34.66,0
-0.2953509986400604,-0.9010049700737,-0.0502331256866455,-21.50569725036621,6.156622409820557,63.121280670166016,34.66,0
-0.2679081261157989,-0.9028840661048888,-0.0770189240574836,-21.711444854736328,6.159037113189697,63.14590072631836,34.66,0
-0.2558946311473846,-0.8872966170310974,-0.0718174129724502,-22.38803482055664,6.160586357116699,63.16169738769531,34.66,0
-0.270576149225235,-0.8716956973075867,-0.0740771517157554,-25.91399383544922,6.161580562591553,63.171836853027344,34.66,0
-0.3079867959022522,-0.8784772753715515,-0.0867228731513023,-32.09967041015625,6.1622185707092285,63.1783447265625,34.66,0
-0.3431903421878814,-0.8996226191520691,-0.0780448466539383,-38.906681060791016,6.162628173828125,63.18251800537109,34.66,0
-0.3489886224269867,-0.9187902808189392,-0.0668780133128166,-44.67940139770508,6.199614524841309,63.18519973754883,34.66,0
-0.3527096211910248,-0.9366887211799622,-0.0541140064597129,-48.41265869140625,6.223350524902344,63.186920166015625,34.66,0
-0.3550975322723388,-0.9481748938560486,-0.0459228046238422,-49.40049743652344,6.238582611083984,63.18802261352539,34.66,0
-0.3734232783317566,-0.9499483108520508,-0.0462639369070529,-47.927879333496094,6.248357772827148,63.1887321472168,34.66,0
-0.3851836919784546,-0.951086401939392,-0.0576784051954746,-45.155723571777344,6.254631042480469,63.189186096191406,34.66,0
-0.3815353214740753,-0.9574145078659058,-0.0650035515427589,-41.62483596801758,6.258656978607178,63.1894760131836,34.66,0
-0.3568028807640075,-0.9614755511283876,-0.0808999612927436,-36.67198181152344,6.261240482330322,63.18966293334961,34.66,0
-0.3297354876995086,-0.9752772450447084,-0.0966991335153579,-29.16935920715332,6.2628984451293945,63.18978500366211,34.66,0
-0.3123652040958404,-0.9897321462631226,-0.1292292326688766,-18.24989891052246,6.296554565429688,63.18986129760742,34.66,0
-0.2956201732158661,-1.0046062469482422,-0.1613007187843322,-4.467766761779785,6.318153381347656,63.18991088867188,34.66,0
-0.2792764008045196,-0.99735826253891,-0.1762845814228058,8.926682472229004,6.332014083862305,63.18994140625,34.66,0
-0.2631901204586029,-0.9759135842323304,-0.1803025901317596,17.62278175354004,6.340909004211426,63.18996047973633,34.66,0
-0.2472691088914871,-0.9789449572563172,-0.1828811168670654,20.645479202270508,6.346617698669434,63.18997573852539,34.66,0
-0.2314541488885879,-0.9640969634056092,-0.1901336461305618,21.370779037475582,6.35028076171875,63.18998336791992,34.66,0
-0.2101094722747802,-0.9545683860778807,-0.1723967939615249,23.093719482421875,6.352631568908691,63.18998718261719,34.66,0
-0.2020094543695449,-0.9372579455375672,-0.1386232078075409,25.979942321777344,6.354140281677246,63.18999099731445,34.66,0
-0.2080068886280059,-0.9317469000816344,-0.1169492676854133,29.04664802551269,6.385864734649658,63.18999481201172,34.68,0
-0.2118556946516037,-0.9450035691261292,-0.1086379513144493,32.03571701049805,6.406223297119141,63.18999481201172,34.68,0
-0.1975323110818863,-0.9647064805030824,-0.0977064594626426,34.476985931396484,6.419288635253906,63.18999481201172,34.68,0
-0.1939381659030914,-1.0109373331069946,-0.0738979279994964,35.52775955200195,6.427672863006592,63.18999481201172,34.68,0
-0.1860338747501373,-1.062996745109558,-0.0530212111771106,34.78696823120117,6.433053493499756,63.18999481201172,34.68,0
-0.1697658002376556,-1.1020032167434692,-0.0172326397150754,31.767942428588867,6.436506271362305,63.18999481201172,34.68,0
-0.1425325721502304,-1.1214375495910645,0.0225277300924062,25.92908096313477,6.438722133636475,63.18999481201172,34.68,0
-0.0858714282512664,-1.0947248935699463,0.0816302970051765,18.40241813659668,6.440144062042236,63.18999481201172,34.68,0
-0.0439117923378944,-1.055191159248352,0.1139611452817916,12.18936538696289,6.461561679840088,63.37628936767578,34.68,0
-0.0225822869688272,-1.0130274295806885,0.1291114538908004,9.76777172088623,6.475306510925293,63.49584197998047,34.68,0
-0.014492011629045,-0.9635780453681946,0.1444318145513534,11.369980812072754,6.484127044677734,63.572566986083984,34.68,0
-0.0148979136720299,-0.9262465238571168,0.1486657708883285,15.310821533203123,6.489787578582764,63.621803283691406,34.68,0
-0.0375494956970214,-0.8854959607124329,0.1401873230934143,18.88593864440918,6.493420124053955,63.65340042114258,34.68,0
-0.0744770765304565,-0.8537468314170837,0.1291485726833343,19.67197799682617,6.49575138092041,63.673675537109375,34.68,0
-0.109370619058609,-0.8389698266983032,0.1220645383000373,17.217205047607422,6.497247219085693,63.68668746948242,34.68,0
-0.1485566049814224,-0.8238890171051025,0.1343117356300354,13.184226036071776,6.498207092285156,63.69503784179688,34.68,0
-0.1793016940355301,-0.8254066109657288,0.1477690637111663,9.367268562316896,6.496527671813965,63.70039749145508,34.68,0
-0.2214232236146927,-0.8599671125411987,0.1676007509231567,5.857322692871094,6.495450019836426,63.70383834838867,34.68,0
-0.2428566217422485,-0.9269282817840576,0.1859253495931625,1.254672288894653,6.494758605957031,63.70604705810547,34.68,0
-0.2566113471984863,-1.025877833366394,0.197685033082962,-5.4034271240234375,6.494314670562744,63.707462310791016,34.68,0
-0.2934271991252899,-1.1285624504089355,0.210829496383667,-13.158474922180176,6.494029998779297,63.70837020874024,34.68,0
-0.3226512670516968,-1.1888617277145386,0.2248626202344894,-20.09488868713379,6.493847370147705,63.70895385742188,34.68,0
-0.3190144896507263,-1.1156028509140017,0.233868271112442,-25.302202224731445,6.493730068206787,63.70932769775391,34.68,0
-0.3054850697517395,-1.0741872787475586,0.2116587162017822,-28.969970703125,6.493654727935791,63.70956802368164,34.68,0
-0.2912048995494842,-1.0476090908050537,0.1974059045314788,-31.46345329284668,6.467899799346924,63.709720611572266,34.68,0
-0.2596496045589447,-1.0529438257217407,0.1882592588663101,-33.51502990722656,6.451372146606445,63.70981979370117,34.68,0
-0.23380146920681,-1.0395740270614624,0.1823894679546356,-36.27897644042969,6.440765380859375,63.70988464355469,34.68,0
-0.2004202902317047,-0.9918096661567688,0.161829262971878,-40.07687377929688,6.433958530426025,63.70992660522461,34.68,0
-0.1734004020690918,-0.955559492111206,0.1374393552541732,-43.94001007080078,6.429590225219727,63.70995330810547,34.68,0
-0.1504628211259842,-0.9266984462738036,0.1161895394325256,-47.25030517578125,6.42678689956665,63.70996856689453,34.68,0
-0.1413405686616897,-0.8969815373420715,0.0857593044638633,-50.71096420288086,6.424988269805908,63.70998001098633,34.68,0
-0.1410842090845108,-0.8667153716087341,0.0662309303879737,-54.6657829284668,6.423833847045898,63.70998764038086,34.68,0
-0.1633107960224151,-0.8249012231826782,0.070492073893547,-57.75189208984375,6.402435779571533,63.709991455078125,34.66,0
-0.1719767600297927,-0.7924695014953613,0.1012154966592788,-58.123802185058594,6.3887038230896,63.70999526977539,34.66,0
-0.1831358522176742,-0.7772544622421265,0.1265297979116439,-54.94827651977539,6.379891395568848,63.70999526977539,34.66,0
-0.2126882076263427,-0.7842836976051331,0.1651661545038223,-48.267391204833984,6.374236106872559,63.70999526977539,34.66,0
-0.2316532135009765,-0.799990177154541,0.2011562883853912,-38.76375198364258,6.370606899261475,63.70999526977539,34.66,0
-0.260617196559906,-0.8324607610702515,0.2298504710197448,-28.086332321166992,6.3682780265808105,63.70999526977539,34.66,0
-0.3015956878662109,-0.9036785364151,0.2650580704212188,-18.24272918701172,6.366783618927002,63.70999526977539,34.66,0
-0.3334911167621612,-0.9885663986206056,0.2820545136928558,-10.345754623413086,6.365824222564697,63.70999526977539,34.66,0
-0.3539597690105438,-1.09902024269104,0.292961835861206,-4.582911491394043,6.367503643035889,63.89270782470703,34.66,0
-0.3670953512191772,-1.192294359207153,0.3055593073368072,-1.1031874418258667,6.368581295013428,64.00996398925781,34.66,0
-0.3867205679416656,-1.1178057193756104,0.3080458641052246,0.0802044123411178,6.3692731857299805,64.08521270751953,34.66,0
-0.3993149101734161,-1.0140254497528076,0.2536638379096985,-0.1670665442943573,6.369717121124268,64.13349914550781,34.66,0
-0.3906038999557495,-0.9642185568809508,0.2131668180227279,-0.6732606291770935,6.370001792907715,64.16448974609375,34.66,0
-0.3458292782306671,-0.9434508681297302,0.1983737051486969,-1.0052720308303833,6.370184421539307,64.18437957763672,34.66,0
-0.3114977180957794,-0.9469166994094848,0.1832825690507888,-1.0678696632385254,6.370301723480225,64.1971435546875,34.66,0
-0.3174545764923095,-0.9211519956588744,0.1512068510055542,-0.5276639461517334,6.370377063751221,64.20532989501953,34.66,0
-0.338070660829544,-0.9046176671981812,0.0970358550548553,0.6107582449913025,6.394754886627197,64.21058654785156,34.66,0
-0.3568986356258392,-0.9052024483680724,0.0566742531955242,1.6637637615203855,6.410399436950684,64.21395874023438,34.66,0
-0.3577858209609985,-0.9279688596725464,0.0531635954976081,2.027837991714477,6.42043924331665,64.21612548828125,34.66,0
-0.3415618240833282,-0.9369812607765198,0.056508433073759,1.8602315187454224,6.426882266998291,64.21751403808594,34.66,0
-0.3199546635150909,-0.9371671080589294,0.0642527341842651,1.7884970903396606,6.43101692199707,64.2184066772461,34.66,0
-0.2948928773403168,-0.9316886067390442,0.0524292550981044,2.129380226135254,6.4336700439453125,64.21897888183594,34.66,0
-0.2788096666336059,-0.9281728267669678,0.0336460769176483,2.982255458831787,6.435372829437256,64.21934509277344,34.66,0
-0.2460972815752029,-0.9315143823623656,-0.0119945313781499,5.109497547149658,6.436465740203857,64.2195816040039,34.66,0
-0.2083110362291336,-0.93365877866745,-0.0524795949459075,9.54848861694336,6.477104187011719,64.21973419189453,34.66,0
-0.1672686785459518,-0.9182416200637816,-0.1120472252368927,16.033491134643555,6.503183364868164,64.21983337402344,34.66,0
-0.1409300565719604,-0.9139455556869508,-0.1950564980506897,23.09708023071289,6.519919395446777,64.21989440917969,34.66,0
-0.1240274459123611,-0.9447752237319946,-0.2763159275054931,29.134765625,6.5306596755981445,64.21993255615234,34.66,0
-0.1187780946493148,-1.00374436378479,-0.3396591246128082,32.33946228027344,6.537552356719971,64.21995544433594,34.66,0
-0.1042138189077377,-1.03598952293396,-0.3747113645076751,31.558652877807617,6.541975498199463,64.219970703125,34.66,0
-0.0836717560887336,-0.989509344100952,-0.3748147785663605,28.277496337890625,6.544814109802246,64.21997833251953,34.66,0
-0.0648912638425827,-0.9148988723754884,-0.3356967270374298,25.46607208251953,6.546635627746582,64.21998596191406,34.66,0
-0.0472412519156932,-0.8446270823478699,-0.2937996685504913,23.90547561645508,6.66945219039917,64.2199935913086,34.66,0
-0.0247189402580261,-0.7771395444869995,-0.2669125497341156,21.775463104248047,6.7482686042785645,64.2199935913086,34.66,0
-0.0046676443889737,-0.7394277453422546,-0.2384624034166336,17.8398380279541,6.798848628997803,64.2199935913086,34.66,0
0.0026023485697805,-0.7264220118522644,-0.2090091854333877,12.992671012878418,6.831307888031006,64.2199935913086,34.66,0
0.0016700375126674,-0.7460645437240601,-0.1901078075170517,8.560068130493164,6.852138519287109,64.2199935913086,34.66,0
0.0122672822326421,-0.7474744319915771,-0.1723802238702774,4.712357521057129,6.865506172180176,64.2199935913086,34.66,0
0.0358613058924675,-0.7539770007133484,-0.1498081237077713,1.0357903242111206,6.874084949493408,64.2199935913086,34.66,0
0.0510025955736637,-0.7637477517127991,-0.1297248750925064,-2.1332807540893555,6.8795905113220215,64.2199935913086,34.66,0
0.043926078826189,-0.8427891135215759,-0.1168366074562072,-3.507814407348633,6.952439308166504,64.42420196533203,34.66,0
0.0169936809688806,-0.943893313407898,-0.1141634285449981,-2.0218286514282227,6.999189853668213,64.55525207519531,34.66,0
-0.0002899818937294,-1.0255694389343262,-0.1068501621484756,1.5900628566741943,7.029191493988037,64.63935089111328,34.66,0
-0.005783868022263,-1.0835822820663452,-0.0909613817930221,4.7212114334106445,7.048444747924805,64.69332122802734,34.66,0
-0.0093095283955335,-1.104018211364746,-0.0583737790584564,5.634334087371826,7.060800552368164,64.72795867919922,34.66,0
-0.0059743192978203,-1.0947418212890625,-0.0150698339566588,6.077020645141602,7.068729877471924,64.75018310546875,34.66,0
0.0017638000426813,-1.0999842882156372,-0.0040731774643063,9.603342056274414,7.073818206787109,64.76445007324219,34.66,0
0.0067296796478331,-1.120141863822937,0.0029838432092219,16.903432846069336,7.077083587646484,64.77360534667969,34.66,0
-0.0180723760277032,-1.1554689407348633,-0.0092806899920105,23.85956382751465,7.258008003234863,64.77947998046875,34.66,0
-0.0507822334766387,-1.1949331760406494,-0.0227491352707147,25.23184585571289,7.374114513397217,64.78324890136719,34.66,0
-0.0941646322607994,-1.2146612405776978,-0.0257946345955133,20.40903854370117,7.448625087738037,64.7856674194336,34.66,0
-0.1164071857929229,-1.2329193353652954,-0.0165535118430852,14.14704132080078,7.496441841125488,64.78721618652344,34.66,0
-0.1250834017992019,-1.255831956863403,-0.0218186397105455,10.956026077270508,7.527127742767334,64.78821563720703,34.66,0
-0.1250535249710083,-1.27613365650177,-0.0419908203184604,10.7424955368042,7.546820163726807,64.78885650634766,34.66,0
-0.1306321173906326,-1.2723689079284668,-0.0493383891880512,10.938643455505373,7.559457778930664,64.78926849365234,34.66,0
-0.1622010171413421,-1.1971818208694458,-0.0092714419588446,10.326508522033691,7.567567825317383,64.7895278930664,34.66,0
-0.1992534399032592,-1.092953324317932,0.0444300919771194,9.342551231384276,7.743327617645264,64.7896957397461,34.66,0
-0.2398248761892318,-1.0036743879318235,0.0900881960988044,8.789920806884766,7.8561201095581055,64.78980255126953,34.66,0
-0.2826546132564544,-0.8904024958610535,0.1361822634935379,9.334501266479492,7.928503513336182,64.78987121582031,34.66,0
-0.3213358223438263,-0.7953200340270996,0.1825561076402664,10.873395919799805,7.974955081939697,64.7899169921875,34.66,0
-0.3797458410263061,-0.7231060266494751,0.2179139405488968,12.025768280029297,8.004765510559082,64.78994750976562,34.66,0
-0.4452188909053802,-0.6879587769508362,0.2182134687900543,11.016998291015623,8.023896217346191,64.78997039794922,34.66,0
-0.5096268057823181,-0.6821966171264648,0.2128079086542129,7.145309448242188,8.036172866821289,64.78997802734375,34.66,0
-0.578948974609375,-0.7456721067428589,0.2037411630153656,1.1820014715194702,8.044051170349121,64.78998565673828,34.66,0
-0.6122404336929321,-0.8367869853973389,0.1755315512418747,-5.532462120056152,8.060075759887695,64.78999328613281,34.68,0
-0.5944205522537231,-0.9568347930908204,0.2581881880760193,-12.270404815673828,8.07036018371582,64.78999328613281,34.68,0
-0.7397224307060242,-0.7763769626617432,0.3056346774101257,-19.281360626220703,8.076959609985352,64.78999328613281,34.68,0
-0.8329688310623169,-0.6829606294631958,0.2353231608867645,-26.607240676879883,8.081194877624512,64.78999328613281,34.68,0
-0.8088424205780029,-0.6286091208457947,0.1957990527153015,-32.81325149536133,8.08391284942627,64.78999328613281,34.68,0
-0.7877616882324219,-0.5993272662162781,0.1648369878530502,-35.77845764160156,8.085657119750977,64.78999328613281,34.68,0
-0.7182555198669434,-0.586133599281311,0.1113806664943695,-34.59317779541016,8.086776733398438,64.78999328613281,34.68,0
-0.6736505031585693,-0.6000577807426453,0.0826732516288757,-30.0063419342041,8.087494850158691,64.78999328613281,34.68,0
-0.6730144023895264,-0.6705690622329712,0.1258260011672973,-23.702320098876957,7.969521522521973,64.97270965576172,34.68,0
-0.7509750723838806,-0.6206569671630859,0.2094966918230056,-17.632606506347656,7.893813133239746,65.0899658203125,34.68,0
-0.8737767934799194,-0.5830284953117371,0.1848228871822357,-13.210774421691896,7.845227718353271,65.16521453857422,34.68,0
-0.9805727005004884,-0.5700762271881104,0.1577931046485901,-10.831666946411133,7.814048767089844,65.2135009765625,34.68,0
-1.0043259859085083,-0.5617642402648926,0.0788714364171028,-10.343839645385742,7.794039726257324,65.24449157714844,34.68,0
-0.991580605506897,-0.6124078035354614,0.0058329552412033,-11.223777770996094,7.781198978424072,65.2643814086914,34.68,0
-1.1345412731170654,-0.4042036235332489,-0.09701669216156,-12.451247215270996,7.772958755493164,65.27714538574219,34.68,0
-1.0247653722763062,-0.1810257732868194,0.0105113387107849,-13.332114219665527,7.767670631408691,65.28533172607422,34.68,0
-0.6240487694740295,0.1189345940947532,0.5105452537536621,-14.044289588928224,7.639416217803955,65.29058837890625,34.68,0
-0.9378648996353148,0.0035543064586818,0.2268786132335662,-15.002882957458496,7.55711030960083,65.29396057128906,34.68,0
-1.09447181224823,-0.0033168252557516,0.084022119641304,-16.51727867126465,7.50429105758667,65.29612731933594,34.68,0
-1.027039885520935,0.0202625505626201,0.1994626969099044,-18.728702545166016,7.470394611358643,65.29751586914062,34.68,0
-1.0005593299865725,0.0241988878697156,0.2399591654539108,-21.047094345092773,7.448641777038574,65.29840850830078,34.68,0
-1.0227500200271606,0.0491160973906517,0.1707853078842163,-22.29845428466797,7.4346818923950195,65.29898071289062,34.68,0
-1.0145996809005735,-0.0244578626006841,0.1487846076488495,-22.137792587280277,7.425723552703857,65.29934692382812,34.68,0
-1.003771424293518,-0.0660756155848503,0.2074368894100189,-21.43281555175781,7.419974327087402,65.2995834350586,34.68,0
-0.9968225359916688,-0.0703924000263214,0.1890988051891327,-21.26700782775879,7.369969367980957,65.29973602294922,34.68,0
-1.0315475463867188,-0.0675648897886276,0.1213527247309684,-21.75889205932617,7.337879180908203,65.29983520507812,34.68,0
-1.1098097562789917,-0.0601525790989398,0.1058660671114921,-21.7592887878418,7.317285537719727,65.29989624023438,34.68,0
-1.0592740774154663,-0.0274069160223007,0.1631009131669998,-19.54192924499512,7.304069519042969,65.29993438720703,34.68,0
-1.0548319816589355,-0.0231859553605318,0.2390153706073761,-13.65506649017334,7.295588493347168,65.29995727539062,34.68,0
-1.0127968788146973,-0.0820527076721191,0.3549061715602875,-3.9373061656951904,7.290145874023437,65.29997253417969,34.68,0
-1.0026144981384275,-0.0862433537840843,0.4236804544925689,8.256816864013672,7.2866530418396,65.29998016357422,34.68,0
-0.9624934196472168,-0.0329549200832843,0.3670558929443359,21.484827041625977,7.284411430358887,65.29998779296875,34.68,0
-0.8527793884277344,0.0124380746856331,0.4258796870708465,36.71262741088867,7.219624519348144,65.29999542236328,34.68,0
-0.7599801421165466,0.0471664629876613,0.4972160458564758,56.15432357788086,7.17804765701294,65.29999542236328,34.68,0
-0.7004269361495972,0.0302687212824821,0.615766704082489,79.55057525634766,7.151366233825684,65.29999542236328,34.68,0
-0.6454157829284668,-0.0253574755042791,0.697443425655365,103.42823791503906,7.134243488311768,65.29999542236328,34.68,0
-0.5597328543663025,-0.0834462642669677,0.7218700051307678,124.86341857910156,7.123255252838135,65.29999542236328,34.68,0
-0.4039865136146545,-0.0815398842096328,0.8383054733276367,145.2971954345703,7.116203308105469,65.29999542236328,34.68,0
-0.466372936964035,-0.1642830967903137,0.8234626650810242,168.57777404785156,7.111678123474121,65.29999542236328,34.68,0
-0.4672245383262634,-0.1670029461383819,0.8643174171447754,195.8133087158203,7.108774185180664,65.29999542236328,34.68,0
-0.4285866320133209,-0.2023350447416305,0.8513512015342712,219.0487060546875,7.099106788635254,65.46479797363281,34.68,0
-0.4597687721252441,-0.252998024225235,0.8430302143096924,226.6657257080078,7.092903137207031,65.570556640625,34.68,0
-0.4629863500595093,-0.2295328676700592,0.8544836044311523,215.0167236328125,7.088921546936035,65.638427734375,34.68,0
-0.4482578933238983,-0.2032787203788757,0.8674315214157104,190.2766265869141,7.086366653442383,65.6819839477539,34.68,0
-0.4444037973880768,-0.175234779715538,0.9093273878097534,156.78433227539062,7.084726810455322,65.7099380493164,34.68,0
-0.4251371324062347,-0.1292489171028137,0.9138226509094238,111.24465942382812,7.083674430847168,65.72787475585938,34.68,0
-0.4575550854206085,-0.150117814540863,0.8663275241851807,52.85058975219727,7.082999229431152,65.73938751220703,34.68,0
-0.4727613031864166,-0.1355213969945907,0.8638367056846619,-13.617142677307127,7.082565784454346,65.74677276611328,34.68,0
-0.51050865650177,-0.1317520290613174,0.8846293687820435,-81.13539123535156,7.037759780883789,65.75151062011719,34.68,0
-0.5179393887519836,-0.0845508649945259,0.8699840307235718,-145.91000366210938,7.009006023406982,65.75455474853516,34.68,0
-0.522707998752594,-0.0654554292559623,0.8437921404838562,-204.177001953125,6.990553379058838,65.75650787353516,34.68,0
-0.5313659906387329,-0.0979832708835601,0.8773636817932129,-252.9655914306641,6.9787116050720215,65.75775909423828,34.68,0
-0.4585533738136291,-0.1076622158288955,0.904505729675293,-288.6209716796875,6.971112251281738,65.75856018066406,34.68,0
-0.3894353210926056,-0.0914825126528739,0.9163261651992798,-285.3819580078125,6.966235637664795,65.75907897949219,34.68,0
-0.4290459454059601,-0.0866970792412757,0.8679341077804565,-237.67210388183597,6.963106155395508,65.75940704345703,34.68,0
-0.4992479681968689,-0.1004193872213363,0.8144877552986145,-168.760498046875,6.961097717285156,65.7596206665039,34.68,0
-0.5163106918334961,-0.0868344828486442,0.8305689692497253,-97.41690826416016,6.963481426239014,65.75975799560547,34.68,0
-0.5216628313064575,-0.0893120169639587,0.8408889770507812,-32.06825637817383,6.965011596679688,65.75984191894531,34.68,0
-0.5027064085006714,-0.0629130825400352,0.8475117087364197,20.233139038085938,6.965993404388428,65.75990295410156,34.68,0
-0.462552398443222,-0.0627650916576385,0.8741528987884521,57.80965042114258,6.966623306274414,65.75994110107422,34.68,0
-0.4479794204235077,-0.0570723451673984,0.8912497162818909,86.67459106445312,6.96702766418457,65.75996398925781,34.68,0
-0.4610184133052826,-0.0702123939990997,0.9134169816970824,112.29552459716795,6.967287063598633,65.75997924804688,34.68,0
-0.4469949901103973,-0.0954382419586181,0.9276427030563354,134.44102478027344,6.967453479766846,65.7599868774414,34.68,0
-0.4156044721603393,-0.0892356410622596,0.9423696994781494,149.5591278076172,6.967560291290283,65.75999450683594,34.68,0
-0.4178509414196014,-0.0740596204996109,0.9238317608833312,159.09625244140625,6.936413764953613,65.75999450683594,34.66,0
-0.4640747904777527,-0.053124975413084,0.8895440697669983,167.68502807617188,6.916425704956055,65.75999450683594,34.66,0
-0.4993363618850708,-0.0564836487174034,0.8507469296455383,176.89402770996094,6.903598308563232,65.75999450683594,34.66,0
-0.4883785545825958,-0.0922257006168365,0.8146535754203796,183.1692657470703,6.895366668701172,65.75999450683594,34.66,0
-0.4589553773403168,-0.1319562196731567,0.7858931422233582,181.9048767089844,6.89008378982544,65.75999450683594,34.66,0
-0.4064866304397583,-0.1742462962865829,0.7730341553688049,169.76536560058594,6.886693477630615,65.75999450683594,34.66,0
-0.4064018428325653,-0.1901900917291641,0.7703797817230225,150.41395568847656,6.884518146514893,65.75999450683594,34.66,0
-0.4343363046646118,-0.18362857401371,0.7742741107940674,126.97891235351562,6.883121967315674,65.75999450683594,34.66,0
-0.53622967004776,-0.1682222187519073,0.8943265676498413,101.19908905029295,6.878304481506348,65.91046142578125,34.66,0
-0.6184122562408447,-0.141541987657547,0.9993581771850586,75.65923309326172,6.875213146209717,66.00702667236328,34.66,0
-0.6375656723976135,-0.1132245957851409,0.9156215190887452,53.29706954956055,6.873229026794434,66.0689926147461,34.66,0
-0.5826839804649353,-0.0782588049769401,0.8171019554138184,34.88368225097656,6.871955871582031,66.1087646484375,34.66,0
-0.553061842918396,-0.0558197721838951,0.7818666100502014,19.64566802978516,6.871138572692871,66.13428497314453,34.66,0
-0.6124208569526672,-0.0750063359737396,0.7872434854507446,6.861007213592529,6.870614528656006,66.15066528320312,34.66,0
-0.6281229853630066,-0.0761236175894737,0.8018895983695984,-3.1204094886779785,6.8702778816223145,66.16117858886719,34.66,0
-0.6214063763618469,-0.0768406316637992,0.8000930547714233,-9.919991493225098,6.870061874389648,66.16792297363281,34.66,0
-0.5947049260139465,-0.0773007646203041,0.7989401817321777,-13.69602870941162,6.858447074890137,66.17224884033203,34.66,0
-0.5831672549247742,-0.0719982758164405,0.7982003092765808,-14.772224426269531,6.850993633270264,66.1750259399414,34.66,0
-0.592556357383728,-0.0685954466462135,0.7977254986763,-13.574847221374512,6.846210479736328,66.17681121826172,34.66,0
-0.6097773313522339,-0.0664117038249969,0.7974207997322083,-10.617486000061035,6.843140602111816,66.1779556274414,34.66,0
-0.609633207321167,-0.0706080794334411,0.7972252368927002,-7.107462406158447,6.841170787811279,66.1786880493164,34.66,0
-0.6039429306983948,-0.0677032992243766,0.797099769115448,-4.321127891540527,6.839906692504883,66.17916107177734,34.66,0
-0.6058890223503113,-0.0714369490742683,0.7970192432403564,-3.0990655422210693,6.839095592498779,66.17945861816406,34.66,0
-0.60713791847229,-0.079430766403675,0.802565336227417,-3.486318349838257,6.8385748863220215,66.17964935302734,34.66,0
-0.6023415923118591,-0.078962966799736,0.8061245083808899,-4.859763622283936,6.818042278289795,66.17977142333984,34.66,0
-0.599263608455658,-0.0786627605557441,0.802810788154602,-6.239140033721924,6.804865837097168,66.17985534667969,34.66,0
-0.6028860807418823,-0.0728723257780075,0.8006842732429504,-6.594122886657715,6.796410083770752,66.1799087524414,34.66,0
-0.6164063215255737,-0.0635585859417915,0.7937217950820923,-5.317248821258545,6.7909836769104,66.17993927001953,34.66,0
-0.6306806206703186,-0.0631793364882469,0.7892536520957947,-2.599059581756592,6.787501335144043,66.17996215820312,34.66,0
-0.6342432498931885,-0.0685337334871292,0.7863863110542297,0.3956369757652282,6.785266399383545,66.17997741699219,34.66,0
-0.6197362542152405,-0.0719698742032051,0.7901439666748047,1.9233771562576292,6.78383207321167,66.17998504638672,34.66,0
-0.6160242557525635,-0.0685772225260734,0.7925553917884827,0.2670172750949859,6.782911777496338,66.17999267578125,34.66,0
-0.619239866733551,-0.0719977840781211,0.7941029071807861,-5.66465950012207,6.764418125152588,66.17999267578125,34.66,0
-0.6157057285308838,-0.0685951337218284,0.7950960397720337,-15.88049602508545,6.75255012512207,66.17999267578125,34.66,0
-0.6134377121925354,-0.0664115026593208,0.7957333922386169,-29.14301300048828,6.744933605194092,66.17999267578125,34.66,0
-0.6119822263717651,-0.0650101751089096,0.7961423993110657,-43.106815338134766,6.74004602432251,66.17999267578125,34.66,0
-0.6166459321975708,-0.0641108825802803,0.7908070683479309,-54.83372497558594,6.73690938949585,66.17999267578125,34.66,0
-0.6196388602256775,-0.0635337680578231,0.7873831987380981,-61.6177864074707,6.734896659851074,66.17999267578125,34.66,0
-0.6215595006942749,-0.0631634145975112,0.7851859331130981,-61.9445915222168,6.733604907989502,66.17999267578125,34.66,0
-0.628389835357666,-0.0629257410764694,0.7837758660316467,-56.23590469360352,6.732775688171387,66.17999267578125,34.66,0
-0.6327731609344482,-0.0627732127904892,0.7828709483146667,-46.93700408935547,6.719849586486816,66.2874755859375,34.66,0
-0.6299883723258972,-0.0626753345131874,0.7822902202606201,-37.90998840332031,6.711554050445557,66.35645294189453,34.66,0
-0.6282012462615967,-0.0626125186681747,0.7819175720214844,-33.571495056152344,6.706230640411377,66.40071868896484,34.66,0
-0.6270543932914734,-0.0625722110271453,0.7816784381866455,-37.80914688110352,6.70281457901001,66.42912292480469,34.66,0
-0.6263183951377869,-0.0625463426113128,0.7815249562263489,-52.70580291748047,6.700622081756592,66.44734954833984,34.66,0
-0.6258460879325867,-0.0625297427177429,0.7814264297485352,-77.93938446044922,6.699214935302734,66.45904541015625,34.66,0
-0.6255429983139038,-0.0625190883874893,0.7813632488250732,-111.79852294921876,6.698312282562256,66.466552734375,34.66,0
-0.6253484487533569,-0.0625122487545013,0.7813226580619812,-152.37530517578125,6.697732925415039,66.47137451171875,34.66,0
-0.6308214068412781,-0.0625078603625297,0.7812966108322144,-196.71495056152344,6.682672023773193,66.4744644165039,34.66,0
-0.634333610534668,-0.0625050440430641,0.7812799215316772,-239.48912048339844,6.673006534576416,66.47644805908203,34.66,0
-0.6365875601768494,-0.062503233551979,0.7812691926956177,-273.742431640625,6.66680383682251,66.47772216796875,34.66,0
-0.632436215877533,-0.0625020787119865,0.7812623381614685,-293.5531921386719,6.66282320022583,66.4785385131836,34.66,0
-0.6353698968887329,-0.0625013336539268,0.7812579274177551,-296.5184020996094,6.660268783569336,66.47906494140625,34.66,0
-0.6316547989845276,-0.0625008568167686,0.7812550663948059,-284.4886779785156,6.658629417419434,66.47940063476562,34.66,0
-0.6348684430122375,-0.0625005513429641,0.7812532782554626,-262.32733154296875,6.6575775146484375,66.4796142578125,34.66,0
-0.6369307637214661,-0.062500350177288,0.7812520861625671,-235.4589691162109,6.656902313232422,66.47975158691406,34.66,0
-0.6382542252540588,-0.0625002235174179,0.7812513113021851,-207.89859008789065,6.647287845611572,66.47984313964844,34.66,0
-0.6391035914421082,-0.0625001415610313,0.7812508344650269,-182.161865234375,6.641118049621582,66.47990417480469,34.66,0
-0.6340508460998535,-0.0625000894069671,0.781250536441803,-159.59097290039062,6.637158393859863,66.47994232177734,34.66,0
-0.6364060640335083,-0.0625000596046447,0.7812503576278687,-138.80810546875,6.634617328643799,66.47996520996094,34.66,0
-0.6379175186157227,-0.0625000372529029,0.7812502384185791,-114.94524383544922,6.632986545562744,66.47998046875,34.66,0
-0.6332896947860718,-0.0625000223517417,0.7812501788139343,-83.98274230957031,6.631940364837647,66.47998809814453,34.66,0
-0.635917603969574,-0.0625000149011612,0.7812501192092896,-47.93746566772461,6.6312689781188965,66.47999572753906,34.66,0
-0.6376040577888489,-0.0625000074505806,0.7812500596046448,-13.373684883117676,6.630837917327881,66.47999572753906,34.66,0
-0.6330885291099548,-0.0625000074505806,0.7812500596046448,14.295867919921877,6.616331100463867,66.47999572753906,34.65,0
-0.6357885003089905,-0.0625000074505806,0.775652289390564,33.41755294799805,6.607021331787109,66.47999572753906,34.65,0
-0.6375212073326111,-0.0625000074505806,0.777657687664032,44.95790481567383,6.601047039031982,66.47999572753906,34.65,0
-0.6386331915855408,-0.0625000074505806,0.7789446711540222,50.9093132019043,6.597212791442871,66.47999572753906,34.65,0
-0.6337490081787109,-0.0625000074505806,0.77977055311203,53.33496475219727,6.594752311706543,66.47999572753906,34.65,0
-0.6306146383285522,-0.0625000074505806,0.7803005576133728,53.4012565612793,6.593173503875732,66.47999572753906,34.65,0
-0.634200930595398,-0.0625000074505806,0.780640721321106,51.10079193115234,6.592160224914551,66.47999572753906,34.65,0
-0.6365023851394653,-0.0625000074505806,0.7808589935302734,46.55421829223633,6.591509819030762,66.47999572753906,34.65,0
-0.6379793286323547,-0.0625000074505806,0.7809990644454956,41.20750427246094,6.5805344581604,66.7271957397461,34.65,0
-0.638927161693573,-0.0625000074505806,0.7810889482498169,36.58329391479492,6.573491096496582,66.88583374023438,34.65,0
-0.6395354270935059,-0.0625000074505806,0.7811466455459595,32.08598327636719,6.568971157073975,66.98764038085938,34.65,0
-0.6399257779121399,-0.0625000074505806,0.781183660030365,25.7534294128418,6.566070079803467,67.05297088623047,34.65,0
-0.6401762962341309,-0.0625000074505806,0.7812074422836304,17.20417594909668,6.564208507537842,67.09489440917969,34.65,0
-0.6403370499610901,-0.0625000074505806,0.7812227010726929,8.3214750289917,6.563014030456543,67.1218032836914,34.65,0
-0.6404402256011963,-0.0625000074505806,0.781232476234436,0.5861653089523315,6.562247276306152,67.13906860351562,34.65,0
-0.6405064463615417,-0.0625000074505806,0.7812387347221375,-6.638515472412109,6.561755180358887,67.150146484375,34.65,0
-0.6405489444732666,-0.0625000074505806,0.7812427878379822,-14.671181678771973,6.5540947914123535,67.15725708007812,34.65,0
-0.640576183795929,-0.0625000074505806,0.7812453508377075,-23.11130714416504,6.549178600311279,67.16181945800781,34.65,0
-0.6405936479568481,-0.0625000074505806,0.7812470197677612,-28.70323944091797,6.546023845672607,67.16474914550781,34.65,0
-0.6406048536300659,-0.0625000074505806,0.7812480926513672,-26.91437339782715,6.543999195098877,67.1666259765625,34.65,0
-0.6406120657920837,-0.0625000074505806,0.7812487483024597,-16.118507385253906,6.542699813842773,67.16783142089844,34.65,0
-0.6406167149543762,-0.0625000074505806,0.7812492251396179,0.1028602197766304,6.541866302490234,67.16860961914062,34.65,0
-0.640619695186615,-0.0625000074505806,0.7812495231628418,16.02996826171875,6.5413312911987305,67.16910552978516,34.65,0
-0.6406216025352478,-0.0625000074505806,0.7812497019767761,28.028024673461918,6.540987968444824,67.16942596435547,34.65,0
-0.6406227946281433,-0.0625000074505806,0.7756520509719849,35.03266906738281,6.532505035400391,67.16963195800781,34.65,0
-0.6406235694885254,-0.0625000074505806,0.7776575684547424,37.22425079345703,6.5270609855651855,67.16976165771484,34.65,0
-0.6406241059303284,-0.0625000074505806,0.7789446115493774,35.671470642089844,6.523567199707031,67.16984558105469,34.65,0
-0.6406244039535522,-0.0625000074505806,0.77977055311203,31.866249084472656,6.52132511138916,67.1698989868164,34.65,0
-0.6406246423721313,-0.0625000074505806,0.7803005576133728,26.733762741088867,6.519886493682861,67.16993713378906,34.65,0
-0.6406247615814209,-0.0625000074505806,0.780640721321106,20.78892135620117,6.51896333694458,67.16996002197266,34.65,0
-0.6350270509719849,-0.0625000074505806,0.7808589935302734,14.86014461517334,6.518370628356934,67.16997528076172,34.65,0
-0.6370325684547424,-0.0625000074505806,0.7809990644454956,9.851652145385742,6.517990589141846,67.16998291015625,34.65,0
-0.6383196115493774,-0.0625000074505806,0.7810889482498169,6.100103855133057,6.513155937194824,67.16999053955078,34.66,0
-0.63914555311203,-0.0625000074505806,0.7811466455459595,3.1014509201049805,6.510053634643555,67.16999053955078,34.66,0
-0.6396755576133728,-0.0625000074505806,0.781183660030365,-0.3956626355648041,6.508062839508057,67.16999053955078,34.66,0
-0.640015721321106,-0.0625000074505806,0.7812074422836304,-5.283849716186523,6.506784915924072,67.16999053955078,34.66,0
-0.6402339935302734,-0.0625000074505806,0.7812227010726929,-10.813966751098633,6.505964756011963,67.16999053955078,34.66,0
-0.6403740644454956,-0.0625000074505806,0.781232476234436,-15.67051887512207,6.505438804626465,67.16999053955078,34.66,0
-0.6404639482498169,-0.0625000074505806,0.7812387347221375,-20.388586044311523,6.505101203918457,67.16999053955078,34.66,0
-0.6405216455459595,-0.0625000074505806,0.7812427878379822,-27.19956970214844,6.504884243011475,67.16999053955078,34.66,0
-0.640558660030365,-0.0625000074505806,0.7812453508377075,-36.51800155639648,6.496941089630127,67.38136291503906,34.66,0
-0.6405824422836304,-0.0625000074505806,0.7812470197677612,-44.02779769897461,6.491843700408936,67.51701354980469,34.66,0
-0.6405977010726929,-0.0625000074505806,0.7812480926513672,-43.122196197509766,6.488572597503662,67.60406494140625,34.66,0
-0.640607476234436,-0.0625000074505806,0.7812487483024597,-31.26666641235352,6.486473560333252,67.65992736816406,34.66,0
-0.6406137347221375,-0.0625000074505806,0.7812492251396179,-12.30170440673828,6.485126495361328,67.6957778930664,34.66,0
-0.6406177878379822,-0.0625000074505806,0.7812495231628418,7.503384113311768,6.484261989593506,67.71878814697266,34.66,0
-0.6406203508377075,-0.0625000074505806,0.7812497019767761,23.27267074584961,6.483706951141357,67.73355102539062,34.66,0
-0.6406220197677612,-0.0625000074505806,0.7812498211860657,32.48609924316406,6.48335075378418,67.74302673339844,34.66,0
-0.6406230926513672,-0.0625000074505806,0.7812498807907104,35.38221740722656,6.473023414611816,67.74910736083984,34.66,0
-0.6350259780883789,-0.0625000074505806,0.7756521701812744,34.3890495300293,6.466395854949951,67.75301361083984,34.66,0
-0.6370318531990051,-0.0625000074505806,0.7776576280593872,31.648719787597656,6.462142467498779,67.7555160522461,34.66,0
-0.6383191347122192,-0.0625000074505806,0.7789446115493774,27.37158203125,6.459413051605225,67.75712585449219,34.66,0
-0.6391452550888062,-0.0625000074505806,0.7741727828979492,21.20182037353516,6.4576616287231445,67.7581558227539,34.66,0
-0.6396753787994385,-0.0625000074505806,0.7767082452774048,14.440848350524902,6.45653772354126,67.75881958007812,34.66,0
-0.6400156021118164,-0.0625000074505806,0.7783353924751282,9.604066848754885,6.455816268920898,67.75924682617188,34.66,0
-0.6346361637115479,-0.0625000074505806,0.7793795466423035,7.628610610961914,6.455353260040283,67.75951385498047,34.66,0
-0.6367816925048828,-0.0625000074505806,0.7744518518447876,6.708386421203613,6.450924873352051,67.75968933105469,34.66,0
-0.6381585597991943,-0.0625000074505806,0.7768873572349548,4.6454010009765625,6.44808292388916,67.75980377197266,34.66,0
-0.6390421986579895,-0.0625000074505806,0.7784503102302551,1.189863204956055,6.446259021759033,67.75987243652344,34.66,0
-0.634011447429657,-0.0625000074505806,0.7794533371925354,-2.707929849624634,6.445088863372803,67.75991821289062,34.66,0
-0.6363807916641235,-0.0625000074505806,0.7800970077514648,-6.817885875701904,6.444337844848633,67.75994873046875,34.66,0
-0.6379013061523438,-0.0625000074505806,0.7805100679397583,-12.00621223449707,6.4438557624816895,67.75997161865234,34.66,0
-0.6276815533638,-0.0625000074505806,0.7807751297950745,-19.484405517578125,6.443546295166016,67.75997924804688,34.66,0
-0.6323186159133911,-0.0625000074505806,0.7809452414512634,-29.13428497314453,6.443347930908203,67.7599868774414,34.66,0
-0.6352944374084473,-0.0625000074505806,0.7810544371604919,-36.8818588256836,6.434498310089111,67.75999450683594,34.65,0
-0.6428019404411316,-0.0625000074505806,0.7755267024040222,-35.71685791015625,6.428819179534912,67.75999450683594,34.65,0
-0.6364242434501648,-0.0625000074505806,0.7775771021842957,-22.537687301635746,6.425174713134766,67.75999450683594,34.65,0
-0.626733660697937,-0.0680977776646614,0.784490704536438,-2.1070871353149414,6.422835826873779,67.75999450683594,34.65,0
-0.6261125802993774,-0.0604945570230484,0.7833297252655029,18.090431213378903,6.421334743499756,67.75999450683594,34.65,0
-0.636909544467926,-0.0668107941746711,0.7825846672058105,33.7747917175293,6.4203715324401855,67.75999450683594,34.65,0
-0.6270450949668884,-0.0596686452627182,0.7821065187454224,43.54275894165039,6.419753074645996,67.75999450683594,34.65,0
-0.6431057453155518,-0.0606830008327961,0.7762019038200378,47.1279296875,6.419356346130371,67.75999450683594,34.65,0
-0.6422169804573059,-0.0669317319989204,0.7724126577377319,45.95716857910156,6.4174652099609375,67.97136688232422,34.65,0
-0.6360488533973694,-0.0709418058395385,0.7755786776542664,42.53682327270508,6.416251659393311,68.10701751708984,34.65,0
-0.6376882791519165,-0.0679174661636352,0.7720127105712891,37.96659469604492,6.415472984313965,68.1940689086914,34.65,0
-0.6387403607368469,-0.0659766197204589,0.7697242498397827,31.6624813079834,6.414973258972168,68.24993133544922,34.65,0
-0.6450133323669434,-0.0703288689255714,0.7738534212112427,23.844411849975582,6.414652824401856,68.28578186035156,34.65,0
-0.6434412002563477,-0.0619263425469398,0.7653077244758606,16.36241340637207,6.414446830749512,68.30878448486328,34.65,0
-0.6424322724342346,-0.0677296370267868,0.7654213905334473,10.145780563354492,6.4143147468566895,68.32354736328125,34.65,0
-0.6417847871780396,-0.0658560767769813,0.7710921168327332,3.748811721801758,6.414229869842529,68.33302307128906,34.65,0
-0.6525648236274719,-0.0646537393331527,0.7691335082054138,-3.992708683013916,6.410502910614014,68.33910369873047,34.65,0
-0.6426895260810852,-0.0638821423053741,0.7678765654563904,-11.955803871154783,6.408111095428467,68.34300994873047,34.65,0
-0.6363521218299866,-0.068984754383564,0.7726677060127258,-19.00423240661621,6.406576156616211,68.34551239013672,34.65,0
-0.6378828883171082,-0.0666615441441536,0.7757423520088196,-26.23593521118164,6.4055914878845215,68.34712219238281,34.65,0
-0.6388652920722961,-0.0707684159278869,0.7777155041694641,-35.620155334472656,6.404959201812744,68.34815216064453,34.65,0
-0.6394957304000854,-0.0678061917424202,0.7789817452430725,-47.49275588989258,6.404553413391113,68.34881591796875,34.65,0
-0.6399003267288208,-0.0659052059054374,0.7797943353652954,-58.680152893066406,6.404293060302734,68.3492431640625,34.65,0
-0.6345621943473816,-0.0702830404043197,0.7747180461883545,-62.5421142578125,6.404126167297363,68.3495101928711,34.65,0
-0.6423320174217224,-0.0618969313800334,0.7714604139328003,-53.85002899169922,6.4021830558776855,68.34968566894531,34.65,0
-0.6417204737663269,-0.0621129870414733,0.774967610836029,-34.66891098022461,6.400936126708984,68.34980010986328,34.65,0
-0.6469258069992065,-0.0622516386210918,0.7716205716133118,-13.181012153625488,6.40013599395752,68.34986877441406,34.65,0
-0.6446685194969177,-0.0623406171798706,0.7750703692436218,3.549978494644165,6.399622440338135,68.34991455078125,34.65,0
-0.6432198882102966,-0.0623977184295654,0.7772842645645142,13.828396797180176,6.399292945861816,68.34994506835938,34.65,0
-0.6422902345657349,-0.0680321380496025,0.7787050008773804,19.26373863220215,6.399081230163574,68.34996795654297,34.65,0
-0.641693651676178,-0.0716479793190956,0.7740190029144287,21.44418716430664,6.398945331573486,68.3499755859375,34.65,0
-0.6413108110427856,-0.0683706477284431,0.7710117697715759,21.35312271118164,6.398858070373535,68.34998321533203,34.65,0
-0.6410651206970215,-0.0662674456834793,0.7746797204017639,19.95838165283203,6.394211769104004,68.34999084472656,34.65,0
-0.6409074664115906,-0.0649177283048629,0.7770335674285889,17.748512268066406,6.39123010635376,68.34999084472656,34.65,0
-0.640806257724762,-0.0640515610575676,0.7785441279411316,14.693108558654783,6.389316558837891,68.34999084472656,34.65,0
-0.6407413482666016,-0.0634957030415535,0.7795135378837585,11.66113567352295,6.388088703155518,68.34999084472656,34.65,0
-0.6406996846199036,-0.0631389841437339,0.7801356315612793,10.10947322845459,6.387300491333008,68.34999084472656,34.65,0
-0.6406729221343994,-0.0685078352689743,0.7805348634719849,9.5973539352417,6.3867950439453125,68.34999084472656,34.65,0
-0.6406557559967041,-0.0663554817438125,0.7751932740211487,7.71028470993042,6.386470317840576,68.34999084472656,34.65,0
-0.6406447291374207,-0.0705720037221908,0.777363121509552,3.2570412158966064,6.386261940002441,68.34999084472656,34.65,0
-0.6406376361846924,-0.067680150270462,0.7787556052207947,-2.1300923824310303,6.377865314483643,68.54344940185547,34.65,0
-0.6406331062316895,-0.0714221000671386,0.7796492576599121,-6.719338417053223,6.372476577758789,68.6676025390625,34.65,0
-0.6406301856040955,-0.0682256892323494,0.7802227139472961,-11.72443389892578,6.3690185546875,68.74727630615234,34.65,0
-0.6406283378601074,-0.0661744177341461,0.7805907726287842,-19.937692642211918,6.366799354553223,68.79840850830078,34.65,0
-0.6406271457672119,-0.0648580268025398,0.7808269262313843,-31.24154663085937,6.36537504196167,68.83122253417969,34.65,0
-0.6406263709068298,-0.069611020386219,0.7809785008430481,-40.20459747314453,6.3644609451293945,68.85227966308594,34.65,0
-0.6406258940696716,-0.0726612210273742,0.7810757756233215,-39.36820983886719,6.363874435424805,68.86579132080078,34.65,0
-0.6406255960464478,-0.069020889699459,0.7811381816864014,-25.815967559814453,6.363498210906982,68.87446594238281,34.65,0
-0.6406253576278687,-0.0666847303509712,0.7755804657936096,-3.680676937103272,6.360043525695801,68.8800277709961,34.65,0
-0.6406252384185791,-0.070783294737339,0.7776116132736206,20.16877174377441,6.3578267097473145,68.88359832763672,34.65,0
-0.6406251788139343,-0.0678157433867454,0.7733173370361328,40.70095443725586,6.356403827667236,68.88589477539062,34.65,0
-0.6406251192092896,-0.0659113377332687,0.7705615162849426,54.923439025878906,6.355490684509277,68.88736724853516,34.65,0
-0.6406250596046448,-0.0646891966462135,0.7743907570838928,61.54280853271485,6.354904651641846,68.88831329345703,34.65,0
-0.6406250596046448,-0.0639049038290977,0.7768481373786926,61.73526382446289,6.354528427124023,68.888916015625,34.65,0
-0.6406250596046448,-0.0634015873074531,0.7728273868560791,57.71014404296875,6.354287147521973,68.8893051147461,34.65,0
-0.6406250596046448,-0.0686763599514961,0.7758448719978333,50.66316604614258,6.354132175445557,68.88955688476562,34.65,0
-0.6406250596046448,-0.0720614045858383,0.7777813076972961,41.55870819091797,6.350360870361328,68.88971710205078,34.65,0
-0.6406250596046448,-0.0742337331175804,0.7790240049362183,32.53824615478516,6.347940444946289,68.88981628417969,34.65,0
-0.6406250596046448,-0.0700300335884094,0.7798214554786682,25.552852630615234,6.3463873863220215,68.88988494873047,34.65,0
-0.6406250596046448,-0.0673323422670364,0.7803332209587097,20.353513717651367,6.345390796661377,68.88992309570312,34.65,0
-0.6406250596046448,-0.0656011179089546,0.7750638723373413,15.007052421569824,6.344750881195068,68.88995361328125,34.65,0
-0.6406250596046448,-0.0644901171326637,0.7716823220252991,8.30152702331543,6.344340324401856,68.88996887207031,34.65,0
-0.6406250596046448,-0.0637771412730217,0.7751100063323975,0.7130851149559021,6.344077110290527,68.88997650146484,34.65,0
-0.6406250596046448,-0.063319593667984,0.7717119455337524,-7.040713787078857,6.343907833099365,68.88998413085938,34.65,0
-0.6406250596046448,-0.0630259662866592,0.76953125,-15.15499210357666,6.340585708618164,68.8899917602539,34.65,0
-0.6406250596046448,-0.0628375336527824,0.7681317925453186,-24.224285125732425,6.338453769683838,68.8899917602539,34.65,0
-0.6406250596046448,-0.0627166107296943,0.7728314995765686,-34.010345458984375,6.337085723876953,68.8899917602539,34.65,0
-0.6406250596046448,-0.0626390054821968,0.7702497243881226,-41.85964584350586,6.336207866668701,68.8899917602539,34.65,0
-0.6406250596046448,-0.0625892058014869,0.768592894077301,-42.5655403137207,6.335644245147705,68.8899917602539,34.65,0
-0.6406250596046448,-0.0625572502613067,0.7675296068191528,-32.149009704589844,6.335282802581787,68.8899917602539,34.65,0
-0.6406250596046448,-0.0625367388129234,0.772445023059845,-12.326973915100098,6.335050582885742,68.8899917602539,34.65,0
-0.6406250596046448,-0.0625235736370086,0.775599479675293,10.664911270141602,6.334901809692383,68.8899917602539,34.65,0
-0.6406250596046448,-0.0625151246786117,0.7720260620117188,31.130407333374023,6.332970142364502,69.06912231445312,34.65,0
-0.6462228298187256,-0.0625097081065177,0.7753306031227112,46.091094970703125,6.331730365753174,69.18408203125,34.65,0
-0.6442173719406128,-0.062506228685379,0.771853506565094,54.22673416137695,6.330935001373291,69.25785064697266,34.65,0
-0.6429303884506226,-0.0625039935111999,0.7752198576927185,55.49971771240234,6.330424785614014,69.30519104003906,34.65,0
-0.64210444688797,-0.0625025629997253,0.7773802280426025,51.71661758422852,6.330097198486328,69.3355712890625,34.65,0
-0.647172212600708,-0.0625016465783119,0.7731688022613525,45.57729721069336,6.3298869132995605,69.35507202148438,34.65,0
-0.6448266506195068,-0.0625010579824447,0.770466148853302,38.83585739135742,6.329751968383789,69.36758422851562,34.65,0
-0.6433213949203491,-0.0625006780028343,0.7743295431137085,32.0877685546875,6.329665184020996,69.37561798095703,34.65,0
-0.6423553824424744,-0.0625004321336746,0.7768088579177856,25.78323554992676,6.324559688568115,69.38076782226562,34.65,0
-0.6417354345321655,-0.062500275671482,0.7728021740913391,20.049955368041992,6.321283340454102,69.38407135009766,34.65,0
-0.6413376331329346,-0.0625001788139343,0.7702308893203735,13.995418548583984,6.319180965423584,69.38619232177734,34.65,0
-0.6410823464393616,-0.0625001117587089,0.7685807943344116,6.638449192047119,6.317831516265869,69.38755798339844,34.65,0
-0.640918493270874,-0.0625000745058059,0.767521858215332,-1.661823034286499,6.316965579986572,69.38843536376953,34.65,0
-0.6408133506774902,-0.0625000447034835,0.7668423056602478,-9.90467643737793,6.316410064697266,69.38899230957031,34.65,0
-0.6407458782196045,-0.0625000298023223,0.7720039486885071,-18.465356826782227,6.31605339050293,69.38935089111328,34.65,0
-0.6407025456428528,-0.0625000223517417,0.7697186470031738,-29.11443519592285,6.315824508666992,69.38957977294922,34.65,0
-0.6406747698783875,-0.0625000149011612,0.7682520747184753,-41.6196174621582,6.313841819763184,69.38973236083984,34.65,0
-0.6406569480895996,-0.0625000074505806,0.7673109173774719,-50.86280059814453,6.31256914138794,69.38983154296875,34.65,0
-0.6406455039978027,-0.0625000074505806,0.7667069435119629,-49.82284927368164,6.311752796173096,69.389892578125,34.65,0
-0.6406381726264954,-0.0625000074505806,0.7663193345069885,-36.19371032714844,6.311228752136231,69.38993072509766,34.65,0
-0.6462312340736389,-0.0625000074505806,0.7716683745384216,-14.238357543945312,6.310892581939697,69.38995361328125,34.65,0
-0.6442227363586426,-0.0625000074505806,0.7695032954216003,9.520696640014648,6.310676574707031,69.38996887207031,34.65,0
-0.6429338455200195,-0.0625000074505806,0.7681138515472412,30.19190788269043,6.310537815093994,69.38997650146484,34.65,0
-0.6421067118644714,-0.0625000074505806,0.772819995880127,45.19146728515625,6.310449123382568,69.38998413085938,34.65,0
-0.6415758728981018,-0.0625000074505806,0.7702423334121704,53.97541809082031,6.309014797210693,69.3899917602539,34.65,0
-0.6468330025672913,-0.0625000074505806,0.768588125705719,57.4915657043457,6.308094501495361,69.3899917602539,34.65,0
-0.6446089148521423,-0.0625000074505806,0.7731243371963501,56.77807235717773,6.307504177093506,69.3899917602539,34.65,0
-0.6431816220283508,-0.0625000074505806,0.7760354280471802,52.29696273803711,6.307125091552734,69.3899917602539,34.65,0
-0.6422656774520874,-0.0625000074505806,0.7723057866096497,45.007511138916016,6.306881904602051,69.3899917602539,34.65,0
-0.6416779160499573,-0.0625000074505806,0.7699123620986938,37.030006408691406,6.306725978851318,69.3899917602539,34.65,0
-0.6468984484672546,-0.0625000074505806,0.7683764100074768,30.319839477539062,6.306625843048096,69.3899917602539,34.65,0
-0.644650936126709,-0.0625000074505806,0.7673906683921814,25.175317764282227,6.306561470031738,69.3899917602539,34.65,0
-0.6432086229324341,-0.0625000074505806,0.772355854511261,20.12914657592773,6.300093173980713,69.5583724975586,34.65,0
-0.642283022403717,-0.0625000074505806,0.7699444890022278,13.29389762878418,6.295942306518555,69.66643524169922,34.65,0
-0.6472867727279663,-0.0625000074505806,0.7683969736099243,4.328897476196289,6.293278694152832,69.73577880859375,34.65,0
-0.6449001431465149,-0.0625000074505806,0.7674039006233215,-5.25767993927002,6.291569232940674,69.78028106689453,34.65,0
-0.6433685421943665,-0.0625000074505806,0.7667666077613831,-14.322426795959473,6.290472030639648,69.808837890625,34.65,0
-0.6423856616020203,-0.0625000074505806,0.7663576006889343,-23.933609008789062,6.289768218994141,69.82716369628906,34.65,0
-0.6417548656463623,-0.0625000074505806,0.7660951614379883,-36.07366561889648,6.289316177368164,69.83892822265625,34.65,0
-0.6413500905036926,-0.0625000074505806,0.765926718711853,-49.936920166015625,6.289026260375977,69.84648132324219,34.65,0
-0.6410903334617615,-0.0625000074505806,0.7658186554908752,-59.560821533203125,6.288381576538086,69.85132598876953,34.65,0
-0.6409236192703247,-0.0625000074505806,0.7657492756843567,-57.24259948730469,6.287967681884766,69.85443115234375,34.65,0
-0.6408166289329529,-0.0625000074505806,0.7657047510147095,-40.75107192993164,6.287702083587647,69.85643005371094,34.65,0
-0.6407479643821716,-0.0625000074505806,0.7656762003898621,-15.58309555053711,6.28753137588501,69.85771179199219,34.65,0
-0.6463016867637634,-0.0625000074505806,0.7656578421592712,10.32003688812256,6.287422180175781,69.85852813720703,34.65,0
-0.6442679762840271,-0.0625000074505806,0.7712438702583313,31.940866470336918,6.287352085113525,69.85905456542969,34.65,0
-0.6429628729820251,-0.0625000074505806,0.769230842590332,47.531925201416016,6.287306785583496,69.85939025878906,34.65,0
-0.6421253085136414,-0.0625000074505806,0.767939031124115,56.69546508789063,6.287277698516846,69.85961151123047,34.65,0
-0.6415877938270569,-0.0625000074505806,0.7727077603340149,59.73869705200195,6.281291484832764,69.85974884033203,34.65,0
-0.6412428617477417,-0.0625000074505806,0.7757681012153625,57.86189270019531,6.277450084686279,69.8598403930664,34.65,0
-0.6466192603111267,-0.0625000074505806,0.7721342444419861,52.55183792114258,6.274984836578369,69.85990142822266,34.65,0
-0.6444717645645142,-0.0625000074505806,0.7698022723197937,45.14599609375,6.273402690887451,69.85993957519531,34.65,0
-0.6430936455726624,-0.0625000074505806,0.773903489112854,37.30158996582031,6.272387504577637,69.8599624633789,34.65,0
-0.6422092318534851,-0.0625000074505806,0.7709376811981201,30.526369094848636,6.271736145019531,69.85997772216797,34.65,0
-0.6416416764259338,-0.0625000074505806,0.7690343856811523,24.795549392700195,6.271317958831787,69.8599853515625,34.65,0
-0.6412774324417114,-0.0625000074505806,0.767812967300415,18.78199958801269,6.271049499511719,69.85999298095703,34.65,0
-0.6410437226295471,-0.0625000074505806,0.7670291066169739,11.437003135681152,6.269958972930908,69.85999298095703,34.65,0
-0.6408936977386475,-0.0625000074505806,0.7665261030197144,2.6141932010650635,6.269259452819824,69.85999298095703,34.65,0
-0.6407974362373352,-0.0625000074505806,0.7718010544776917,-7.357616424560547,6.268810272216797,69.85999298095703,34.65,0
-0.6407356858253479,-0.0625000074505806,0.7695884108543396,-17.862581253051758,6.268522262573242,69.85999298095703,34.65,0
-0.6462938189506531,-0.0625000074505806,0.773766279220581,-27.978849411010746,6.268337249755859,69.85999298095703,34.65,0
-0.6442629098892212,-0.0625000074505806,0.7708495855331421,-37.43726348876953,6.268218517303467,69.85999298095703,34.65,0
-0.6429595947265625,-0.0625000074505806,0.7689778208732605,-48.11431884765625,6.268142223358154,69.85999298095703,34.65,0
-0.6421232223510742,-0.0625000074505806,0.7677766680717468,-62.12422561645508,6.268093585968018,69.85999298095703,34.65,0
-0.6415864825248718,-0.0625000074505806,0.7670058012008667,-76.37061309814453,6.265307903289795,70.02837371826172,34.65,0
-0.6412420272827148,-0.0625000074505806,0.7665111422538757,-82.05236053466797,6.263520240783691,70.13643646240234,34.65,0
-0.6410209536552429,-0.0625000074505806,0.7717914581298828,-72.6974105834961,6.262372970581055,70.20578002929688,34.65,0
-0.6408790946006775,-0.0625000074505806,0.7695822715759277,-50.43621444702149,6.261636734008789,70.25028228759766,34.65,0
-0.6407880783081055,-0.0625000074505806,0.7681645750999451,-22.984294891357425,6.26116418838501,70.27883911132812,34.65,0
-0.6407296657562256,-0.0625000074505806,0.7672547698020935,2.6183290481567383,6.260860919952393,70.29716491699219,34.65,0
-0.6406921744346619,-0.0625000074505806,0.7722686529159546,22.41265869140625,6.260666370391846,70.30892944335938,34.65,0
-0.6406680941581726,-0.0625000074505806,0.7754862904548645,35.16925811767578,6.2605414390563965,70.31648254394531,34.65,0
-0.6406526565551758,-0.0625000074505806,0.7719534039497375,41.63965606689453,6.2563300132751465,70.32132720947266,34.65,0
-0.6406427621841431,-0.0625000074505806,0.769686222076416,43.40957260131836,6.253627300262451,70.32443237304688,34.65,0
-0.6406363844871521,-0.0625000074505806,0.7682312726974487,41.618438720703125,6.251893043518066,70.32643127441406,34.65,0
-0.6406323313713074,-0.0625000074505806,0.7672975659370422,36.98672866821289,6.25078010559082,70.32771301269531,34.65,0
-0.6462274789810181,-0.0625000074505806,0.7666983604431152,30.983503341674805,6.250065803527832,70.32852935791016,34.65,0
-0.6498181223869324,-0.0625000074505806,0.77191162109375,25.669288635253903,6.249607086181641,70.32905578613281,34.65,0
-0.6465246081352234,-0.0625000074505806,0.7752571702003479,21.5889892578125,6.249312877655029,70.32939147949219,34.65,0
-0.644411027431488,-0.0625000074505806,0.7718063592910767,17.46222496032715,6.249124050140381,70.3296127319336,34.65,0
-0.6430546641349792,-0.0625000074505806,0.7695918679237366,12.657194137573242,6.247625827789307,70.32975006103516,34.65,0
-0.6421841979026794,-0.0625000074505806,0.7681707143783569,7.91845178604126,6.246664524078369,70.32984161376953,34.65,0
-0.6416255831718445,-0.0625000074505806,0.7672587037086487,3.340474843978882,6.246047496795654,70.32990264892578,34.65,0
-0.6468648910522461,-0.0625000074505806,0.7666734457015991,-2.04430627822876,6.245651721954346,70.32994079589844,34.65,0
-0.6446294188499451,-0.0625000074505806,0.7662978172302246,-8.563051223754883,6.245397567749023,70.32996368408203,34.65,0
-0.6431947946548462,-0.0625000074505806,0.7660567760467529,-15.533650398254396,6.245234489440918,70.3299789428711,34.65,0
-0.6478719115257263,-0.0625000074505806,0.7714998722076416,-22.418052673339844,6.245129585266113,70.32998657226562,34.65,0
-0.6452756524085999,-0.0625000074505806,0.7693951725959778,-29.63763999938965,6.245062351226807,70.32999420166016,34.65,0
-0.6436095237731934,-0.0625000074505806,0.7680444717407227,-38.35489273071289,6.24364185333252,70.32999420166016,34.61,0
-0.6425402760505676,-0.0625000074505806,0.7671777009963989,-48.59930419921875,6.242730617523193,70.32999420166016,34.61,0
-0.6418541073799133,-0.0625000074505806,0.7666214108467102,-56.66751480102539,6.242145538330078,70.32999420166016,34.61,0
-0.6414137482643127,-0.0625000074505806,0.7662644386291504,-55.79067611694336,6.241770267486572,70.32999420166016,34.61,0
-0.6411311626434326,-0.0625000074505806,0.7660353779792786,-41.67866897583008,6.24152946472168,70.32999420166016,34.61,0
-0.6409498453140259,-0.0625000074505806,0.7658883333206177,-17.235233306884766,6.241374969482422,70.32999420166016,34.61,0
-0.6408334374427795,-0.0625000074505806,0.7657939791679382,9.729104042053224,6.241275787353516,70.32999420166016,34.61,0
-0.640758752822876,-0.0625000074505806,0.7657334208488464,32.69731521606445,6.241211891174316,70.32999420166016,34.61,0
-0.6407108306884766,-0.0625000074505806,0.7656945586204529,48.93809127807617,6.2388763427734375,70.48762512207031,34.61,0
-0.6406800746917725,-0.0625000074505806,0.7656696438789368,58.04926681518555,6.237377166748047,70.58878326416016,34.61,0
-0.6406603455543518,-0.0625000074505806,0.765653669834137,60.8475227355957,6.236415386199951,70.65370178222656,34.61,0
-0.6462454795837402,-0.0625000074505806,0.7656434178352356,59.13952255249024,6.235797882080078,70.69536590576172,34.61,0
-0.644231915473938,-0.0625000074505806,0.7656368017196655,55.03047943115234,6.235401630401611,70.72209930419922,34.61,0
-0.6429396867752075,-0.0625000074505806,0.7712303400039673,50.2045783996582,6.235147476196289,70.7392578125,34.61,0
-0.6421104073524475,-0.0625000074505806,0.7692221999168396,45.63157272338867,6.234984397888184,70.7502670288086,34.61,0
-0.6471760272979736,-0.0625000074505806,0.7679334878921509,41.4143180847168,6.234879493713379,70.75733184814453,34.61,0
-0.6504268646240234,-0.0625000074505806,0.7671064734458923,37.08501815795898,6.2375664710998535,70.76187133789062,34.61,0
-0.6469152569770813,-0.0625000074505806,0.7665757536888123,32.05686569213867,6.239291191101074,70.76478576660156,34.61,0
-0.6446617245674133,-0.0625000074505806,0.7662351131439209,25.92103576660156,6.240397930145264,70.76665496826172,34.61,0
-0.6488133072853088,-0.0625000074505806,0.7660165429115295,18.576385498046875,6.241107940673828,70.76785278320312,34.61,0
-0.6458798050880432,-0.0625000074505806,0.765876293182373,10.119218826293944,6.24156379699707,70.76862335205078,34.61,0
-0.6495950222015381,-0.0625000074505806,0.7657862901687622,0.8048023581504822,6.241856098175049,70.76911163330078,34.61,0
-0.6519792079925537,-0.0625000074505806,0.7657285332679749,-8.920028686523438,6.242043972015381,70.7694320678711,34.61,0
-0.6479114890098572,-0.0625000074505806,0.7656914591789246,-18.46758270263672,6.242164611816406,70.76963806152344,34.61,0
-0.650898814201355,-0.0625000074505806,0.7656676769256592,-27.718658447265625,6.235355854034424,70.76976776123047,34.61,0
-0.6528159379959106,-0.0625000074505806,0.7656523585319519,-37.87932586669922,6.230986595153809,70.76985168457031,34.61,0
-0.6484484672546387,-0.0625000074505806,0.7656425833702087,-50.27169799804688,6.228182792663574,70.76990509033203,34.61,0
-0.6512434482574463,-0.0625000074505806,0.7656362652778625,-62.41244125366211,6.226383209228516,70.76993560791016,34.61,0
-0.6474393010139465,-0.0625000074505806,0.7712299823760986,-66.91128540039062,6.225228309631348,70.76995849609375,34.61,0
-0.6449980139732361,-0.0625000074505806,0.7692219614982605,-57.39192199707031,6.2244873046875,70.76997375488281,34.61,0
-0.6434313654899597,-0.0625000074505806,0.7679333090782166,-35.07895278930664,6.224011898040772,70.76998138427734,34.61,0
-0.6424259543418884,-0.0625000074505806,0.7671063542366028,-7.665459632873535,6.2237067222595215,70.76998901367188,34.61,0
-0.6417807340621948,-0.0625000074505806,0.7665756344795227,17.246145248413086,6.222592353820801,70.76998901367188,34.61,0
-0.6413666605949402,-0.0625000074505806,0.7662350535392761,35.866172790527344,6.221877574920654,70.76998901367188,34.61,0
-0.6466987133026123,-0.0625000074505806,0.7660164833068848,47.34611892700195,6.221418857574463,70.76998901367188,34.61,0
-0.6445227861404419,-0.0625000074505806,0.7658762335777283,52.32728958129883,6.221124172210693,70.76998901367188,34.61,0
-0.643126368522644,-0.0625000074505806,0.7657862305641174,52.47514724731445,6.220935344696045,70.76998901367188,34.61,0
-0.6478279829025269,-0.0625000074505806,0.7657284736633301,49.61082458496094,6.220814228057861,70.76998901367188,34.61,0
-0.6452474594116211,-0.0625000074505806,0.7656913995742798,44.65582656860352,6.220736503601074,70.76998901367188,34.61,0
-0.6435914039611816,-0.0625000074505806,0.7656676173210144,38.244510650634766,6.220686435699463,70.76998901367188,34.61,0
-0.6481264233589172,-0.0625000074505806,0.7656523585319519,31.966222763061523,6.218358993530273,70.90971374511719,34.61,0
-0.6454389691352844,-0.0625000074505806,0.7712403535842896,27.40337371826172,6.216865539550781,70.99938201904297,34.61,0
-0.6493120789527893,-0.0625000074505806,0.7692286372184753,23.8912410736084,6.215907096862793,71.05692291259766,34.61,0
-0.6461998820304871,-0.0625000074505806,0.7679376006126404,19.26927375793457,6.215291976928711,71.0938491821289,34.61,0
-0.6442026495933533,-0.0625000074505806,0.7671090960502625,13.13974666595459,6.214897155761719,71.11754608154297,34.61,0
-0.6429209113121033,-0.0625000074505806,0.766577422618866,6.967059135437012,6.214643955230713,71.13275909423828,34.61,0
-0.6420983672142029,-0.0625000074505806,0.7662361860275269,1.0568630695343018,6.214481353759766,71.14251708984375,34.61,0
-0.641570508480072,-0.0625000074505806,0.7660171985626221,-5.845636367797852,6.214376926422119,71.1487808227539,34.61,0
-0.6468295454978943,-0.0625000074505806,0.7658767104148865,-14.198183059692385,6.2124738693237305,71.15280151367188,34.61,0
-0.6446067094802856,-0.0625000074505806,0.7657865285873413,-22.99405670166016,6.211252689361572,71.15538024902344,34.61,0
-0.643180251121521,-0.0625000074505806,0.7657286524772644,-31.200284957885746,6.210468769073486,71.15703582763672,34.61,0
-0.6422647833824158,-0.0625000074505806,0.7656915187835693,-38.9027214050293,6.209965705871582,71.15809631347656,34.61,0
-0.6416773200035095,-0.0625000074505806,0.7656676769256592,-47.71129989624024,6.209642887115479,71.15878295898438,34.61,0
-0.6413003206253052,-0.0625000074505806,0.7656523585319519,-59.71246337890625,6.209435939788818,71.15921783447266,34.61,0
-0.6410583853721619,-0.0625000074505806,0.7656425833702087,-73.4364242553711,6.20930290222168,71.15950012207031,34.61,0
-0.640903115272522,-0.0625000074505806,0.7656362652778625,-81.37669372558594,6.209217548370361,71.15968322753906,34.61,0
-0.6464012265205383,-0.0625000074505806,0.7656322121620178,-75.54902648925781,6.206867694854736,71.15979766845703,34.61,0
-0.6443318724632263,-0.0625000074505806,0.7656296491622925,-55.68757629394531,6.20535945892334,71.15987396240234,34.61,0
-0.6430038809776306,-0.0625000074505806,0.7656279802322388,-29.130809783935547,6.204391479492188,71.15991973876953,34.61,0
-0.6477494239807129,-0.0625000074505806,0.7656269073486328,-3.8160393238067623,6.203770637512207,71.15995025634766,34.61,0
-0.6451970338821411,-0.0625000074505806,0.7656262516975403,16.073001861572266,6.203372001647949,71.15997314453125,34.61,0
-0.6435590386390686,-0.0625000074505806,0.7656257748603821,29.628393173217773,6.203116416931152,71.15998077392578,34.61,0
-0.6425079107284546,-0.0625000074505806,0.7656254768371582,37.4783935546875,6.2029523849487305,71.15998840332031,34.61,0
-0.6418333649635315,-0.0625000074505806,0.7656252980232239,40.502662658691406,6.202847003936768,71.15999603271484,34.61,0
-0.6414004564285278,-0.0625000074505806,0.7712229490280151,39.50575256347656,6.2101240158081055,71.15999603271484,34.61,0
-0.6467204093933105,-0.0625000074505806,0.7692174315452576,35.48762512207031,6.214794158935547,71.15999603271484,34.61,0
-0.6445366740226746,-0.0625000074505806,0.7679303884506226,29.70261573791504,6.2177910804748535,71.15999603271484,34.61,0
-0.6431353092193604,-0.0625000074505806,0.7727022171020508,23.70086479187012,6.219714641571045,71.15999603271484,34.61,0
-0.6478337645530701,-0.0625000074505806,0.7701667547225952,19.150684356689453,6.220948696136475,71.15999603271484,34.61,0
-0.650848925113678,-0.0625000074505806,0.7685396075248718,16.613975524902344,6.22174072265625,71.15999603271484,34.61,0
-0.6471861004829407,-0.0625000074505806,0.7674954533576965,14.756776809692385,6.222249031066895,71.15999603271484,34.61,0
-0.6448355317115784,-0.0625000074505806,0.7668253779411316,11.61242961883545,6.2225751876831055,71.15999603271484,34.61,0
-0.6433270573616028,-0.0625000074505806,0.7663953304290771,6.69268274307251,6.210390567779541,71.18865966796875,34.61,0
-0.6423590183258057,-0.0625000074505806,0.7661193609237671,1.3572664260864258,6.202570915222168,71.2070541381836,34.61,0
-0.6417378187179565,-0.0625000074505806,0.7659422755241394,-3.456735849380493,6.197552680969238,71.21885681152344,34.61,0
-0.6469368934631348,-0.0625000074505806,0.7658286094665527,-8.831768035888672,6.194332122802734,71.22643280029297,34.61,0
-0.6502733826637268,-0.0625000074505806,0.7657556533813477,-16.05718994140625,6.192265510559082,71.23129272460938,34.61,0
-0.6468167901039124,-0.0625000074505806,0.765708863735199,-24.258712768554688,6.190939426422119,71.23441314697266,34.61,0
-0.6501963138580322,-0.0625000074505806,0.7656788229942322,-31.535385131835938,6.190088272094727,71.23641204833984,34.61,0
-0.6467673182487488,-0.0625000074505806,0.765659511089325,-37.81012725830078,6.189542293548584,71.2376937866211,34.61,0
-0.6445667743682861,-0.0625000074505806,0.7656471729278564,-45.12211990356445,6.185060501098633,71.23851776123047,34.61,0
-0.6431546211242676,-0.0625000074505806,0.7656392455101013,-54.85880279541016,6.182184219360352,71.23905181884766,34.61,0
-0.6422483921051025,-0.0625000074505806,0.7656341195106506,-64.19900512695312,6.180338382720947,71.23938751220703,34.61,0
-0.6416667699813843,-0.0625000074505806,0.765630841255188,-66.04438781738281,6.179153919219971,71.23960876464844,34.61,0
-0.6412935256958008,-0.0625000074505806,0.7656287550926208,-54.51408767700195,6.178393840789795,71.23974609375,34.61,0
-0.6410540342330933,-0.0625000074505806,0.765627384185791,-30.76014709472656,6.177906036376953,71.23983764648438,34.61,0
-0.6409003138542175,-0.0625000074505806,0.7656265497207642,-2.0314204692840576,6.177592754364014,71.23989868164062,34.61,0
-0.6408016681671143,-0.0625000074505806,0.7656260132789612,24.096811294555664,6.17739200592041,71.23993682861328,34.61,0
-0.6407383680343628,-0.0625000074505806,0.7656256556510925,43.332801818847656,6.175886154174805,71.23995971679688,34.61,0
-0.6406977772712708,-0.0625000074505806,0.7656254172325134,54.63482284545898,6.174919605255127,71.23997497558594,34.61,0
-0.6406717300415039,-0.0625000074505806,0.7656252384185791,59.22237396240234,6.174299240112305,71.23998260498047,34.61,0
-0.640654981136322,-0.0625000074505806,0.7656251788139343,59.15703582763672,6.173901081085205,71.239990234375,34.61,0
-0.6406442523002625,-0.0625000074505806,0.7656251192092896,55.99826431274414,6.173645496368408,71.239990234375,34.61,0
-0.6406373381614685,-0.0625000074505806,0.7656250596046448,50.90804672241211,6.173481464385986,71.239990234375,34.61,0
-0.6406329274177551,-0.0625000074505806,0.7656250596046448,45.24111175537109,6.173376560211182,71.239990234375,34.61,0
-0.6462278366088867,-0.0625000074505806,0.7656250596046448,39.96358108520508,6.173308849334717,71.239990234375,34.61,0
-0.6498183608055115,-0.0625000074505806,0.7712228298187256,35.17597579956055,6.17372465133667,71.239990234375,34.61,0
-0.6465247869491577,-0.0625000074505806,0.7692173719406128,30.71352767944336,6.1739912033081055,71.239990234375,34.61,0
-0.6444111466407776,-0.0625000074505806,0.7679303884506226,26.23046112060547,6.1741623878479,71.239990234375,34.61,0
-0.643054723739624,-0.0625000074505806,0.76710444688797,20.85284996032715,6.174272060394287,71.239990234375,34.61,0
-0.6421842575073242,-0.0625000074505806,0.7665744423866272,13.847893714904783,6.174342632293701,71.239990234375,34.61,0
-0.6416256427764893,-0.0625000074505806,0.766234278678894,5.282710075378418,6.1743879318237305,71.239990234375,34.61,0
-0.6412671804428101,-0.0625000074505806,0.7660160064697266,-4.423457622528076,6.174417018890381,71.239990234375,34.61,0
-0.641037106513977,-0.0625000074505806,0.7658759355545044,-14.603899002075195,6.174435615539551,71.239990234375,34.61,0
-0.6408894658088684,-0.0625000074505806,0.7657860517501831,-24.1357364654541,6.169397830963135,71.32239532470703,34.61,0
-0.6463924646377563,-0.0625000074505806,0.7657283544540405,-32.73186492919922,6.166164875030518,71.37527465820312,34.61,0
-0.6443262100219727,-0.0625000074505806,0.765691339969635,-42.33966445922852,6.164090156555176,71.40921020507812,34.61,0
-0.6430002450942993,-0.0625000074505806,0.7656675577163696,-54.78207015991211,6.162758827209473,71.43099212646484,34.61,0
-0.6421492695808411,-0.0625000074505806,0.7656522989273071,-66.68981170654297,6.161904335021973,71.4449691772461,34.61,0
-0.6472009420394897,-0.0625000074505806,0.765642523765564,-69.34815216064453,6.161355972290039,71.45393371582031,34.61,0
-0.6448450684547424,-0.0625000074505806,0.7656362652778625,-56.76322555541992,6.161004066467285,71.45968627929688,34.61,0
-0.6433331966400146,-0.0625000074505806,0.7656322121620178,-32.21067810058594,6.160778522491455,71.46337890625,34.61,0
-0.6423629522323608,-0.0625000074505806,0.7656296491622925,-4.366659641265869,6.158797740936279,71.46575164794922,34.61,0
-0.6417403221130371,-0.0625000074505806,0.7656279802322388,20.24802017211914,6.15752649307251,71.46727752685547,34.61,0
-0.6413407325744629,-0.0625000074505806,0.7656269073486328,38.86021041870117,6.156710624694824,71.46825408935547,34.61,0
-0.64668208360672,-0.0625000074505806,0.7656262516975403,50.62173080444336,6.156187057495117,71.46887969970703,34.61,0
-0.6445121169090271,-0.0625000074505806,0.7656257748603821,56.174102783203125,6.155850887298584,71.46928405761719,34.61,0
-0.6431195139884949,-0.0625000074505806,0.7656254768371582,56.95005035400391,6.155635356903076,71.46954345703125,34.61,0
-0.6422258615493774,-0.0625000074505806,0.7656252980232239,53.77228927612305,6.155497074127197,71.4697036743164,34.61,0
-0.6416523456573486,-0.0625000074505806,0.7656251788139343,47.41598129272461,6.155408382415772,71.46981048583984,34.61,0
-0.6412842869758606,-0.0625000074505806,0.7712228894233704,39.858184814453125,6.154892444610596,71.46987915039062,34.61,0
-0.6410480737686157,-0.0625000074505806,0.7692174315452576,33.34929656982422,6.1545610427856445,71.46992492675781,34.61,0
-0.6408964991569519,-0.0625000074505806,0.7679303884506226,28.30886459350586,6.154348373413086,71.46995544433594,34.61,0
-0.6463969945907593,-0.0625000074505806,0.76710444688797,23.13961410522461,6.15421199798584,71.469970703125,34.61,0
-0.6443291306495667,-0.0625000074505806,0.7665744423866272,16.422422409057617,6.154124736785889,71.46997833251953,34.61,0
-0.6430020928382874,-0.0625000074505806,0.766234278678894,8.507644653320312,6.154068470001221,71.46998596191406,34.61,0
-0.6421504616737366,-0.0625000074505806,0.7660160064697266,0.4118675291538238,6.154032230377197,71.4699935913086,34.61,0
-0.6472017168998718,-0.0625000074505806,0.7658759355545044,-7.914707183837891,6.154009342193604,71.4699935913086,34.61,0
-0.6448455452919006,-0.0625000074505806,0.7657860517501831,-17.21338653564453,6.149863243103027,71.4699935913086,34.63,0
-0.6433334946632385,-0.0625000074505806,0.7657283544540405,-27.31503677368164,6.147202491760254,71.4699935913086,34.63,0
-0.6423631310462952,-0.0625000074505806,0.765691339969635,-37.082916259765625,6.1454949378967285,71.4699935913086,34.63,0
-0.6473382115364075,-0.0625000074505806,0.7656675577163696,-46.081302642822266,6.144399166107178,71.4699935913086,34.63,0
-0.6449331641197205,-0.0625000074505806,0.7656522989273071,-55.38836669921875,6.143695831298828,71.4699935913086,34.63,0
-0.6433897614479065,-0.0625000074505806,0.765642523765564,-66.46985626220703,6.14324426651001,71.4699935913086,34.63,0
-0.642399251461029,-0.0625000074505806,0.7656362652778625,-79.04116821289062,6.1429548263549805,71.4699935913086,34.63,0
-0.6417636275291443,-0.0625000074505806,0.7656322121620178,-88.72444915771484,6.142768859863281,71.4699935913086,34.63,0
-0.6413556933403015,-0.0625000074505806,0.7656296491622925,-87.81646728515625,6.1426496505737305,71.5380630493164,34.63,0
-0.641093909740448,-0.0625000074505806,0.7656279802322388,-71.69972229003906,6.142573356628418,71.58174896240234,34.63,0
-0.640925943851471,-0.0625000074505806,0.7656269073486328,-44.24296188354492,6.142524242401123,71.60978698730469,34.63,0
-0.6408181190490723,-0.0625000074505806,0.7656262516975403,-14.36322021484375,6.142492771148682,71.62777709960938,34.63,0
-0.640748918056488,-0.0625000074505806,0.7656257748603821,11.239018440246582,6.142472267150879,71.63932037353516,34.63,0
-0.6407045125961304,-0.0625000074505806,0.7656254768371582,30.119543075561523,6.142459392547607,71.646728515625,34.63,0
-0.6406760215759277,-0.0625000074505806,0.7656252980232239,42.178653717041016,6.14245080947876,71.65148162841797,34.63,0
-0.6406577229499817,-0.0625000074505806,0.7656251788139343,48.41998291015625,6.14244556427002,71.65453338623047,34.63,0
-0.6406459808349609,-0.0625000074505806,0.7656251192092896,50.107383728027344,6.137851238250732,71.656494140625,34.63,0
-0.6406384706497192,-0.0625000074505806,0.7656250596046448,48.03042602539063,6.1349029541015625,71.65775299072266,34.63,0
-0.6406336426734924,-0.0625000074505806,0.7656250596046448,42.857032775878906,6.1330108642578125,71.65856170654297,34.63,0
-0.6406305432319641,-0.0625000074505806,0.7656250596046448,36.09061050415039,6.131796836853027,71.6590805053711,34.63,0
-0.6462263464927673,-0.0625000074505806,0.7656250596046448,29.8961181640625,6.131017684936523,71.65940856933594,34.63,0
-0.6442196369171143,-0.0625000074505806,0.7656250596046448,25.38346290588379,6.130517482757568,71.65962219238281,34.63,0
-0.6429318189620972,-0.0625000074505806,0.7656250596046448,21.52737045288086,6.130196571350098,71.65975952148438,34.63,0
-0.6477031707763672,-0.0625000074505806,0.7656250596046448,16.695417404174805,6.129990577697754,71.65984344482422,34.63,0
-0.645167350769043,-0.0625000074505806,0.7656250596046448,10.907617568969728,6.130317687988281,71.65990447998047,34.63,0
-0.6435400247573853,-0.0625000074505806,0.7656250596046448,5.312488079071045,6.130527973175049,71.65994262695312,34.63,0
-0.6424956917762756,-0.0625000074505806,0.7656250596046448,-0.2879690527915954,6.13066291809082,71.65996551513672,34.63,0
-0.6418254971504211,-0.0625000074505806,0.7656250596046448,-7.27113676071167,6.130749225616455,71.65998077392578,34.63,0
-0.6413953900337219,-0.0625000074505806,0.7656250596046448,-15.456914901733398,6.130804538726807,71.65998840332031,34.63,0
-0.6411194205284119,-0.0625000074505806,0.7656250596046448,-22.87036895751953,6.130840301513672,71.65999603271484,34.63,0
-0.6465400457382202,-0.0625000074505806,0.7656250596046448,-28.957033157348636,6.130863189697266,71.65999603271484,34.63,0
-0.6500186920166016,-0.0625000074505806,0.7656250596046448,-35.962032318115234,6.13087797164917,71.65999603271484,34.63,0
-0.652251124382019,-0.0625000074505806,0.7656250596046448,-46.01401138305664,6.128133296966553,71.65999603271484,34.61,0
-0.6536837220191956,-0.0625000074505806,0.7656250596046448,-56.99674987792969,6.12637186050415,71.65999603271484,34.61,0
-0.6490053534507751,-0.0625000074505806,0.7656250596046448,-61.88454818725586,6.125241279602051,71.65999603271484,34.61,0
-0.646003007888794,-0.0625000074505806,0.7656250596046448,-53.75047302246094,6.124515533447266,71.65999603271484,34.61,0
-0.6440762877464294,-0.0625000074505806,0.7656250596046448,-32.301422119140625,6.124050140380859,71.65999603271484,34.61,0
-0.6428398489952087,-0.0625000074505806,0.7656250596046448,-4.270840167999268,6.123751163482666,71.65999603271484,34.61,0
-0.6420463919639587,-0.0625000074505806,0.7656250596046448,22.387407302856445,6.123559474945068,71.65999603271484,34.61,0
-0.6415371894836426,-0.0625000074505806,0.7656250596046448,43.21026611328125,6.123436450958252,71.65999603271484,34.61,0
-0.6412103772163391,-0.0625000074505806,0.7656250596046448,57.24311828613281,6.119685173034668,71.72090148925781,34.61,0
-0.6410006880760193,-0.0625000074505806,0.7656250596046448,65.04126739501953,6.1172776222229,71.7599868774414,34.61,0
-0.6408661007881165,-0.0625000074505806,0.7656250596046448,67.30858612060547,6.115732669830322,71.78507232666016,34.61,0
-0.6407797336578369,-0.0625000074505806,0.7656250596046448,64.83711242675781,6.114741325378418,71.8011703491211,34.61,0
-0.6407243013381958,-0.0625000074505806,0.7656250596046448,58.94122695922852,6.114104747772217,71.8115005493164,34.61,0
-0.6406887173652649,-0.0625000074505806,0.7656250596046448,51.474700927734375,6.113696575164795,71.81813049316406,34.61,0
-0.6406658887863159,-0.0625000074505806,0.7712228298187256,44.28636932373047,6.113434314727783,71.82238006591797,34.61,0
-0.646248996257782,-0.0625000074505806,0.7692173719406128,38.480316162109375,6.1132659912109375,71.82511138916016,34.61,0
-0.6498319506645203,-0.0625000074505806,0.7679303884506226,33.66880416870117,6.113158226013184,71.82686614990234,34.61,0
-0.6465334892272949,-0.0625000074505806,0.76710444688797,28.30611801147461,6.113089084625244,71.82798767089844,34.61,0
-0.6444167494773865,-0.0625000074505806,0.7665744423866272,21.368059158325195,6.113044738769531,71.8287124633789,34.61,0
-0.6430583000183105,-0.0625000074505806,0.766234278678894,13.311541557312012,6.113016128540039,71.82917785644531,34.61,0
-0.6421865224838257,-0.0625000074505806,0.7660160064697266,4.917014598846436,6.112998008728027,71.82947540283203,34.61,0
-0.6472248435020447,-0.0625000074505806,0.7658759355545044,-3.8807215690612793,6.112986087799072,71.82966613769531,34.61,0
-0.6448603868484497,-0.0625000074505806,0.7657860517501831,-13.410114288330078,6.112978458404541,71.82978820800781,34.61,0
-0.6433430314064026,-0.0625000074505806,0.7657283544540405,-23.30872917175293,6.112973690032959,71.82986450195312,34.61,0
-0.642369270324707,-0.0625000074505806,0.765691339969635,-32.99288558959961,6.109757423400879,71.82991027832031,34.61,0
-0.6473421454429626,-0.0625000074505806,0.7656675577163696,-43.08396911621094,6.107693195343018,71.82994079589844,34.61,0
-0.644935667514801,-0.0625000074505806,0.7656522989273071,-55.266883850097656,6.106368541717529,71.82996368408203,34.61,0
-0.6433913111686707,-0.0625000074505806,0.765642523765564,-68.58084869384766,6.105518341064453,71.8299789428711,34.61,0
-0.647998034954071,-0.0625000074505806,0.7656362652778625,-76.14694213867188,6.104972839355469,71.82998657226562,34.61,0
-0.6453565955162048,-0.0625000074505806,0.7656322121620178,-69.7889633178711,6.104622840881348,71.82999420166016,34.61,0
-0.6436614394187927,-0.0625000074505806,0.7656296491622925,-48.74528503417969,6.104398250579834,71.82999420166016,34.61,0
-0.6481713652610779,-0.0625000074505806,0.7656279802322388,-20.308490753173828,6.104254245758057,71.82999420166016,34.61,0
-0.6454678177833557,-0.0625000074505806,0.7656269073486328,7.584901809692383,6.103243350982666,71.82999420166016,34.59,0
-0.6437328457832336,-0.0625000074505806,0.7656262516975403,30.669261932373047,6.10259485244751,71.82999420166016,34.59,0
-0.6426194310188293,-0.0625000074505806,0.7656257748603821,46.794700622558594,6.102178573608398,71.82999420166016,34.59,0
-0.6475026607513428,-0.0625000074505806,0.7656254768371582,55.1690788269043,6.101911544799805,71.82999420166016,34.59,0
-0.6450386643409729,-0.0625000074505806,0.7656252980232239,57.29387664794922,6.101739883422852,71.82999420166016,34.59,0
-0.6434574127197266,-0.0625000074505806,0.7656251788139343,55.43671417236328,6.101629734039307,71.82999420166016,34.59,0
-0.6424427032470703,-0.0625000074505806,0.7656251192092896,50.37212753295898,6.101559162139893,71.82999420166016,34.59,0
-0.64738929271698,-0.0625000074505806,0.7656250596046448,42.56851577758789,6.101513862609863,71.82999420166016,34.59,0
-0.6449659466743469,-0.0625000074505806,0.7656250596046448,34.10342025756836,6.100566387176514,71.87298583984375,34.59,0
-0.6434107422828674,-0.0680977776646614,0.7656250596046448,27.22364997863769,6.099958419799805,71.90057373046875,34.59,0
-0.6480104923248291,-0.0660923346877098,0.7656250596046448,21.930877685546875,6.0995683670043945,71.91828155517578,34.59,0
-0.6509623527526855,-0.0648053511977195,0.7656250596046448,16.305919647216797,6.099318027496338,71.92964172363281,34.59,0
-0.6472589373588562,-0.0639794394373893,0.7656250596046448,8.938023567199707,6.099157333374023,71.93693542480469,34.59,0
-0.6448822617530823,-0.0634494200348854,0.7656250596046448,0.5841652750968933,6.099054336547852,71.94161224365234,34.59,0
-0.6489548683166504,-0.0631092861294746,0.7656250596046448,-7.180768489837647,6.098988056182861,71.94461822509766,34.59,0
-0.6515684127807617,-0.0628910064697265,0.7656250596046448,-14.553433418273926,6.098945617675781,71.94654846191406,34.59,0
-0.6476478576660156,-0.0627509281039238,0.7656250596046448,-23.06081962585449,6.0943284034729,71.94778442382812,34.59,0
-0.6451318860054016,-0.0626610293984413,0.7656250596046448,-32.77647018432617,6.091365337371826,71.94857788085938,34.59,0
-0.643517255783081,-0.0626033395528793,0.7656250596046448,-42.10317993164063,6.089463710784912,71.94908905029297,34.59,0
-0.6424810886383057,-0.0625663176178932,0.7656250596046448,-50.20941162109375,6.08824348449707,71.94941711425781,34.59,0
-0.6418161392211914,-0.0625425577163696,0.7656250596046448,-58.40297317504883,6.087460041046143,71.94962310791016,34.59,0
-0.6413894295692444,-0.0625273138284683,0.7656250596046448,-69.0815658569336,6.0869574546813965,71.94976043701172,34.59,0
-0.6411155462265015,-0.0625175312161445,0.7656250596046448,-82.44759368896484,6.086635112762451,71.94984436035156,34.59,0
-0.6465376019477844,-0.0625112503767013,0.7656250596046448,-92.8844985961914,6.086428165435791,71.94989776611328,34.59,0
-0.6500171422958374,-0.0625072196125984,0.7656250596046448,-91.08443450927734,6.083540916442871,71.94993591308594,34.59,0
-0.646652340888977,-0.0625046342611312,0.7656250596046448,-72.6540756225586,6.081687927246094,71.94995880126953,34.59,0
-0.650090754032135,-0.0625029727816581,0.7656250596046448,-43.06412124633789,6.080499172210693,71.9499740600586,34.59,0
-0.6466995477676392,-0.0625019073486328,0.7656250596046448,-12.277572631835938,6.079736232757568,71.94998168945312,34.59,0
-0.6445233225822449,-0.0625012218952179,0.7656250596046448,13.182923316955566,6.079246520996094,71.94998931884766,34.59,0
-0.6431267261505127,-0.0625007823109626,0.7656250596046448,31.54615974426269,6.078932285308838,71.94998931884766,34.59,0
-0.647828221321106,-0.0625004991889,0.7656250596046448,42.9759521484375,6.078730583190918,71.94998931884766,34.59,0
-0.6452476382255554,-0.0625003203749656,0.7656250596046448,48.3763427734375,6.078600883483887,71.94998931884766,34.59,0
-0.6435915231704712,-0.0625002086162567,0.7656250596046448,49.20164489746094,6.078976631164551,71.94998931884766,34.59,0
-0.642528772354126,-0.0625001341104507,0.7656250596046448,46.44247055053711,6.079217910766602,71.94998931884766,34.59,0
-0.647444486618042,-0.0625000894069671,0.7656250596046448,40.70230102539063,6.079372882843018,71.94998931884766,34.59,0
-0.6450013518333435,-0.0625000596046447,0.7656250596046448,33.68321228027344,6.079472064971924,71.94998931884766,34.59,0
-0.6490312814712524,-0.0625000372529029,0.7656250596046448,27.949939727783203,6.079535961151123,71.94998931884766,34.59,0
-0.6516174674034119,-0.0625000223517417,0.7656250596046448,24.53218460083008,6.0795769691467285,71.94998931884766,34.59,0
-0.647679328918457,-0.0625000149011612,0.7656250596046448,21.998519897460938,6.07960319519043,71.94998931884766,34.59,0
-0.6451520919799805,-0.0625000074505806,0.7656250596046448,18.412891387939453,6.079619884490967,71.94998931884766,34.59,0
-0.6491280198097229,-0.0625000074505806,0.7656250596046448,13.44282341003418,6.076417446136475,71.97865295410156,34.59,0
-0.651679515838623,-0.0625000074505806,0.7656250596046448,8.186173439025879,6.074362277984619,71.9970474243164,34.59,0
-0.647719144821167,-0.0625000074505806,0.7656250596046448,3.143277645111084,6.073043346405029,72.00885009765625,34.59,0
-0.6451776027679443,-0.0625000074505806,0.7656250596046448,-2.7261555194854736,6.072196960449219,72.01642608642578,34.59,0
-0.6491443514823914,-0.0625000074505806,0.7656250596046448,-10.086143493652344,6.071653842926025,72.02128601074219,34.59,0
-0.6460922360420227,-0.0625000074505806,0.7656250596046448,-17.55719566345215,6.071305274963379,72.02440643310547,34.59,0
-0.6497313380241394,-0.0625000074505806,0.7656250596046448,-23.670074462890625,6.071081638336182,72.02641296386719,34.59,0
-0.652066707611084,-0.0625000074505806,0.7712228298187256,-29.51681137084961,6.0709381103515625,72.02769470214844,34.59,0
-0.6535654067993164,-0.0625000074505806,0.7692173719406128,-37.75071334838867,6.070846080780029,72.02851867675781,34.59,0
-0.6489294171333313,-0.0625000074505806,0.7679303884506226,-48.5698356628418,6.070786952972412,72.029052734375,34.59,0
-0.6459543108940125,-0.0625000074505806,0.76710444688797,-57.02835464477539,6.070748805999756,72.02938842773438,34.59,0
-0.6440450549125671,-0.0625000074505806,0.7665744423866272,-55.3630485534668,6.070724487304688,72.02960968017578,34.59,0
-0.648417592048645,-0.0625000074505806,0.766234278678894,-39.526973724365234,6.070708751678467,72.02974700927734,34.59,0
-0.6512235999107361,-0.0625000074505806,0.7660160064697266,-13.171050071716309,6.0706987380981445,72.02983856201172,34.59,0
-0.6530243754386902,-0.0625000074505806,0.7658759355545044,15.472018241882324,6.070692539215088,72.02989959716797,34.59,0
-0.6541799902915955,-0.0625000074505806,0.7657860517501831,39.50679397583008,6.070688247680664,72.02993774414062,34.59,0
-0.6493238210678101,-0.0625000074505806,0.7657283544540405,56.12751007080078,6.0711445808410645,72.02996063232422,34.59,0
-0.6462073922157288,-0.0625000074505806,0.765691339969635,65.73686981201172,6.071437358856201,72.02997589111328,34.59,0
-0.6498052477836609,-0.0625000074505806,0.7656675577163696,69.70390319824219,6.071625232696533,72.02998352050781,34.59,0
-0.6465163826942444,-0.0625000074505806,0.7656522989273071,68.71371459960938,6.071745872497559,72.02999114990234,34.59,0
-0.644405722618103,-0.0625000074505806,0.765642523765564,63.27403259277344,6.071823120117188,72.02999114990234,34.59,0
-0.6486490368843079,-0.0625000074505806,0.7656362652778625,55.29777526855469,6.071872711181641,72.02999114990234,34.59,0
-0.6513721346855164,-0.0625000074505806,0.7656322121620178,47.69276428222656,6.07190465927124,72.02999114990234,34.59,0
-0.6475219130516052,-0.0625000074505806,0.7656296491622925,41.98831558227539,6.071925163269043,72.02999114990234,34.59,0
-0.650648832321167,-0.0625000074505806,0.7656279802322388,37.3602294921875,6.071479320526123,72.02999114990234,34.57,0
-0.6526554822921753,-0.0625000074505806,0.7656269073486328,32.237064361572266,6.071193218231201,72.02999114990234,34.57,0
-0.6483454704284668,-0.0625000074505806,0.7656262516975403,25.86113166809082,6.071009635925293,72.02999114990234,34.57,0
-0.6455795764923096,-0.0625000074505806,0.7656257748603821,18.21192741394043,6.070891857147217,72.02999114990234,34.57,0
-0.6494023203849792,-0.0625000074505806,0.7656254768371582,9.362275123596191,6.070816516876221,72.02999114990234,34.57,0
-0.646257758140564,-0.0625000074505806,0.7656252980232239,-0.5945173501968384,6.070767879486084,72.02999114990234,34.57,0
