acc_x,acc_y,acc_z,bvp,eda,hr,temp,label
0.0,0.0,0.0,0.0,0.0,0.0,24.11,0
-0.0494791641831398,-0.1223958283662796,0.1015624925494194,-1.3183332681655884,0.2377594709396362,12.97166633605957,24.11,0
-0.1158536598086357,-0.2907774448394775,0.2294207364320755,-3.800487756729126,0.5567051768302917,30.37268447875977,24.11,0
-0.1686046570539474,-0.4372404515743255,0.3406353890895843,-7.024784088134766,0.834132969379425,45.50857162475586,24.11,0
-0.21242755651474,-0.5280784964561462,0.4217724800109863,-9.906631469726562,1.0365315675735474,56.55102157592773,24.11,0
-0.2311180531978607,-0.6225180625915527,0.4657262563705444,-11.798035621643066,1.1735639572143557,64.0272216796875,24.11,0
-0.2600409388542175,-0.6789308786392212,0.4834601283073425,-13.280738830566406,1.263476848602295,68.93268585205078,24.11,0
-0.2676142156124115,-0.704308032989502,0.5005248188972473,-15.683605194091797,1.3217090368270874,72.1097183227539,24.11,0
-0.2724927067756653,-0.7430160045623779,0.5003370642662048,-19.757328033447266,1.329422950744629,74.1562728881836,24.11,0
-0.2868176102638244,-0.7455166578292847,0.5002163648605347,-24.03348731994629,1.3343809843063354,75.4716796875,24.11,0
-0.2736304700374603,-0.7471224665641785,0.5001388788223267,-25.189144134521484,1.3375648260116575,76.31636810302734,24.11,0
-0.2763599753379822,-0.7481532692909241,0.5000891089439392,-22.19828414916992,1.3396085500717163,76.85858917236328,24.11,0
-0.2893069088459015,-0.7488148212432861,0.5000571608543396,-18.97828865051269,1.3409202098846436,77.20658874511719,24.11,0
-0.3032135665416717,-0.7548370957374573,0.5056343674659729,-20.222036361694336,1.3417620658874512,77.42992401123047,24.11,0
-0.3121382296085357,-0.7698974013328552,0.4980180859565735,-26.214916229248047,1.342302322387695,77.57325744628906,24.11,0
-0.3234633505344391,-0.773964524269104,0.4987281262874603,-34.119876861572266,1.342648983001709,77.66523742675781,24.11,0
-0.3251334130764007,-0.7765746116638184,0.5047815442085266,-42.21653366088867,1.347461819648743,77.7242660522461,24.11,0
-0.3318029344081878,-0.7782496213912964,0.5086662769317627,-50.91268157958984,1.350550413131714,77.76214599609375,24.11,0
-0.3304852843284607,-0.7681289911270142,0.5111593008041382,-61.100563049316406,1.3525325059890747,77.78645324707031,24.11,0
-0.3296397030353546,-0.7672319412231445,0.5071613788604736,-72.912109375,1.3538044691085815,77.80205535888672,24.11,0
-0.3234992623329162,-0.766656219959259,0.4934002161026001,-85.88027954101562,1.3546208143234253,77.81206512451172,24.11,0
-0.3139609098434448,-0.7662867903709412,0.484569102525711,-99.50471496582033,1.3551446199417114,77.81848907470703,24.11,0
-0.3022419810295105,-0.7660496830940247,0.4677062332630157,-113.90497589111328,1.3554807901382446,77.82261657714844,24.11,0
-0.3003192245960235,-0.7714952826499939,0.4512868523597717,-130.6409912109375,1.3556965589523315,77.82526397705078,24.11,0
-0.3046830892562866,-0.7805877327919006,0.4351520538330078,-149.3345184326172,1.3829189538955688,77.82695770263672,24.11,0
-0.3018857836723327,-0.7864227890968323,0.4136021137237549,-161.39901733398438,1.4003887176513672,77.82804870605469,24.11,0
-0.2944928705692291,-0.7901673913002014,0.3997726142406463,-152.6578826904297,1.4115997552871704,77.82875061035156,24.11,0
-0.2785529494285583,-0.7757771015167236,0.3741043210029602,-114.90904235839844,1.4187943935394287,77.8292007446289,24.11,0
-0.2795192003250122,-0.7609444856643677,0.3464363217353821,-52.09608840942383,1.42341148853302,77.8294906616211,24.11,0
-0.3193236887454986,-0.7514257431030273,0.323082834482193,21.621166229248047,1.426374435424805,77.82967376708984,24.11,0
-0.3672590255737304,-0.7565127611160278,0.3080959022045135,87.2356185913086,1.4282759428024292,77.82978820800781,24.11,0
-0.4092167019844055,-0.7653750777244568,0.2984781563282013,131.3601837158203,1.429496169090271,77.82986450195312,24.11,0
-0.4361427426338196,-0.7878556847572327,0.3146971464157104,154.53221130371094,1.435328483581543,80.29472351074219,24.11,0
-0.4534223079681396,-0.8190758228302002,0.3251055479049682,165.61590576171875,1.4390714168548584,81.87652587890625,24.11,0
-0.4589135646820068,-0.8726977109909058,0.3429806232452392,171.3530731201172,1.441473364830017,82.89163970947266,24.11,0
-0.4456442296504974,-0.9295002818107604,0.3544518053531647,175.2104034423828,1.4430148601531982,83.54308319091797,24.11,0
-0.4259331822395324,-0.9603551030158995,0.361813336610794,180.150634765625,1.4440040588378906,83.96113586425781,24.11,0
-0.4132837653160095,-0.9689604043960572,0.3609397709369659,187.45169067382807,1.4446388483047483,84.22942352294922,24.11,0
-0.3995683193206787,-0.9632872343063354,0.3603791892528534,195.6766815185547,1.4450461864471436,84.40159606933594,24.11,0
-0.3683754503726959,-0.9372554421424866,0.3656172156333923,202.98989868164065,1.4453076124191284,84.5120849609375,24.11,0
-0.3091732263565063,-0.9093542098999025,0.3689786791801452,209.34542846679688,1.4473118782043457,84.58299255371094,24.11,0
-0.2655828595161438,-0.8914487957954407,0.3599403202533722,215.5413360595703,1.448598027229309,84.62849426269531,24.11,0
-0.2544023990631103,-0.8967514634132385,0.3205533623695373,221.8426055908203,1.4494234323501587,84.6576919555664,24.11,0
-0.2640207409858703,-0.9113499522209167,0.2840815484523773,228.2222442626953,1.4499530792236328,84.67642974853516,24.11,0
-0.2757910192012787,-0.93191397190094,0.232687160372734,232.02972412109372,1.4502930641174316,84.6884536743164,24.11,0
-0.2665511965751648,-0.9786974191665648,0.1773141026496887,224.9470672607422,1.4505112171173096,84.69617462158203,24.11,0
-0.2550238370895386,-1.036709189414978,0.1417788565158844,197.67037963867188,1.4506511688232422,84.70112609863281,24.11,0
-0.2364306896924972,-1.096328854560852,0.1077788323163986,147.61807250976562,1.4507410526275637,84.70430755615234,24.11,0
-0.2133031189441681,-1.1177960634231567,0.0859595760703086,78.5323715209961,1.4475854635238647,84.70634460449219,24.11,0
-0.2152545005083084,-1.1147791147232056,0.0775550082325935,-1.281100511550903,1.4455604553222656,84.70765686035156,24.11,0
-0.2221045643091201,-1.0736585855484009,0.077759213745594,-76.37865447998047,1.4442609548568726,84.70849609375,24.11,0
-0.2097072154283523,-1.013683199882507,0.0722924843430519,-130.19659423828125,1.4434269666671753,84.70903778076172,24.11,0
-0.1849579960107803,-0.9472055435180664,0.0631864815950393,-158.3998565673828,1.4428917169570925,84.70938110351562,24.11,0
-0.1746731400489807,-0.9101418256759644,0.0573427714407444,-168.61741638183594,1.4425482749938965,84.70960235595703,24.11,0
-0.1736706793308258,-0.9087475538253784,0.0423970632255077,-168.131103515625,1.442327857017517,84.70974731445312,24.11,0
-0.1842229068279266,-0.9302439093589784,0.0272079948335886,-159.7295684814453,1.4421863555908203,84.7098388671875,24.11,0
-0.1965924948453903,-0.9328434467315674,0.0230582989752292,-146.19833374023438,1.4443905353546145,84.70989990234375,24.13,0
-0.2213239073753357,-0.9009250402450562,0.0539819113910198,-131.11270141601562,1.4458050727844238,84.7099380493164,24.13,0
-0.2371951043605804,-0.8692461252212524,0.0850224494934082,-116.3443603515625,1.446712851524353,84.7099609375,24.13,0
-0.247380331158638,-0.8321231007575989,0.1329313516616821,-102.05906677246094,1.4472954273223877,84.70997619628906,24.13,0
-0.2371232956647873,-0.8194952011108398,0.1804698556661605,-88.4527816772461,1.447669267654419,84.7099838256836,24.13,0
-0.224943146109581,-0.8169891238212585,0.2165751010179519,-76.2459487915039,1.447909235954285,84.70999145507812,24.13,0
-0.2283221781253814,-0.8321741819381714,0.2453431487083435,-65.52117156982422,1.4480632543563845,84.70999145507812,24.13,0
-0.2416861951351165,-0.8531146049499512,0.2694025933742523,-55.29966354370117,1.448162078857422,84.70999145507812,24.13,0
-0.26145800948143,-0.9113351702690125,0.2848425507545471,-45.161094665527344,1.4477665424346924,86.7413101196289,24.13,0
-0.2629508674144745,-0.9990777373313904,0.2835554778575897,-36.172019958496094,1.4475127458572388,88.0448989868164,24.13,0
-0.2583111226558685,-1.0497881174087524,0.2715339660644531,-29.256925582885746,1.4473497867584229,88.88146209716797,24.13,0
-0.2553336024284363,-1.0879288911819458,0.2526237070560455,-23.837589263916016,1.4472452402114868,89.41832733154297,24.13,0
-0.2702161073684692,-1.1291987895965576,0.2180970907211303,-18.876585006713867,1.4471781253814695,89.76285552978516,24.13,0
-0.318951278924942,-1.150085687637329,0.1679510325193405,-14.245537757873535,1.447135090827942,89.98394775390625,24.13,0
-0.3502267003059387,-1.1075118780136108,0.118976853787899,-10.417363166809082,1.447107434272766,90.12583923339844,24.13,0
-0.3591019213199615,-1.046603798866272,0.0763524994254112,-7.473430633544922,1.447089672088623,90.2168960571289,24.13,0
-0.3424064218997955,-0.9795276522636414,0.04340086504817,-5.010972023010254,1.4479961395263672,90.27532958984376,24.13,0
-0.3148989081382751,-0.9476776123046876,0.0166566260159015,-2.728523015975952,1.448577880859375,90.31282806396484,24.13,0
-0.2748550474643707,-0.988813579082489,-0.0061040581203997,-0.6762362122535706,1.448951244354248,90.3368911743164,24.13,0
-0.2211683392524719,-1.0376033782958984,-0.0263083297759294,1.0456342697143557,1.4491908550262451,90.35233306884766,24.13,0
-0.1811175346374511,-1.052120566368103,-0.0392742715775966,2.3799164295196533,1.4493446350097656,90.36224365234376,24.13,0
-0.1778063327074051,-1.01665461063385,-0.04759506508708,3.189608335494995,1.4494433403015137,90.3686065673828,24.13,0
-0.1924747079610824,-0.9715035557746888,-0.0473370961844921,3.311556100845337,1.4495066404342651,90.37268829345705,24.13,0
-0.2186813503503799,-0.9033437967300416,-0.0415737740695476,2.748534202575684,1.449547290802002,90.37530517578124,24.13,0
-0.2243037223815918,-0.8596027493476868,-0.0154841048642992,1.7423555850982666,1.447737216949463,90.37698364257812,24.13,0
-0.2223140597343444,-0.8427278399467468,0.0180520638823509,0.7061473727226257,1.44657564163208,90.37806701660156,24.13,0
-0.2042438834905624,-0.8430940508842468,0.0731602907180786,0.1271503418684005,1.445830225944519,90.3787612915039,24.13,0
-0.1814519315958023,-0.848926842212677,0.1141233593225479,0.1747447401285171,1.4453518390655518,90.37920379638672,24.13,0
-0.1444342732429504,-0.8582677245140076,0.1180199980735778,0.4703986942768097,1.4450448751449585,90.37948608398438,24.13,0
-0.1262762546539306,-0.8642621636390686,0.114922858774662,0.5634028315544128,1.444847822189331,90.37966918945312,24.13,0
-0.1258190274238586,-0.8737068772315979,0.112935297191143,0.4224632978439331,1.4447214603424072,90.3797836303711,24.13,0
-0.147916704416275,-0.9021590352058412,0.1116597950458526,0.2209565788507461,1.4446402788162231,90.3798599243164,24.13,0
-0.1676954925060272,-0.9484068751335144,0.1108412519097328,0.0414850898087024,1.4478018283843994,90.3799057006836,24.09,0
-0.169192835688591,-1.022868275642395,0.0935226306319236,-0.0127855874598026,1.4498306512832642,90.37993621826172,24.09,0
-0.1533604115247726,-1.098642110824585,0.0712129920721054,0.0813593342900276,1.4511326551437378,90.37995910644533,24.09,0
-0.1543956249952316,-1.141671657562256,0.0568959489464759,-0.0051094684749841,1.4519681930541992,90.37997436523438,24.09,0
-0.2110377103090286,-1.0965144634246826,0.0477080941200256,-0.5944039225578308,1.4525043964385986,90.3799819946289,24.09,0
-0.2529851198196411,-1.0171552896499634,0.0362140834331512,-1.567286729812622,1.4528485536575315,90.37998962402344,24.09,0
-0.2631112337112427,-0.943835973739624,0.0064467908814549,-2.54271936416626,1.4530694484710691,90.37998962402344,24.09,0
-0.2528162598609924,-0.9807505011558532,-0.0126561438664793,-3.1866087913513184,1.4532111883163452,90.37998962402344,24.09,0
-0.2350139915943145,-1.010037899017334,-0.0193175338208675,-3.3024661540985107,1.4528428316116333,91.95632934570312,24.09,0
-0.2179917395114898,-1.0008440017700195,-0.0123968813568353,-2.903916835784912,1.452606439590454,92.96793365478516,24.09,0
-0.2182633876800537,-0.97255277633667,-0.0023578305263072,-2.2433197498321533,1.452454686164856,93.61711883544922,24.09,0
-0.2576221525669098,-0.9096148610115052,0.0152802029624581,-1.6581705808639526,1.4523574113845823,94.03372955322266,24.09,0
-0.2884781062602997,-0.8524316549301147,0.0489903762936592,-1.2539949417114258,1.452294945716858,94.30108642578124,24.09,0
-0.2970841228961944,-0.8157347440719604,0.0874169468879699,-0.7904114723205566,1.4522548913955688,94.47266387939452,24.09,0
-0.2802158892154693,-0.8145758509635925,0.1344680041074752,-0.045088343322277,1.452229142189026,94.58277130126952,24.09,0
-0.2693908214569092,-0.8250277042388916,0.1758582144975662,0.8631262183189392,1.4522125720977783,94.65342712402344,24.09,0
-0.2624439001083374,-0.8485284447669983,0.2136156111955642,1.65733802318573,1.4489887952804563,94.69876861572266,24.09,0
-0.2803768813610077,-0.9027943015098572,0.226650595664978,2.2780773639678955,1.4469199180603027,94.72786712646484,24.09,0
-0.2974829971790313,-0.9600100517272948,0.223820149898529,2.8089873790740967,1.4455922842025757,94.74654388427734,24.09,0
-0.3028629422187805,-1.0415101051330566,0.2052104026079177,3.217763900756836,1.4447402954101562,94.75852966308594,24.09,0
-0.2951199412345886,-1.1106053590774536,0.1820721924304962,3.3403725624084477,1.4441934823989868,94.76622009277344,24.09,0
-0.301346480846405,-1.2165223360061646,0.1392345428466797,3.1611101627349854,1.4438426494598389,94.77115631103516,24.09,0
-0.3109400868415832,-1.267700433731079,0.1005482673645019,2.981583595275879,1.4436174631118774,94.77432250976562,24.09,0
-0.3282922506332397,-1.233370304107666,0.0589283145964145,2.9595208168029785,1.443472981452942,94.77635955810548,24.09,0
-0.3338301181793213,-1.116176962852478,0.0266212522983551,2.7519030570983887,1.444757342338562,94.77766418457033,24.09,0
-0.3261884450912475,-1.0409690141677856,0.0002906641457229,1.9773849248886108,1.445581555366516,94.77850341796876,24.09,0
-0.2821000218391418,-1.0262916088104248,-0.0334001146256923,0.7065074443817139,1.446110486984253,94.77903747558594,24.09,0
-0.2370132952928543,-1.0448613166809082,-0.0550209172070026,-0.6966109871864319,1.446449875831604,94.77938079833984,24.09,0
-0.1800903677940368,-1.0847671031951904,-0.0912870019674301,-1.82275390625,1.4466676712036133,94.77960205078124,24.09,0
-0.1547560542821884,-1.0599963665008545,-0.1201582625508308,-2.391396760940552,1.4468075037002563,94.77974700927734,24.09,0
-0.155291274189949,-1.0105133056640625,-0.1386861801147461,-2.494791030883789,1.446897268295288,94.77983856201172,24.09,0
-0.1892213970422744,-0.9283779859542848,-0.1449785530567169,-2.4142580032348637,1.4469548463821411,94.77989959716795,24.09,0
-0.2277891188859939,-0.8644727468490601,-0.137821078300476,-2.2586817741394043,1.4428603649139404,94.77993774414062,24.13,0
-0.2469418793916702,-0.81226646900177,-0.1052389591932296,-2.0800251960754395,1.440232753753662,94.77996063232422,24.13,0
-0.2256463766098022,-0.7731657028198242,-0.0507429838180542,-2.094346523284912,1.4385465383529663,94.77997589111328,24.13,0
-0.2063823789358139,-0.7480731010437012,0.0010227202437818,-2.4116384983062744,1.4374643564224243,94.7799835205078,24.13,0
-0.1828242987394333,-0.7487634420394897,0.0342429690062999,-2.758561372756958,1.436769962310791,94.77999114990234,24.13,0
-0.167706087231636,-0.7715975642204285,0.0387684889137744,-2.719668388366699,1.4363243579864502,94.77999114990234,24.13,0
-0.1636018604040146,-0.8366311192512512,0.047270480543375,-2.25046968460083,1.436038374900818,94.77999114990234,24.13,0
-0.160968005657196,-0.911952555179596,0.0527265705168247,-1.7236627340316772,1.4358547925949097,94.77999114990234,24.13,0
-0.1704732924699783,-0.9770828485488892,0.0562279745936393,-1.4106664657592771,1.4375730752944946,96.0410614013672,24.13,0
-0.1877687871456146,-1.080455303192139,0.069670520722866,-1.1345694065093994,1.4386757612228394,96.850341796875,24.13,0
-0.1876724958419799,-1.1691848039627075,0.0726994052529335,-0.5633028745651245,1.4393833875656128,97.36969757080078,24.13,0
-0.2267951220273971,-1.1869418621063232,0.0578498430550098,0.2976985573768616,1.4398375749588013,97.70298767089844,24.13,0
-0.2686950862407684,-1.097577452659607,0.0819068923592567,1.0222033262252808,1.440129041671753,97.9168701171875,24.13,0
-0.2899863123893738,-1.0122395753860474,0.0917475521564483,1.0930655002593994,1.440316081047058,98.05413055419922,24.13,0
-0.2980520129203796,-0.9630724787712096,0.0868671685457229,0.4041127562522888,1.4404361248016355,98.14221954345705,24.13,0
-0.2864347994327545,-0.9539109468460084,0.0837352201342582,-0.514500081539154,1.4405131340026855,98.19874572753906,24.13,0
-0.2565884292125702,-0.964824914932251,0.0817253142595291,-0.9857879281044006,1.4405626058578491,98.23502349853516,24.13,0
-0.2374347448348999,-0.9606333374977112,0.0748376995325088,-0.8260810375213623,1.4405943155288696,98.25830078125,24.13,0
-0.230740800499916,-0.9411500692367554,0.0704176276922226,-0.3402547538280487,1.4406147003173828,98.2732391357422,24.13,0
-0.2488361001014709,-0.8950601816177368,0.0731788501143455,0.1255713254213333,1.4406276941299438,98.28282928466795,24.13,0
-0.2604486346244812,-0.8598846197128296,0.0749508440494537,0.3636079430580139,1.4406360387802124,98.28897857666016,24.13,0
-0.2567053437232971,-0.8317131996154785,0.092881329357624,0.3014115691184997,1.4406414031982422,98.29293060302734,24.13,0
-0.2487053275108337,-0.8248299360275269,0.1267791837453842,0.1898460239171981,1.4406448602676392,98.29546356201172,24.13,0
-0.2379736006259918,-0.8260104060173035,0.1597284227609634,0.4514292180538177,1.4406471252441406,98.29708862304688,24.13,0
-0.2422821521759033,-0.8379635214805603,0.1752755790948867,1.1674323081970217,1.437435269355774,98.29813385009766,24.13,0
-0.2282538115978241,-0.8960143327713013,0.1908506155014038,1.96368408203125,1.435374140739441,98.2988052368164,24.13,0
-0.230446770787239,-0.9612568616867064,0.2008457779884338,2.474672555923462,1.4340513944625854,98.29923248291016,24.13,0
-0.259842962026596,-1.036712408065796,0.1904667764902115,2.6700401306152344,1.4332025051116943,98.29950714111328,24.13,0
-0.2843055129051208,-1.0795376300811768,0.1726105809211731,2.7416772842407227,1.4326577186584473,98.2996826171875,24.13,0
-0.266417533159256,-1.1126182079315186,0.1499559581279754,2.9166226387023926,1.4323081970214844,98.29979705810548,24.13,0
-0.2661336064338684,-1.145042896270752,0.1298197507858276,3.251012086868286,1.4320838451385498,98.29987335205078,24.13,0
-0.2939402759075165,-1.1602535247802734,0.1057019382715225,3.4906821250915527,1.4319398403167725,98.29991912841795,24.13,0
-0.294991672039032,-1.1084392070770264,0.0790289714932441,3.268317937850952,1.4327657222747805,98.2999496459961,24.15,0
-0.2900686264038086,-1.0416011810302734,0.0563140176236629,2.455675840377808,1.433295726776123,98.29997253417967,24.15,0
-0.2925070524215698,-0.9539262056350708,0.0361390933394432,1.1460022926330566,1.4336358308792114,98.29998016357422,24.15,0
-0.2940719127655029,-0.8976614475250244,0.0175942163914442,-0.4790547788143158,1.433854103088379,98.29998779296876,24.15,0
-0.2838805913925171,-0.917531669139862,-0.0111001431941986,-1.9697448015213013,1.433994174003601,98.29999542236328,24.15,0
-0.2661448419094085,-0.980663239955902,-0.0239167567342519,-2.768750667572021,1.4340840578079224,98.29999542236328,24.15,0
-0.2547630667686462,-1.0267752408981323,-0.0265439469367265,-2.82651948928833,1.434141755104065,98.29999542236328,24.15,0
-0.2250677943229675,-1.0339760780334473,-0.0338276997208595,-2.645055055618286,1.4341787099838257,98.29999542236328,24.15,0
-0.2060110718011856,-1.021803855895996,-0.0440997667610645,-2.593087911605835,1.4305299520492554,99.49657440185548,24.15,0
-0.1993793398141861,-0.9748080372810364,-0.0506917908787727,-2.602729320526123,1.4281883239746094,100.26447296142578,24.15,0
-0.2063190191984176,-0.9222577214241028,-0.0493243969976902,-2.6268296241760254,1.4266856908798218,100.75726318359376,24.15,0
-0.2051747441291809,-0.8885339498519897,-0.0428491085767746,-2.889493465423584,1.4257214069366455,101.0735092163086,24.15,0
-0.1932448595762252,-0.8445008993148804,-0.0107047678902745,-3.441391468048096,1.425102472305298,101.27645874023438,24.15,0
-0.1687956154346466,-0.8162429928779602,0.0211191698908805,-3.971114158630371,1.4247053861618042,101.40670013427734,24.15,0
-0.1475077271461486,-0.8093042373657227,0.0471397154033184,-4.146261215209961,1.4244505167007446,101.4902801513672,24.15,0
-0.1282486170530319,-0.8104491233825684,0.0638381987810134,-3.8144211769104,1.424286961555481,101.54391479492188,24.15,0
-0.1270847767591476,-0.8167816400527954,0.0801521018147468,-3.0569138526916504,1.4241819381713867,101.57833862304688,24.15,0
-0.1487289816141128,-0.8600298762321472,0.0850236490368843,-2.2519400119781494,1.4241145849227903,101.60042572021484,24.15,0
-0.1626189947128296,-0.9157730340957642,0.0881499275565147,-1.4738260507583618,1.4240713119506836,101.6146011352539,24.15,0
-0.1603372544050216,-1.0187190771102903,0.0845584198832511,-0.2257189899682998,1.4240435361862185,101.62370300292967,24.15,0
-0.1812640577554702,-1.1463594436645508,0.0766558274626731,1.5389569997787476,1.4240257740020752,101.6295394897461,24.15,0
-0.2114870101213455,-1.2058805227279663,0.0715843960642814,2.9257874488830566,1.4240143299102783,101.63328552246094,24.15,0
-0.2476756721735,-1.132122278213501,0.0571342930197715,3.2497284412384038,1.4240070581436155,101.63568878173828,24.15,0
-0.2708994746208191,-1.0512018203735352,0.0366654992103576,2.755430221557617,1.4240024089813232,101.6372299194336,24.15,0
-0.2914009392261505,-1.010467290878296,0.0235298071056604,1.9903961420059204,1.4249175786972046,101.63822174072266,24.15,0
-0.2709709703922272,-0.9899239540100098,0.0206978507339954,1.3346428871154783,1.4255049228668213,101.63885498046876,24.15,0
-0.2354690879583358,-0.9767404794692992,0.0244782380759716,0.9854696989059448,1.4258818626403809,101.63926696777344,24.15,0
-0.2182838022708892,-0.9458889365196228,0.0213064979761838,0.897528350353241,1.4261237382888794,101.6395263671875,24.15,0
-0.2240485996007919,-0.9148946404457092,0.019271058961749,0.826762318611145,1.4262789487838743,101.6396942138672,24.15,0
-0.2613347470760345,-0.8726131916046143,0.0291603803634643,0.5520639419555664,1.4263784885406494,101.63980102539062,24.15,0
-0.3020561933517456,-0.8286861181259155,0.0523000992834568,0.0891722589731216,1.4264423847198486,101.6398696899414,24.15,0
-0.3337866365909576,-0.8004962205886841,0.0895409360527992,-0.2329629957675933,1.426483392715454,101.6399154663086,24.15,0
-0.3373560905456543,-0.8047966361045837,0.1526243835687637,-0.0527726970613002,1.4237555265426636,101.63994598388672,24.13,0
-0.3228534460067749,-0.8243497610092163,0.1987054795026779,0.5500933527946472,1.4220049381256104,101.63996887207033,24.13,0
-0.2911553680896759,-0.8928755521774292,0.2226798981428146,1.0587856769561768,1.4208815097808838,101.63997650146484,24.13,0
-0.270813375711441,-0.9816336631774902,0.2212719768285751,1.1452025175094604,1.4201605319976809,101.63998413085938,24.13,0
-0.2633568346500397,-1.0609846115112305,0.2035751342773437,1.0716872215270996,1.419697880744934,101.6399917602539,24.13,0
-0.2697671949863434,-1.128700852394104,0.1698272228240966,1.214385747909546,1.419400930404663,101.6399917602539,24.13,0
-0.2626854479312897,-1.1497660875320437,0.1369742006063461,1.5459940433502195,1.4192103147506714,101.6399917602539,24.13,0
-0.2525430023670196,-1.1800779104232788,0.0934999287128448,1.887773871421814,1.4190880060195925,101.6399917602539,24.13,0
-0.2740230560302734,-1.1939325332641602,0.0544050969183445,2.2002553939819336,1.4199273586273191,102.60370635986328,24.13,0
-0.2934054732322693,-1.1636391878128052,0.023718511685729,2.3148062229156494,1.420466065406799,103.22216796875,24.13,0
-0.3002462387084961,-1.0602320432662964,0.0040256259962916,1.9082533121109009,1.4208117723464966,103.61905670166016,24.13,0
-0.2934406995773315,-0.9602845907211304,-0.0086121344938874,1.009652614593506,1.4210336208343506,103.8737564086914,24.13,0
-0.2834755182266235,-0.9129374027252196,-0.0335156433284282,0.092637725174427,1.4211759567260742,104.0372085571289,24.13,0
-0.2546893358230591,-0.932932674884796,-0.038301732391119,-0.4528587460517883,1.42126727104187,104.14210510253906,24.13,0
-0.2474115639925003,-0.962557852268219,-0.0469709448516368,-0.695449709892273,1.421325922012329,104.20941925048828,24.13,0
-0.2315455675125122,-0.9871673583984376,-0.0469365715980529,-0.9335298538208008,1.4213635921478271,104.25261688232422,24.13,0
-0.2101681381464004,-1.0029603242874146,-0.0525122880935668,-1.243949294090271,1.4200105667114258,104.28034210205078,24.13,0
-0.1852537840604782,-0.9963020086288452,-0.0560904629528522,-1.4144980907440186,1.4191423654556274,104.29813385009766,24.13,0
-0.1860585063695907,-0.9528446197509766,-0.0639845058321952,-1.3627305030822754,1.418585181236267,104.3095474243164,24.13,0
-0.2033682614564895,-0.9081628918647766,-0.069050446152687,-1.3259265422821045,1.4182275533676147,104.3168716430664,24.13,0
-0.2144766598939895,-0.8626953959465027,-0.0611059255897998,-1.5315927267074585,1.4179980754852295,104.3215789794922,24.13,0
-0.2160076200962066,-0.8335169553756714,-0.0504098162055015,-1.9716789722442627,1.4178508520126345,104.32460021972656,24.13,0
-0.1890012323856353,-0.848378598690033,-0.0379478931427001,-2.46189022064209,1.4177563190460205,104.3265380859375,24.13,0
-0.1604745388031005,-0.8859047889709473,-0.0243527740240097,-2.665419816970825,1.4176956415176392,104.3277816772461,24.13,0
-0.1421677470207214,-0.915584683418274,-0.0044326595962047,-2.362541675567627,1.4194931983947754,104.32857513427734,24.13,0
-0.1248217225074768,-0.9626204371452332,0.0083509227260947,-1.7848364114761353,1.4206467866897583,104.32908630371094,24.13,0
-0.1248855888843536,-1.026391863822937,0.0221524648368358,-1.299456000328064,1.4213870763778689,104.32941436767578,24.13,0
-0.1305243521928787,-1.117696762084961,0.0589983724057674,-0.8661592602729797,1.4218621253967283,104.32962799072266,24.13,0
-0.134142979979515,-1.1483020782470703,0.105035051703453,-0.1331072300672531,1.42216694355011,104.32976531982422,24.13,0
-0.1364652067422866,-1.1119650602340698,0.1289809644222259,1.0395082235336304,1.4223625659942627,104.32984924316406,24.13,0
-0.1547488123178482,-0.987886130809784,0.1163592040538787,2.2505948543548584,1.4224880933761597,104.32990264892578,24.13,0
-0.177677720785141,-0.908259391784668,0.1026615127921104,2.7770204544067383,1.422568678855896,104.32994079589844,24.13,0
-0.2035877257585525,-0.8907461762428284,0.0882733464241027,2.269362211227417,1.423079252243042,104.32996368408205,24.13,0
-0.1866286247968673,-0.9130938649177552,0.0734420791268348,1.187652826309204,1.423406958580017,104.3299789428711,24.13,0
-0.1757452487945556,-0.9330331087112428,0.0639242231845855,0.1889550685882568,1.423617243766785,104.32998657226562,24.13,0
-0.2023475766181945,-0.9234378337860109,0.0634139850735664,-0.5880894660949707,1.4237521886825562,104.32999420166016,24.13,0
-0.236212745308876,-0.8948890566825867,0.0630865395069122,-1.22288978099823,1.4238388538360596,104.32999420166016,24.13,0
-0.2859343290328979,-0.8541769981384277,0.068474180996418,-1.35799241065979,1.4238944053649902,104.32999420166016,24.13,0
-0.295451670885086,-0.8392459154129028,0.0831272080540657,-0.6636919975280762,1.423930048942566,104.32999420166016,24.13,0
-0.2959615886211395,-0.8352617621421814,0.0925306752324104,0.4052382111549377,1.4239529371261597,104.32999420166016,24.13,0
-0.279495507478714,-0.8494982719421387,0.1209563761949539,1.1557024717330933,1.4230494499206543,105.15040588378906,24.13,0
-0.274526298046112,-0.8698300123214722,0.1503939032554626,1.5871511697769165,1.4224696159362793,105.6769027709961,24.13,0
-0.2825329005718231,-0.916464388370514,0.1748829931020736,1.96434223651886,1.4220975637435913,106.01477813720705,24.13,0
-0.2932688295841217,-0.9911738634109496,0.1850009113550186,2.095341920852661,1.421858787536621,106.23160552978516,24.13,0
-0.3001585304737091,-1.055911421775818,0.1858962327241897,1.7889091968536377,1.4217054843902588,106.3707504272461,24.13,0
-0.298982173204422,-1.1086517572402954,0.1752752512693405,1.3737212419509888,1.4216071367263794,106.46004486083984,24.13,0
-0.3094228208065033,-1.159290790557861,0.1572637557983398,1.1860941648483276,1.4215439558029177,106.51734924316406,24.13,0
-0.3329163491725921,-1.225374698638916,0.1401072442531585,1.1552503108978271,1.4215034246444702,106.55412292480467,24.13,0
-0.3256020247936249,-1.195012450218201,0.1123038604855537,1.1462042331695557,1.4223957061767578,106.57772827148438,24.13,0
-0.3153103590011596,-1.1139521598815918,0.0888634771108627,1.1583118438720703,1.4229682683944702,106.5928726196289,24.13,0
-0.3087057471275329,-1.000356912612915,0.0626252368092536,1.1445863246917725,1.4233356714248655,106.60259246826172,24.13,0
-0.3100650608539581,-0.9162624478340148,0.0345914959907531,0.9208235144615172,1.4235714673995972,106.60883331298828,24.13,0
-0.3165351748466491,-0.9070776104927064,-0.0057900408282876,0.3723944425582886,1.4237228631973269,106.61283111572266,24.13,0
-0.3150895535945892,-0.9627588391304016,-0.0205090381205081,-0.3808043003082275,1.4238200187683103,106.61540222167967,24.13,0
-0.3029662668704986,-1.0208829641342163,-0.0187592953443527,-1.0647881031036377,1.4238823652267456,106.61705017089844,24.13,0
-0.2671973705291748,-1.063781499862671,-0.0232341848313808,-1.5108946561813354,1.4239223003387451,106.61811065673828,24.13,0
-0.2274496406316757,-1.085713505744934,-0.0317036844789981,-1.6861203908920288,1.424406886100769,106.61878967285156,24.13,0
-0.1739529520273208,-1.0606037378311155,-0.0483344718813896,-1.58361554145813,1.424717903137207,106.61922454833984,24.13,0
-0.1564151793718338,-1.005305290222168,-0.0646049305796623,-1.3136271238327026,1.424917459487915,106.6195068359375,24.13,0
-0.150758221745491,-0.9586224555969238,-0.0750463753938674,-1.2084330320358276,1.4250454902648926,106.61968231201172,24.13,0
-0.1751167923212051,-0.8950774073600769,-0.0593559928238391,-1.5457565784454346,1.4251277446746826,106.61979675292967,24.13,0
-0.1851509511470794,-0.8431023359298706,-0.0436890348792076,-2.1885578632354736,1.425180435180664,106.619873046875,24.13,0
-0.1803947389125824,-0.8153454661369324,-0.0392326563596725,-2.672722101211548,1.4252142906188965,106.6199188232422,24.13,0
-0.1549513787031173,-0.8087282776832581,-0.0195794869214296,-2.7290680408477783,1.4252359867095947,106.61994934082033,24.13,0
-0.1330255270004272,-0.8100795149803162,-0.0013694395311176,-2.4857866764068604,1.4261682033538818,106.6199722290039,24.13,0
-0.1189547702670097,-0.850131094455719,0.0383055917918682,-2.15053391456604,1.4267663955688477,106.61997985839844,24.13,0
-0.1211205199360847,-0.8926272392272949,0.0693645179271698,-1.6917729377746582,1.4271502494812012,106.61998748779295,24.13,0
-0.1169125959277153,-0.947887659072876,0.0836985781788826,-0.9316317439079284,1.4273966550827026,106.6199951171875,24.13,0
-0.1198099702596664,-1.0225350856781006,0.1040928959846496,0.2046293318271637,1.427554726600647,106.6199951171875,24.13,0
-0.1384626626968383,-1.0704394578933716,0.1227785721421241,1.4855328798294067,1.427656173706055,106.6199951171875,24.13,0
-0.1672262102365493,-1.0508017539978027,0.1235744133591651,2.329038381576538,1.4277212619781494,106.6199951171875,24.13,0
-0.1968805491924286,-1.0270038843154907,0.1016940400004386,2.1968276500701904,1.4277631044387815,106.6199951171875,24.13,0
-0.2327043116092682,-1.0341228246688845,0.0764569267630577,1.1805126667022705,1.4287078380584717,107.34367370605467,24.13,0
-0.2444984018802642,-1.0666803121566772,0.0658589750528335,0.0410699546337127,1.4293140172958374,107.80809020996094,24.13,0
-0.2408716231584549,-1.0763782262802124,0.0534600466489791,-0.4393784999847412,1.4297031164169312,108.10612487792967,24.13,0
-0.2553374767303467,-1.0490151643753052,0.0511009022593498,-0.1135867685079574,1.4299527406692505,108.2973861694336,24.13,0
-0.2758163809776306,-1.009063959121704,0.0495869405567646,0.478823184967041,1.4301129579544067,108.42012786865234,24.13,0
-0.3057518899440765,-0.9554367661476136,0.0542131401598453,0.7085296511650085,1.430215835571289,108.4989013671875,24.13,0
-0.3249627649784088,-0.9098263382911682,0.0683775171637535,0.4582761228084564,1.4302818775177002,108.54945373535156,24.13,0
-0.3316934406757355,-0.8861539959907532,0.0830651745200157,0.0827232971787452,1.4303241968154907,108.58189392089844,24.13,0
-0.3192194700241089,-0.8765602111816406,0.1036864146590232,-0.0185644663870334,1.4303513765335083,108.60270690917967,24.13,0
-0.3168121576309204,-0.876001238822937,0.1169199422001838,0.3176833689212799,1.4303687810897827,108.6160659790039,24.13,0
-0.3320606052875519,-0.898033618927002,0.1478035598993301,0.8809776902198792,1.4303799867630005,108.62464141845705,24.13,0
-0.3362484276294708,-0.923368275165558,0.1732206642627716,1.2675455808639526,1.4303871393203735,108.63014221191406,24.13,0
-0.3333381414413452,-0.945224404335022,0.1839341223239898,1.368736982345581,1.430391788482666,108.63367462158205,24.13,0
-0.3258727192878723,-0.998434841632843,0.1852116286754608,1.465919017791748,1.4303947687149048,108.6359405517578,24.13,0
-0.3042885065078735,-1.0381799936294556,0.1804336756467819,1.7038310766220093,1.4303966760635376,108.63739776611328,24.13,0
-0.2848392426967621,-1.1028705835342407,0.1549763679504394,1.895917654037476,1.430397868156433,108.6383285522461,24.13,0
-0.2947489321231842,-1.149983048439026,0.1162482351064682,1.926040768623352,1.4285625219345093,108.63892364501952,24.13,0
-0.3067061603069305,-1.1690216064453125,0.0801991969347,1.8737205266952517,1.4273847341537476,108.63931274414062,24.13,0
-0.3087818324565887,-1.1476527452468872,0.0402716808021068,1.6860936880111694,1.4266289472579956,108.63955688476562,24.13,0
-0.3045161068439483,-1.117146134376526,0.0146484961733222,1.1357765197753906,1.4261438846588137,108.63971710205078,24.13,0
-0.2849853038787842,-1.0583842992782593,-0.0073927617631852,0.2058199346065521,1.4258326292037964,108.63981628417967,24.13,0
-0.2612560093402862,-1.0150766372680664,-0.0383308939635753,-0.7026566863059998,1.4256328344345093,108.63988494873048,24.13,0
-0.2404301315546035,-1.0040775537490845,-0.0581852085888385,-1.1817699670791626,1.4255046844482422,108.63992309570312,24.13,0
-0.2270652800798416,-1.0082144737243652,-0.0709265619516372,-1.2277092933654783,1.425422430038452,108.63995361328124,24.13,0
-0.2184884995222091,-1.010869383811951,-0.0791032314300537,-1.095974683761597,1.4267467260360718,108.63996887207033,24.11,0
-0.2017888575792312,-1.023768663406372,-0.0787527710199356,-1.0114350318908691,1.4275965690612793,108.63997650146484,24.11,0
-0.179876446723938,-1.0096555948257446,-0.0841256380081176,-1.0969027280807495,1.428141951560974,108.63998413085938,24.11,0
-0.1658143252134323,-0.9894030690193176,-0.0875736400485038,-1.32013201713562,1.4284919500350952,108.6399917602539,24.11,0
-0.1679856032133102,-0.9540150761604308,-0.0897863656282424,-1.6210211515426636,1.4287165403366089,108.6399917602539,24.11,0
-0.1805745512247085,-0.9257073402404784,-0.0912063643336296,-2.0792250633239746,1.4288606643676758,108.6399917602539,24.11,0
-0.1830556392669677,-0.8907477259635925,-0.0809220895171165,-2.645549774169922,1.4289531707763672,108.6399917602539,24.11,0
-0.1678545475006103,-0.8739104270935059,-0.063126690685749,-2.9050896167755127,1.4290125370025637,108.6399917602539,24.11,0
-0.1525015830993652,-0.8798985481262207,-0.0517066270112991,-2.5987472534179688,1.4272146224975586,109.2705307006836,24.11,0
-0.1258556097745895,-0.92292582988739,-0.0387801118195056,-2.061809778213501,1.4260607957839966,109.6751708984375,24.11,0
-0.0975602120161056,-0.9617337584495544,-0.0360823906958103,-1.753059983253479,1.425320386886597,109.93484497070312,24.11,0
-0.096195176243782,-0.9922362565994264,-0.0231556016951799,-1.5907478332519531,1.4248452186584473,110.10149383544922,24.11,0
-0.1289058178663253,-0.939039945602417,0.0187267139554023,-1.189231514930725,1.4245402812957764,110.20843505859376,24.11,0
-0.1554954051971435,-0.9049016237258912,0.0512021481990814,-0.3834273815155029,1.424344539642334,110.27706146240234,24.11,0
-0.1781568378210067,-0.922178030014038,0.0944341123104095,0.764224648475647,1.4242188930511477,110.32110595703124,24.11,0
-0.1815041005611419,-0.9500583410263062,0.1277756690979004,2.020195245742798,1.4241383075714111,110.34937286376952,24.11,0
-0.1612610816955566,-0.979145884513855,0.1379768103361129,2.826204776763916,1.4245455265045166,110.36750793457033,24.11,0
-0.1426724940538406,-0.9922147989273072,0.1557188630104065,2.687844038009644,1.424806833267212,110.379150390625,24.11,0
-0.1531345099210739,-1.0117971897125244,0.1671046912670135,1.9398581981658936,1.42497456073761,110.3866195678711,24.11,0
-0.1766417622566223,-1.0187662839889526,0.1856070160865783,1.438348412513733,1.4250822067260742,110.39141082763672,24.11,0
-0.2141184508800506,-1.0120431184768677,0.1806874126195907,1.467600703239441,1.425151228904724,110.3944854736328,24.11,0
-0.2381688356399536,-0.9965330362319946,0.1719325184822082,1.4899556636810305,1.425195574760437,110.3964614868164,24.11,0
-0.2424074411392212,-0.975383996963501,0.1663141399621963,1.0457321405410769,1.4252240657806396,110.3977279663086,24.11,0
-0.2451275289058685,-0.9618117809295654,0.168306365609169,0.4167278409004211,1.425242304801941,110.39854431152344,24.11,0
-0.2468731254339218,-0.9531018733978271,0.1751826256513595,0.1707023829221725,1.4238768815994265,110.39906311035156,24.11,0
-0.2535911202430725,-0.9363168478012084,0.1739976406097412,0.4821348190307617,1.4230005741119385,110.39939880371094,24.11,0
-0.2746956646442413,-0.9087518453598022,0.1676394194364547,1.086825251579285,1.4224382638931274,110.3996124267578,24.11,0
-0.2938371300697326,-0.9190511107444764,0.1691568493843078,1.6217663288116455,1.4220774173736572,110.39974975585938,24.11,0
-0.3061210215091705,-0.976040542125702,0.1757284253835678,1.8074275255203247,1.42184579372406,110.39984130859376,24.11,0
-0.2860152423381805,-1.0294064283370972,0.1631523519754409,1.58622944355011,1.4216971397399902,110.39990234375,24.11,0
-0.2563191950321197,-1.0244691371917725,0.1438862085342407,1.1469234228134155,1.4216017723083496,110.39994049072266,24.11,0
-0.2652508318424225,-0.9653229117393494,0.109131209552288,0.7539423108100891,1.42154061794281,110.39996337890624,24.11,0
-0.2877759635448456,-0.9441595673561096,0.0756319016218185,0.5769837498664856,1.4182881116867063,110.39997863769533,24.13,0
-0.2910357713699341,-0.9473714828491212,0.0485362000763416,0.6282204389572144,1.416200876235962,110.39998626708984,24.13,0
-0.2595410645008087,-0.9830193519592284,0.0255499668419361,0.7721610069274902,1.4148614406585691,110.39999389648438,24.13,0
-0.2281340360641479,-1.0114939212799072,0.0052009490318596,0.8358731865882874,1.4140018224716189,110.39999389648438,24.13,0
-0.2135765850543975,-0.9961805939674376,-0.0134556535631418,0.7334569692611694,1.4134501218795776,110.39999389648438,24.13,0
-0.2154300063848495,-0.9415711760520936,-0.0254283882677555,0.5208465456962585,1.4130960702896118,110.39999389648438,24.13,0
-0.2166194170713424,-0.8897326588630676,-0.0331117995083332,0.2124417722225189,1.412868857383728,110.39999389648438,24.13,0
-0.2005893886089325,-0.8564656972885132,-0.0268470216542482,-0.3580625355243683,1.4127230644226074,110.39999389648438,24.13,0
-0.1679111421108245,-0.846312403678894,-0.0116310995072126,-1.2293225526809692,1.41171133518219,110.95171356201172,24.13,0
-0.1133534833788871,-0.9181654453277588,-0.0074641699902713,-1.992653727531433,1.4110620021820068,111.30577850341795,24.13,0
-0.083939291536808,-1.048243284225464,-0.0327789448201656,-2.213822603225708,1.4106453657150269,111.53299713134766,24.13,0
-0.0762585029006004,-1.1205241680145264,-0.0658178329467773,-2.047654628753662,1.4103779792785645,111.6788101196289,24.13,0
-0.0937205106019973,-1.1501165628433228,-0.1318024843931198,-1.973260760307312,1.4102064371109009,111.77238464355467,24.13,0
-0.1161221712827682,-1.141118407249451,-0.1853431910276413,-2.129725933074951,1.410096287727356,111.83243560791016,24.13,0
-0.1752804666757583,-1.0625728368759155,-0.2085069864988327,-2.3555264472961426,1.4100255966186523,111.8709716796875,24.13,0
-0.2468315064907074,-1.0121667385101318,-0.2009810805320739,-2.597161769866944,1.409980297088623,111.8957061767578,24.13,0
-0.298346608877182,-0.9966123700141908,-0.1961513757705688,-2.9492709636688232,1.409492254257202,111.9115753173828,24.13,0
-0.2698305249214172,-1.003423810005188,-0.1818564087152481,-3.3651108741760254,1.4091790914535522,111.92176055908205,24.13,0
-0.2291394472122192,-1.0021971464157104,-0.1726827174425125,-3.588982105255127,1.4089781045913696,111.92829895019533,24.13,0
-0.1694395989179611,-0.9790189266204834,-0.1556000262498855,-3.399470329284668,1.4088491201400757,111.9324951171875,24.13,0
-0.1591165512800216,-0.941753387451172,-0.1390395611524582,-2.844360828399658,1.408766269683838,111.93518829345705,24.13,0
-0.1636873632669448,-0.9010451436042786,-0.1284120082855224,-2.2158477306365967,1.4087131023406982,111.9369125366211,24.13,0
-0.1722184270620346,-0.8637254238128662,-0.1159940809011459,-1.7838436365127563,1.4086790084838867,111.93801879882812,24.13,0
-0.177693173289299,-0.8565690517425537,-0.1024271994829177,-1.4886953830718994,1.408657193183899,111.93872833251952,24.13,0
-0.186804324388504,-0.8799654245376587,-0.0657318830490112,-0.8944552540779114,1.410020351409912,111.9391860961914,24.13,0
-0.2206401973962783,-0.9397620558738708,-0.0253896154463291,0.3968680799007416,1.4108951091766355,111.9394760131836,24.13,0
-0.2535496652126312,-0.989331603050232,0.0004997281357645,2.174947500228882,1.4114564657211304,111.93966674804688,24.13,0
-0.2858646214008331,-0.9987514019012452,0.0618962161242961,3.710099935531616,1.4118167161941528,111.93978881835938,24.13,0
-0.3122002780437469,-0.9880031943321228,0.118090271949768,4.401501178741455,1.4120478630065918,111.93986511230467,24.13,0
-0.3123076558113098,-0.986703395843506,0.159750148653984,4.2075042724609375,1.4121962785720823,111.93991088867188,24.13,0
-0.2955832481384277,-0.9858692288398744,0.2088761627674102,3.57069993019104,1.4122915267944336,111.93994140625,24.13,0
-0.2792527079582214,-0.968540608882904,0.240402415394783,3.0760538578033447,1.4123525619506836,111.9399642944336,24.13,0
-0.268772691488266,-0.9630178213119508,0.2270475029945373,2.948494911193848,1.4119324684143066,111.93997955322266,24.11,0
-0.2508516907691955,-0.9538758397102356,0.1960859894752502,3.0350160598754883,1.4116629362106323,111.9399871826172,24.11,0
-0.2337532490491867,-0.931215763092041,0.1706188917160034,3.241008281707764,1.411489963531494,111.93999481201172,24.11,0
-0.1947915703058242,-0.8606960773468018,0.1430800259113311,3.42694091796875,1.4113789796829224,111.93999481201172,24.11,0
-0.1641904413700103,-0.7930495142936707,0.1254071742296219,3.2059171199798584,1.411307692527771,111.93999481201172,24.11,0
-0.1333568394184112,-0.7328445315361023,0.1028702035546302,2.6090896129608154,1.4112619161605835,111.93999481201172,24.11,0
-0.1023740693926811,-0.683012843132019,0.0828095003962516,2.258323431015014,1.411232590675354,111.93999481201172,24.11,0
-0.0712955594062805,-0.6622292995452881,0.0531423725187778,2.3807315826416016,1.411213755607605,111.93999481201172,24.11,0
-0.0513511598110199,-0.6656849384307861,0.0341037139296531,2.437790632247925,1.4093655347824097,112.42364501953124,24.11,0
-0.0497475415468215,-0.7350758910179138,0.0106902513653039,2.0695767402648926,1.408179521560669,112.73402404785156,24.11,0
-0.059913981705904,-0.8075958490371704,-0.0043351603671908,1.553837537765503,1.4074183702468872,112.9332046508789,24.11,0
-0.0664382204413414,-0.8597327470779419,-0.0195753797888755,1.1798748970031738,1.4069299697875977,113.06102752685548,24.11,0
-0.0650273263454437,-0.8987889885902405,-0.034953448921442,0.9398871660232544,1.406616449356079,113.14305877685548,24.11,0
-0.0697196647524833,-0.923853039741516,-0.0392244346439838,0.7321382164955139,1.406415343284607,113.1957015991211,24.11,0
-0.0951220393180847,-0.9959154725074768,-0.0251719839870929,0.3766972124576568,1.4062862396240234,113.22948455810548,24.11,0
-0.1002282723784446,-1.04775869846344,-0.027349479496479,-0.3708778917789459,1.4062033891677856,113.25116729736328,24.11,0
-0.1035051569342613,-1.1034198999404907,-0.0343446433544158,-1.4990746974945068,1.4089045524597168,113.26508331298828,24.11,0
-0.1224013939499855,-1.1447378396987915,-0.0332359634339809,-2.6995689868927,1.4106379747390747,113.27400970458984,24.11,0
-0.1345279067754745,-1.1712532043457031,-0.026926701888442,-3.692096710205078,1.4117504358291626,113.2797393798828,24.11,0
-0.1311144679784774,-1.1826715469360352,-0.03967110440135,-4.278887748718262,1.412464261054993,113.28341674804688,24.11,0
-0.1401194632053375,-1.2179880142211914,-0.0310564059764146,-4.243460178375244,1.4129223823547363,113.28577423095705,24.11,0
-0.1458983570337295,-1.2462499141693115,-0.019930213689804,-3.439723491668701,1.4132163524627686,113.28728485107422,24.11,0
-0.1160202622413635,-1.2475934028625488,-0.0071922894567251,-1.9888793230056765,1.4134050607681274,113.28826141357422,24.11,0
-0.0800528973340988,-1.2372599840164185,-0.0102133713662624,-0.438025563955307,1.413526177406311,113.28888702392578,24.11,0
-0.0625688880681991,-1.2026398181915283,-0.0121521279215812,0.3960072100162506,1.4113088846206665,113.2892837524414,24.11,0
-0.0849353075027465,-1.1748247146606443,0.0145925618708133,0.1287444829940796,1.4098858833312988,113.28954315185548,24.11,0
-0.1048865616321563,-1.1569746732711792,0.0261579900979995,-0.7557018399238586,1.4089727401733398,113.28970336914062,24.11,0
-0.0729079321026802,-1.1287261247634888,0.050373338162899,-1.5239129066467283,1.4083867073059082,113.28981018066406,24.11,0
-0.0355925634503364,-1.0994023084640503,0.0771089047193527,-1.8915163278579712,1.4080106019973757,113.28987884521484,24.11,0
-0.0228412579745054,-1.0861817598342896,0.105461798608303,-1.919633746147156,1.4077692031860352,113.28992462158205,24.11,0
-0.0314515270292758,-1.0497087240219116,0.1180592849850654,-1.6940627098083496,1.4076143503189087,113.28995513916016,24.11,0
-0.0313793271780014,-1.0207046270370483,0.1205458492040634,-1.348680019378662,1.4075149297714231,113.28997039794922,24.11,0
-0.0313329957425594,-1.0300803184509275,0.0941527113318443,-1.0267211198806765,1.4069918394088743,113.28997802734376,24.11,0
-0.0369010381400585,-1.0696837902069092,0.071617342531681,-0.7126291394233704,1.4066561460494995,113.28998565673828,24.11,0
-0.0572676099836826,-1.1062945127487185,0.0571554377675056,-0.2781955897808075,1.4064407348632812,113.2899932861328,24.11,0
-0.0703377053141594,-1.0458226203918457,0.0870590433478355,0.3624390065670013,1.406302571296692,113.2899932861328,24.11,0
-0.0843231081962585,-0.967830777168274,0.1286405473947525,1.06016743183136,1.406213879585266,113.2899932861328,24.11,0
-0.0988959148526191,-0.884193480014801,0.2001073658466339,1.5115119218826294,1.4061568975448608,113.2899932861328,24.11,0
-0.1082478985190391,-0.8193243145942688,0.2459706515073776,1.539630889892578,1.4061204195022583,113.2899932861328,24.11,0
-0.125445008277893,-0.7664994597434998,0.2698052823543548,1.1707578897476196,1.4060969352722168,113.2899932861328,24.11,0
-0.1532744467258453,-0.7549906373023987,0.3410787284374237,0.5435356497764587,1.4042458534240725,113.0284652709961,24.11,0
-0.1655360162258148,-0.7643982768058777,0.3644268214702606,-0.0237779784947633,1.4030579328536987,112.86063385009766,24.11,0
-0.1957958787679672,-0.7760332822799683,0.3626169562339782,-0.2194661498069763,1.4022955894470217,112.7529296875,24.11,0
-0.2264104634523391,-0.789097785949707,0.3894443809986114,-0.1551710367202758,1.401806354522705,112.68380737304688,24.11,0
-0.2628504633903503,-0.7918840050697327,0.4066606760025024,-0.2643783092498779,1.4014923572540283,112.6394500732422,24.11,0
-0.3254199922084808,-0.8160631656646729,0.3841224610805511,-0.6533104777336121,1.4012908935546875,112.6109848022461,24.11,0
-0.393562376499176,-0.8259822130203247,0.3752565085887909,-1.0139646530151367,1.4011616706848145,112.59272003173828,24.11,0
-0.4316944479942322,-0.8323476314544678,0.3863601684570312,-1.1701775789260864,1.401078701019287,112.58099365234376,24.11,0
-0.4561654329299927,-0.8364326357841492,0.376692533493042,-1.2131048440933228,1.4033207893371582,112.57347106933594,24.11,0
-0.4886628091335296,-0.8166630268096924,0.3480972945690155,-1.2084099054336548,1.404759645462036,112.56864166259766,24.11,0
-0.537506639957428,-0.7703893780708313,0.3353442847728729,-1.162406086921692,1.4056830406188965,112.56554412841795,24.11,0
-0.5856451392173767,-0.7350958585739136,0.3271601498126983,-1.1042228937149048,1.406275510787964,112.56356048583984,24.11,0
-0.5997443199157715,-0.6844576597213745,0.3387013673782348,-0.902085781097412,1.4066557884216309,112.56228637695312,24.11,0
-0.6199879050254822,-0.63516765832901,0.3684989511966705,-0.4356037080287933,1.4068998098373413,112.56147003173828,24.11,0
-0.7393367886543274,-0.5587539672851562,0.544359028339386,0.0213909465819597,1.407056450843811,112.56094360351562,24.11,0
-0.8663079738616943,-0.5992804169654846,0.4612937867641449,0.1104570254683494,1.4071569442749023,112.56060791015624,24.11,0
-0.8918130397796631,-0.563712477684021,0.4023895263671875,-0.0545051880180835,1.4063031673431396,112.56038665771484,24.11,0
-0.8522030115127563,-0.5073003768920898,0.4261636734008789,-0.1245426833629608,1.4057552814483645,112.56024932861328,24.11,0
-0.8267835378646851,-0.4543049931526184,0.4190294444561004,0.0060574822127819,1.405403733253479,112.5601577758789,24.11,0
-0.7824819087982178,-0.4594800174236297,0.3808644711971283,0.2152592837810516,1.4051780700683594,112.56009674072266,24.11,0
-0.7148672938346863,-0.490789920091629,0.3563723862171173,0.310104638338089,1.4050333499908447,112.56005859375,24.11,0
-0.6714761257171631,-0.5332739353179932,0.3742414116859436,0.0843648761510849,1.4049403667449951,112.5600357055664,24.11,0
-0.7331945300102234,-0.5885266065597534,0.3689154088497162,-0.5011587142944336,1.4048807621002195,112.56002044677734,24.11,0
-0.8007907271385193,-0.6295823454856873,0.3990841209888458,-1.163520097732544,1.404842495918274,112.5600128173828,24.11,0
-0.8161811828613281,-0.5775607228279114,0.4632268846035003,-1.470360517501831,1.4075722694396973,112.56000518798828,24.11,0
-0.8204601407051086,-0.4826007187366485,0.4316189289093017,-1.183625340461731,1.409324049949646,112.56000518798828,24.11,0
-0.8344016671180725,-0.3880741894245147,0.4169325530529022,-0.4873068630695343,1.41044819355011,112.56000518798828,24.11,0
-0.8825329542160034,-0.3609991669654846,0.3963121175765991,0.2139131277799606,1.4111696481704712,112.56000518798828,24.11,0
-0.9190186262130736,-0.366015076637268,0.3830791115760803,0.7355672717094421,1.4116326570510864,112.56000518798828,24.11,0
-0.9144441485404968,-0.3244518041610718,0.3801847100257873,1.0810825824737549,1.411929726600647,112.56000518798828,24.11,0
-0.9562907218933104,-0.280985563993454,0.3559361398220062,1.0162084102630615,1.4121204614639282,112.56000518798828,24.11,0
-0.9551565647125244,-0.2474936544895172,0.3515703678131103,0.2365652620792389,1.412242770195007,112.56000518798828,24.11,0
-0.954428732395172,-0.1924138218164444,0.3487686514854431,-1.109252691268921,1.415075659751892,112.1515884399414,24.11,0
-0.9371683597564696,-0.1570667624473571,0.3469706773757934,-2.4637339115142822,1.4168936014175415,111.88948822021484,24.11,0
-0.9260916113853456,-0.1343830525875091,0.3626101613044739,-3.340127229690552,1.418060302734375,111.7212905883789,24.11,0
-0.8909943103790283,-0.114228181540966,0.4006355702877044,-3.63385272026062,1.418808937072754,111.61334991455078,24.11,0
-0.8628731369972229,-0.1404783576726913,0.4082447588443756,-3.7292020320892334,1.4192893505096436,111.54408264160156,24.11,0
-0.8224354982376099,-0.1125420182943344,0.4579100906848907,-4.162979602813721,1.4195977449417114,111.49962615966795,24.11,0
-0.8468648791313171,-0.1282007396221161,0.4953802227973938,-5.032477855682373,1.4197956323623655,111.47109985351562,24.11,0
-0.9241178035736084,-0.1270540505647659,0.4634486436843872,-6.206675052642822,1.4199225902557373,111.45278930664062,24.11,0
-0.8841298818588257,-0.0759382024407386,0.442956805229187,-7.945415496826172,1.4163315296173096,111.4410400390625,24.11,0
-0.8584679365158081,-0.0543305426836013,0.4410018622875213,-10.386792182922363,1.414026975631714,111.43350219726562,24.11,0
-0.925966203212738,-0.0908439606428146,0.4453450739383697,-12.89932632446289,1.4125480651855469,111.4286651611328,24.11,0
-0.9636849164962769,-0.1198739409446716,0.4201434254646301,-14.977461814880373,1.411599040031433,111.4255599975586,24.11,0
-0.9654995203018188,-0.1217103898525238,0.4431548714637756,-17.16732406616211,1.4109899997711182,111.42356872558594,24.11,0
-0.8770996332168579,-0.1060955971479415,0.5027045011520386,-20.15973281860352,1.4105991125106812,111.42228698730467,24.11,0
-0.7811852693557739,-0.1296615600585937,0.5745066404342651,-23.66358757019043,1.4103482961654663,111.42147064208984,24.11,0
-0.7532196044921875,-0.0776115506887435,0.6037918329238892,-27.02275848388672,1.4101873636245728,111.4209442138672,24.11,0
-0.7296750545501709,-0.0386110767722129,0.6001942753791809,-30.443130493164062,1.4100840091705322,111.4206085205078,24.11,0
-0.7313588261604309,-0.019180592149496,0.6258744597434998,-34.7805061340332,1.410017728805542,111.4203872680664,24.11,0
-0.7100483179092407,-0.0179067738354206,0.6591477990150452,-40.15777206420898,1.4099751710891724,111.42024993896484,24.11,0
-0.7299590706825256,-0.0450781844556331,0.6749029755592346,-45.55751037597656,1.4099478721618652,111.42015838623048,24.11,0
-0.7875188589096069,-0.0737107768654823,0.6570248603820801,-49.82524871826172,1.4099303483963013,111.42009735107422,24.11,0
-0.813261866569519,-0.0305100101977586,0.6455517411231995,-52.22727584838867,1.4099191427230835,111.42005920410156,24.11,0
-0.7794022560119629,-0.0083840200677514,0.6437867283821106,-52.382301330566406,1.409911870956421,111.42003631591795,24.11,0
-0.791259765625,-0.0557603500783443,0.6370562314987183,-49.19298553466797,1.4099072217941284,111.4200210571289,24.11,0
-0.8044670224189758,-0.018990458920598,0.67192143201828,-40.11008834838867,1.4117406606674194,111.42001342773438,24.09,0
-0.7177805304527283,-0.0289803072810173,0.7278825640678406,-24.977256774902344,1.4129172563552856,111.42000579833984,24.09,0
-0.6285634636878967,-0.0857711806893348,0.7470018267631531,-10.479557037353516,1.4136723279953003,111.42000579833984,24.09,0
-0.638482391834259,-0.04384745657444,0.7648692727088928,-5.929844379425049,1.4141569137573242,111.42000579833984,24.09,0
-0.5888700485229492,-0.0337365493178367,0.7819333672523499,-12.450187683105469,1.4144679307937622,111.42000579833984,24.09,0
-0.5402383804321289,-0.0496390461921691,0.8040796518325806,-17.390491485595703,1.4146674871444702,111.42000579833984,24.09,0
-0.5370182394981384,-0.0262577086687088,0.8070963025093079,-0.3444210886955261,1.4147955179214478,111.42000579833984,24.09,0
-0.5405495166778564,-0.0168506857007741,0.8146299719810486,50.56198120117188,1.4148777723312378,111.42000579833984,24.09,0
-0.4924356937408447,-0.0164115745574235,0.8362579941749573,123.58132934570312,1.418602705001831,111.07249450683594,24.09,0
-0.4447656869888305,-0.0217275526374578,0.8613331317901611,189.0130157470703,1.420993089675903,110.84947967529295,24.09,0
-0.425369381904602,-0.0307368151843547,0.8662294149398804,221.5166473388672,1.4225270748138428,110.70635986328124,24.09,0
-0.3905308544635772,-0.0253228936344385,0.8973604440689087,211.6478576660156,1.4235115051269531,110.61451721191406,24.09,0
-0.3793690204620361,-0.027446324005723,0.917338490486145,163.56329345703125,1.4241433143615725,110.55558013916016,24.09,0
-0.3498149216175079,-0.0232112444937229,0.935757040977478,94.23211669921876,1.4245487451553345,110.51775360107422,24.09,0
-0.3308487832546234,-0.0428845137357711,0.9251859188079834,28.08268165588379,1.4248089790344238,110.49347686767578,24.09,0
-0.3354707360267639,-0.0611074604094028,0.9184019565582277,-19.355165481567383,1.424975872039795,110.47789764404295,24.09,0
-0.2936546504497528,-0.0616063475608825,0.9308417439460754,-48.870155334472656,1.4246240854263306,110.46790313720705,24.09,0
-0.2332328408956527,-0.0563287325203418,0.9388248920440674,-67.12690734863281,1.4243983030319214,110.46148681640624,24.09,0
-0.2168487012386322,-0.0473440885543823,0.9551435708999634,-78.10502624511719,1.4242534637451172,110.45736694335938,24.09,0
-0.1783454418182373,-0.0695671290159225,0.9656159281730652,-84.73457336425781,1.4241604804992676,110.45472717285156,24.09,0
-0.1368429362773895,-0.0782308280467987,0.9723365306854248,-90.08888244628906,1.4241008758544922,110.45303344726562,24.09,0
-0.1158067882061004,-0.0725951418280601,0.9766494035720824,-95.32701110839844,1.4240626096725464,110.45194244384766,24.09,0
-0.1246981024742126,-0.0801740288734436,0.9682216048240662,-100.32936096191406,1.424038052558899,110.45124816894533,24.09,0
-0.1080129370093345,-0.1186243668198585,0.9796064496040344,-106.45579528808594,1.424022197723389,110.45079803466795,24.09,0
-0.086109809577465,-0.1321040391921997,0.970119297504425,-116.38103485107422,1.4263070821762085,110.45050811767578,24.09,0
-0.0552603192627429,-0.107167862355709,0.9640309810638428,-127.9022216796875,1.427773356437683,110.45032501220705,24.09,0
-0.0690495371818542,-0.0911652594804763,0.9713193774223328,-129.16966247558594,1.428714394569397,110.45021057128906,24.09,0
-0.0946919843554496,-0.0808957144618034,0.981594443321228,-108.19022369384766,1.4293183088302612,110.45013427734376,24.09,0
-0.1223433837294578,-0.074305310845375,0.9825906157493592,-68.44505310058594,1.4297058582305908,110.45008850097656,24.09,0
-0.1736751049757003,-0.0588804185390472,0.9552410244941713,-25.681621551513672,1.4299545288085938,110.45005798339844,24.09,0
-0.2010190784931183,-0.0433838367462158,0.948885142803192,9.360129356384276,1.4301141500473022,110.45003509521484,24.09,0
-0.201773539185524,-0.0502323471009731,0.9615996479988098,34.67097854614258,1.4302165508270264,110.45001983642578,24.09,0
-0.2022577077150344,-0.0434317775070667,0.9641613364219666,48.96152114868164,1.4316598176956177,110.45001220703124,24.13,0
-0.1857751011848449,-0.0278720147907733,0.9714030623435974,52.01691436767578,1.4325859546661377,110.45000457763672,24.13,0
-0.1975886076688766,-0.0290822032839059,0.9872459173202516,48.2169075012207,1.433180332183838,110.45000457763672,24.13,0
-0.1212032213807106,0.0261189136654138,1.0030107498168943,41.74430084228516,1.4335618019104004,110.45000457763672,24.13,0
-0.1393567621707916,-0.0168250296264886,0.9907366037368774,32.77915573120117,1.433806538581848,110.45000457763672,24.13,0
-0.1398111134767532,0.0003982126072514,0.9940552711486816,21.035776138305664,1.433963656425476,110.45000457763672,24.13,0
-0.156896024942398,-0.0501244217157363,0.9793916940689088,8.157929420471191,1.4340643882751465,110.45000457763672,24.13,0
-0.1454690396785736,-0.1049380376935005,0.9755792021751404,-4.917729377746582,1.4341291189193726,110.45000457763672,24.13,0
-0.1437336206436157,-0.1457120329141616,0.9619370102882384,-19.39573097229004,1.4346295595169067,110.08457946777344,24.13,0
-0.114631064236164,-0.1270962357521057,0.95878005027771,-33.22241973876953,1.4349507093429563,109.8500747680664,24.13,0
-0.0903569385409355,-0.1263452470302581,0.9567540884017944,-37.68544387817383,1.4351568222045898,109.69957733154295,24.13,0
-0.108365848660469,-0.1090699806809425,0.9442583918571472,-26.26224136352539,1.4352891445159912,109.60299682617188,24.13,0
-0.1479118019342422,-0.0867881551384925,0.9586304426193236,-3.6625514030456543,1.4353740215301514,109.54102325439452,24.13,0
-0.1900834441184997,-0.0780867412686348,0.9790491461753844,20.12308120727539,1.435428500175476,109.50125122070312,24.13,0
-0.2395378798246383,-0.0892959982156753,0.9809571504592896,39.46072006225586,1.4354634284973145,109.47572326660156,24.13,0
-0.254481554031372,-0.0964894518256187,0.9765838384628296,52.5153694152832,1.43548583984375,109.45934295654295,24.13,0
-0.2416804581880569,-0.1011057943105697,0.962581753730774,58.5572509765625,1.4332048892974854,109.4488296508789,24.13,0
-0.2390632182359695,-0.0872749760746955,0.9424004554748536,59.56852340698242,1.4317411184310913,109.44208526611328,24.13,0
-0.2261880785226822,-0.0728013813495636,0.9294492602348328,59.04957962036133,1.4308017492294312,109.43775939941406,24.13,0
-0.1955344527959823,-0.0747086107730865,0.9491268396377563,58.15766906738281,1.4301989078521729,109.43498229980467,24.13,0
-0.2038515955209732,-0.087128110229969,0.9841458797454834,55.81908416748047,1.4298120737075806,109.43319702148438,24.13,0
-0.321144551038742,-0.1118915528059005,0.98982572555542,51.59555435180664,1.4295637607574463,109.43205261230467,24.13,0
-0.3740253150463104,-0.1445766240358352,0.9598841071128844,46.58512496948242,1.429404377937317,109.43132019042967,24.13,0
-0.3855700492858886,-0.1431609243154525,0.946267068386078,41.893699645996094,1.4293020963668823,109.43084716796876,24.13,0
-0.3817832469940185,-0.1758390516042709,0.9207351207733154,37.4177360534668,1.43061363697052,109.4305419921875,24.13,0
-0.3457664549350738,-0.1912122219800949,0.8931546211242676,32.6107292175293,1.431455373764038,109.43035125732422,24.13,0
-0.26667520403862,-0.1842845231294632,0.8754550218582153,27.695173263549805,1.431995511054993,109.43022918701172,24.13,0
-0.199125662446022,-0.1910342723131179,0.8696942329406738,23.326160430908203,1.4323421716690063,109.43014526367188,24.13,0
-0.1445807069540023,-0.1729747653007507,0.8883883953094482,19.6553955078125,1.432564616203308,109.43009185791016,24.13,0
-0.1599568724632263,-0.1389941126108169,0.9787540435791016,16.386154174804688,1.4327073097229004,109.43006134033205,24.13,0
-0.2034110575914383,-0.1451761573553085,1.1151143312454224,13.342342376708984,1.4327988624572754,109.43003845214844,24.13,0
-0.242492988705635,-0.1323501169681549,1.0682759284973145,10.557842254638672,1.432857632637024,109.43002319335938,24.13,0
-0.3011601865291595,-0.0905324593186378,0.959848940372467,8.129629135131836,1.4365679025650024,109.43001556396484,24.09,0
-0.3500049412250519,-0.0748918429017067,0.9126578569412231,6.102024078369141,1.4389489889144895,109.43000793457033,24.09,0
-0.3589596152305603,-0.0928434655070304,0.9383510947227478,4.438983917236328,1.4404770135879517,109.43000793457033,24.09,0
-0.3535106480121612,-0.0931682363152504,0.954839527606964,3.153203248977661,1.4414576292037964,109.43000793457033,24.09,0
-0.3780027031898498,-0.0933766588568687,0.9150408506393432,2.306567907333374,1.442086935043335,109.43000793457033,24.09,0
-0.3713291883468628,-0.0879126340150833,0.9006959199905396,1.82056725025177,1.4424906969070437,109.43000793457033,24.09,0
-0.361448734998703,-0.0732105895876884,0.8914901614189148,1.4800193309783936,1.4427498579025269,109.43000793457033,24.09,0
-0.3774991333484649,-0.0693734362721443,0.8911802172660828,1.1862412691116333,1.4429161548614502,109.43000793457033,24.09,0
-0.3877993524074554,-0.0725087523460388,0.8965790867805481,1.101606011390686,1.4453178644180298,109.07891082763672,24.09,0
-0.3832138776779175,-0.0857163667678833,0.9112393260002136,1.4127147197723389,1.4468591213226318,108.85359954833984,24.09,0
-0.3466845452785492,-0.0941922515630722,0.9262452125549316,2.0673534870147705,1.447848200798035,108.7090072631836,24.09,0
-0.3176443576812744,-0.1052293628454208,0.9414728879928588,2.885128736495972,1.4484829902648926,108.61621856689452,24.09,0
-0.2822147011756897,-0.1067145690321922,0.9568428993225098,3.761022329330444,1.4488903284072876,108.55667114257812,24.09,0
-0.270673543214798,-0.1020699143409729,0.9611086845397948,4.588231086730957,1.4491517543792725,108.5184555053711,24.09,0
-0.2968537509441376,-0.0934914648532867,0.9414551258087158,5.276719570159912,1.4493194818496704,108.49392700195312,24.09,0
-0.319252461194992,-0.0879863128066062,0.9288426041603088,5.894097805023193,1.4494271278381348,108.47818756103516,24.09,0
-0.3336266577243805,-0.0844534263014793,0.9263464212417604,6.390607833862305,1.4517916440963743,108.46808624267578,24.09,0
-0.3708400726318359,-0.082186222076416,0.9023534059524536,6.4083027839660645,1.4533090591430664,108.46160888671876,24.09,0
-0.3891237080097198,-0.0807312577962875,0.8869560956954956,5.749716758728027,1.4542827606201172,108.45745086669922,24.09,0
-0.3896615505218506,-0.0909930914640426,0.8938682675361633,4.71087121963501,1.4549076557159424,108.45478057861328,24.09,0
-0.384408950805664,-0.0975785478949546,0.9039018750190736,3.617873430252075,1.4553086757659912,108.45306396484376,24.09,0
-0.3698425889015198,-0.101804718375206,0.9215364456176758,2.4399678707122803,1.4555660486221311,108.45196533203124,24.09,0
-0.3437013924121856,-0.0989190563559532,0.938451051712036,0.8887240886688232,1.4557311534881592,108.45126342773438,24.09,0
-0.3213277161121368,-0.0858716517686843,0.9437081217765808,-1.3212679624557495,1.4558371305465698,108.45081329345705,24.09,0
-0.2901762425899505,-0.0830963551998138,0.9470818042755128,-4.133135318756104,1.4540690183639526,108.45052337646484,24.09,0
-0.2925761342048645,-0.0981086492538452,0.9492468237876892,-6.894177913665772,1.4529343843460083,108.45033264160156,24.09,0
-0.2997139990329742,-0.1021449044346809,0.9506362080574036,-8.805776596069336,1.452206254005432,108.45021057128906,24.09,0
-0.3154902160167694,-0.0991373658180236,0.9347345232963562,-9.656360626220703,1.451738953590393,108.45013427734376,24.09,0
-0.3312122821807861,-0.1028050780296325,0.9245297312736512,-9.858288764953612,1.4514391422271729,108.45008850097656,24.09,0
-0.3413017988204956,-0.0995610281825065,0.923578679561615,-9.747841835021973,1.451246738433838,108.45005798339844,24.09,0
-0.3421788811683655,-0.0974791869521141,0.922968327999115,-9.13241195678711,1.4511232376098633,108.45003509521484,24.09,0
-0.3427417576313019,-0.0961431786417961,0.9225766062736512,-7.666274547576904,1.451043963432312,108.45001983642578,24.09,0
-0.3487007319927215,-0.0952858030796051,0.9223252534866332,-5.396256446838379,1.4486976861953735,108.45001220703124,24.11,0
-0.3525248765945434,-0.0947355926036834,0.9221639633178712,-2.7429089546203613,1.4471920728683472,108.45000457763672,24.11,0
-0.3549789786338806,-0.094382494688034,0.9220604300498962,-0.1910729110240936,1.4462257623672483,108.45000457763672,24.11,0
-0.3565538823604584,-0.0997536703944206,0.9219939708709716,1.8907878398895264,1.4456056356430054,108.45000457763672,24.11,0
-0.3631623387336731,-0.1032005846500396,0.9219513535499572,3.448925733566284,1.4452077150344849,108.45000457763672,24.11,0
-0.3618054986000061,-0.1054126173257827,0.9219239950180054,4.760533332824707,1.444952368736267,108.45000457763672,24.11,0
-0.3609347641468048,-0.1012343987822532,0.9219064712524414,5.917514324188232,1.4447884559631348,108.45000457763672,24.11,0
-0.3659737408161163,-0.0985530540347099,0.9218952059745787,6.649250507354736,1.444683313369751,108.45000457763672,24.11,0
-0.3636097013950348,-0.0968323200941085,0.921887993812561,6.882386684417725,1.4446158409118652,108.1168212890625,24.11,0
-0.3620925843715668,-0.0957280546426773,0.9218833446502686,6.913774967193604,1.4445725679397583,107.90300750732422,24.11,0
-0.3611190021038055,-0.0950194001197815,0.9218803644180298,6.844353675842285,1.444544792175293,107.76579284667967,24.11,0
-0.3604941964149475,-0.0945646315813064,0.921878457069397,6.437963008880615,1.4445269107818604,107.677734375,24.11,0
-0.3600932359695434,-0.0942727848887443,0.9218772053718568,5.743673324584961,1.4445154666900637,107.62122344970705,24.11,0
-0.3598359227180481,-0.0940854921936988,0.9218764305114746,5.154814720153809,1.444508075714111,107.5849609375,24.11,0
-0.3596707880496979,-0.0995630770921707,0.9218758940696716,4.841405868530273,1.4445034265518188,107.56168365478516,24.11,0
-0.365162581205368,-0.0974804982542991,0.9218755960464478,4.733425140380859,1.44450044631958,107.54674530029295,24.11,0
-0.3630891442298889,-0.0961440205574035,0.9218753576278688,5.051047325134277,1.4435806274414062,107.53716278076172,24.11,0
-0.3673563003540039,-0.1008841171860694,0.9218752384185792,6.064540863037109,1.4429904222488403,107.53101348876952,24.11,0
-0.3644969463348388,-0.0983282625675201,0.9218751788139344,7.291737556457519,1.442611575126648,107.52706909179688,24.11,0
-0.3626619577407837,-0.0966880619525909,0.9162773489952089,7.609964370727539,1.442368507385254,107.5245361328125,24.11,0
-0.3670821487903595,-0.0956354811787605,0.9182827472686768,6.4456400871276855,1.442212462425232,107.52291107177734,24.11,0
-0.3699187934398651,-0.100557766854763,0.9195696711540222,4.487533092498779,1.4421123266220093,107.52186584472656,24.11,0
-0.3661414086818695,-0.0981188341975212,0.92039555311203,2.9514918327331543,1.4420480728149414,107.5211944580078,24.11,0
-0.3637172877788543,-0.0965536683797836,0.9209255576133728,2.4064059257507324,1.4420068264007568,107.52076721191406,24.11,0
-0.3677594065666199,-0.0955492332577705,0.921265721321106,2.755203485488892,1.4433571100234983,107.52049255371094,24.11,0
-0.3703534007072449,-0.0949046462774276,0.9214839935302734,4.139796257019043,1.4442236423492432,107.52031707763672,24.11,0
-0.3720180690288543,-0.0944909825921058,0.9216240644454956,7.091911792755127,1.4447797536849976,107.52020263671876,24.11,0
-0.3730863630771637,-0.0942255184054374,0.916116178035736,11.533620834350586,1.4451366662979126,107.52012634277344,24.11,0
-0.3737719357013702,-0.0940551608800888,0.9181793332099916,16.48702621459961,1.4453656673431396,107.52008056640624,24.11,0
-0.3742119073867798,-0.0939458310604095,0.9195033311843872,21.17051696777344,1.4455126523971558,107.52005004882812,24.11,0
-0.3744942545890808,-0.0938756763935089,0.9203529953956604,25.65571594238281,1.4456069469451904,107.52002716064452,24.11,0
-0.3690776526927948,-0.0938306525349617,0.9208982586860656,30.20712280273437,1.4456675052642822,107.52001953125,24.11,0
-0.371199369430542,-0.0993995293974876,0.921248197555542,35.141361236572266,1.4447885751724243,107.52001190185548,24.11,0
-0.372560977935791,-0.0973755419254303,0.9214727282524108,40.72252655029297,1.44422447681427,107.52000427246094,24.11,0
-0.3734347820281982,-0.0960766673088073,0.916019082069397,45.461368560791016,1.4438624382019043,107.52000427246094,24.11,0
-0.3739955425262451,-0.1008408963680267,0.9181169867515564,46.03409194946289,1.4436300992965698,107.52000427246094,24.11,0
-0.3799531757831573,-0.0983005315065383,0.913865566253662,40.63368606567383,1.4434810876846311,107.52000427246094,24.11,0
-0.3837764263153076,-0.0966702699661254,0.9111372232437134,30.26080894470215,1.4433854818344116,107.52000427246094,24.11,0
-0.3862299919128418,-0.0956240594387054,0.9093863368034364,16.023365020751953,1.443324089050293,107.52000427246094,24.11,0
-0.3878045380115509,-0.1005504354834556,0.9082627296447754,-1.1885340213775637,1.4432846307754517,107.52000427246094,24.11,0
-0.3888149857521057,-0.0981141254305839,0.9075416326522828,-18.23137092590332,1.4409639835357666,107.19757080078124,24.11,0
-0.3894634246826172,-0.0965506434440612,0.9070789217948914,-30.977684020996094,1.4394747018814087,106.99065399169922,24.11,0
-0.3898795545101166,-0.0955472886562347,0.9067819714546204,-38.16874313354492,1.43851900100708,106.8578643798828,24.11,0
-0.3901466131210327,-0.0949033945798873,0.9065914154052734,-41.28961563110352,1.4379056692123413,106.77265167236328,24.11,0
-0.3903180062770843,-0.094490185379982,0.9064691066741944,-41.759071350097656,1.4375120401382446,106.71796417236328,24.11,0
-0.3904279768466949,-0.0942250117659568,0.9063906073570251,-40.37652969360352,1.4372594356536863,106.68286895751952,24.11,0
-0.390498548746109,-0.0940548330545425,0.90634024143219,-38.149410247802734,1.4370973110198977,106.66034698486328,24.11,0
-0.3905438482761383,-0.0939456224441528,0.9063079357147216,-35.78870391845703,1.4369933605194092,106.6458969116211,24.11,0
-0.3905729353427887,-0.0938755422830581,0.9062871932983398,-33.04133224487305,1.4360086917877195,106.6366195678711,24.11,0
-0.3905915915966034,-0.0938305631279945,0.9062738418579102,-29.47261047363281,1.4353768825531006,106.63066864013672,24.11,0
-0.3906035721302032,-0.093801699578762,0.9062653183937072,-25.40186882019043,1.4349713325500488,106.62684631347656,24.11,0
-0.3906112611293793,-0.0937831774353981,0.906259834766388,-21.600086212158203,1.4347110986709597,106.62439727783205,24.11,0
-0.3906161785125732,-0.093771293759346,0.9062563180923462,-18.490379333496094,1.4345440864562988,106.6228256225586,24.11,0
-0.3906193375587463,-0.0937636643648147,0.9062540531158448,-15.896458625793455,1.434436917304993,106.62181091308594,24.11,0
-0.3906213641166687,-0.0937587693333625,0.90625262260437,-13.51173210144043,1.434368133544922,106.62116241455078,24.11,0
-0.3906226754188537,-0.0937556251883506,0.9062516689300536,-11.304244995117188,1.434324026107788,106.6207504272461,24.11,0
-0.3906235098838806,-0.0937536135315895,0.906251072883606,-9.285734176635742,1.4338364601135254,106.6204833984375,24.11,0
-0.3906240463256836,-0.0937523171305656,0.9062507152557372,-7.273854732513428,1.4335235357284546,106.62030792236328,24.11,0
-0.3906243741512298,-0.0993492603302002,0.9062504768371582,-5.248318672180176,1.4333226680755615,106.62020111083984,24.11,0
-0.3962223827838897,-0.0973432809114456,0.906250298023224,-3.504206657409668,1.4331938028335571,106.62013244628906,24.11,0
-0.3942170739173889,-0.0960559621453285,0.9062501788139344,-2.1090776920318604,1.4331110715866089,106.62008666992188,24.11,0
-0.3929301798343658,-0.1008276045322418,0.9118478894233704,-0.6835429668426514,1.4330580234527588,106.62005615234376,24.11,0
-0.3921043276786804,-0.1038897708058357,0.9098424315452576,0.9907891750335692,1.4330239295959473,106.62003326416016,24.11,0
-0.39157435297966,-0.1002571210265159,0.9085553884506226,2.566839694976806,1.4330021142959597,106.62002563476562,24.11,0
-0.3912342488765716,-0.0979258939623832,0.90772944688797,3.653492212295532,1.4325292110443115,106.6200180053711,24.13,0
-0.396613746881485,-0.0964298471808433,0.9071994423866272,4.426077365875244,1.4322257041931152,106.62001037597656,24.13,0
-0.3944682478904724,-0.0954697728157043,0.906859278678894,5.290883541107178,1.4320309162139893,106.62001037597656,24.13,0
-0.3930913805961609,-0.0948536545038223,0.9066410064697266,6.265027523040772,1.4319058656692505,106.62001037597656,24.13,0
-0.3922077715396881,-0.0944582596421241,0.9065009355545044,7.183948516845703,1.4318256378173828,106.62001037597656,24.13,0
-0.3916407227516174,-0.0942045226693153,0.9064110517501832,8.131916046142578,1.4317741394042969,106.62001037597656,24.13,0
-0.3912768363952636,-0.0996394604444503,0.9063533544540404,9.331392288208008,1.4317411184310913,106.62001037597656,24.13,0
-0.3910433053970337,-0.0975295156240463,0.906316339969635,10.87498378753662,1.4317198991775513,106.62001037597656,24.13,0
-0.3908934295177459,-0.0961754769086837,0.9062925577163696,12.428035736083984,1.4289519786834717,106.22592163085938,24.13,0
-0.3907972574234009,-0.0953065305948257,0.9062772989273072,12.697432518005373,1.427175760269165,105.9730224609375,24.13,0
-0.3963333070278168,-0.0947488918900489,0.906267523765564,10.118897438049316,1.4260358810424805,105.81072235107422,24.13,0
-0.3998860418796539,-0.0943910330533981,0.9062612652778624,4.727516174316406,1.425304293632507,105.7065658569336,24.13,0
-0.3965682089328766,-0.0941613763570785,0.9062572121620178,-1.4049632549285889,1.4248348474502563,105.63972473144533,24.13,0
-0.3944390118122101,-0.0940139964222908,0.9062546491622924,-6.207418918609619,1.4245336055755615,105.59683227539062,24.13,0
-0.3986703753471374,-0.0995171889662742,0.9062529802322388,-9.153221130371094,1.4243402481079102,105.56930541992188,24.13,0
-0.3957880735397339,-0.1030488237738609,0.9062519073486328,-10.613758087158203,1.4242161512374878,105.55164337158205,24.13,0
-0.3939383625984192,-0.0997174531221389,0.9062512516975404,-10.888270378112791,1.424136519432068,105.5403060913086,24.13,0
-0.3983491063117981,-0.0975795686244964,0.906250774860382,-10.38016414642334,1.42408549785614,105.53302764892578,24.13,0
-0.4011796712875366,-0.1018053740262985,0.9062504768371582,-9.6779203414917,1.4240527153015137,105.52835845947266,24.13,0
-0.402996152639389,-0.0989194735884666,0.9006525278091431,-8.987228393554688,1.4240316152572632,105.52536010742188,24.13,0
-0.4041618704795837,-0.1026652455329895,0.9026578664779664,-8.074664115905762,1.424018144607544,105.5234375,24.13,0
-0.4049099683761596,-0.0994712933897972,0.9039447903633118,-6.95522928237915,1.4240094423294067,105.52220153808594,24.13,0
-0.405390053987503,-0.0974215939640998,0.9047706723213196,-5.97531270980835,1.424003839492798,105.52140808105467,24.13,0
-0.405698150396347,-0.0961062163114547,0.9053006768226624,-5.213903427124023,1.424000263214111,105.52090454101562,24.13,0
-0.405895859003067,-0.0952620804309845,0.9056407809257508,-4.413590431213379,1.4212437868118286,105.52057647705078,24.13,0
-0.4060227274894714,-0.0947203636169433,0.9058590531349182,-3.516660213470459,1.4194748401641846,105.52037048339844,24.13,0
-0.4061041474342346,-0.0943727269768714,0.9004013538360596,-2.7368552684783936,1.4183396100997925,105.52023315429688,24.13,0
-0.4061563909053802,-0.0997474044561386,0.9024966955184937,-2.150439500808716,1.417611002922058,105.52014923095705,24.13,0
-0.4061899185180664,-0.0975987911224365,0.9038413166999816,-1.6594691276550293,1.41714346408844,105.52009582519533,24.13,0
-0.4062114357948303,-0.1018177047371864,0.8991064429283142,-1.3014017343521118,1.4168434143066406,105.52005767822266,24.13,0
-0.4062252640724182,-0.0989273861050605,0.9016656875610352,-1.1755094528198242,1.416650891304016,105.52003479003906,24.13,0
-0.4062341153621673,-0.0970725491642952,0.9033080339431764,-1.1950311660766602,1.4165273904800415,105.52001953125,24.13,0
-0.4062398076057434,-0.0958822220563888,0.9043620228767396,-1.196811318397522,1.4164481163024902,105.52001190185548,24.11,0
-0.4062434732913971,-0.095118336379528,0.9050384163856506,-1.1549627780914309,1.416397213935852,105.52000427246094,24.11,0
-0.4062457978725433,-0.0946281179785728,0.905472457408905,-1.1531847715377808,1.4163645505905151,105.52000427246094,24.11,0
-0.4062473177909851,-0.0943135246634483,0.9057509899139404,-1.2487733364105225,1.4163435697555542,105.52000427246094,24.11,0
-0.4062482714653015,-0.0941116362810134,0.9059297442436218,-1.3996809720993042,1.416330099105835,105.52000427246094,24.11,0
-0.4062488973140716,-0.0939820781350135,0.9060444831848145,-1.5036900043487549,1.4163215160369873,105.52000427246094,24.11,0
-0.4062492847442627,-0.0938989371061325,0.906118094921112,-1.4916203022003174,1.4163159132003784,105.52000427246094,24.11,0
-0.4062495529651642,-0.0938455760478973,0.906165361404419,-1.340571641921997,1.416312336921692,105.52000427246094,24.11,0
-0.4062497019767761,-0.0938113331794738,0.9061957001686096,-1.0860040187835691,1.41401469707489,105.16890716552734,24.11,0
-0.4062498211860657,-0.0937893614172935,0.9062151312828064,-0.8008295297622681,1.4125401973724363,104.94359588623048,24.11,0
-0.4062498807907104,-0.0937752574682235,0.9062276482582092,-0.4494399428367615,1.4115939140319824,104.79900360107422,24.11,0
-0.4062499105930328,-0.0993639826774597,0.9062356352806092,-0.0161489192396402,1.4109866619110107,104.70621490478516,24.11,0
-0.4062499403953552,-0.1029505059123039,0.9062407612800598,0.2834077477455139,1.4105969667434692,104.64666748046876,24.11,0
-0.4062499701976776,-0.0996543541550636,0.9062440991401672,0.2284482568502426,1.4103468656539917,104.60845184326172,24.11,0
-0.4062499701976776,-0.0975390747189521,0.9062461853027344,-0.0934276357293129,1.4101864099502563,104.58393096923828,24.11,0
-0.4062499701976776,-0.096181608736515,0.9062475562095642,-0.4110488891601562,1.4100834131240845,104.56819152832033,24.11,0
-0.4062499701976776,-0.0953104645013809,0.9062484502792358,-0.5468109846115112,1.4100173711776731,104.55809020996094,24.11,0
-0.4006521999835968,-0.0947514176368713,0.9062489867210388,-0.4691368043422699,1.4099749326705933,104.5516128540039,24.11,0
-0.4026576578617096,-0.0943926498293876,0.9062493443489076,-0.2509089410305023,1.4099477529525757,104.54745483398438,24.11,0
-0.4039446413516998,-0.0941624119877815,0.9062495827674866,-0.0499590821564197,1.4099302291870115,104.54478454589844,24.11,0
-0.40477055311203,-0.0940146595239639,0.9062497615814208,-0.0213131364434957,1.409919023513794,104.5430679321289,24.11,0
-0.4053005874156952,-0.0939198434352874,0.9062498211860656,-0.1856411695480346,1.409911870956421,104.5419692993164,24.11,0
-0.4056407213211059,-0.0938589945435524,0.9062498807907104,-0.3340883553028106,1.4099072217941284,104.54126739501952,24.11,0
-0.4058589935302734,-0.0938199460506439,0.9006521701812744,-0.243059292435646,1.4099042415618896,104.5408172607422,24.11,0
-0.4059990644454956,-0.0937948897480964,0.9026576280593872,0.0052344305440783,1.4085252285003662,104.54052734375,24.11,0
-0.4060889780521393,-0.0937788039445877,0.9039446115493774,0.1287493109703064,1.4076402187347412,104.54033660888672,24.11,0
-0.4061466753482818,-0.0937684848904609,0.90477055311203,0.0217201057821512,1.4070723056793213,104.54021453857422,24.11,0
-0.4005859196186065,-0.0937618613243103,0.9053005576133728,-0.1723552197217941,1.4067078828811646,104.5401382446289,24.11,0
-0.4026151299476623,-0.0993553847074508,0.905640721321106,-0.3112318813800812,1.406473994255066,104.54009246826172,24.11,0
-0.4039173424243927,-0.0973472148180008,0.9058589935302734,-0.2928776741027832,1.4063239097595217,104.5400619506836,24.11,0
-0.404753029346466,-0.0960584878921508,0.9059990644454956,-0.0374838709831237,1.4062275886535645,104.5400390625,24.11,0
-0.4052893221378326,-0.0952314510941505,0.9060889482498168,0.3807760179042816,1.4061657190322876,104.54002380371094,24.11,0
-0.4056334793567657,-0.0947007089853286,0.9061466455459596,0.7136775255203247,1.4052082300186155,104.5400161743164,24.11,0
-0.4058543443679809,-0.0943601131439209,0.906183660030365,0.7517683506011963,1.4045937061309814,104.54000854492188,24.11,0
-0.4059960842132568,-0.0941415354609489,0.9062074422836304,0.5111022591590881,1.4041993618011477,104.54000854492188,24.11,0
-0.4060870409011841,-0.0940012633800506,0.9062227010726928,0.2312664538621902,1.4039462804794312,104.54000854492188,24.11,0
-0.4061454236507416,-0.0939112454652786,0.906232476234436,0.1484134942293167,1.403783917427063,104.54000854492188,24.11,0
-0.4061828851699829,-0.0938534811139106,0.9062387347221376,0.2636242806911468,1.4036797285079956,104.54000854492188,24.11,0
-0.4062069356441498,-0.0994141846895217,0.9062427878379822,0.3232296407222748,1.4036128520965576,104.54000854492188,24.11,0
-0.4062223732471466,-0.0973849445581436,0.9006475806236267,0.0999529138207435,1.4035699367523191,104.54000854492188,24.11,0
-0.4062322676181793,-0.0960826948285102,0.8970569372177124,-0.3621824979782104,1.4026241302490234,104.2139892578125,24.11,0
-0.4062386155128479,-0.1008447632193565,0.9003503918647766,-0.7948922514915466,1.4020172357559204,104.00476837158205,24.11,0
-0.406242698431015,-0.0983030125498771,0.902463972568512,-0.9292774200439452,1.401627779006958,103.8705062866211,24.11,0
-0.4062453210353851,-0.0966718643903732,0.9038203358650208,-0.7683203816413879,1.40137779712677,103.78433990478516,24.11,0
-0.4062469899654388,-0.0956250876188278,0.9046908020973206,-0.5575501322746277,1.401217341423035,103.72904205322266,24.11,0
-0.4062480628490448,-0.0949533209204673,0.8996516466140747,-0.4760285913944244,1.4011144638061523,103.6935577392578,24.11,0
-0.4062487483024597,-0.0945222228765487,0.9020155668258668,-0.4595384895801544,1.4010484218597412,103.67078399658205,24.11,0
-0.4062491953372955,-0.0942455679178237,0.9035325646400452,-0.3808871507644653,1.4010059833526611,103.65617370605467,24.11,0
-0.4062494933605194,-0.0940680280327797,0.9045060873031616,-0.2695094645023346,1.3991427421569824,103.64679718017578,24.11,0
-0.4062496721744537,-0.0939540937542915,0.8995330929756165,-0.2087814211845398,1.3979469537734983,103.64077758789062,24.11,0
-0.4062497913837433,-0.0938809737563133,0.9019394516944884,-0.1662270873785019,1.3971796035766602,103.6369171142578,24.11,0
-0.4062498807907104,-0.0938340499997139,0.903483748435974,-0.1030924022197723,1.396687150001526,103.63443756103516,24.11,0
-0.4062499105930328,-0.0938039347529411,0.9044747948646544,-0.0482458919286727,1.3963711261749268,103.63284301757812,24.11,0
-0.4062499403953552,-0.0993823856115341,0.905110776424408,0.0586029589176178,1.3961683511734009,103.63182067871094,24.11,0
-0.4062499701976776,-0.0973645374178886,0.9055188894271852,0.3063011765480041,1.3960381746292114,103.63116455078124,24.11,0
-0.4062499701976776,-0.0960696041584014,0.905780792236328,0.5727368593215942,1.3959546089172363,103.63074493408205,24.11,0
-0.4062499701976776,-0.0952385887503624,0.9059488773345948,0.6577381491661072,1.3959009647369385,103.63047790527344,24.11,0
-0.4062499701976776,-0.0947052910923957,0.9060567617416382,0.5546537637710571,1.395866632461548,103.63030242919922,24.11,0
-0.4062499701976776,-0.094363048672676,0.9061259627342224,0.3523622751235962,1.395844578742981,103.63019561767578,24.11,0
-0.4062499701976776,-0.0941434204578399,0.9005725979804993,0.1007356718182563,1.3958303928375244,103.630126953125,24.11,0
-0.4062499701976776,-0.0940024778246879,0.9026065468788148,-0.08940439671278,1.3958213329315186,103.6300811767578,24.11,0
-0.4062499701976776,-0.0939120277762413,0.903911828994751,-0.0860351994633674,1.3958154916763306,103.63005065917967,24.11,0
-0.4062499701976776,-0.099451757967472,0.9047495126724244,0.0522648319602012,1.395811676979065,103.6300277709961,24.11,0
-0.4062499701976776,-0.0974090620875358,0.9052870869636536,0.19833904504776,1.395809292793274,103.63002014160156,24.11,0
-0.4062499701976776,-0.1016959473490715,0.9056320786476136,0.3458197116851806,1.3935123682022097,103.63001251220705,24.11,0
-0.4062499701976776,-0.104447029531002,0.9058534502983092,0.4762900471687317,1.392038345336914,103.6300048828125,24.11,0
-0.4062499701976776,-0.1006147414445877,0.9059954881668092,0.4417934119701385,1.3910924196243286,103.6300048828125,24.11,0
-0.4062499701976776,-0.0981553941965103,0.9060866832733154,0.2333615124225616,1.390485405921936,103.6300048828125,24.11,0
-0.4062499701976776,-0.0965771302580833,0.9061452150344848,0.0924367755651474,1.390095829963684,103.6300048828125,24.11,0
-0.4062499701976776,-0.0955642908811569,0.9061827659606934,0.1524675637483596,1.389845848083496,103.6300048828125,24.11,0
-0.4006521999835968,-0.0949143096804618,0.9062068462371826,0.2017395943403244,1.3896853923797607,103.6300048828125,24.11,0
-0.4026576578617096,-0.1000949591398239,0.9006245136260986,0.1151345521211624,1.3895823955535889,103.6300048828125,24.11,0
-0.4039446413516998,-0.1034196019172668,0.902639865875244,0.0380609706044197,1.3899753093719482,103.32906341552734,24.11,0
-0.40477055311203,-0.0999553948640823,0.9039332270622252,-0.0006526893703266,1.390227437019348,103.1359405517578,24.11,0
-0.4053005874156952,-0.1033300384879112,0.9047632217407228,-0.1795476377010345,1.3903892040252686,103.0120086669922,24.11,0
-0.4056407213211059,-0.099897913634777,0.9052958488464355,-0.4806460440158844,1.3904930353164673,102.9324722290039,24.11,0
-0.4058589935302734,-0.097695380449295,0.9000399112701416,-0.630882740020752,1.3905596733093262,102.88143157958984,24.11,0
-0.4059990644454956,-0.0962819159030914,0.896666944026947,-0.5481672286987305,1.390602469444275,102.8486785888672,24.11,0
-0.4060889780521393,-0.0953748375177383,0.9001001715660095,-0.416268527507782,1.3906298875808716,102.8276596069336,24.11,0
-0.4061466753482818,-0.0947927236557006,0.9023033976554872,-0.3531189858913421,1.390647530555725,102.81417083740234,24.11,0
-0.4061836898326874,-0.0944191589951515,0.903717279434204,-0.2158637046813964,1.3888226747512815,102.80551147460938,24.11,0
-0.4062074422836303,-0.0941794291138649,0.90462464094162,0.080008216202259,1.3876516819000244,102.79995727539062,24.11,0
-0.4062227010726928,-0.094025582075119,0.9052069187164308,0.3307855725288391,1.3869001865386963,102.79638671875,24.11,0
-0.406232476234436,-0.0939268544316291,0.9055806398391724,0.3878253400325775,1.3864178657531738,102.79409790039062,24.11,0
-0.4062387645244598,-0.0938634946942329,0.9058204293251038,0.4100998640060425,1.3861083984375,102.79263305664062,24.11,0
-0.4062427878379822,-0.0938228368759155,0.9059743285179138,0.481715589761734,1.3859097957611084,102.79168701171876,24.11,0
-0.4062453806400299,-0.0937967449426651,0.9060730934143066,0.4201971888542175,1.3857823610305786,102.79108428955078,24.11,0
-0.4062470495700836,-0.0937799960374832,0.9061364531517028,0.1585985273122787,1.3857005834579468,102.79069519042967,24.11,0
-0.4062480926513672,-0.0937692523002624,0.9061771035194396,-0.0666016414761543,1.385189175605774,102.79044342041016,24.11,0
-0.4062487781047821,-0.0937623530626297,0.9062032103538512,-0.0749842822551727,1.3848609924316406,102.790283203125,24.11,0
-0.4062492251396179,-0.0937579274177551,0.9062199592590332,0.0056180404499173,1.3846503496170044,102.7901840209961,24.11,0
-0.4062494933605194,-0.0993528589606285,0.9062307476997375,-0.0716287493705749,1.3845151662826538,102.79011535644533,24.11,0
-0.4062496721744537,-0.102943368256092,0.9062376618385316,-0.2645043134689331,1.3844283819198608,102.79007720947266,24.11,0
-0.4062497913837433,-0.0996497720479965,0.9006443023681641,-0.2772209048271179,1.3843727111816406,102.79004669189452,24.11,0
-0.4062498807907104,-0.0975361317396164,0.9026525616645812,-0.0417665466666221,1.3843369483947754,102.79003143310548,24.11,0
-0.4062499105930328,-0.096179723739624,0.9039413928985596,0.1164996623992919,1.3843140602111816,102.79002380371094,24.11,0
-0.4062499403953552,-0.0953092575073242,0.8991706967353821,-0.0362970679998397,1.3833811283111572,102.7900161743164,24.11,0
-0.4062499701976776,-0.0947506427764892,0.9017069339752196,-0.2991516888141632,1.3827824592590332,102.79000854492188,24.11,0
-0.4062499701976776,-0.099989928305149,0.9033344984054564,-0.3997677266597748,1.382398247718811,102.79000854492188,24.11,0
-0.4062499701976776,-0.0977544263005256,0.9043790102005004,-0.4141812324523926,1.38215172290802,102.79000854492188,24.11,0
-0.4062499701976776,-0.0963198095560073,0.9050493240356444,-0.4879173636436462,1.381993532180786,102.79000854492188,24.11,0
-0.4062499701976776,-0.0953991562128067,0.9054794907569884,-0.4886634945869446,1.3818919658660889,102.79000854492188,24.11,0
-0.4062499701976776,-0.0948083326220512,0.9057555198669434,-0.3028483986854553,1.3818267583847046,102.79000854492188,24.11,0
-0.4062499701976776,-0.1000269502401351,0.900334894657135,-0.1334468722343444,1.3817849159240725,102.79000854492188,24.11,0
-0.4062499701976776,-0.0977781862020492,0.9024540185928344,-0.1680377572774887,1.3808398246765137,102.5069808959961,24.11,0
-0.4062499701976776,-0.0963350608944892,0.9038139581680298,-0.3263740837574005,1.3802334070205688,102.32534790039062,24.11,0
-0.4062499701976776,-0.095408946275711,0.904686689376831,-0.4351503551006317,1.3798441886901855,102.2087860107422,24.11,0
-0.4062499701976776,-0.0948146134614944,0.9052467346191406,-0.3867317140102386,1.3795944452285769,102.1339874267578,24.11,0
-0.4062499701976776,-0.0944332107901573,0.9056061506271362,-0.1442874670028686,1.3794341087341309,102.0859832763672,24.11,0
-0.4062499701976776,-0.0941884443163871,0.905836820602417,0.1725152134895324,1.3793312311172483,102.05517578125,24.11,0
-0.4062499701976776,-0.0940313711762428,0.9059848189353944,0.3794035017490387,1.3792651891708374,102.03540802001952,24.11,0
-0.4062499701976776,-0.0939305648207664,0.9060798287391664,0.4261906743049621,1.3792228698730469,102.02272033691406,24.11,0
-0.4062499701976776,-0.0938658788800239,0.9061408042907716,0.3917296528816223,1.3791956901550293,102.01457977294922,24.11,0
-0.4062499701976776,-0.0938243642449379,0.906179904937744,0.3266236186027527,1.3791782855987549,102.00935363769533,24.11,0
-0.4062499701976776,-0.0937977209687233,0.9062049984931946,0.2669294476509094,1.379167079925537,102.0060043334961,24.11,0
-0.4062499701976776,-0.0937806218862533,0.9006233215332031,0.2644469141960144,1.379159927368164,102.00385284423828,24.11,0
-0.4062499701976776,-0.0937696546316146,0.9026391506195068,0.2664363384246826,1.3791552782058716,102.00247192382812,24.11,0
-0.4062499701976776,-0.0937626138329505,0.9039327502250672,0.1674009263515472,1.3791522979736328,102.0015869140625,24.11,0
-0.4062499701976776,-0.0993558689951896,0.9047629237174988,0.032194186002016,1.379150390625,102.00101470947266,24.11,0
-0.4062499701976776,-0.0973475277423858,0.9052956700325012,0.0134952245280146,1.3791491985321045,102.00064849853516,24.11,0
-0.4062499701976776,-0.096058689057827,0.9056375622749328,0.0373210646212101,1.377771258354187,102.00041961669922,24.11,0
-0.4062499701976776,-0.0952315852046012,0.9058569669723512,-0.0691964477300643,1.376886963844299,102.0002670288086,24.11,0
-0.4062499701976776,-0.0947007983922958,0.9059977531433104,-0.1912918984889984,1.3763195276260376,102.00016784667967,24.11,0
-0.4062499701976776,-0.094360165297985,0.90608811378479,-0.1120124012231826,1.37595534324646,102.00010681152344,24.11,0
-0.4062499701976776,-0.0941415652632713,0.9005483388900757,0.0964979454874992,1.3757216930389404,102.00006866455078,24.11,0
-0.4062499701976776,-0.0940012857317924,0.9025909900665284,0.2303078770637512,1.3755717277526855,102.0000457763672,24.11,0
-0.4062499701976776,-0.0939112603664398,0.9039018750190736,0.3018490970134735,1.3754754066467283,102.00003051757812,24.11,0
-0.4062499701976776,-0.099451258778572,0.9047431349754332,0.3513427078723907,1.3754136562347412,102.0000228881836,24.11,0
-0.4062499701976776,-0.0974087417125701,0.905282974243164,0.2648798525333404,1.3753740787506104,102.00001525878906,24.11,0
-0.4062499701976776,-0.0960979685187339,0.9000316262245178,0.0159338768571615,1.3753485679626465,102.00000762939452,24.11,0
-0.4062499701976776,-0.0952567905187606,0.9022594094276428,-0.2011464983224868,1.375332236289978,102.00000762939452,24.11,0
-0.4062499701976776,-0.0947169736027717,0.9036890864372252,-0.2652221024036407,1.3753217458724976,102.00000762939452,24.11,0
-0.4062499701976776,-0.0943705514073371,0.9046065807342528,-0.2740989625453949,1.3753150701522827,102.00000762939452,24.11,0
-0.4062499701976776,-0.0941482335329055,0.9051953554153442,-0.2583001852035522,1.3753107786178589,102.00000762939452,24.11,0
-0.4062499701976776,-0.094005562365055,0.9055731892585754,-0.1371015906333923,1.3753080368041992,102.00000762939452,24.11,0
-0.4062499701976776,-0.0939140021800994,0.9058156609535216,0.0194933637976646,1.375306248664856,102.00000762939452,24.11,0
-0.4062499701976776,-0.0938552469015121,0.9059712886810304,0.0590832009911537,1.3739279508590698,101.73847198486328,24.11,0
-0.4062499701976776,-0.0938175395131111,0.906071126461029,0.0594116523861885,1.373043417930603,101.57064056396484,24.11,0
-0.4062499701976776,-0.0937933400273323,0.9061352014541626,0.2136731892824173,1.3724757432937622,101.4629364013672,24.11,0
-0.4062499701976776,-0.0937778130173683,0.9061763286590576,0.4882155656814575,1.372111439704895,101.39381408691406,24.11,0
-0.4062499701976776,-0.0937678515911102,0.9062027335166932,0.7073919773101807,1.371877670288086,101.34945678710938,24.11,0
-0.4062499701976776,-0.093761458992958,0.9062196612358092,0.7943081259727478,1.371727705001831,101.32099151611328,24.11,0
-0.4062499701976776,-0.0937573537230491,0.9062305092811584,0.6996177434921265,1.371631383895874,101.30271911621094,24.11,0
-0.4062499701976776,-0.0937547162175178,0.9006397128105164,0.427478939294815,1.3715696334838867,101.2909927368164,24.11,0
-0.4062499701976776,-0.0937530249357223,0.9026496410369872,0.1453586667776107,1.371530055999756,101.2834701538086,24.11,0
-0.4062499701976776,-0.0993497148156166,0.9039394855499268,0.0431267656385898,1.371504545211792,101.27864074707033,24.11,0
-0.4062499701976776,-0.0973435714840889,0.9047672152519226,0.0814149156212806,1.3714882135391235,101.27554321289062,24.11,0
-0.4062499701976776,-0.0960561484098434,0.8997006416320801,0.045082252472639,1.371477723121643,101.2735595703125,24.11,0
-0.4062499701976776,-0.0952299535274505,0.9020469784736632,-0.1896059364080429,1.3714710474014282,101.27228546142578,24.11,0
-0.4062499701976776,-0.100297525525093,0.903552770614624,-0.512178897857666,1.3714667558670044,101.27146911621094,24.11,0
-0.4062499701976776,-0.0979518219828605,0.9045190811157228,-0.6761967539787292,1.3714640140533447,101.27094268798828,24.11,0
-0.4062499701976776,-0.0964464843273162,0.9051392078399658,-0.5879949331283569,1.3714622259140017,101.2706069946289,24.11,0
-0.4062499701976776,-0.1010782197117805,0.9055371284484864,-0.4167496263980865,1.3696249723434448,101.2703857421875,24.11,0
-0.4062499701976776,-0.0984528288245201,0.9057925343513488,-0.3426800072193146,1.3684459924697876,101.27024841308594,24.11,0
-0.4062499701976776,-0.1023657768964767,0.9059564471244812,-0.3560501635074615,1.3676893711090088,101.27015686035156,24.11,0
-0.4062499701976776,-0.0992791131138801,0.906061589717865,-0.3610478043556213,1.3672038316726685,101.27009582519533,24.11,0
-0.4062499701976776,-0.097298264503479,0.9061290621757508,-0.3212640881538391,1.3668922185897827,101.27005767822266,24.11,0
-0.4062499701976776,-0.0960270687937736,0.9005746245384216,-0.2634900212287903,1.3666921854019165,101.27003479003906,24.11,0
-0.4062499701976776,-0.0952112898230552,0.9026078581809998,-0.2586571276187897,1.3665637969970703,101.27001953125,24.11,0
-0.4062499701976776,-0.0946877747774124,0.9039126634597778,-0.2913813889026642,1.3664814233779907,101.27001190185548,24.11,0
-0.4062499701976776,-0.0943518131971359,0.9047500491142272,-0.2192349880933761,1.3664286136627195,101.27000427246094,24.11,0
-0.4062499701976776,-0.0997339859604835,0.9052874445915222,-0.0009719463996589,1.3663947582244873,101.27000427246094,24.11,0
-0.4062499701976776,-0.0975901782512664,0.9056323170661926,0.1785050481557846,1.3663729429244995,101.27000427246094,24.11,0
-0.4062499701976776,-0.0962144061923027,0.9058536291122437,0.211283802986145,1.366358995437622,101.27000427246094,24.11,0
-0.4062499701976776,-0.0953315123915672,0.9059956073760986,0.2502321898937225,1.3663500547409058,101.27000427246094,24.11,0
-0.4062499701976776,-0.0947649255394935,0.9060867428779602,0.4292777776718139,1.366344332695007,101.27000427246094,24.11,0
-0.4062499701976776,-0.0944013223052024,0.9061452150344848,0.6444910168647766,1.3663406372070312,101.27000427246094,24.11,0
-0.4062499701976776,-0.0941679775714874,0.9061827659606934,0.7216987609863281,1.3663382530212402,101.27000427246094,24.11,0
-0.4062499701976776,-0.0996160060167312,0.9062068462371826,0.5957000255584717,1.364500641822815,100.86158752441406,24.11,0
-0.4062499701976776,-0.0975144654512405,0.9062222838401794,0.3357124924659729,1.3633214235305786,100.5994873046875,24.11,0
-0.4062499701976776,-0.0961658209562301,0.9062322378158568,0.0864682272076606,1.3625646829605105,100.43128967285156,24.11,0
-0.4062499701976776,-0.1008981093764305,0.906238615512848,0.0053342692553997,1.3620790243148804,100.32334899902344,24.11,0
-0.4062499701976776,-0.1039350181818008,0.9062426686286926,0.1288133710622787,1.361767292022705,100.25408172607422,24.11,0
-0.4062499701976776,-0.1002861559391021,0.9062452912330629,0.3441930413246155,1.3615672588348389,100.20962524414062,24.11,0
-0.4062499701976776,-0.0979445278644561,0.9062469601631165,0.4394204020500183,1.361438870429993,100.18109893798828,24.11,0
-0.4062499701976776,-0.0964418053627014,0.9062480330467224,0.271246999502182,1.361356496810913,100.16278839111328,24.11,0
-0.4062499701976776,-0.1010752171277999,0.9062487483024596,-0.0337186567485332,1.3622214794158936,100.15103912353516,24.11,0
-0.4062499701976776,-0.0984508991241455,0.9006513953208923,-0.1577765643596649,1.3627766370773315,100.14350128173828,24.11,0
-0.4062499701976776,-0.1023645401000976,0.8970593810081482,-0.0690087378025055,1.3631328344345093,100.13866424560548,24.11,0
-0.4062499701976776,-0.1048760935664177,0.9003520011901855,-0.126685082912445,1.3633614778518677,100.13555908203124,24.11,0
-0.4062499701976776,-0.1008900851011276,0.9024649858474731,-0.4252264499664306,1.363508224487305,100.1335678100586,24.11,0
-0.4062499701976776,-0.0983320921659469,0.9038209915161132,-0.5523267388343811,1.3636023998260498,100.13228607177734,24.11,0
-0.4062499701976776,-0.0966905206441879,0.904691219329834,-0.3114605844020843,1.363662838935852,100.1314697265625,24.11,0
-0.4062499701976776,-0.0956370532512664,0.8996518850326538,-0.0422441586852073,1.363701581954956,100.13094329833984,24.11,0
-0.4062499701976776,-0.0949610024690628,0.8964179158210754,-0.0271098688244819,1.3632675409317017,100.13060760498048,24.11,0
-0.4062499701976776,-0.0945271551609039,0.8999403119087219,-0.1786134541034698,1.3629889488220217,100.13038635253906,24.11,0
-0.4062499701976776,-0.0942487344145774,0.9022008180618286,-0.3546563982963562,1.3628102540969849,100.1302490234375,24.11,0
-0.4062499701976776,-0.0940700620412826,0.903651475906372,-0.5106215476989746,1.362695574760437,100.13015747070312,24.11,0
-0.4062499701976776,-0.093955397605896,0.9045824408531188,-0.5498071908950806,1.3626219034194946,100.13009643554688,24.11,0
-0.4062499701976776,-0.0938818156719207,0.9051798582077026,-0.3850777745246887,1.3625746965408323,100.13005828857422,24.11,0
-0.4062499701976776,-0.0938345938920974,0.8999654650688171,-0.0930699929594993,1.3625444173812866,100.13003540039062,24.11,0
-0.4062499701976776,-0.0938042849302291,0.9022169709205629,0.1014889255166053,1.3625249862670898,100.13002014160156,24.11,0
-0.4062499701976776,-0.0937848389148712,0.903661847114563,0.0543820261955261,1.3620535135269165,100.13001251220705,24.13,0
-0.4062499701976776,-0.0937723591923713,0.904589056968689,-0.1263166517019271,1.3617509603500366,100.1300048828125,24.13,0
-0.4062499701976776,-0.0937643498182296,0.9051840901374816,-0.253026396036148,1.3615567684173584,100.1300048828125,24.13,0
-0.4062499701976776,-0.0937592089176178,0.9055659770965576,-0.2734376192092895,1.3614321947097778,100.1300048828125,24.13,0
-0.4062499701976776,-0.0937559083104133,0.9058110117912292,-0.2292151600122451,1.3613522052764893,100.1300048828125,24.13,0
-0.4062499701976776,-0.0937537923455238,0.9059683084487916,-0.1076887622475624,1.3613009452819824,100.1300048828125,24.13,0
-0.4062499701976776,-0.099350206553936,0.9060692191123962,0.1279332190752029,1.3612680435180664,100.1300048828125,24.13,0
-0.4062499701976776,-0.1029416620731353,0.9061340093612672,0.4582706093788147,1.361246943473816,100.1300048828125,24.13,0
-0.4062499701976776,-0.0996486768126487,0.9061755537986756,0.7419136762619019,1.360315203666687,99.80398559570312,24.13,0
-0.4062499701976776,-0.0975354313850402,0.90620219707489,0.8343750238418579,1.3597172498703003,99.5947723388672,24.13,0
-0.4062499701976776,-0.0961792692542076,0.9062193036079408,0.7826516032218933,1.3593335151672363,99.46051025390624,24.13,0
-0.4062499701976776,-0.0953089669346809,0.906230330467224,0.7207978367805481,1.3590872287750244,99.37434387207033,24.13,0
-0.4062499701976776,-0.0947504565119743,0.9062373638153076,0.6022869944572449,1.35892915725708,99.3190460205078,24.13,0
-0.4062499701976776,-0.0999898090958595,0.9062418937683104,0.365017682313919,1.3588277101516724,99.28356170654295,24.13,0
-0.4062499701976776,-0.0977543517947197,0.9062448143959044,0.1339352130889892,1.3587626218795776,99.2607879638672,24.13,0
-0.4062499701976776,-0.0963197648525238,0.9062466621398926,-0.0645162537693977,1.3587208986282349,99.24617767333984,24.13,0
-0.4062499701976776,-0.0953991264104843,0.906247854232788,-0.3423391580581665,1.3568580150604248,99.23680114746094,24.13,0
-0.4062499701976776,-0.1004060879349708,0.9062486290931702,-0.556455671787262,1.35566246509552,99.23078155517578,24.13,0
-0.4062499701976776,-0.0980214923620224,0.9062491059303284,-0.5362300276756287,1.3548952341079712,99.22692108154295,24.13,0
-0.4062499701976776,-0.0964911952614784,0.9062494039535522,-0.501754879951477,1.3544028997421265,99.22444152832033,24.13,0
-0.4062499701976776,-0.0955091416835784,0.9062496423721312,-0.6838375329971313,1.354086995124817,99.22284698486328,24.13,0
-0.4062499701976776,-0.0948789194226265,0.9062497615814208,-0.832930862903595,1.353884220123291,99.2218246459961,24.13,0
-0.4062499701976776,-0.1000722497701644,0.9062498211860656,-0.6634998321533203,1.3537540435791016,99.2211685180664,24.13,0
-0.4062499701976776,-0.0978072583675384,0.9062498807907104,-0.3613096475601196,1.353670597076416,99.2207489013672,24.13,0
-0.4062499701976776,-0.0963537171483039,0.9062499403953552,-0.2139548510313034,1.354075908660889,99.2204818725586,24.13,0
-0.4062499701976776,-0.0954209193587303,0.9062499403953552,-0.1695470958948135,1.3543360233306885,99.22030639648438,24.13,0
-0.4062499701976776,-0.1004200726747512,0.9062499403953552,-0.0443192087113857,1.3545029163360596,99.22019958496094,24.13,0
-0.4062499701976776,-0.0980304703116417,0.9062499403953552,0.1542698442935943,1.3546100854873655,99.22013092041016,24.13,0
-0.4062499701976776,-0.0964969620108604,0.9062499403953552,0.3067908883094787,1.3546788692474363,99.22008514404295,24.13,0
-0.4062499701976776,-0.0955128446221351,0.9062499403953552,0.3939223885536194,1.3547229766845703,99.22005462646484,24.13,0
-0.4062499701976776,-0.0948812887072563,0.9062499403953552,0.5071595907211304,1.3547513484954834,99.22003173828124,24.13,0
-0.4062499701976776,-0.0944759994745254,0.9062499403953552,0.6443150639533997,1.3547694683074951,99.22002410888672,24.13,0
-0.4062499701976776,-0.0942159071564674,0.9062499403953552,0.6857600808143616,1.3520268201828003,99.2200164794922,24.09,0
-0.4062499701976776,-0.0940489917993545,0.9062499403953552,0.5368108749389648,1.350266695022583,99.22000885009766,24.09,0
-0.4062499701976776,-0.0995396524667739,0.9062499403953552,0.2262693047523498,1.3491371870040894,99.22000885009766,24.09,0
-0.4062499701976776,-0.0974654629826545,0.9062499403953552,-0.0195918548852205,1.3484123945236206,99.22000885009766,24.09,0
-0.4062499701976776,-0.0961343720555305,0.9062499403953552,0.0232528317719697,1.3479472398757937,99.22000885009766,24.09,0
-0.4062499701976776,-0.0952801555395126,0.9062499403953552,0.2406245917081833,1.3476487398147583,99.22000885009766,24.09,0
-0.4062499701976776,-0.0947319641709327,0.9062499403953552,0.3120523393154144,1.3474571704864502,99.22000885009766,24.09,0
-0.4062499701976776,-0.0943801701068878,0.9062499403953552,0.1751791983842849,1.3473342657089231,99.22000885009766,24.09,0
-0.4062499701976776,-0.0941544100642204,0.9006521701812744,-0.081039160490036,1.3481734991073608,98.94414520263672,24.09,0
-0.4062499701976776,-0.0940095260739326,0.9026576280593872,-0.4138464033603668,1.3487120866775513,98.7671127319336,24.09,0
-0.4062499701976776,-0.0939165502786636,0.9039446115493774,-0.5915971994400024,1.3490577936172483,98.65350341796876,24.09,0
-0.4062499701976776,-0.0994546562433242,0.90477055311203,-0.372487872838974,1.3492796421051023,98.58059692382812,24.09,0
-0.4062499701976776,-0.0974109172821044,0.9053005576133728,-0.0061738584190607,1.3494219779968262,98.53380584716795,24.09,0
-0.4062499701976776,-0.0960993692278862,0.905640721321106,0.0748546347022056,1.349513292312622,98.5037841796875,24.09,0
-0.4062499701976776,-0.0952576920390129,0.9058589935302734,-0.0486921519041061,1.349571943283081,98.48451232910156,24.09,0
-0.4062499701976776,-0.0947175472974777,0.9059990644454956,-0.052743274718523,1.349609613418579,98.4721450805664,24.09,0
-0.4062499701976776,-0.0943709164857864,0.9060889482498168,0.0127258822321891,1.3477972745895386,98.4642105102539,24.09,0
-0.4062499701976776,-0.0941484719514846,0.9061466455459596,-0.1279711425304412,1.3466342687606812,98.45912170410156,24.09,0
-0.4062499701976776,-0.0996034890413284,0.906183660030365,-0.3938085734844208,1.3458878993988037,98.4558563232422,24.09,0
-0.4062499701976776,-0.097506433725357,0.9006096720695496,-0.4640956223011017,1.345408916473389,98.4537582397461,24.09,0
-0.4062499701976776,-0.096160665154457,0.9026303887367249,-0.2727518081665039,1.3451015949249268,98.45240783691406,24.09,0
-0.4062499701976776,-0.095297023653984,0.9039271473884584,0.0005097984103485,1.3449043035507202,98.45154571533205,24.09,0
-0.4062499701976776,-0.0947427898645401,0.9047593474388124,0.2690203189849853,1.3447777032852173,98.45098876953124,24.09,0
-0.4062499701976776,-0.0943871140480041,0.9052934050559998,0.4771606922149658,1.3446965217590332,98.45063018798828,24.09,0
-0.4062499701976776,-0.0941588655114173,0.9056361317634584,0.5175862312316895,1.3446444272994995,98.45040130615234,24.09,0
-0.4062499701976776,-0.0940123870968818,0.9058560729026794,0.3966434001922607,1.3446109294891355,98.45025634765624,24.09,0
-0.4062499701976776,-0.0995161607861518,0.9059972167015076,0.2115519940853119,1.3445894718170166,98.45016479492188,24.09,0
-0.4062499701976776,-0.097450390458107,0.9060877561569214,0.0032065822742879,1.3445756435394287,98.45010375976562,24.09,0
-0.4062499701976776,-0.0961247012019157,0.9061458706855774,-0.1018368899822235,1.344566822052002,98.45006561279295,24.09,0
-0.4062499701976776,-0.1008717194199562,0.9061831831932068,0.0707848146557807,1.3445611000061035,98.45004272460938,24.09,0
-0.4062499701976776,-0.0983203127980232,0.9062071442604064,0.4144308865070343,1.344557523727417,98.45002746582033,24.09,0
-0.4062499701976776,-0.0966829657554626,0.9006247520446777,0.5883896946907043,1.344555139541626,98.45001983642578,24.09,0
-0.4062499701976776,-0.0956322103738784,0.9026400446891784,0.4349158406257629,1.3427176475524902,98.45001220703124,24.11,0
-0.4062499701976776,-0.0949578955769538,0.9039333462715148,0.1501312255859375,1.341538429260254,98.45000457763672,24.11,0
-0.4062499701976776,-0.0945251584053039,0.8991655111312866,0.0461895242333412,1.3407816886901855,98.45000457763672,24.11,0
-0.4062499701976776,-0.0942474529147148,0.8961058259010315,0.2159357070922851,1.3402960300445557,98.45000457763672,24.11,0
-0.4062499701976776,-0.0996670126914978,0.8997400403022766,0.4180159866809845,1.3399842977523804,98.45000457763672,24.11,0
-0.4062499701976776,-0.0975471958518028,0.8964744806289673,0.3148320913314819,1.3397842645645142,98.45000457763672,24.11,0
-0.4062499701976776,-0.0961868241429328,0.8999766111373901,-0.1705467402935028,1.339655876159668,98.45000457763672,24.11,0
-0.4062499701976776,-0.0953138098120689,0.9022241234779358,-0.7363978028297424,1.3395735025405884,98.45000457763672,24.11,0
-0.4062499701976776,-0.0947535634040832,0.9036664366722108,-1.024294376373291,1.3399795293807983,98.28878784179688,24.11,0
-0.4062499701976776,-0.0943940281867981,0.9045920372009276,-0.9976778626441956,1.3402401208877563,98.1853256225586,24.11,0
-0.4062499701976776,-0.0941632986068725,0.9051859974861144,-0.8802847862243652,1.340407371520996,98.11893463134766,24.11,0
-0.4062499701976776,-0.0940152332186698,0.9055671691894532,-0.7691228985786438,1.3405146598815918,98.07632446289062,24.11,0
-0.4062499701976776,-0.0939202085137367,0.9058117866516112,-0.6225515604019165,1.340583562850952,98.04898071289062,24.11,0
-0.4062499701976776,-0.0938592329621315,0.9059687852859496,-0.421013206243515,1.3406277894973757,98.03143310546876,24.11,0
-0.4062499701976776,-0.0938201025128364,0.9004717469215393,-0.1161312982439994,1.3406561613082886,98.02017211914062,24.11,0
-0.4062499701976776,-0.0993927642703056,0.9025418758392334,0.2550705671310425,1.3406744003295898,98.01294708251952,24.11,0
-0.4062499701976776,-0.0973711982369422,0.9038703441619872,0.4897040128707886,1.3397681713104248,98.00830841064452,24.11,0
-0.4062499701976776,-0.0960738733410835,0.9047228693962096,0.5005577802658081,1.339186668395996,98.00533294677734,24.11,0
-0.4062499701976776,-0.095241330564022,0.905269980430603,0.403628408908844,1.338813543319702,98.00342559814452,24.11,0
-0.4062499701976776,-0.0947070494294166,0.90562105178833,0.2303648740053177,1.3385740518569946,98.002197265625,24.11,0
-0.4062499701976776,-0.0943641811609268,0.9002485871315002,0.0081144776195287,1.3384203910827637,98.00141143798828,24.11,0
-0.4062499701976776,-0.0997419208288192,0.902398645877838,-0.0664441064000129,1.3383216857910156,98.00090789794922,24.11,0
-0.4062499701976776,-0.0975952669978141,0.9037784337997437,0.0970804393291473,1.3382583856582642,98.00057983398438,24.11,0
-0.4062499701976776,-0.1018154472112655,0.9046639204025269,0.3524892628192901,1.3382177352905271,98.00037384033205,24.11,0
-0.4062499701976776,-0.1045237109065055,0.9052321314811708,0.5772997736930847,1.3372734785079956,98.00023651123048,24.11,0
-0.4062499701976776,-0.1006639450788497,0.8999990224838257,0.7323179244995117,1.336667537689209,98.00015258789062,24.11,0
-0.4062499701976776,-0.09818696975708,0.9022384881973268,0.7422352433204651,1.3362786769866943,98.0000991821289,24.11,0
-0.4062499701976776,-0.0965973883867263,0.903675615787506,0.65187007188797,1.336029052734375,98.00006103515624,24.11,0
-0.4062499701976776,-0.0955772921442985,0.9045979380607604,0.6082091927528381,1.3358689546585083,98.00003814697266,24.11,0
-0.4062499701976776,-0.0949226543307304,0.8995920419692993,0.5694424510002136,1.3357661962509155,98.0000228881836,24.11,0
-0.4062499701976776,-0.1001003161072731,0.9019773006439208,0.3869308531284332,1.3357001543045044,98.00001525878906,24.11,0
-0.4062499701976776,-0.0978252664208412,0.9035080075263976,0.1659107208251953,1.335657835006714,98.00000762939452,24.11,0
-0.4062499701976776,-0.0963652729988098,0.9044903516769408,0.1387151330709457,1.3356306552886963,98.00000762939452,24.11,0
-0.4062499701976776,-0.101026102900505,0.9051207304000854,0.2860610485076904,1.335613250732422,98.00000762939452,24.11,0
-0.4062499701976776,-0.0984193831682205,0.9055253267288208,0.4164449274539947,1.335602045059204,98.00000762939452,24.11,0
-0.4062499701976776,-0.0967465415596962,0.9001871943473816,0.4177185595035553,1.335594892501831,98.00000762939452,24.11,0
-0.4062499701976776,-0.0956730097532272,0.9023592472076416,0.2501548528671264,1.3355902433395386,98.00000762939452,24.11,0
-0.4062499701976776,-0.0949840769171714,0.9037531614303588,-0.093827873468399,1.3355872631072998,98.00000762939452,24.11,0
-0.4062499701976776,-0.09454195946455,0.9046476483345032,-0.4113057553768158,1.335585355758667,98.00000762939452,24.11,0
-0.4062499701976776,-0.0942582339048385,0.905221700668335,-0.4108379483222961,1.3355841636657717,98.00000762939452,24.11,0
-0.4062499701976776,-0.0940761566162109,0.9055901169776917,-0.1275142729282379,1.3328291177749634,97.84595489501952,24.11,0
-0.4062499701976776,-0.0939593091607093,0.9058265089988708,0.0543065406382083,1.3310610055923462,97.7470932006836,24.11,0
-0.4062499701976776,-0.0938843190670013,0.9059782028198242,-0.1156173571944236,1.329926371574402,97.68364715576172,24.11,0
-0.4062499701976776,-0.0938361957669258,0.9060755968093872,-0.4718624651432037,1.3291982412338257,97.64292907714844,24.11,0
-0.4062499701976776,-0.0938053131103515,0.9061380624771118,-0.675402045249939,1.3287309408187866,97.6167984008789,24.11,0
-0.4062499701976776,-0.0937854945659637,0.9061781764030457,-0.5552417039871216,1.3284311294555664,97.60002899169922,24.11,0
-0.4062499701976776,-0.0937727764248848,0.9062039256095886,-0.2130191475152969,1.3282387256622314,97.58927154541016,24.11,0
-0.4062499701976776,-0.0937646180391311,0.9062204360961914,0.0030170115642249,1.3281152248382568,97.58236694335938,24.11,0
-0.4062499701976776,-0.0937593802809715,0.9062310457229614,-0.1951055228710174,1.3280359506607056,97.57793426513672,24.11,0
-0.4062499701976776,-0.0937560200691223,0.9062378406524658,-0.6446809768676758,1.3279850482940674,97.57508850097656,24.11,0
-0.4062499701976776,-0.0993516370654106,0.9062421917915344,-0.8615410923957825,1.3279523849487305,97.5732650756836,24.11,0
-0.4062499701976776,-0.1029425859451294,0.9006472229957581,-0.6818602085113525,1.3279314041137695,97.57209777832033,24.11,0
-0.4062499701976776,-0.0996492728590965,0.8970566987991333,-0.3587619662284851,1.3279180526733398,97.57134246826172,24.11,0
-0.4062499701976776,-0.0975358113646507,0.8947525024414062,-0.1263380795717239,1.3279094696044922,97.57086181640624,24.11,0
-0.4062499701976776,-0.0961795151233673,0.8988715410232544,-0.0631636306643486,1.3279038667678833,97.570556640625,24.11,0
-0.4062499701976776,-0.0953091233968734,0.9015149474143982,-0.1802552193403244,1.3279002904891968,97.5703582763672,24.11,0
-0.4062499701976776,-0.0947505533695221,0.9032112956047058,-0.2840584814548492,1.3269797563552856,97.57022857666016,24.11,0
-0.4062499701976776,-0.0943920984864234,0.9042999148368835,-0.1178060173988342,1.3263890743255615,97.57014465332033,24.11,0
-0.4062499701976776,-0.0941620618104934,0.8994007706642151,0.2074223607778549,1.32600998878479,97.5700912475586,24.11,0
-0.4062499701976776,-0.094014436006546,0.9018545746803284,0.3158230781555176,1.325766682624817,97.57006072998048,24.11,0
-0.4062499701976776,-0.0939197018742561,0.9034292697906494,0.1059475392103195,1.325610637664795,97.57003784179688,24.11,0
-0.4062499701976776,-0.0938589051365852,0.9044398069381714,-0.1935369968414306,1.3255105018615725,97.5700225830078,24.11,0
-0.4062499701976776,-0.0938198864459991,0.8994905352592468,-0.4645455777645111,1.3254461288452148,97.57001495361328,24.11,0
-0.4062499701976776,-0.0937948524951934,0.8963143825531006,-0.7351928353309631,1.3254048824310305,97.57000732421876,24.11,0
-0.4062499701976776,-0.0937787815928459,0.8998739123344421,-0.8014013767242432,1.32629656791687,97.57000732421876,24.11,0
-0.4062499701976776,-0.0937684699892997,0.8965604305267334,-0.4498068988323211,1.3268688917160034,97.57000732421876,24.11,0
-0.4062499701976776,-0.0993596240878105,0.9000318050384521,0.1054231598973274,1.3272361755371094,97.57000732421876,24.11,0
-0.4062499701976776,-0.0973499342799186,0.9022595286369324,0.5154764652252197,1.3274718523025513,97.57000732421876,24.11,0
-0.4062499701976776,-0.0960602313280105,0.90368914604187,0.7392167448997498,1.3276231288909912,97.57000732421876,24.11,0
-0.4062499701976776,-0.0952325761318206,0.9046065807342528,0.8004011511802673,1.3277201652526855,97.57000732421876,24.11,0
-0.4062499701976776,-0.0947014316916465,0.9051953554153442,0.5853028893470764,1.327782392501831,97.57000732421876,24.11,0
-0.4062499701976776,-0.0943605750799179,0.9055731892585754,0.228728100657463,1.3278223276138306,97.57000732421876,24.11,0
-0.4062499701976776,-0.0941418334841728,0.9058156609535216,0.1002110391855239,1.3264708518981934,97.4947738647461,24.11,0
-0.4062499701976776,-0.0940014570951461,0.9059712886810304,0.2255255877971649,1.3256036043167114,97.4464874267578,24.11,0
-0.4062499701976776,-0.0939113721251487,0.906071126461029,0.2772846519947052,1.3250470161437988,97.4155044555664,24.11,0
-0.4062499701976776,-0.0938535556197166,0.9061352014541626,0.1815278977155685,1.324689865112305,97.39562225341795,24.11,0
-0.4062499701976776,-0.0938164591789245,0.9061763286590576,0.1308244615793228,1.3244606256484983,97.3828582763672,24.11,0
-0.4062499701976776,-0.0993904247879982,0.9062027335166932,0.0982859134674072,1.3243135213851929,97.37467193603516,24.11,0
-0.4062499701976776,-0.1029674708843231,0.9062196612358092,-0.0444030314683914,1.3242191076278689,97.36941528320312,24.11,0
-0.4062499701976776,-0.0996652394533157,0.9062305092811584,-0.2147892415523529,1.3241585493087769,97.36604309082033,24.11,0
-0.4062499701976776,-0.0975460633635521,0.9062374830245972,-0.2775598168373108,1.3245785236358645,97.36387634277344,24.11,0
-0.4062499701976776,-0.1017838716506958,0.9062419533729552,-0.2605211436748504,1.3248480558395386,97.36248779296876,24.11,0
-0.4062499701976776,-0.0989056751132011,0.9062448143959044,-0.1600223183631897,1.3250210285186768,97.3615951538086,24.11,0
-0.4062499701976776,-0.0970586165785789,0.9006488919258118,-0.0238764490932226,1.3251320123672483,97.36102294921876,24.11,0
-0.4062499701976776,-0.1014710515737533,0.90265554189682,-0.0332354083657264,1.3252032995224,97.36065673828124,24.11,0
-0.4062499701976776,-0.0987049266695976,0.9039433002471924,-0.1789619028568267,1.3252490758895874,97.36042022705078,24.11,0
-0.4062499701976776,-0.0969297885894775,0.9047697186470032,-0.1900815367698669,1.325278401374817,97.36026763916016,24.11,0
-0.4062499701976776,-0.0957906022667884,0.9053000211715698,0.0105719109997153,1.325297236442566,97.36016845703124,24.11,0
