acc_x,acc_y,acc_z,bvp,eda,hr,temp,label
0.0,0.0,0.0,0.0,0.0,0.0,25.65,0
-0.0338541641831398,-0.1406249850988388,0.0546874962747097,-2.12666654586792,0.4629157781600952,10.499999046325684,25.65,0
-0.0834603682160377,-0.3460365831851959,0.123856708407402,-5.722682952880859,1.0839004516601562,24.58536529541016,25.65,0
-0.1216258332133293,-0.5197259187698364,0.1890054047107696,-9.565016746520996,1.6240501403808594,36.83720779418945,25.65,0
-0.1227786019444465,-0.6357652544975281,0.2365348935127258,-12.699602127075195,2.0181186199188232,45.77558898925781,25.65,0
-0.0906207486987114,-0.6978596448898315,0.2522451877593994,-14.393211364746094,2.284919500350952,51.82725143432617,25.65,0
-0.1805820912122726,-0.8107924461364746,0.2292349487543106,-15.205928802490234,2.459979295730591,55.79801177978516,25.65,0
-0.2109489887952804,-0.8783541917800903,0.1808563470840454,-17.064184188842773,2.573356866836548,58.36967849731445,25.65,0
-0.2193301320075988,-0.9162853956222534,0.1608725637197494,-21.16990089416504,2.6496005058288574,60.026275634765625,25.65,0
-0.2023384869098663,-0.9350707530975342,0.1592174172401428,-27.14233016967773,2.698605537414551,61.09103775024414,25.65,0
-0.1914272308349609,-0.9359408617019652,0.1581545621156692,-34.3193244934082,2.730074167251587,61.7747802734375,25.65,0
-0.1844231635332107,-0.9309021234512328,0.1686667948961258,-42.526466369628906,2.750274419784546,62.21368408203125,25.65,0
-0.1799278706312179,-0.9388633370399476,0.1754136681556701,-51.93162536621094,2.7632391452789307,62.49537658691406,25.65,0
-0.1826405972242355,-0.9439725875854492,0.179743617773056,-62.58187103271485,2.771559476852417,62.6761589050293,25.65,0
-0.1787837594747543,-0.9472514986991882,0.1769246459007263,-73.7730941772461,2.776899099349976,62.79217529296875,25.65,0
-0.1819064170122146,-0.943757951259613,0.1751155704259872,-84.80270385742188,2.7803258895874023,62.86663055419922,25.65,0
-0.1839103549718856,-0.9471137523651124,0.1683568507432937,-96.45584106445312,2.780688762664795,62.91440963745117,25.65,0
-0.1795985996723175,-0.9436695575714112,0.1640194803476333,-110.11768341064452,2.780921697616577,62.945072174072266,25.65,0
-0.1824293285608291,-0.9358614683151244,0.1556382328271865,-126.51237487792967,2.781071186065674,62.964752197265625,25.65,0
-0.1954414844512939,-0.942046284675598,0.1502596288919448,-146.4055633544922,2.7811670303344727,62.97737884521485,25.65,0
-0.1981941610574722,-0.9404175281524658,0.1468079537153244,-167.408203125,2.781228542327881,62.98548126220703,25.65,0
-0.1887651234865188,-0.9449700713157654,0.1389950960874557,-178.99847412109375,2.781268119812012,62.990684509277344,25.65,0
-0.1547252386808395,-0.97588050365448,0.133981242775917,-168.06141662597656,2.7812933921813965,62.994022369384766,25.65,0
-0.1496737152338028,-0.9733259677886964,0.1307636499404907,-130.15367126464844,2.7813096046447754,62.99616241455078,25.65,0
-0.1520297229290008,-0.971686601638794,0.1231010034680366,-69.91134643554688,2.7808611392974854,62.997535705566406,25.65,0
-0.1479438990354538,-0.9650367498397828,0.1181835606694221,3.363553285598755,2.7805733680725098,62.998416900634766,25.65,0
-0.1397240757942199,-0.9607692956924438,0.115027830004692,74.20771026611328,2.780388593673706,62.998985290527344,25.65,0
-0.1344490647315979,-0.958030641078949,0.1130026578903198,125.25664520263672,2.7802700996398926,62.99934768676758,25.65,0
-0.1310638636350631,-0.9562731385231018,0.1061052456498146,150.41468811035156,2.780194044113159,62.99958038330078,25.65,0
-0.1288914382457733,-0.9439497590065002,0.1016788855195045,157.07301330566406,2.780145168304444,62.99972915649414,25.65,0
-0.1330950707197189,-0.9416390657424928,0.0988382995128631,154.74325561523438,2.780113935470581,62.99982452392578,25.65,0
-0.1357927322387695,-0.951351761817932,0.097015380859375,148.96339416503906,2.7800939083099365,62.99988555908203,25.65,0
-0.1487194746732711,-0.96318256855011,0.0958455353975296,143.77102661132812,2.768604516983032,61.32686614990234,25.65,0
-0.1514173448085785,-0.9651771187782288,0.0950947925448417,141.86831665039062,2.7612314224243164,60.25321578979492,25.65,0
-0.1531486809253692,-0.9720548987388612,0.1002107858657836,142.8469696044922,2.756499767303467,59.564208984375,25.65,0
-0.1598575264215469,-0.9708709120750428,0.1090917065739631,145.29495239257812,2.7534632682800293,59.12204360961914,25.65,0
-0.1585651040077209,-0.9589155316352844,0.1147909760475158,149.8538055419922,2.751514673233032,58.838287353515625,25.65,0
-0.1633334755897522,-0.9400476813316344,0.1184484362602233,158.12818908691406,2.7502641677856445,58.65618896484375,25.65,0
-0.1719913184642791,-0.9447327256202698,0.1151978075504303,169.71847534179688,2.7494616508483887,58.539329528808594,25.65,0
-0.1887429654598236,-0.9813259840011596,0.1075139716267585,182.70944213867188,2.7489466667175293,58.46433639526367,25.65,0
-0.2050909847021103,-1.0104072093963623,0.102582924067974,196.46673583984372,2.7408125400543213,58.41621017456055,25.65,0
-0.2099844366312027,-0.984287679195404,0.0938206911087036,211.47531127929688,2.735592603683472,58.38532638549805,25.65,0
-0.2075269967317581,-0.9787212014198304,0.0825998187065124,226.2156982421875,2.732242584228516,58.36550521850586,25.65,0
-0.2115477174520492,-0.991942286491394,0.0809966847300529,235.42803955078125,2.730092763900757,58.352787017822266,25.65,0
-0.2253235429525375,-0.9892312288284302,0.0799678787589073,231.63121032714844,2.728713274002075,58.34462356567383,25.65,0
-0.228566288948059,-0.965100347995758,0.0737098827958107,209.09637451171875,2.727828025817871,58.339385986328125,25.65,0
-0.2138539850711822,-0.938418984413147,0.0696938559412956,166.86268615722656,2.727259874343872,58.33602523803711,25.65,0
-0.2044124752283096,-0.9156986474990844,0.0727143734693527,106.9574737548828,2.726895332336426,58.333866119384766,25.65,0
-0.2039512246847152,-0.8955202698707581,0.0746527686715126,32.56619644165039,2.7220704555511475,58.332481384277344,25.65,0
-0.1980574429035186,-0.8937665224075317,0.0702989473938942,-46.9620361328125,2.7189743518829346,58.33159255981445,25.65,0
-0.1998729407787323,-0.8982388377189636,0.0675049126148223,-114.28507232666016,2.716987371444702,58.33102416992188,25.65,0
-0.2066357880830764,-0.9179022312164308,0.0657118633389473,-156.16714477539062,2.715712308883667,58.330657958984375,25.65,0
-0.216573566198349,-0.9361188411712646,0.0645611882209777,-173.99864196777344,2.7148940563201904,58.33042144775391,25.65,0
-0.2341466099023819,-0.9534069895744324,0.063822753727436,-176.84727478027344,2.7143688201904297,58.33027267456055,25.65,0
-0.2510217428207397,-0.9645015001296996,0.0689466446638107,-170.75787353515625,2.71403169631958,58.330177307128906,25.65,0
-0.2618512511253357,-0.9772191047668456,0.0778326317667961,-159.204833984375,2.713815450668335,58.330116271972656,25.65,0
-0.2520076632499695,-0.9853805303573608,0.083535149693489,-145.94041442871094,2.713217735290528,58.330074310302734,25.65,0
-0.2456906288862228,-1.0633891820907593,0.0704013705253601,-132.5306854248047,2.712834119796753,58.33004760742188,25.65,0
-0.2472344934940338,-1.1190483570098877,0.0563750974833965,-117.82396697998048,2.71258807182312,58.33003234863281,25.65,0
-0.2482252568006515,-1.121180534362793,0.041776068508625,-101.6866226196289,2.712430000305176,58.330020904541016,25.65,0
-0.2488610744476318,-1.1281466484069824,0.021211702376604,-86.31500244140625,2.7123286724090576,58.33001327514648,25.65,0
-0.2380735576152801,-1.1550081968307495,0.0080146752297878,-73.29412841796875,2.712263584136963,58.33000946044922,25.65,0
-0.1751729995012283,-1.0938775539398191,0.0051433574408292,-61.907222747802734,2.71222186088562,58.33000564575195,25.65,0
-0.1124159470200538,-1.021060824394226,0.0033007108140736,-51.07809066772461,2.7121951580047607,58.33000564575195,25.65,0
-0.0497509874403476,-0.9575378894805908,-0.0034795685205608,-41.19803237915039,2.705751180648804,63.40651321411133,25.65,0
-0.0151339983567595,-0.9279680848121644,-0.0246240831911563,-33.15943908691406,2.701615810394287,66.66432189941406,25.65,0
0.0014834201429039,-0.9257851839065552,-0.043791189789772,-26.761159896850582,2.698961973190308,68.75499725341797,25.65,0
0.0009519736631773,-0.8963954448699951,-0.0504937618970871,-21.01787567138672,2.697258710861206,70.09667205810547,25.65,0
-0.0161824002861976,-0.8607414960861206,-0.0491973124444484,-15.573122024536133,2.6961658000946045,70.95767974853516,25.65,0
-0.0271782558411359,-0.8378608226776123,-0.0371697768568992,-11.011384963989258,2.695464372634888,71.5102310180664,25.65,0
-0.0286369882524013,-0.8231773376464844,-0.0238534230738878,-7.797318458557129,2.695014238357544,71.86482238769531,25.65,0
-0.0407686680555343,-0.8193520903587341,-0.0097099803388118,-5.559169292449951,2.694725275039673,72.09237670898438,25.65,0
-0.0429563075304031,-0.8168972730636597,0.0105620166286826,-3.678614616394043,2.689490795135498,72.23841094970703,25.65,0
-0.0443602092564106,-0.8377130031585693,0.0347669646143913,-2.10994291305542,2.686131477355957,72.3321304321289,25.65,0
-0.0564566999673843,-0.873462438583374,0.0503003075718879,-1.1677459478378296,2.6839756965637207,72.39227294921875,25.65,0
-0.069817304611206,-0.9020021557807922,0.0602687150239944,-0.8174610733985901,2.6825921535491943,72.43087005615234,25.65,0
-0.106380246579647,-0.9483062028884888,0.077861413359642,-0.6034160852432251,2.68170428276062,72.45563507080078,25.65,0
-0.1354420185089111,-0.9892169833183287,0.094749167561531,-0.2116914987564087,2.6811344623565674,72.47152709960938,25.65,0
-0.1428966373205185,-1.0378623008728027,0.1111845299601554,0.3048053979873657,2.6807689666748047,72.48172760009766,25.65,0
-0.1252894848585128,-1.108264446258545,0.1161340251564979,0.7580709457397461,2.6805343627929688,72.48827362060547,25.65,0
-0.1251857727766037,-1.203824520111084,0.1137125566601753,0.9844642877578736,2.6822197437286377,72.49247741699219,25.65,0
-0.1866947412490844,-1.3827027082443235,0.0953652709722518,0.914795994758606,2.683301448822021,72.49517059326172,25.65,0
-0.2205698788166046,-1.3967365026474,0.0779932662844657,0.6336368918418884,2.683995723724365,72.49690246582031,25.65,0
-0.1863312423229217,-1.2266137599945068,0.0500515885651111,0.2955718338489532,2.684441089630127,72.49800872802734,25.65,0
-0.136369988322258,-1.128634333610535,0.0209246817976236,0.0141347907483577,2.6847269535064697,72.49872589111328,25.65,0
-0.1043077334761619,-1.0713545083999634,-0.0145606147125363,-0.116319254040718,2.684910535812378,72.49918365478516,25.65,0
-0.1061231195926666,-1.0289978981018066,-0.0653219074010849,-0.0925598815083503,2.685028314590454,72.49947357177734,25.65,0
-0.1016903594136238,-0.979424774646759,-0.1090931296348571,-0.091642789542675,2.6851038932800293,72.49966430664062,25.65,0
-0.0988456681370735,-0.9084271788597108,-0.1371829807758331,-0.3060087859630584,2.677807569503784,72.49978637695312,25.65,0
-0.0858245566487312,-0.8908538818359375,-0.166404977440834,-0.6800265312194824,2.6731252670288086,72.49986267089844,25.65,0
-0.0774683579802513,-0.8739785552024841,-0.1795601993799209,-0.90571928024292,2.670120477676392,72.49990844726562,25.65,0
-0.0833013802766799,-0.8463556170463562,-0.1768069118261337,-0.7675324082374573,2.668192148208618,72.49993896484375,25.65,0
-0.0870446786284446,-0.8286288380622864,-0.15264892578125,-0.4280717670917511,2.666954755783081,72.49996185302734,25.65,0
-0.089446909725666,-0.8284483551979065,-0.1315479427576065,-0.2567989230155945,2.6661605834960938,72.4999771118164,25.65,0
-0.1077818498015403,-0.8339303135871887,-0.1012132242321968,-0.3546752631664276,2.6656508445739746,72.49998474121094,25.65,0
-0.1195481568574905,-0.8486438393592834,-0.0761483684182167,-0.4425647258758545,2.6653237342834477,72.49999237060547,25.65,0
-0.1159035488963127,-0.8860750198364258,-0.0488676391541957,-0.2051958888769149,2.670163631439209,75.61683654785156,25.65,0
-0.1135646477341651,-0.9268894791603088,-0.0313604362308979,0.3412171006202698,2.673269510269165,77.6170425415039,25.65,0
-0.1008681282401084,-1.003461837768555,-0.0201253220438957,0.8530893921852112,2.675262689590454,78.90066528320312,25.65,0
-0.1095135509967804,-1.1085792779922483,-0.02411082200706,1.088432550430298,2.676541805267334,79.72441864013672,25.65,0
-0.1262572407722473,-1.2096242904663086,-0.0434618107974529,1.099741816520691,2.6773626804351807,80.25305938720703,25.65,0
-0.1705890148878097,-1.2576758861541748,-0.050282385200262,0.992357075214386,2.677889347076416,80.5923080444336,25.65,0
-0.2382230162620544,-1.1653615236282349,0.0013183072442188,0.8052186965942383,2.678227424621582,80.81002044677734,25.65,0
-0.25923553109169,-1.0613373517990112,0.0400304347276687,0.6600460410118103,2.6784443855285645,80.9497299194336,25.65,0
-0.1719602197408676,-1.0057761669158936,0.0424825511872768,0.6922727227210999,2.67812442779541,81.03939056396484,25.65,0
-0.0655719712376594,-0.9981090426445008,0.03286062926054,0.816848635673523,2.6779189109802246,81.09693145751953,25.65,0
0.0138974245637655,-0.970797598361969,0.054674707353115,0.7176655530929565,2.677787065505981,81.13385772705078,25.65,0
-0.0246680807322263,-0.9084885120391846,0.0686737298965454,0.281427651643753,2.6777024269104004,81.15755462646484,25.65,0
-0.0718083009123802,-0.8461110591888428,0.0552663952112197,-0.181236058473587,2.6776483058929443,81.17276000976562,25.65,0
-0.1356468200683593,-0.800482988357544,0.0354667901992797,-0.4530689716339111,2.6776134967803955,81.1825180053711,25.65,0
-0.1878102570772171,-0.7712015509605408,0.0227605439722538,-0.8209747672080994,2.67759108543396,81.18878173828125,25.65,0
-0.1709057837724685,-0.7468125820159912,0.0258019566535949,-1.4511587619781494,2.677576780319214,81.19280242919922,25.65,0
-0.1544596850872039,-0.753552258014679,0.0501448586583137,-1.912895917892456,2.6830761432647705,81.19538116455078,25.65,0
-0.1439055353403091,-0.7746707201004028,0.0601689554750919,-1.893945574760437,2.686605215072632,81.19703674316406,25.65,0
-0.14832803606987,-0.8330055475234985,0.0721996203064918,-1.6489169597625732,2.6888699531555176,81.1980972290039,25.65,0
-0.1567639112472534,-0.8816370368003845,0.0911157578229904,-1.394942045211792,2.6903233528137207,81.19877624511719,25.65,0
-0.1733731180429458,-0.9744214415550232,0.108852818608284,-1.1029828786849976,2.691256046295166,81.19921112060547,25.65,0
-0.167238637804985,-1.0675517320632937,0.1314309984445572,-0.8547165393829346,2.69185471534729,81.19949340820312,25.65,0
-0.1577041000127792,-1.1385129690170288,0.1459203660488128,-0.5879161953926086,2.6922388076782227,81.19967651367188,25.65,0
-0.1347920596599578,-1.2680184841156006,0.1328277140855789,0.1063569635152816,2.6924853324890137,81.19979095458984,25.65,0
-0.1312839835882187,-1.3847142457962036,0.1188278272747993,1.293494701385498,2.6963160037994385,81.19986724853516,25.65,0
-0.1514237970113754,-1.3532451391220093,0.1042457297444343,2.3562676906585693,2.6987743377685547,81.19991302490234,25.65,0
-0.1587505936622619,-1.2546812295913696,0.0892900079488754,2.7301926612854004,2.7003519535064697,81.19994354248047,25.65,0
-0.152256965637207,-1.0794731378555298,0.0684967339038848,2.4220221042633057,2.701364278793335,81.19996643066406,25.65,0
-0.1872741430997848,-1.0062191486358645,0.038359485566616,1.7370257377624512,2.7020139694213867,81.1999740600586,25.65,0
-0.2209417074918747,-0.9648066759109496,0.0078235864639282,0.9929155707359314,2.702430963516236,81.19998168945312,25.65,0
-0.2313520610332489,-0.9326327443122864,-0.0341636948287487,0.4365718364715576,2.7026984691619877,81.19998931884766,25.65,0
-0.2100439518690109,-0.8895942568778992,-0.0611087121069431,0.0867075845599174,2.7028701305389404,81.19998931884766,25.65,0
-0.1795763075351715,-0.8451813459396362,-0.0728027001023292,-0.2345446944236755,2.6947176456451416,83.33879089355469,25.65,0
-0.188012808561325,-0.8278752565383911,-0.0859050005674362,-0.6341650485992432,2.689485788345337,84.71134948730469,25.65,0
-0.2046224176883697,-0.8111714124679565,-0.0887155309319496,-1.037503957748413,2.6861283779144287,85.59217834472656,25.65,0
-0.1928904056549072,-0.8004518151283264,-0.0849213898181915,-1.3178391456604004,2.683973789215088,86.1574478149414,25.65,0
-0.1853614747524261,-0.7991703748703003,-0.071290984749794,-1.451168656349182,2.682590961456299,86.52020263671875,25.65,0
-0.1693342924118042,-0.8151413798332214,-0.0569459982216358,-1.4901583194732666,2.681703567504883,86.75299835205078,25.65,0
-0.1422556489706039,-0.8701728582382202,-0.05333798751235,-1.3682940006256104,2.681133985519409,86.90238952636719,25.65,0
-0.1248781308531761,-0.9278799891471864,-0.0622181221842765,-0.9712392687797546,2.6807684898376465,86.99826049804688,25.65,0
-0.1081284657120704,-0.987304151058197,-0.0791124328970909,-0.3796703219413757,2.684206008911133,87.05978393554688,25.63,0
-0.1197705939412117,-1.0366346836090088,-0.0843564495444297,0.2364145666360855,2.68641209602356,87.0992660522461,25.63,0
-0.1328396201133728,-1.1802476644515991,-0.1157106310129165,0.9112232327461244,2.6878278255462646,87.12460327148438,25.63,0
-0.169215440750122,-1.238823652267456,-0.0910497456789016,1.7562729120254517,2.6887364387512207,87.140869140625,25.63,0
-0.1925593465566635,-1.231632113456726,-0.0528327114880085,2.474123239517212,2.689319372177124,87.15130615234375,25.63,0
-0.1515623778104782,-1.1374526023864746,-0.0059161223471164,2.4404029846191406,2.689693689346313,87.15800476074219,25.63,0
-0.0748729109764099,-1.071415901184082,0.0185944698750972,1.566110134124756,2.6899337768554688,87.16230010986328,25.63,0
0.0639063641428947,-1.0570261478424072,0.0175306349992752,0.5679650902748108,2.6900877952575684,87.16505432128906,25.63,0
0.113782487809658,-0.991813898086548,0.0336412489414215,0.0205600503832101,2.6828420162200928,87.16682434082031,25.63,0
0.123399019241333,-0.9051822423934937,0.0551756620407104,-0.1945951133966446,2.678192138671875,87.16796112060547,25.63,0
0.0456037409603595,-0.7992070317268372,0.0633974373340606,-0.296843558549881,2.67520809173584,87.16869354248047,25.63,0
-0.0211141128093004,-0.731198251247406,0.0574781484901905,-0.2943918108940124,2.673293113708496,87.16915893554688,25.63,0
-0.0863208919763565,-0.7155430316925049,0.0480817146599292,-0.2964009940624237,2.672064304351806,87.1694564819336,25.63,0
-0.1281668543815612,-0.7334852814674377,0.0532471761107444,-0.4696539938449859,2.6712756156921387,87.16964721679688,25.63,0
-0.1494234055280685,-0.7617928981781006,0.0621598437428474,-0.7635491490364075,2.670769453048706,87.16976928710938,25.63,0
-0.1462713032960891,-0.819143533706665,0.0790750309824943,-1.084709405899048,2.6704447269439697,87.16985321044922,25.63,0
-0.1330529302358627,-0.8559478521347046,0.0955279991030693,-1.362463116645813,2.680335283279419,87.16990661621094,25.63,0
-0.118972361087799,-0.8963600993156433,0.1116843372583389,-1.4117367267608645,2.6866824626922607,87.16993713378906,25.63,0
-0.121131807565689,-0.9950653910636902,0.1164547726511955,-1.1101782321929932,2.690755605697632,87.16996002197266,25.63,0
-0.1225176155567169,-1.0696042776107788,0.1251139342784881,-0.6013886332511902,2.6933696269989014,87.16997528076172,25.63,0
-0.1457980424165725,-1.128634691238403,0.130670890212059,0.0403899326920509,2.69504714012146,87.16998291015625,25.63,0
-0.1663358658552169,-1.2057013511657717,0.1230414733290672,1.0397887229919434,2.6961236000061035,87.16999053955078,25.63,0
-0.1963091790676117,-1.3223316669464111,0.1125475838780403,2.454981803894043,2.69681453704834,87.16999053955078,25.63,0
-0.1819576770067215,-1.2404406070709229,0.1114109829068183,3.735759258270264,2.6972577571868896,87.16999053955078,25.63,0
-0.167149931192398,-1.143105387687683,0.0994860306382179,4.088370800018311,2.699837684631348,88.69617462158203,25.63,0
-0.1520493924617767,-1.0694457292556765,0.0750399529933929,3.2649619579315186,2.701493263244629,89.67559051513672,25.63,0
-0.1591520607471466,-1.0333707332611084,0.0537540949881076,1.905388116836548,2.702555656433105,90.30412292480467,25.63,0
-0.1916990280151367,-1.0102198123931885,0.0288985110819339,0.8752585649490356,2.703237533569336,90.7074737548828,25.63,0
-0.190194696187973,-0.989765167236328,0.0017520791152492,0.3682314455509186,2.7036750316619877,90.96632385253906,25.63,0
-0.1668381989002227,-0.9430518746376038,-0.0156689397990703,-0.007305409759283,2.703955888748169,91.13243865966795,25.63,0
-0.1462515741586685,-0.8850851058959961,-0.0324465222656726,-0.4847533404827118,2.7041361331939697,91.23904418945312,25.63,0
-0.1386380344629287,-0.8422876000404358,-0.0432134084403514,-0.93087238073349,2.704251766204834,91.30745697021484,25.63,0
-0.1505454331636428,-0.8092248439788818,-0.0389274284243583,-1.2959825992584229,2.6942269802093506,91.35135650634766,25.65,0
-0.1581869125366211,-0.7824093103408813,-0.0305791571736335,-1.745243787765503,2.687793731689453,91.37953186035156,25.65,0
-0.1742863208055496,-0.7763962149620056,-0.0252217166125774,-2.237760543823242,2.6836652755737305,91.39761352539062,25.65,0
-0.1790202260017395,-0.7837328910827637,-0.0161858461797237,-2.478595495223999,2.681015968322754,91.40921783447266,25.65,0
-0.17086261510849,-0.8052344918251038,-0.0103871440514922,-2.342960834503174,2.6793158054351807,91.41666412353516,25.65,0
-0.1600297540426254,-0.8694129586219788,-0.0066658710129559,-1.9800599813461304,2.678224563598633,91.42144012451172,25.65,0
-0.1530778557062149,-0.9497833847999572,-0.0210710950195789,-1.4820605516433716,2.6775243282318115,91.42450714111328,25.65,0
-0.1654098480939865,-1.0181537866592407,-0.030315538868308,-0.8077981472015381,2.677074909210205,91.42647552490234,25.65,0
-0.190117135643959,-1.123605489730835,-0.041845865547657,0.0404834225773811,2.679081678390503,91.42774200439452,25.65,0
-0.1947772949934005,-1.2304627895355225,-0.0548431389033794,0.9861102104187012,2.6803693771362305,91.42855072021484,25.65,0
-0.1865723729133606,-1.282244324684143,-0.0519884936511516,1.782835602760315,2.6811957359313965,91.42906951904295,25.65,0
-0.1925024837255478,-1.2035192251205444,0.0002234251005575,2.06484317779541,2.6817259788513184,91.42940521240234,25.65,0
-0.1795147508382797,-1.1194113492965698,0.0505233481526374,1.8589012622833248,2.6820664405822754,91.42961883544922,25.65,0
-0.1040066853165626,-1.0822291374206543,0.0660096257925033,1.6192623376846311,2.6822848320007324,91.42975616455078,25.65,0
-0.0051699881441891,-1.0695632696151731,0.0535567253828048,1.504884123802185,2.682425022125244,91.42984008789062,25.65,0
0.0582577176392078,-1.0278483629226685,0.0455651730298996,1.1627897024154663,2.682514905929565,91.42990112304688,25.65,0
0.0429842248558998,-0.9395026564598083,0.0460344292223453,0.3843713998794555,2.6752278804779053,91.42993927001952,25.65,0
0.0051937038078904,-0.8604163527488708,0.040737796574831,-0.5271689891815186,2.6705515384674072,91.42996215820312,25.65,0
-0.0526447258889675,-0.798467755317688,0.0261431727558374,-1.1766294240951538,2.667550563812256,91.4299774169922,25.65,0
-0.0953598693013191,-0.7643104791641235,0.0111794099211692,-1.5181816816329956,2.665624618530273,91.42998504638672,25.65,0
-0.1059786677360534,-0.7591836452484131,0.0127720758318901,-1.7051270008087158,2.664388656616211,91.42999267578124,25.65,0
-0.1071954295039177,-0.7614912986755371,0.0193919315934181,-1.8250977993011477,2.663595676422119,91.42999267578124,25.65,0
-0.1079762801527977,-0.7741677761077881,0.0236401744186878,-1.916418433189392,2.6630866527557373,91.42999267578124,25.65,0
-0.108477383852005,-0.8102917075157166,0.026366451755166,-2.0466742515563965,2.662760019302368,91.42999267578124,25.65,0
-0.1199945136904716,-0.8334739208221436,0.0281160194426774,-2.0908565521240234,2.659795999526977,92.48685455322266,25.65,0
-0.138581097126007,-0.8651442527770996,0.0404343418776989,-1.7358746528625488,2.6578938961029053,93.1650848388672,25.65,0
-0.167302206158638,-0.930250644683838,0.053937304764986,-0.985011637210846,2.6566731929779053,93.60033416748048,25.65,0
-0.1857337653636932,-0.988825500011444,0.0682005062699318,-0.1878844052553177,2.6558899879455566,93.87965393066406,25.65,0
-0.1863665282726287,-1.0991865396499634,0.0717560276389122,0.5672811269760132,2.6553874015808105,94.05890655517578,25.65,0
-0.1755770593881607,-1.2203898429870603,0.0740377604961395,1.395830154418945,2.655064821243286,94.17394256591795,25.65,0
-0.1518596708774566,-1.2925734519958496,0.0810998156666755,2.070848226547241,2.654857873916626,94.24776458740234,25.65,0
-0.14783476293087,-1.2213433980941772,0.0744362920522689,2.2389254570007324,2.6547250747680664,94.29513549804688,25.65,0
-0.1396540403366089,-1.1532410383224487,0.0645622536540031,2.01360821723938,2.6624436378479004,94.3255386352539,25.63,0
-0.1232085675001144,-1.0815479755401611,0.0302367899566888,1.7615352869033811,2.6673970222473145,94.34504699707033,25.63,0
-0.1070570349693298,-1.007550597190857,-0.0085846399888396,1.5997693538665771,2.670575857162476,94.3575668334961,25.63,0
-0.1358763426542282,-0.9712588787078856,-0.050291322171688,1.4171406030654907,2.672615766525269,94.3656005859375,25.63,0
-0.159968689084053,-0.9703600406646729,-0.1162406876683235,1.1387240886688232,2.6739249229431152,94.37075805664062,25.63,0
-0.153038665652275,-0.9641854763031006,-0.1697587519884109,0.7236024141311646,2.674765110015869,94.3740692138672,25.63,0
-0.0982114076614379,-0.9210385680198668,-0.2041035592555999,0.0989436730742454,2.6753041744232178,94.37619018554688,25.63,0
-0.0630264282226562,-0.8933493494987488,-0.2261440753936767,-0.742583155632019,2.675650119781494,94.37755584716795,25.63,0
-0.0460445098578929,-0.9035688638687134,-0.2458861917257309,-1.5298243761062622,2.6666910648345947,94.37843322753906,25.63,0
-0.0407442636787891,-0.8933338522911072,-0.25855553150177,-1.9526312351226809,2.66094183921814,94.37899017333984,25.63,0
-0.0373428724706172,-0.8867655992507935,-0.2666859924793243,-2.026922702789306,2.657252311706543,94.3793487548828,25.63,0
-0.0351600535213947,-0.9049415588378906,-0.2663058936595917,-1.9814516305923464,2.6548845767974854,94.37957763671876,25.63,0
-0.0337592475116252,-0.9166058897972108,-0.2548664212226867,-1.859123945236206,2.653365135192871,94.37973022460938,25.63,0
-0.0496536120772361,-0.9017002582550048,-0.2531229853630066,-1.5441710948944092,2.6523900032043457,94.37982940673828,25.63,0
-0.0598537027835845,-0.9257213473320008,-0.2576019167900085,-1.030368447303772,2.651764154434204,94.37989044189452,25.63,0
-0.0719973072409629,-0.9355388879776,-0.2548784613609314,-0.3638773560523987,2.651362419128418,94.3799285888672,25.63,0
-0.0629970505833625,-0.9418392181396484,-0.253130704164505,0.404182881116867,2.6446778774261475,94.37995147705078,25.63,0
-0.0404278822243213,-0.9626757502555848,-0.2688024342060089,0.990226686000824,2.640388250350952,94.37996673583984,25.63,0
-0.0259442869573831,-1.0936007499694824,-0.3068485260009765,1.0940401554107666,2.6376352310180664,94.37997436523438,25.63,0
-0.0558339729905128,-0.981698751449585,-0.2584932446479797,0.9636200070381165,2.635868549346924,94.3799819946289,25.63,0
-0.0582221262156963,-0.982657551765442,-0.244254931807518,1.166529893875122,2.634734869003296,94.37998962402344,25.63,0
0.0298096854239702,-1.0280550718307495,-0.2239220440387725,1.7947238683700562,2.634007215499878,94.37998962402344,25.63,0
0.1198900789022445,-1.029199719429016,-0.2108735740184784,2.44864273071289,2.633540391921997,94.37998962402344,25.63,0
0.2000895887613296,-1.0075432062149048,-0.1913042664527893,2.7393176555633545,2.6332406997680664,94.37998962402344,25.63,0
0.1955792754888534,-0.9712541699409484,-0.1955391317605972,2.470868825912476,2.630753517150879,95.27922058105467,25.63,0
0.1702937185764312,-0.9311726093292236,-0.1926590502262115,1.617904543876648,2.629157304763794,95.85629272460938,25.63,0
0.1764580011367797,-0.9054505825042723,-0.1852130144834518,0.3934144675731659,2.6281328201293945,96.22662353515624,25.63,0
0.1804138869047165,-0.8889436721801758,-0.1804345697164535,-0.8545451164245605,2.6274755001068115,96.46427917480467,25.63,0
0.1661592125892639,-0.8783504962921143,-0.1773680448532104,-1.8130470514297483,2.627053737640381,96.6167984008789,25.63,0
0.1122291907668113,-0.8491612672805786,-0.1865956634283065,-2.335011482238769,2.626782894134521,96.71467590332033,25.63,0
0.0608266815543174,-0.819233775138855,-0.1869196444749832,-2.4693539142608643,2.6266090869903564,96.7774887084961,25.63,0
0.0390350632369518,-0.7888324856758118,-0.1759320050477981,-2.358525514602661,2.626497507095337,96.81779479980467,25.63,0
0.0250504575669765,-0.7637249231338501,-0.1688807755708694,-2.147681713104248,2.630098581314087,96.84366607666016,25.65,0
0.0160759408026933,-0.7196234464645386,-0.1643557101488113,-1.8977320194244385,2.6324095726013184,96.86026763916016,25.65,0
0.049501035362482,-0.6577349901199341,-0.1558540016412735,-1.4543051719665527,2.63389253616333,96.87091827392578,25.65,0
0.0821468830108642,-0.5900297164916992,-0.1615936458110809,-0.6180226802825928,2.6348443031311035,96.87775421142578,25.65,0
0.1198904365301132,-0.5465803146362305,-0.2044614404439926,0.4273809790611267,2.6354551315307617,96.88214111328124,25.65,0
0.1497098505496978,-0.5634791851043701,-0.2599603831768036,1.2164859771728516,2.6358470916748047,96.88495635986328,25.65,0
0.1576506793498993,-0.591117262840271,-0.3067719638347626,1.6010805368423462,2.636098623275757,96.8867645263672,25.65,0
0.1627466529607772,-0.7096137404441833,-0.3759973645210266,1.6759275197982788,2.6362600326538086,96.88792419433594,25.65,0
0.1436258554458618,-0.8304401636123657,-0.4260200262069702,1.3477895259857178,2.639117956161499,96.88866424560548,25.65,0
0.1425507813692093,-0.8967840075492859,-0.4749149978160858,0.6858049631118774,2.640951871871948,96.88914489746094,25.65,0
0.1978386044502258,-0.9505552649497986,-0.5118907690048218,0.2753116488456726,2.6421287059783936,96.8894500732422,25.65,0
0.1997324973344802,-1.0018558502197266,-0.524424135684967,0.4561200439929962,2.6428840160369877,96.8896484375,25.65,0
0.2345345318317413,-1.0627665519714355,-0.5100762248039246,0.7656115889549255,2.643368721008301,96.8897705078125,25.65,0
0.2176840603351593,-1.073866605758667,-0.500868558883667,0.8065921068191528,2.6436798572540283,96.88985443115234,25.65,0
0.2684459090232849,-1.1481633186340332,-0.4781662821769714,0.8257259130477905,2.6438794136047363,96.88990783691406,25.65,0
0.3569996953010559,-1.1622560024261477,-0.2900662720203399,0.9347344040870668,2.644007444381714,96.8899383544922,25.65,0
0.1843196600675583,-1.1097242832183838,-0.135767862200737,0.7754049301147461,2.645925760269165,96.88996124267578,25.65,0
0.3421967327594757,-1.031230330467224,-0.1095190942287445,0.2826557159423828,2.647156953811645,96.88997650146484,25.65,0
0.2307977080345153,-1.098410725593567,-0.2214229553937912,-0.0980487167835235,2.647947072982788,96.88998413085938,25.65,0
0.0025705492589622,-1.0687521696090698,-0.2764430940151214,-0.163234144449234,2.648453950881958,96.8899917602539,25.65,0
-0.0543281137943267,-1.083305597305298,-0.3061540722846985,-0.1584929078817367,2.648779392242432,96.8899917602539,25.65,0
-0.062853530049324,-1.1710139513015747,-0.3084275424480438,-0.2629275321960449,2.6489882469177246,96.8899917602539,25.65,0
-0.0795201957225799,-1.1937135457992554,-0.2762998938560486,-0.4660855233669281,2.64912223815918,96.8899917602539,25.65,0
-0.1070092320442199,-1.1131186485290527,-0.1997044682502746,-0.6358689665794373,2.649208068847656,96.8899917602539,25.65,0
-0.1638345271348953,-1.0390063524246216,-0.1225610598921775,-0.5262891054153442,2.6313602924346924,97.61009216308594,25.65,0
-0.1835084110498428,-1.0306297540664673,-0.0450659841299057,-0.1478655487298965,2.6199066638946533,98.07221221923828,25.65,0
-0.17374287545681,-1.0196564197540283,-0.0233229808509349,0.026915980502963,2.6125564575195312,98.3687744140625,25.65,0
-0.2010625600814819,-1.012614369392395,0.0074237524531781,-0.3051586747169494,2.607839584350586,98.55908966064452,25.65,0
-0.2409858703613281,-1.0192906856536863,0.0551441051065921,-0.8478620052337646,2.6048123836517334,98.68122100830078,25.65,0
-0.2442152500152588,-1.0067819356918335,0.091366060078144,-1.2355461120605469,2.602869749069214,98.75959777832033,25.65,0
-0.279874324798584,-0.9819611310958862,0.1370023190975189,-1.3625319004058838,2.601623058319092,98.80989837646484,25.65,0
-0.2915627062320709,-0.96603262424469,0.1494957208633422,-1.3437119722366333,2.600823163986206,98.84217834472656,25.65,0
-0.3326503038406372,-0.9558106064796448,0.2134910076856613,-1.6827267408370972,2.741696119308472,98.8628921508789,25.65,0
-0.3646157383918762,-0.938055157661438,0.2489617317914962,-2.831756591796875,2.8321001529693604,98.87619018554688,25.65,0
-0.4019226133823395,-0.870682954788208,0.2325403690338134,-4.418208599090576,2.8901162147521973,98.8847198486328,25.65,0
-0.4370595812797546,-0.8106540441513062,0.2164043188095092,-5.719325542449951,2.9273476600646973,98.89019775390624,25.65,0
-0.4596084654331207,-0.7609354257583618,0.189255803823471,-6.819417953491211,2.9512407779693604,98.89370727539062,25.65,0
-0.4460901618003845,-0.7458221912384033,0.1326490342617035,-8.33505630493164,2.96657395362854,98.89596557617188,25.65,0
-0.4262193441390991,-0.7865033149719238,0.0739309638738632,-10.264253616333008,2.97641396522522,98.8974151611328,25.65,0
-0.4750429093837738,-0.8238056898117065,0.0250535402446985,-12.12925148010254,2.982728719711304,98.8983383178711,25.65,0
-0.444799542427063,-0.8589397668838501,0.0048823719844222,-14.074857711791992,2.8757965564727783,98.89893341064452,25.65,0
-0.4589777588844299,-0.926268994808197,-0.0248556472361087,-16.781543731689453,2.807173490524292,98.8993148803711,25.65,0
-0.4176965355873108,-0.9694769978523254,0.0176357217133045,-20.28116607666016,2.7631351947784424,98.8995590209961,25.65,0
-0.4079979658126831,-1.0195964574813845,-0.0110735055059194,-23.942140579223636,2.73487401008606,98.89971923828124,25.65,0
-0.6592715978622437,-0.8446426391601562,-0.1526484787464141,-27.756816864013672,2.716737508773804,98.89981842041016,25.65,0
-0.7477535009384155,-0.6987807154655457,-0.1315476596355438,-32.390228271484375,2.7050986289978027,98.89988708496094,25.65,0
-0.6813850402832031,-0.6835437417030334,0.1786756962537765,-37.82491302490234,2.697629451751709,98.8999252319336,25.65,0
-0.700369119644165,-0.4666478931903839,0.2602059245109558,-43.32957077026367,2.692836284637451,98.89995574951172,25.65,0
-0.7629319429397583,-0.4785965383052826,0.2565495669841766,-48.6749267578125,2.7397961616516118,98.89997100830078,25.65,0
-0.8870477676391602,-0.4750689268112182,0.1926276236772537,-53.88222503662109,2.769932270050049,98.89997863769533,25.65,0
-0.8939270973205566,-0.4448162615299225,0.201986163854599,-58.32023620605469,2.7892720699310303,98.89998626708984,25.65,0
-0.9263307452201844,-0.4086084961891174,0.2023941576480865,-61.61254119873047,2.801683187484741,98.89999389648438,25.65,0
-0.9527233242988586,-0.3741768896579742,0.1970582157373428,-64.5350112915039,2.809647798538208,98.89999389648438,25.65,0
-0.986453890800476,-0.3688740134239197,0.1824383586645126,-68.0584716796875,2.8147590160369877,98.89999389648438,25.65,0
-1.0248935222625732,-0.3262864947319031,0.1898495107889175,-72.56231689453125,2.8180391788482666,98.89999389648438,25.65,0
-1.0551596879959106,-0.3269451558589935,0.1610189080238342,-78.795166015625,2.8201441764831543,98.89999389648438,25.65,0
-1.0186049938201904,-0.2713901102542877,0.2264837026596069,-88.36595916748047,2.820117950439453,99.39080810546876,25.65,0
-0.9671574234962464,-0.2301402986049652,0.3020818829536438,-100.34395599365234,2.820101022720337,99.7057876586914,25.65,0
-0.8893591165542603,-0.1924729943275451,0.4121719598770141,-106.42933654785156,2.8200902938842773,99.90792083740234,25.65,0
-0.8674215078353882,-0.1906913816928863,0.4548325538635254,-93.26361083984376,2.8200833797454834,100.03763580322266,25.65,0
-0.8365499377250671,-0.1615591794252395,0.4766119122505188,-51.912227630615234,2.8200788497924805,100.12088012695312,25.65,0
-0.8727160692214966,-0.1484615802764892,0.4402086734771728,16.26140594482422,2.8200759887695312,100.17430114746094,25.65,0
-0.8343498706817627,-0.1792407184839248,0.4672271311283111,99.89971160888672,2.8200740814208984,100.20858764648438,25.65,0
-0.8769019842147827,-0.1598085761070251,0.4397838413715362,180.4540252685547,2.820072889328003,100.2305908203125,25.65,0
-0.8706228137016296,-0.1641314625740051,0.410976767539978,241.2847137451172,2.893519639968872,100.24470520019533,25.65,0
-0.8777887225151062,-0.1333189904689788,0.4148811399936676,279.6739196777344,2.9406535625457764,100.25376892089844,25.65,0
-0.8823873996734619,-0.1023497804999351,0.4005934298038482,305.23419189453125,2.9709014892578125,100.25958251953124,25.65,0
-0.8909363746643066,-0.121659941971302,0.3522399663925171,323.1276550292969,2.9903128147125244,100.26331329345705,25.65,0
-1.025171399116516,-0.1172587722539901,0.315611720085144,325.3568725585937,3.002769947052002,100.26570892333984,25.65,0
-0.8986002802848816,-0.0640543848276138,0.392865777015686,301.6556701660156,3.0107641220092773,100.26724243164062,25.65,0
-0.9741119146347046,-0.0858886092901229,0.2969008386135101,251.0927581787109,3.0158944129943848,100.26822662353516,25.65,0
-1.067353129386902,-0.0831072404980659,0.3024893701076507,178.96018981933594,3.0191867351531982,100.26885986328124,25.65,0
-0.976050078868866,-0.0197467990219593,0.3452601730823517,92.6809539794922,3.039661169052124,100.2692642211914,25.65,0
-0.9286525845527648,-0.0238679070025682,0.3335236012935638,6.817020416259766,3.0528006553649902,100.26952362060548,25.65,0
-1.03258216381073,0.0070740482769906,0.2756117582321167,-60.1617431640625,3.061232805252075,100.26969146728516,25.65,0
-0.9761271476745604,-0.0458402521908283,0.2832294702529907,-101.03472137451172,3.0666439533233643,100.2697982788086,25.65,0
-0.9342998266220092,-0.0462109595537185,0.3105091750621795,-122.38518524169922,3.0701165199279785,100.26986694335938,25.65,0
-0.9802284836769104,-0.0408510826528072,0.2944290935993194,-131.21080017089844,3.072345018386841,100.26991271972656,25.65,0
-0.9593229293823242,-0.0374114215373992,0.2561209499835968,-129.37623596191406,3.073775291442871,100.26994323730467,25.65,0
-0.9235158562660216,-0.1079751104116439,0.3043080568313598,-119.86226654052734,3.074692964553833,100.26996612548828,25.65,0
-0.9229280352592468,-0.1364655047655105,0.3184384405612945,-107.88490295410156,3.031213521957397,100.2699737548828,25.65,0
-1.0009195804595947,-0.1211623549461364,0.3387020528316498,-95.60924530029295,3.0033109188079834,100.26998138427734,25.65,0
-0.871841311454773,-0.0833527967333793,0.4636615514755249,-82.05304718017578,2.9854044914245605,100.26998901367188,25.65,0
-0.7610174417495728,-0.0870776697993278,0.5606467127799988,-68.31636047363281,2.9739131927490234,100.26998901367188,25.65,0
-0.8354392051696777,-0.1174569576978683,0.5445173382759094,-58.90982055664063,2.966538667678833,100.26998901367188,25.65,0
-0.7992321848869324,-0.1033659875392913,0.5565575361251831,-56.63853073120117,2.961806297302246,100.26998901367188,25.65,0
-0.7815943956375122,-0.1223120838403701,0.5922731161117554,-58.81367874145508,2.9587693214416504,100.26998901367188,25.65,0
-0.7982643246650696,-0.1176772788166999,0.5928022265434265,-60.93324661254883,2.956820249557495,100.26998901367188,25.65,0
-0.7809732556343079,-0.1370940208435058,0.5875440239906311,-62.11433410644531,2.932617425918579,100.64974975585938,25.65,0
-0.8314523696899414,-0.1327612400054931,0.612158477306366,-64.08319854736328,2.9170854091644287,100.8934555053711,25.65,0
-0.8022714257240295,-0.1467740386724472,0.5663790702819824,-66.67225646972656,2.9071178436279297,101.0498504638672,25.65,0
-0.7779470086097717,-0.1333755552768707,0.5425982475280762,-67.81429290771484,2.9007210731506348,101.15021514892578,25.65,0
-0.8854880332946777,-0.2255371212959289,0.4993482232093811,-67.32552337646484,2.896615982055664,101.2146224975586,25.65,0
-0.9265128374099731,-0.2175078094005584,0.4547995328903198,-67.71046447753906,2.893981695175171,101.2559585571289,25.65,0
-0.9192535281181335,-0.1787684112787246,0.4709929525852203,-71.02059936523438,2.8922910690307617,101.28248596191406,25.65,0
-0.931388258934021,-0.1762987971305847,0.4589938521385193,-76.69876861572266,2.8912062644958496,101.29950714111328,25.65,0
-0.933577835559845,-0.1411272883415222,0.4624890685081482,-82.73943328857422,2.8533272743225098,101.31043243408205,25.65,0
-0.9125918745994568,-0.1465451121330261,0.4703298807144165,-88.23172760009766,2.8290185928344727,101.31744384765624,25.65,0
-0.9327109456062316,-0.1332286447286605,0.4865571856498718,-94.77647399902344,2.8134188652038574,101.32194519042967,25.65,0
-0.9456222057342528,-0.1134873479604721,0.4745798408985138,-103.90972137451172,2.803407669067383,101.3248291015625,25.65,0
-0.8419524431228638,-0.1847851425409317,0.4165135025978088,-110.36920928955078,2.796983242034912,101.3266830444336,25.65,0
-0.8761830925941467,-0.1689644306898117,0.4800098240375519,-100.08033752441406,2.792860269546509,101.32787322998048,25.65,0
-0.9093458652496338,-0.1476160734891891,0.4871714413166046,-60.51066970825195,2.7902145385742188,101.3286361694336,25.65,0
-0.9922033548355104,-0.1619047969579696,0.4413873851299286,5.10802698135376,2.7885165214538574,101.3291244506836,25.65,0
-0.8606500029563904,-0.0871078595519065,0.4735813438892364,77.24031066894531,2.756211519241333,101.32943725585938,25.65,0
-0.7594332695007324,-0.0614985860884189,0.561414897441864,134.90892028808594,2.735480070114136,101.32964324951172,25.65,0
-0.8624114394187927,-0.1010417714715004,0.5394125580787659,169.05125427246094,2.7221758365631104,101.32977294921876,25.65,0
-0.9564857482910156,-0.1264183074235916,0.5700749158859253,183.5924835205078,2.7136378288269043,101.3298568725586,25.65,0
-0.9104995131492616,-0.148301288485527,0.6625233292579651,188.1880340576172,2.7081587314605717,101.32991027832033,25.65,0
-0.8138149380683899,-0.1231601014733314,0.6714714169502258,189.05929565429688,2.704642534255981,101.32994079589844,25.65,0
-0.7573661208152771,-0.0790370628237724,0.6716160178184509,185.19036865234372,2.7023861408233643,101.32996368408205,25.65,0
-0.7379338145256042,-0.0283303372561931,0.654915452003479,174.2633819580078,2.7009379863739014,101.3299789428711,25.65,0
-0.7310610413551331,-0.0181807801127433,0.6665891408920288,159.2583465576172,2.7082715034484863,101.32998657226562,25.65,0
-0.6930638551712036,-0.0172651521861553,0.5621251463890076,146.28285217285156,2.712977647781372,101.32999420166016,25.65,0
-0.5231373310089111,-0.0894486233592033,0.579052746295929,139.22415161132812,2.7159979343414307,101.32999420166016,25.65,0
-0.4588704705238342,-0.1021851748228073,0.7074691653251648,135.37855529785156,2.7179360389709477,101.32999420166016,25.65,0
-0.4512143433094024,-0.0655765607953071,1.0249860286712646,121.5574951171875,2.71917986869812,101.32999420166016,25.65,0
-0.2951611578464508,0.0082967048510909,1.1000012159347534,81.83837890625,2.719978094100952,101.32999420166016,25.65,0
-0.2453951835632324,0.0613020956516265,0.9970017075538636,17.639204025268555,2.7204902172088623,101.32999420166016,25.65,0
-0.336609274148941,0.0673290267586708,0.852533757686615,-48.609500885009766,2.720818996429444,101.32999420166016,25.65,0
-0.456720769405365,0.0432078950107097,0.8102024793624878,-96.64485931396484,2.72745680809021,101.65242767333984,25.65,0
-0.5393991470336914,0.0277283396571874,0.8837966322898865,-125.40045166015624,2.7317166328430176,101.8593521118164,25.65,0
-0.5196863412857056,0.0177944526076316,0.9198296070098876,-143.24151611328125,2.734450340270996,101.9921417236328,25.65,0
-0.4958402514457702,-0.0053738676942884,0.931757926940918,-153.99586486816406,2.7362046241760254,102.07735443115234,25.65,0
-0.5477104783058167,-0.014644187875092,0.8722395300865173,-158.33226013183594,2.737330436706543,102.13204193115234,25.65,0
-0.5474111437797546,-0.0149955712258815,0.8284462690353394,-158.92257690429688,2.7380528450012207,102.1671371459961,25.65,0
-0.4912413358688354,-0.0376121662557125,0.8283311724662781,-158.67803955078125,2.738516569137573,102.18965911865234,25.65,0
-0.5055747628211975,-0.0465284213423728,0.8338550925254822,-159.20179748535156,2.738814115524292,102.20410919189452,25.65,0
-0.4867842495441437,-0.0466525852680206,0.8541933298110962,-160.2508544921875,2.7477266788482666,102.21338653564452,25.63,0
-0.4355411529541015,-0.0579278171062469,0.8616474866867065,-154.6044158935547,2.753446340560913,102.2193374633789,25.63,0
-0.3858629465103149,-0.0707613825798034,0.8720288872718811,-127.19254302978516,2.7571167945861816,102.22315979003906,25.63,0
-0.3707756698131561,-0.0566061325371265,0.8954843878746033,-69.53007507324219,2.759472370147705,102.2256088256836,25.63,0
-0.4002779424190521,-0.0251310095191001,0.9441234469413756,5.800771236419678,2.760983943939209,102.22718048095705,25.63,0
-0.4639929831027984,0.0118612367659807,0.9193594455718994,73.65447998046875,2.761954069137573,102.22819519042967,25.63,0
-0.499283879995346,0.0188074074685573,0.847489595413208,118.13055419921876,2.7625765800476074,102.22884368896484,25.63,0
-0.5107359886169434,-0.00472381291911,0.8349543213844299,140.5071258544922,2.7629761695861816,102.22925567626952,25.63,0
-0.5796608328819275,-0.0310203451663255,0.8548987507820129,151.18064880371094,2.7604782581329346,102.22952270507812,25.63,0
-0.5679150819778442,-0.0422981716692447,0.8621001839637756,161.32626342773438,2.7588753700256348,102.22969818115234,25.63,0
-0.5099973678588867,-0.0327423065900802,0.8611238598823547,175.3641357421875,2.75784683227539,102.22980499267578,25.63,0
-0.4840246438980102,-0.0098165785893797,0.8660950660705566,182.5779571533203,2.7571866512298584,102.22987365722656,25.63,0
-0.4841501712799072,-0.0007019403274171,0.8692853450775146,162.9927520751953,2.756762981414795,102.22991943359376,25.63,0
-0.489828497171402,-0.0004504648968577,0.8713326454162598,110.79722595214844,2.756491184234619,102.22994995117188,25.63,0
-0.482276976108551,-0.0002890824398491,0.8726465106010437,44.97555541992188,2.756316661834717,102.22997283935548,25.63,0
-0.4886263906955719,-0.005783291067928,0.8678919076919556,-10.004636764526367,2.756204605102539,102.22998046875,25.63,0
-0.4871032834053039,0.0018863913137465,0.8704384565353394,-45.52779769897461,2.75750994682312,102.22998809814452,25.63,0
-0.4917236268520355,0.0012105773203074,0.8720726370811462,-66.08182525634766,2.758347511291504,102.22999572753906,25.63,0
-0.4890909194946289,0.0007768788491375,0.8731213808059692,-76.17687225341797,2.758885145187378,102.22999572753906,25.63,0
-0.4929991662502289,0.0004985561245121,0.873794436454773,-77.5751953125,2.759230136871338,102.22999572753906,25.63,0
-0.4787139594554901,0.0003199446364305,0.8798241019248962,-73.21692657470703,2.7594516277313232,102.22999572753906,25.63,0
-0.4975354075431824,-0.0053924522362649,0.8724980354309082,-66.884033203125,2.759593725204468,102.22999572753906,25.63,0
-0.5040161609649658,-0.0034605653490871,0.8677965998649597,-60.390960693359375,2.759684801101685,102.22999572753906,25.63,0
-0.5081751346588135,0.0033769828733056,0.8591817021369934,-54.04945755004883,2.7597432136535645,102.22999572753906,25.63,0
-0.4996485710144043,0.0021671531721949,0.8648487329483032,-48.02375793457031,2.7538132667541504,102.37688446044922,25.63,0
-0.4885789155960083,0.0013907541288062,0.8684855103492737,-40.26255416870117,2.7500078678131104,102.4711456298828,25.63,0
-0.4926705956459045,0.0008925059228204,0.8652216196060181,-27.09925651550293,2.747565746307373,102.5316390991211,25.63,0
-0.5008941888809204,0.006170533131808,0.8631270527839661,-9.720449447631836,2.74599838256836,102.5704574584961,25.63,0
-0.5005738139152527,0.0039598927833139,0.8673806190490723,4.699578762054443,2.744992733001709,102.59537506103516,25.63,0
-0.4947704672813415,0.0025412312243133,0.8701103329658508,11.048053741455078,2.744347333908081,102.61135864257812,25.63,0
-0.496643990278244,0.0072285905480384,0.8662643432617188,10.819465637207031,2.7439329624176025,102.62162017822266,25.63,0
-0.4978463053703308,0.0046388935297727,0.8637961745262146,8.272445678710938,2.7436671257019043,102.62820434570312,25.63,0
-0.4986178874969482,0.0029769749380648,0.8622122406959534,6.501777172088623,2.7356925010681152,102.63243103027344,25.63,0
-0.4991130530834198,0.0075082257390022,0.8611958026885986,6.691017150878906,2.7305748462677,102.63513946533205,25.63,0
-0.4994308054447174,0.0104161212220788,0.8605434894561768,8.023370742797852,2.727290630340576,102.63687896728516,25.63,0
-0.499634712934494,0.0066844671964645,0.8601248860359192,8.444907188415527,2.7251830101013184,102.63800048828124,25.63,0
-0.4997655749320984,0.0098874811083078,0.8598562479019165,6.648278713226318,2.723830461502075,102.6387176513672,25.63,0
-0.4998495578765869,0.0119429910555481,0.8596838116645813,3.463985681533813,2.722962617874145,102.63917541503906,25.63,0
-0.494305670261383,0.0076643242500722,0.865170955657959,0.9189290404319764,2.7224056720733643,102.63947296142578,25.63,0
-0.4963456988334656,0.0105162961408495,0.8630945086479187,-0.2163637727499008,2.722048282623291,102.63966369628906,25.63,0
-0.4976548850536346,0.0123465275391936,0.8617619872093201,-1.0237460136413574,2.715851306915283,102.63978576660156,25.63,0
-0.4984950423240661,0.0079232910647988,0.8665046095848083,-2.3264615535736084,2.711874485015869,102.63986206054688,25.63,0
-0.4934364259243011,0.0050847120583057,0.8639503717422485,-3.57446551322937,2.709322452545166,102.63990783691406,25.63,0
-0.5013856291770935,0.0088608497753739,0.8623111844062805,-4.210564136505127,2.7076847553253174,102.6399383544922,25.63,0
-0.500889241695404,0.0112841576337814,0.8668570518493652,-4.608027935028076,2.7066338062286377,102.63996124267578,25.63,0
-0.5005706548690796,0.0072415228933095,0.8641765713691711,-5.207024574279785,2.70595932006836,102.63997650146484,25.63,0
-0.5003662109375,0.0046471925452351,0.8624563813209534,-5.659494876861572,2.705526351928711,102.63998413085938,25.63,0
-0.5002350211143494,0.0029823007062077,0.8613524436950684,-5.494877338409424,2.7052485942840576,102.6399917602539,25.63,0
-0.5001507997512817,0.0019138689385727,0.8606439828872681,-5.056055545806885,2.704152107238769,102.6399917602539,25.63,0
-0.5000967979431152,0.0012282108655199,0.8601893782615662,-5.014477729797363,2.703448534011841,102.6399917602539,25.63,0
-0.500062108039856,0.0007881950587034,0.8654953837394714,-5.231410503387451,2.7029969692230225,102.6399917602539,25.63,0
-0.5000398755073547,0.0061035924591124,0.8633027076721191,-4.947881698608398,2.702707052230835,102.6399917602539,25.63,0
-0.5000255703926086,0.0039169341325759,0.8618955612182617,-4.042249202728272,2.702521085739136,102.6399917602539,25.63,0
-0.4944186210632324,0.0025136629119515,0.8665903210639954,-3.131469249725342,2.702401876449585,102.6399917602539,25.63,0
-0.4964181780815124,0.0072108986787498,0.869603157043457,-2.5541481971740723,2.7023253440856934,102.6399917602539,25.63,0
-0.4977014064788818,0.0046275397762656,0.8715366125106812,-2.1084227561950684,2.7022762298583984,102.6399917602539,25.63,0
-0.4929271340370178,0.0029696887359023,0.8727774024009705,-1.6826612949371338,2.696277141571045,102.76896667480467,25.63,0
-0.4954610466957092,0.001905775279738,0.8679758906364441,-1.531239628791809,2.692427158355713,102.85173797607422,25.63,0
-0.497087150812149,0.0068207909353077,0.8648945689201355,-1.846062183380127,2.6899564266204834,102.90485382080078,25.63,0
-0.4981307089328766,0.0043771909549832,0.8629171252250671,-2.3132078647613525,2.688370943069458,102.9389419555664,25.63,0
-0.4988003969192505,0.0028090293053537,0.8616481423377991,-2.4410314559936523,2.6873533725738525,102.9608154296875,25.63,0
-0.4992301762104034,0.0018026733305305,0.8608337640762329,-2.189881563186645,2.6867003440856934,102.974853515625,25.63,0
-0.4995059669017792,0.0011568519985303,0.8603111505508423,-1.8961528539657595,2.686281442642212,102.9838638305664,25.63,0
-0.4996829628944397,0.0063401754014194,0.8599757552146912,-1.643168330192566,2.6860125064849854,102.9896469116211,25.63,0
-0.4997965395450592,0.0040687597356736,0.865358293056488,-1.2300370931625366,2.6821677684783936,102.99335479736328,25.63,0
-0.4998694360256195,0.002611095784232,0.8688125014305115,-0.7033851742744446,2.6797006130218506,102.99573516845705,25.63,0
-0.4999162256717682,0.0016756509430706,0.8654314279556274,-0.3976534605026245,2.678117275238037,102.99726104736328,25.63,0
-0.4999462366104126,0.0010753363603726,0.8632616400718689,-0.3698335289955139,2.6771011352539062,102.9982452392578,25.63,0
-0.499965488910675,0.0006900889566168,0.8674669861793518,-0.3197371065616607,2.6764490604400635,102.99887084960938,25.63,0
-0.4999778568744659,0.0004428593674674,0.8645679950714111,-0.1012941822409629,2.67603063583374,102.99927520751952,25.63,0
-0.499985784292221,0.00028420164017,0.8627075552940369,0.1212891414761543,2.675762176513672,102.9995346069336,25.63,0
-0.4999908804893493,0.0001823842467274,0.861513614654541,0.235469713807106,2.675589799880981,102.99970245361328,25.63,0
-0.499994158744812,0.0001170437099062,0.8607474565505981,0.3087442219257355,2.673642873764038,102.99980926513672,25.63,0
-0.4999962449073791,0.0056728860363364,0.860255777835846,0.3880107700824737,2.672393321990967,102.9998779296875,25.63,0
-0.4999975860118866,0.0036405317950993,0.859940230846405,0.4317143261432647,2.671591520309448,102.99992370605467,25.63,0
-0.4999984502792358,0.0023362836800515,0.859737753868103,0.3307880461215973,2.671076774597168,102.9999542236328,25.63,0
-0.4999990165233612,0.0014992924407124,0.8596078157424927,0.0188216250389814,2.6707465648651123,102.99996948242188,25.63,0
-0.4999993741512298,0.0009621595963835,0.8595244288444519,-0.3569266200065613,2.670534610748291,102.9999771118164,25.63,0
-0.4999996125698089,0.0062152328900992,0.8594709038734436,-0.5335738658905029,2.670398712158203,102.99998474121094,25.63,0
-0.5055975317955017,0.0095863528549671,0.859436571598053,-0.4212336540222168,2.670311450958252,102.99999237060548,25.63,0
-0.5035921931266785,0.0061519695445895,0.8594145178794861,-0.205837145447731,2.669337511062622,102.99999237060548,25.63,0
-0.502305269241333,0.0095457546412944,0.8594003319740295,-0.1320944279432296,2.668712615966797,102.99999237060548,25.63,0
-0.5014793872833252,0.0061259157955646,0.8593912720680237,-0.1528395414352417,2.668311595916748,102.99999237060548,25.63,0
-0.5009493827819824,0.0095290346071124,0.8593854308128357,-0.0049366573803126,2.6680541038513184,102.99999237060548,25.63,0
-0.500609278678894,0.0117129599675536,0.8593816757202148,0.2153690457344055,2.667888879776001,102.99999237060548,25.63,0
-0.5003910064697266,0.0075167035683989,0.8593792915344238,0.1382114589214325,2.667782783508301,102.99999237060548,25.63,0
-0.5002509355545044,0.0048237876035273,0.8593777418136597,-0.1728318780660629,2.667714834213257,102.99999237060548,25.63,0
-0.5001610517501831,0.0030956291593611,0.8593767881393433,-0.3151203393936157,2.667671203613281,102.99999237060548,25.63,0
-0.5001033544540405,0.001986596500501,0.8649739027023315,-0.1843132078647613,2.665806770324707,103.11105346679688,25.63,0
-0.500066339969635,0.0012748832814395,0.8629680275917053,0.0859252139925956,2.6646103858947754,103.1823272705078,25.63,0
-0.5000425577163696,0.0008181466837413,0.861680805683136,0.3811562359333038,2.6638424396514893,103.22806549072266,25.63,0
-0.5000272989273071,0.0005250394460745,0.8608547449111938,0.5383753180503845,2.6633496284484863,103.25741577148438,25.63,0
-0.500017523765564,0.0003369400801602,0.8603246212005615,0.4923838973045349,2.6630334854125977,103.27625274658205,25.63,0
-0.5000112652778625,0.0002162287419196,0.8599843978881836,0.4306260645389557,2.6628305912017822,103.28834533691406,25.63,0
-0.5000072121620178,0.0001387631637044,0.8597660660743713,0.44114950299263,2.6627004146575928,103.29610443115234,25.63,0
-0.5000046491622925,0.0056868246756494,0.8596259355545044,0.3583384454250335,2.662616729736328,103.30107879638672,25.63,0
-0.5000029802322388,0.009247250854969,0.8595360517501831,0.133231446146965,2.6575138568878174,103.30427551269533,25.65,0
-0.5000019073486328,0.0059343534521758,0.8594783544540405,-0.1043762266635894,2.6542389392852783,103.30632781982422,25.65,0
-0.5055990219116211,0.0038083265535533,0.859441339969635,-0.3571712672710418,2.652137279510498,103.3076400756836,25.65,0
-0.5147886872291565,0.0024439648259431,0.8538197875022888,-0.6949467658996582,2.6507885456085205,103.30848693847656,25.65,0
-0.5150883197784424,0.0015683959936723,0.8558099865913391,-0.9905283451080322,2.649923086166382,103.30902862548828,25.65,0
-0.509682834148407,0.0010065062670037,0.8570871949195862,-1.0440776348114014,2.6493678092956543,103.3093719482422,25.65,0
-0.5118116736412048,0.0006459177820943,0.8579068183898926,-0.8204970955848694,2.649011373519897,103.3095932006836,25.65,0
-0.5131778120994568,0.0060122874565422,0.8584328293800354,-0.4190705418586731,2.648782730102539,103.30973815917967,25.65,0
-0.5084567666053772,0.0094561148434877,0.8587703704833984,0.1000699028372764,2.649094820022583,103.30982971191406,25.65,0
-0.5054270625114441,0.006068390328437,0.8589869737625122,0.615935742855072,2.6492950916290283,103.30989074707033,25.65,0
-0.5090805292129517,0.0038943435065448,0.8591259717941284,0.8610069155693054,2.649423599243164,103.30992889404295,25.65,0
-0.5114251375198364,0.0080969398841261,0.8592151999473572,0.6815174221992493,2.649506092071533,103.30995178222656,25.65,0
-0.5073319673538208,0.0051961499266326,0.8592724204063416,0.2761427462100982,2.6495590209960938,103.30996704101562,25.65,0
-0.5047052502632141,0.0089323641732335,0.859309196472168,-0.0520723052322864,2.6495931148529053,103.30997467041016,25.65,0
-0.5086173415184021,0.0113300513476133,0.859332799911499,-0.2161283642053604,2.6496148109436035,103.30998229980467,25.65,0
-0.5111278891563416,0.0072709745727479,0.859347939491272,-0.2175154089927673,2.6496288776397705,103.30998992919922,25.65,0
-0.5127390027046204,0.0046660928055644,0.8593576550483704,-0.0571896210312843,2.6455063819885254,103.30998992919922,25.65,0
-0.5137729048728943,0.0029944297857582,0.859363853931427,0.0564459525048732,2.6428608894348145,103.30998992919922,25.65,0
-0.5088386535644531,0.0019216526998206,0.859367847442627,-0.1357398480176925,2.641163110733032,103.30998992919922,25.65,0
-0.5056721568107605,0.0012332061305642,0.8593704104423523,-0.4955236613750458,2.640073537826538,103.30998992919922,25.65,0
-0.5092378258705139,0.0063891750760376,0.859372079372406,-0.6726735234260559,2.6393744945526123,103.30998992919922,25.65,0
-0.5115261077880859,0.0041002049110829,0.859373152256012,-0.6108119487762451,2.638925790786743,103.30998992919922,25.65,0
-0.5073968172073364,0.0026312754489481,0.8593738079071045,-0.4493051469326019,2.6386377811431885,103.30998992919922,25.65,0
-0.5047468543052673,0.0072863758541643,0.8649719953536987,-0.2310169786214828,2.6384530067443848,103.30998992919922,25.65,0
-0.5086440443992615,0.0102737508714199,0.8629668354988098,0.0057973605580627,2.638793468475342,103.4103012084961,25.65,0
-0.5167428255081177,0.0121908765286207,0.8560822606086731,0.1255279928445816,2.639011859893799,103.47467803955078,25.65,0
-0.5219401121139526,0.007823402993381,0.8572618961334229,0.0733914896845817,2.6391520500183105,103.5159912109375,25.65,0
-0.5196776986122131,0.0050206095911562,0.8580189347267151,-0.085456870496273,2.639241933822632,103.5425033569336,25.65,0
-0.5182257890701294,0.0032219381537288,0.8585047721862793,-0.241135224699974,2.6392996311187744,103.55951690673828,25.65,0
-0.5172940492630005,0.0020676543936133,0.8588165640830994,-0.2228156477212906,2.639336585998535,103.5704345703125,25.65,0
-0.5166960954666138,0.0069246757775545,0.8590166568756104,-0.0247652512043714,2.6393604278564453,103.57744598388672,25.65,0
-0.5163123607635498,0.0100416326895356,0.8591450452804565,0.1417404115200042,2.639375686645508,103.58193969726562,25.65,0
-0.5160661339759827,0.0064441417343914,0.8592274188995361,0.2485941648483276,2.6366312503814697,103.58482360839844,25.65,0
-0.5103102922439575,0.0041354792192578,0.8592802882194519,0.4712175130844116,2.6348700523376465,103.58667755126952,25.65,0
-0.5178120732307434,0.0026539124082773,0.8537164330482483,0.7143964767456055,2.633739709854126,103.5878677368164,25.65,0
-0.5282241106033325,0.0017031282186508,0.8501458764076233,0.7450646162033081,2.633014440536499,103.58863067626952,25.65,0
-0.5237103700637817,0.0010929696727544,0.8534522652626038,0.6501032114028931,2.6325488090515137,103.58911895751952,25.65,0
-0.5208137035369873,0.0007014050497673,0.8555741310119629,0.5963276028633118,2.6322500705718994,103.58943176269533,25.65,0
-0.524552583694458,0.0060478956438601,0.8513380289077759,0.4256796240806579,2.6320583820343018,103.58963775634766,25.65,0
-0.5269519686698914,0.0038811913691461,0.8486195802688599,0.0367266796529293,2.6319353580474854,103.58976745605467,25.65,0
-0.522894024848938,0.0024907251354306,0.8524727821350098,-0.3454362154006958,2.630479335784912,103.58985137939452,25.65,0
-0.5202898383140564,0.0015984040219336,0.8549455404281616,-0.5835211873054504,2.629544973373413,103.58990478515624,25.65,0
-0.5242164134979248,0.006623538210988,0.850934624671936,-0.8402051329612732,2.6289453506469727,103.58993530273438,25.65,0
-0.5267362594604492,0.0042506055906414,0.8483606576919556,-1.1267377138137815,2.6285605430603027,103.58995819091795,25.65,0
-0.5227555632591248,0.0027277939952909,0.852306604385376,-1.1673147678375244,2.628313541412353,103.58997344970705,25.65,0
-0.5257987380027771,0.0017505411524325,0.8492411375045776,-0.8386797904968262,2.628154993057251,103.58998107910156,25.65,0
-0.5277516841888428,0.0011233965633437,0.8472738862037659,-0.3805830776691437,2.6280531883239746,103.5899887084961,25.65,0
-0.5234072208404541,0.000720931275282,0.8460114002227783,-0.0866029784083366,2.627987861633301,103.5899887084961,25.65,0
-0.5206191539764404,0.0060604265891015,0.8452012538909912,0.0196572765707969,2.6261098384857178,103.5899887084961,25.65,0
-0.5244277119636536,0.0038892328739166,0.8502790927886963,0.1415876299142837,2.62490463256836,103.5899887084961,25.65,0
-0.5212740898132324,0.0024958858266472,0.8535377979278564,0.3631385266780853,2.624131202697754,103.5899887084961,25.65,0
-0.5248480439186096,0.001601715805009,0.855629026889801,0.5411429405212402,2.623635053634644,103.5899887084961,25.65,0
-0.5271415710449219,0.0066256634891033,0.8513732552528381,0.5658115148544312,2.623316526412964,103.5899887084961,25.65,0
-0.5230156779289246,0.0098497439175844,0.8542399406433105,0.5529817342758179,2.623112201690674,103.5899887084961,25.65,0
-0.5203679203987122,0.0063209985382854,0.856079638004303,0.6522256135940552,2.622981071472168,103.5899887084961,25.65,0
-0.5242664813995361,0.0040564532391726,0.8572602272033691,0.809061586856842,2.622896909713745,103.5899887084961,25.65,0
-0.5267683863639832,0.008200972341001,0.8524200916290283,0.7986500263214111,2.621924638748169,103.67597198486328,25.65,0
-0.522776186466217,0.0108606861904263,0.854911744594574,0.4802844226360321,2.62130069732666,103.7311553955078,25.65,0
-0.5202142000198364,0.006969763431698,0.8565107583999634,0.0502734296023845,2.620900154113769,103.76657104492188,25.65,0
-0.518570065498352,0.0044727930799126,0.8575369119644165,-0.0931275486946106,2.620643138885498,103.78929901123048,25.65,0
-0.5231127738952637,0.0028703811112791,0.8525976538658142,0.1086171418428421,2.620478391647339,103.80387878417967,25.65,0
-0.5204302072525024,0.0074398196302354,0.8550257086753845,0.2846587896347046,2.6203725337982178,103.81324005126952,25.65,0
-0.5187087059020996,0.0047744479961693,0.8565838932991028,0.1970079243183136,2.620304584503174,103.81924438476562,25.65,0
-0.5176039338111877,0.0030639658216387,0.8575838208198547,0.0117859179154038,2.6202609539031982,103.8230972290039,25.65,0
-0.5224927663803101,0.001966276904568,0.8582255244255066,-0.0712531432509422,2.619774103164673,103.82556915283205,25.63,0
-0.5256301164627075,0.0068596177734434,0.853039562702179,-0.0564738921821117,2.6194615364074707,103.82715606689452,25.63,0
-0.5276435017585754,0.0099998824298381,0.8497114777565002,0.0425749644637107,2.6192610263824463,103.82817840576172,25.63,0
-0.5289355516433716,0.0064173489809036,0.8531734943389893,0.210033506155014,2.6191322803497314,103.8288345336914,25.63,0
-0.5241669416427612,0.0041182851418852,0.8553952574729919,0.2601775527000427,2.6190497875213623,103.82925415039062,25.63,0
-0.5267044901847839,0.0026428783312439,0.8512232303619385,0.1132283434271812,2.6189968585968018,103.82952117919922,25.63,0
-0.5227351784706116,0.0072938217781484,0.8541436791419983,0.1049066185951232,2.6189627647399902,103.82969665527344,25.63,0
-0.5201879143714905,0.0102785294875502,0.8560178279876709,0.5008147358894348,2.618941068649292,103.82980346679688,25.63,0
-0.5241509675979614,0.0065961685031652,0.8516227602958679,0.9232667088508606,2.615713834762573,103.82987213134766,25.63,0
-0.5266942381858826,0.0042330413125455,0.8488022685050964,0.8289494514465332,2.613642692565918,103.82991790771484,25.63,0
-0.5283263921737671,0.0083142966032028,0.8469922542572021,0.3313478231430053,2.612313747406006,103.82994842529295,25.63,0
-0.5237759947776794,0.0053356369026005,0.8514284491539001,-0.05247063934803,2.6114606857299805,103.82997131347656,25.63,0
-0.5208558440208435,0.0090218791738152,0.8542753458023071,-0.1913059651851654,2.6109132766723637,103.8299789428711,25.63,0
-0.524579644203186,0.0057897227816283,0.8505045771598816,-0.2911502122879028,2.6105620861053467,103.82998657226562,25.63,0
-0.5269693732261658,0.0037155107129365,0.8480846881866455,-0.3731373846530914,2.610336780548096,103.82999420166016,25.63,0
-0.522905170917511,0.0023844009265303,0.8521295189857483,-0.4006739854812622,2.610192060470581,103.82999420166016,25.63,0
-0.5258947610855103,0.001530171255581,0.849127471446991,-0.5365703701972961,2.6133124828338623,103.82999420166016,25.63,0
-0.5278133153915405,0.0009819758124649,0.8472009301185608,-0.8136573433876038,2.6153149604797363,103.82999420166016,25.63,0
-0.5234467387199402,0.0006301755784079,0.8515623807907104,-0.9556500911712646,2.6166000366210938,103.82999420166016,25.63,0
-0.5206445455551147,0.0004044104134663,0.8543612957000732,-0.8461486101150513,2.617424726486206,103.82999420166016,25.63,0
-0.524444043636322,0.0058573018759489,0.8505597114562988,-0.7078079581260681,2.6179540157318115,103.82999420166016,25.63,0
-0.5212845802307129,0.0037588791456073,0.8537178635597229,-0.719340980052948,2.618293523788452,103.82999420166016,25.63,0
-0.5192570090293884,0.0024122323375195,0.8557446002960205,-0.8270543217658997,2.618511438369751,103.82999420166016,25.63,0
-0.5235536098480225,0.001548031810671,0.8514474630355835,-0.9105088710784912,2.618651390075684,103.82999420166016,25.63,0
-0.526310920715332,0.000993437715806,0.8542875647544861,-0.9174917340278624,2.615527868270874,103.9088134765625,25.63,0
-0.528080403804779,0.0006375311641022,0.8505123853683472,-0.8180782198905945,2.613523483276367,103.95939636230467,25.63,0
-0.529215931892395,0.000409130792832,0.8536874651908875,-0.5894818902015686,2.6122372150421143,103.99185943603516,25.63,0
-0.529944658279419,0.0058603310026228,0.8557250499725342,-0.2744008302688598,2.611411571502685,104.01268768310548,25.63,0
-0.5304123163223267,0.0037608230486512,0.8514348864555359,0.0101992674171924,2.610881805419922,104.02605438232422,25.63,0
-0.5251146554946899,0.0080112544819712,0.8486816883087158,0.2143346965312957,2.610541820526123,104.03463745117188,25.63,0
-0.527312695980072,0.0051411618478596,0.8525126576423645,0.4563968777656555,2.610323667526245,104.04014587402344,25.63,0
-0.5287232398986816,0.0032993017230182,0.8493733406066895,0.744293749332428,2.6101837158203125,104.0436782836914,25.63,0
-0.5296284556388855,0.0021173020359128,0.847358763217926,0.8573978543281555,2.6096346378326416,104.0459442138672,25.65,0
-0.5302093625068665,0.0013587626162916,0.8516636490821838,0.668453574180603,2.609282255172729,104.04740142822266,25.65,0
-0.5249844193458557,0.0064697503112256,0.8544263243675232,0.382401555776596,2.609055995941162,104.04833221435548,25.65,0
-0.5272291302680969,0.0041519133374094,0.8561992049217224,0.1916646659374237,2.6089107990264893,104.0489273071289,25.65,0
-0.5286696553230286,0.0026644589379429,0.8517391681671143,0.0656781420111656,2.6088175773620605,104.04931640625,25.65,0
-0.5295940637588501,0.0017098963726311,0.8488770127296448,-0.0330856330692768,2.608757972717285,104.049560546875,25.65,0
-0.5301873087882996,0.0066950875334441,0.8470402359962463,-0.0785536617040634,2.60871958732605,104.04972076416016,25.65,0
-0.53056800365448,0.0042965216562151,0.851459264755249,-0.147140771150589,2.6086950302124023,104.04981994628906,25.65,0
-0.5252145528793335,0.0083550345152616,0.8486973643302917,-0.2807204127311706,2.6068432331085205,104.04988861083984,25.65,0
-0.5273767709732056,0.0109595544636249,0.8469249606132507,-0.3915221691131592,2.6056549549102783,104.0499267578125,25.65,0
-0.5287643671035767,0.0126309860497713,0.8513852953910828,-0.4518806338310241,2.6048922538757324,104.04995727539062,25.65,0
-0.529654860496521,0.0081058396026492,0.8542476892471313,-0.5300235748291016,2.604402780532837,104.04997253417967,25.65,0
-0.5246285796165466,0.0052018612623214,0.8560845851898193,-0.6124143600463867,2.60408878326416,104.04998016357422,25.65,0
-0.5270007252693176,0.0089360298588871,0.8516656160354614,-0.5864713788032532,2.60388731956482,104.04998779296876,25.65,0
-0.5285230875015259,0.0057346294634044,0.8488298058509827,-0.4587628245353699,2.603757858276367,104.04999542236328,25.65,0
-0.5295000076293945,0.0092779295518994,0.8526077270507812,-0.3123204410076141,2.60367488861084,104.04999542236328,25.65,0
-0.5301269292831421,0.011551815085113,0.8550321459770203,-0.143108069896698,2.6022443771362305,104.04999542236328,25.65,0
-0.530529260635376,0.0074132899753749,0.8565880060195923,0.1159508600831031,2.601326465606689,104.04999542236328,25.65,0
-0.530787467956543,0.004757422953844,0.8575864434242249,0.4326681494712829,2.600737333297729,104.04999542236328,25.65,0
-0.5309531688690186,0.0030530402436852,0.8582271933555603,0.6574144959449768,2.6003592014312744,104.04999542236328,25.65,0
-0.5310595035552979,0.001959265442565,0.8586384057998657,0.7084968090057373,2.600116729736328,104.04999542236328,25.65,0
-0.5311277508735657,0.0068551180884242,0.8589022755622864,0.6517141461372375,2.599961042404175,104.04999542236328,25.65,0
-0.5311715602874756,0.0043992199935019,0.8534738421440125,0.5257099270820618,2.5998611450195312,104.04999542236328,25.65,0
-0.5311996340751648,0.0028231660835444,0.84999018907547,0.3230400681495666,2.599797010421753,104.04999542236328,25.65,0
-0.5312176942825317,0.0018117454601451,0.8477545976638794,0.0783357918262481,2.596083402633667,104.12165069580078,25.65,0
-0.5256314873695374,0.0067604482173919,0.8519176840782166,-0.1037793606519699,2.593700170516968,104.16763305664062,25.65,0
-0.5276443362236023,0.0043384665623307,0.8489915728569031,-0.1454162895679474,2.5921707153320312,104.1971435546875,25.65,0
-0.5289360880851746,0.0083819525316357,0.8471137285232544,-0.1148152574896812,2.59118914604187,104.21607971191406,25.65,0
-0.5297650694847107,0.0053790546953678,0.8459086418151855,-0.2420628815889358,2.590559244155884,104.22823333740234,25.65,0
-0.530297040939331,0.0090497424826025,0.8451352715492249,-0.5565904974937439,2.590155124664306,104.23603057861328,25.65,0
-0.5250406861305237,0.0058076037093997,0.8502367734909058,-0.7548536658287048,2.589895725250244,104.24103546142578,25.65,0
-0.5216674208641052,0.003726985771209,0.8535106182098389,-0.6635504364967346,2.5897293090820312,104.24424743652344,25.65,0
-0.5251004695892334,0.0023917648941278,0.850013792514801,-0.4509065151214599,2.5909996032714844,104.24630737304688,25.65,0
-0.5273035764694214,0.0015348970191553,0.8477697372436523,-0.3108612895011902,2.5918147563934326,104.24762725830078,25.65,0
-0.5231196284294128,0.0065827830694615,0.8519273996353149,-0.3177178800106048,2.592337846755981,104.24847412109376,25.65,0
-0.5260323882102966,0.0042244512587785,0.8545955419540405,-0.4690036475658417,2.5926735401153564,104.2490234375,25.65,0
-0.5279016494750977,0.0027110096998512,0.8563078045845032,-0.5768378376960754,2.5928890705108643,104.24937438964844,25.65,0
-0.5291011929512024,0.0073375445790588,0.8574066758155823,-0.398841917514801,2.593027353286743,104.24959564208984,25.65,0
-0.5298710465431213,0.0047088139690458,0.8525140881538391,0.0378174148499965,2.593116044998169,104.24974060058594,25.65,0
-0.5303650498390198,0.0030218458268791,0.8549720644950867,0.4900038838386535,2.593173027038574,104.24983215332033,25.65,0
-0.5306820869445801,0.0019392466638237,0.8509516716003418,0.758695662021637,2.5927505493164062,104.24989318847656,25.65,0
-0.5308855175971985,0.0012444969033822,0.853969395160675,0.8164841532707214,2.592479467391968,104.24993133544922,25.65,0
-0.5310161113739014,0.000798646477051,0.8503082394599915,0.7640051245689392,2.5923056602478027,104.2499542236328,25.65,0
-0.5310999155044556,0.0061102998442947,0.8535564541816711,0.6765884160995483,2.592194080352783,104.24996948242188,25.65,0
-0.531153678894043,0.0039212387055158,0.8556410074234009,0.4807689785957336,2.5921223163604736,104.2499771118164,25.65,0
-0.5311881899833679,0.0025164252147078,0.8513809442520142,0.1365662366151809,2.592076301574707,104.24998474121094,25.65,0
-0.5312103629112244,0.0072126714512705,0.8486471176147461,-0.1810528188943863,2.5920467376708984,104.24999237060548,25.65,0
-0.5312245488166809,0.0102264517918229,0.8468927145004272,-0.2702400386333465,2.5920279026031494,104.24999237060548,25.65,0
-0.5256358981132507,0.0121605228632688,0.8513646125793457,-0.1196858659386634,2.590179681777954,104.24999237060548,25.65,0
-0.5220494270324707,0.0078039234504103,0.8542343974113464,0.1309818923473358,2.588993549346924,104.24999237060548,25.65,0
-0.5253456234931946,0.0050081089138984,0.8504782915115356,0.3312543630599975,2.588232517242432,104.24999237060548,25.65,0
-0.5274609327316284,0.0032139159739017,0.8480678200721741,0.4096216559410095,2.5877439975738525,104.24999237060548,25.65,0
-0.5232205986976624,0.0020625062752515,0.852118730545044,0.381096601486206,2.587430477142334,104.24999237060548,25.65,0
-0.5260971784591675,0.0069213723763823,0.8547183275222778,0.2732264697551727,2.5872292518615723,104.24999237060548,25.65,0
-0.5279431939125061,0.0044417385943233,0.8507888317108154,0.1359326988458633,2.5871002674102783,104.24999237060548,25.65,0
-0.523530125617981,0.0084482263773679,0.8538649082183838,0.0836512073874473,2.587017297744751,104.24999237060548,25.65,0
-0.520698070526123,0.0110193593427538,0.8558389544487,0.0966734364628791,2.5869641304016118,104.3323974609375,25.65,0
-0.5244783759117126,0.0070715905167162,0.8571057915687561,-0.0024469143245369,2.5869300365448,104.3852767944336,25.65,0
-0.5269043445587158,0.0045381397940218,0.8579187393188477,-0.2344377040863037,2.5869081020355225,104.4192123413086,25.65,0
-0.528461217880249,0.0029123169369995,0.8528426885604858,-0.4263069331645965,2.5868940353393555,104.44099426269533,25.65,0
-0.5294603109359741,0.001868957420811,0.8495851755142212,-0.4670383334159851,2.5868849754333496,104.45497131347656,25.65,0
-0.5245037078857422,0.0011993893422186,0.8530924320220947,-0.3462918102741241,2.586879253387451,104.46393585205078,25.65,0
-0.5213228464126587,0.0007696990505792,0.855343222618103,-0.0896748602390289,2.5868756771087646,104.46968841552734,25.65,0
-0.5248793363571167,0.0004939485224895,0.8511898517608643,0.1072503179311752,2.5868732929229736,104.47338104248048,25.65,0
-0.5271616578102112,0.00031698771636,0.8485244512557983,0.0652445033192634,2.5831992626190186,104.47575378417967,25.65,0
-0.523028552532196,0.005801199004054,0.8524117469787598,-0.0441116504371166,2.580841541290283,104.47727966308594,25.65,0
-0.5259739756584167,0.0037228756118565,0.8549063801765442,0.0290128923952579,2.5793282985687256,104.47825622558594,25.65,0
-0.5278641581535339,0.0023891271557658,0.8565073013305664,0.1834172904491424,2.578357219696045,104.4788818359375,25.65,0
-0.5290771722793579,0.0015332043403759,0.857534646987915,0.2538445293903351,2.5777342319488525,104.47928619384766,25.65,0
-0.5242578387260437,0.0009839222766458,0.8525961637496948,0.2632149159908294,2.577334403991699,104.47954559326172,25.65,0
-0.5211650729179382,0.0062291994690895,0.8550247550010681,0.168916180729866,2.577077627182007,104.47970581054688,25.65,0
-0.5247780680656433,0.0039975414983928,0.8509854674339294,-0.0492326393723487,2.576912879943848,104.47981262207033,25.65,0
-0.527096688747406,0.0025653920602053,0.8483933210372925,-0.1820628494024276,2.5768072605133057,104.4798812866211,25.65,0
-0.522986888885498,0.0016463209176436,0.8523275852203369,-0.124002605676651,2.576739549636841,104.47992706298828,25.65,0
-0.5259472131729126,0.0066542881540954,0.8548523783683777,-0.0831603109836578,2.576695919036865,104.4799575805664,25.65,0
-0.5278469920158386,0.0042703389190137,0.8564726710319519,-0.1465144604444503,2.5766680240631104,104.47997283935548,25.65,0
-0.5234683752059937,0.0083382315933704,0.8575124740600586,-0.129850298166275,2.5766501426696777,104.47998046875,25.65,0
-0.5262562036514282,0.010948771610856,0.8581797480583191,0.0850506052374839,2.576638698577881,104.47998809814452,25.65,0
-0.5280452966690063,0.0126240653917193,0.8586079478263855,0.3555169403553009,2.5766313076019287,104.47999572753906,25.65,0
-0.5235956311225891,0.0081013981252908,0.8588827252388,0.4395222663879394,2.5766265392303467,104.47999572753906,25.65,0
-0.5263378620147705,0.0051990109495818,0.8590590953826904,0.21757373213768,2.574787378311157,104.47999572753906,25.65,0
-0.5224999189376831,0.0033364258706569,0.8535745143890381,-0.2150487005710601,2.5736072063446045,104.47999572753906,25.65,0
-0.5256347060203552,0.0021411259658634,0.8556525707244873,-0.6144884824752808,2.572849750518799,104.47999572753906,25.65,0
-0.5276464223861694,0.0013740514405071,0.8569861650466919,-0.7311054468154907,2.5723636150360107,104.47999572753906,25.65,0
-0.5289374589920044,0.0064795617945492,0.8522441983222961,-0.5085897445678711,2.572051763534546,104.47999572753906,25.65,0
-0.5241681933403015,0.0041582100093364,0.8547988533973694,-0.2439843714237213,2.5718514919281006,104.47999572753906,25.65,0
-0.52110755443573,0.0026684997137635,0.8508405089378357,-0.2210614830255508,2.571722984313965,104.47999572753906,25.65,0
-0.5191434025764465,0.0073102638125419,0.8538980484008789,-0.2063508927822113,2.571640491485596,104.47999572753906,25.65,0
-0.5234806537628174,0.0102890813723206,0.850262463092804,0.0825304314494133,2.571128368377685,104.78093719482422,25.65,0
-0.5262640714645386,0.0066029401496052,0.8479292988777161,0.3610647916793823,2.5707995891571045,104.97406005859376,25.65,0
-0.5280503034591675,0.0042373868636786,0.8464320302009583,0.2639537751674652,2.5705885887146,105.09799194335938,25.65,0
-0.523598849773407,0.0083170849829912,0.8454711437225342,0.0153395952656865,2.570453405380249,105.17752838134766,25.65,0
-0.5207421779632568,0.0109352003782987,0.8504523038864136,-0.0403119921684265,2.570366621017456,105.22856903076172,25.65,0
-0.524506688117981,0.0070175821892917,0.848051130771637,-0.0043744617141783,2.5703108310699463,105.26132202148438,25.65,0
-0.5213247537612915,0.0045034801587462,0.8521080017089844,-0.0923716723918914,2.570275068283081,105.28234100341795,25.65,0
-0.5248805284500122,0.0028900743927806,0.8547114729881287,-0.1918341219425201,2.5702521800994877,105.29582977294922,25.65,0
-0.5271624326705933,0.0074524576775729,0.850784420967102,-0.1266906708478927,2.570237398147583,105.3044891357422,25.63,0
-0.5286268591880798,0.0047825584188103,0.8482642769813538,0.0584176704287529,2.570227861404419,105.31004333496094,25.63,0
-0.5295666456222534,0.0030691707506775,0.8522447943687439,0.2309481799602508,2.5702219009399414,105.31361389160156,25.63,0
-0.52457195520401,0.0019696170929819,0.8492014408111572,0.3452509045600891,2.570218086242676,105.31590270996094,25.63,0
-0.5269644260406494,0.0012639869237318,0.8472484350204468,0.3182916939258575,2.5702154636383057,105.31736755371094,25.63,0
-0.5229020118713379,0.0008111540228128,0.8515928983688354,0.0573756881058216,2.570213794708252,105.3183135986328,25.63,0
-0.5258927345275879,0.000520551984664,0.8543809056282043,-0.2533681988716125,2.5702128410339355,105.31891632080078,25.63,0
-0.5278120040893555,0.0003340602852404,0.8505722880363464,-0.2593266665935516,2.5702121257781982,105.31930541992188,25.63,0
-0.5290436744689941,0.0058121550828218,0.8481281399726868,0.1022722572088241,2.569293737411499,105.3195571899414,25.63,0
-0.5298340916633606,0.0037299066316336,0.8465596437454224,0.4919589757919311,2.56870436668396,105.31971740722656,25.63,0
-0.5303413271903992,0.0023936394136399,0.8455530405044556,0.6202298998832703,2.568326234817505,105.31981658935548,25.63,0
-0.5306668877601624,0.0015360999386757,0.8505048751831055,0.5449134707450867,2.5680835247039795,105.31988525390624,25.63,0
-0.5308758020401001,0.0009857804980129,0.8536826372146606,0.4643365144729614,2.567927837371826,105.3199234008789,25.63,0
-0.5254120826721191,0.0006326171569526,0.850124180316925,0.4377048909664154,2.5678279399871826,105.31995391845705,25.63,0
-0.5275035500526428,0.0060037514194846,0.8534383773803711,0.4098665416240692,2.5677638053894043,105.3199691772461,25.63,0
-0.5288457274436951,0.0038528621662408,0.8555651903152466,0.366923451423645,2.56772255897522,105.31997680664062,25.63,0
-0.5297070741653442,0.0024725452531129,0.8569300770759583,0.2927915453910827,2.56677794456482,105.31998443603516,25.63,0
-0.5302598476409912,0.0015867372276261,0.8522081971168518,0.1305755525827407,2.566171646118164,105.31999206542967,25.63,0
-0.5306145548820496,0.0010182766709476,0.8491779565811157,-0.1132457852363586,2.5657825469970703,105.31999206542967,25.63,0
-0.525244414806366,0.0062512457370758,0.8528311252593994,-0.3592806756496429,2.565532922744751,105.31999206542967,25.63,0
-0.5217981934547424,0.004011689685285,0.8495777249336243,-0.5637452006340027,2.5653727054595947,105.31999206542967,25.63,0
-0.5251843929290771,0.0025744715239852,0.8474898934364319,-0.6734632849693298,2.565269947052002,105.31999206542967,25.63,0
-0.5273574590682983,0.0016521476209163,0.8461500406265259,-0.543249785900116,2.565203905105591,105.31999206542967,25.63,0
-0.5287519693374634,0.0010602532420307,0.8508879542350769,-0.2053233981132507,2.56516170501709,105.31999206542967,25.63,0
-0.5296469330787659,0.0006804094882681,0.8539285063743591,0.0294511597603559,2.561462163925171,105.12653350830078,25.63,0
-0.5302212238311768,0.0004366476496215,0.8502819538116455,0.0117349084466695,2.559087991714477,105.00238800048828,25.63,0
-0.5305898189544678,0.0002802153176162,0.8535395860671997,-0.0712858736515045,2.5575642585754395,104.92271423339844,25.63,0
-0.5308263301849365,0.000179826063686,0.8556301593780518,-0.0815729275345802,2.556586503982544,104.87158203125,25.63,0
-0.5253803133964539,0.0001154020137619,0.856971800327301,-0.0666791126132011,2.5559589862823486,104.8387680053711,25.63,0
-0.5218853950500488,7.405837095575407e-05,0.8522350192070007,-0.0463733896613121,2.555556297302246,104.81771087646484,25.63,0
-0.5252403616905212,4.752639870275743e-05,0.8491951823234558,-0.0369249247014522,2.5552978515625,104.80419921875,25.63,0
-0.5273933410644531,3.049970655411016e-05,0.8528421521186829,-0.1311735659837722,2.5551321506500244,104.7955322265625,25.63,0
-0.5231772661209106,1.9572955352487043e-05,0.8551825881004333,-0.3313773572444916,2.556402921676636,104.78997039794922,25.65,0
-0.5204716324806213,1.2560795767058153e-05,0.8566845655441284,-0.5315081477165222,2.557218313217163,104.7863998413086,25.65,0
-0.5243330597877502,8.060796062636655e-06,0.8520506620407104,-0.5918716192245483,2.557741641998291,104.78410339355467,25.65,0
-0.5212133526802063,5.172954843146727e-06,0.8546746373176575,-0.3977420330047607,2.558077573776245,104.78263092041016,25.65,0
-0.5192112922668457,3.3197045468114084e-06,0.850760817527771,-0.0331282503902912,2.558293104171753,104.78168487548828,25.65,0
-0.5235242247581482,0.0055999048054218,0.8538469076156616,0.2008598893880844,2.558431386947632,104.78108215332033,25.65,0
-0.5262920260429382,0.0035936965141445,0.8558273911476135,0.1575609147548675,2.5585200786590576,104.78069305419922,25.65,0
-0.5224704742431641,0.0023062275722622,0.8570983409881592,0.018714290112257,2.558577060699463,104.78044128417967,25.65,0
-0.5256158113479614,0.0014800040517002,0.8523162007331848,0.044252935796976,2.5567774772644043,104.78028106689452,25.65,0
-0.52763432264328,0.0065475557930767,0.8492472767829895,0.2505186796188354,2.5556225776672363,104.78018188476562,25.65,0
-0.523331880569458,0.009799619205296,0.8528755903244019,0.4509570896625519,2.5548815727233887,104.78011322021484,25.65,0
-0.5205708146095276,0.0062888315878808,0.8496062755584717,0.5294308662414551,2.554405927658081,104.7800750732422,25.65,0
-0.5243967175483704,0.004035810008645,0.8475081920623779,0.5833734273910522,2.554100751876831,104.78004455566406,25.65,0
-0.5268519520759583,0.0025899505708366,0.8517595529556274,0.5964951515197754,2.5539050102233887,104.780029296875,25.65,0
-0.5284276008605957,0.0072598555125296,0.8488900661468506,0.4007091224193573,2.553779363632202,104.78002166748048,25.65,0
-0.5294387340545654,0.0046589574776589,0.8526463508605957,0.0887709930539131,2.5536985397338867,104.78001403808594,25.65,0
-0.5244898796081543,0.0029898507054895,0.8550569415092468,-0.0791697576642036,2.5518107414245605,104.7800064086914,25.65,0
-0.526911735534668,0.0019187140278518,0.8510061502456665,-0.154701292514801,2.5505990982055664,104.7800064086914,25.65,0
-0.5284659266471863,0.006829094607383,0.8540043830871582,-0.2784071564674377,2.549821615219116,104.7800064086914,25.65,0
-0.5238655805587769,0.0043825199827551,0.8559284210205078,-0.3398815989494324,2.5493226051330566,104.7800064086914,25.65,0
-0.5265111327171326,0.0084102237597107,0.851565420627594,-0.2467770427465438,2.5490024089813232,104.7800064086914,25.65,0
-0.52820885181427,0.0053971973247826,0.8543632626533508,-0.1082112416625022,2.5487968921661377,104.7800064086914,25.65,0
-0.5237005949020386,0.0034636105410754,0.8561587333679199,-0.0336179882287979,2.5486650466918945,104.7800064086914,25.65,0
-0.5208074450492859,0.0022227459121495,0.8573110103607178,-0.0323218181729316,2.548580408096313,104.7800064086914,25.65,0
-0.5245485901832581,0.0014264304190874,0.8524526953697205,-0.0637331902980804,2.546230792999268,104.66535949707033,25.65,0
-0.526949405670166,0.0009154009167104,0.8549326658248901,-0.0409002937376499,2.5447230339050293,104.59178924560548,25.65,0
-0.5228923559188843,0.0005874516209587,0.8565241694450378,0.0454040579497814,2.543755292892456,104.54457092285156,25.65,0
-0.5258865356445312,0.0003769926261156,0.8575454950332642,0.0900414958596229,2.5431342124938965,104.51427459716795,25.65,0
-0.5222102403640747,0.0058397063985466,0.8582009077072144,0.0076273875311017,2.5427358150482178,104.4948272705078,25.65,0
-0.5254487991333008,0.0093453619629144,0.8586215376853943,-0.1491559445858001,2.542479991912842,104.48235321044922,25.65,0
-0.5275270938873291,0.0059973155148327,0.8532937169075012,-0.2533530294895172,2.54231595993042,104.4743423461914,25.65,0
-0.5232630968093872,0.003848731983453,0.8554723858833313,-0.2521517872810364,2.542210578918457,104.46920013427734,25.65,0
-0.5205267071723938,0.0024698947090655,0.8568705320358276,-0.2012248337268829,2.5407657623291016,104.46590423583984,25.63,0
-0.5187706351280212,0.0071828109212219,0.8577677607536316,-0.0933087617158889,2.539838552474976,104.46379089355467,25.63,0
-0.5232414603233337,0.0046095144934952,0.8583435416221619,0.1228311583399772,2.539243698120117,104.46243286132812,25.63,0
-0.5261105895042419,0.0029581210110336,0.8587130904197693,0.3296062648296356,2.538861989974976,104.46156311035156,25.63,0
-0.5223540663719177,0.001898351823911,0.853352427482605,0.3763208091259002,2.538616895675659,104.46100616455078,25.63,0
-0.519943356513977,0.0012182529317215,0.8555100560188293,0.3991343677043915,2.538459539413452,104.4606475830078,25.63,0
-0.5239940285682678,0.0007818046142347,0.8568946719169617,0.5857384204864502,2.538358688354492,104.46041870117188,25.63,0
-0.5209957361221313,0.0005017172079533,0.8577832579612732,0.7914719581604004,2.538293838500977,104.46026611328124,25.63,0
-0.5246694087982178,0.000321973231621,0.8583534955978394,0.737205982208252,2.5387113094329834,104.46016693115234,25.63,0
-0.5270269513130188,0.0058043985627591,0.8531216979026794,0.4587660431861877,2.5389790534973145,104.4601058959961,25.63,0
-0.5229421257972717,0.009322702884674,0.8553619980812073,0.179767221212387,2.5391509532928467,104.46006774902344,25.63,0
-0.5259184837341309,0.011580548249185,0.8567996621131897,-0.0494342260062694,2.5392613410949707,104.46004486083984,25.63,0
-0.5278285145759583,0.0074317292310297,0.8521245121955872,-0.2825043201446533,2.539332151412964,104.46002960205078,25.63,0
-0.5234565138816833,0.0047692558728158,0.8491242527961731,-0.4679010510444641,2.5393776893615723,104.46002197265624,25.63,0
-0.5206508040428162,0.0086584081873297,0.8527966737747192,-0.5438870787620544,2.5394067764282227,104.46001434326172,25.63,0
-0.524448037147522,0.0055564679205417,0.8551533818244934,-0.5174164772033691,2.5394253730773926,104.4600067138672,25.63,0
-0.5212871432304382,0.0035658213309943,0.8510680198669434,-0.3822041749954223,2.5357651710510254,104.4600067138672,25.63,0
-0.5192586183547974,0.0022883389610797,0.8484463095664978,-0.213033452630043,2.533416271209717,104.4600067138672,25.63,0
-0.5235546231269836,0.0070662987418472,0.8523616194725037,-0.2047815471887588,2.5319089889526367,104.4600067138672,25.63,0
-0.5263115763664246,0.0101325185969471,0.8548741936683655,-0.3607018589973449,2.5309417247772217,104.4600067138672,25.63,0
-0.5280808210372925,0.0065024672076106,0.8508888483047485,-0.3962761759757995,2.530320882797241,104.4600067138672,25.63,0
-0.5292162299156189,0.0097706839442253,0.8539291024208069,-0.1969860196113586,2.5299224853515625,104.4600067138672,25.63,0
-0.5299448370933533,0.0118680372834205,0.8558801412582397,0.0204713214188814,2.5296669006347656,104.4600067138672,25.63,0
-0.5304124355316162,0.0076162233017385,0.8571321964263916,0.134944885969162,2.529502868652344,104.4600067138672,25.63,0
-0.5307124853134155,0.0104854283854365,0.8523378968238831,0.2585634887218475,2.5307745933532715,104.39551544189452,25.63,0
-0.5309050679206848,0.0123267192393541,0.8548589944839478,0.3773031234741211,2.5315909385681152,104.35413360595705,25.63,0
-0.5254308581352234,0.013508353382349,0.856476902961731,0.367521584033966,2.5321147441864014,104.32757568359376,25.63,0
-0.5275155901908875,0.008668883703649,0.8575151562690735,0.2824276685714721,2.5324509143829346,104.31053161621094,25.63,0
-0.5232557058334351,0.0055631906725466,0.8581814765930176,0.2134889960289001,2.532666683197021,104.29959106445312,25.63,0
-0.5205219388008118,0.0035701354499906,0.8586090803146362,0.0223625320941209,2.5328049659729004,104.29257202148438,25.63,0
-0.5243653655052185,0.0078888814896345,0.8532857298851013,-0.3474891781806946,2.5328938961029053,104.28807067871094,25.63,0
-0.5212340354919434,0.0050626299344003,0.8554672598838806,-0.5705084204673767,2.5329508781433105,104.2851791381836,25.63,0
-0.5192245841026306,0.0032489043660461,0.856867253780365,-0.3911975026130676,2.530233144760132,104.2833251953125,25.63,0
-0.5235328078269958,0.0020849597640335,0.8521679043769836,-0.1005798578262329,2.528489112854004,104.28213500976562,25.63,0
-0.5262975692749023,0.0013380071613937,0.849152147769928,-0.0573812127113342,2.527369976043701,104.2813720703125,25.63,0
-0.5224740505218506,0.0064564305357635,0.8528145551681519,-0.1693792641162872,2.526651620864868,104.2808837890625,25.63,0
-0.5200203061103821,0.0041433656588196,0.8495671153068542,-0.2806614935398102,2.526190757751465,104.2805633544922,25.63,0
-0.5240434408187866,0.0026589736808091,0.8474830985069275,-0.4631358683109283,2.5258948802948,104.28035736083984,25.63,0
-0.5266252160072327,0.0017063762061297,0.8517434597015381,-0.6124805808067322,2.525705099105835,104.2802276611328,25.63,0
-0.5226842761039734,0.0066928281448781,0.8544775247573853,-0.4360456764698028,2.525583267211914,104.28014373779295,25.63,0
-0.5201552510261536,0.0042950720526278,0.8562321066856384,0.0211073383688926,2.5255050659179688,104.28009033203124,25.63,0
-0.5241300463676453,0.0027563299518078,0.8573580980300903,0.3753856122493744,2.5254549980163574,104.28005981445312,25.63,0
-0.5266808271408081,0.0017688538646325,0.8580806851387024,0.4200296700000763,2.5254228115081787,104.28003692626952,25.63,0
-0.5227199792861938,0.0067329229786992,0.8585444092750549,0.2122296541929245,2.525402069091797,104.28002166748048,25.63,0
-0.5201781392097473,0.0043208026327192,0.8588419556617737,-0.0859229192137718,2.525388717651367,104.28001403808594,25.63,0
-0.5185469388961792,0.0027728423010557,0.859032928943634,-0.2414343059062957,2.525380373001098,104.2800064086914,25.63,0
-0.517500102519989,0.0073772249743342,0.8591554760932922,-0.1477734893560409,2.5253748893737797,104.2800064086914,25.63,0
-0.5168283581733704,0.0103320525959134,0.859234094619751,0.0413053594529628,2.5253713130950928,104.2800064086914,25.63,0
-0.51639723777771,0.0066305166110396,0.8592845797538757,0.2414619475603103,2.52353310585022,104.2800064086914,25.63,0
-0.5161205530166626,0.0042550838552415,0.8593169450759888,0.5311267971992493,2.522353410720825,104.2800064086914,25.63,0
-0.5215408205986023,0.0083284424617886,0.8537399768829346,0.8173291683197021,2.521596193313598,104.2800064086914,25.63,0
-0.5194214582443237,0.0109424898400902,0.855758786201477,0.907850444316864,2.5211102962493896,104.2800064086914,25.63,0
-0.5180613398551941,0.0126200346276164,0.8570542931556702,0.8369690179824829,2.520798444747925,104.2800064086914,25.63,0
-0.5227862596511841,0.0080988118425011,0.8522879481315613,0.6875867247581482,2.5205984115600586,104.2800064086914,25.63,0
-0.5202206969261169,0.0051973513327538,0.8548269271850586,0.3481066226959228,2.520470142364502,104.2800064086914,25.63,0
-0.5185742378234863,0.0033353609032928,0.8564562797546387,-0.2208445817232132,2.520387649536133,104.2800064086914,25.63,0
-0.517517626285553,0.0021404426079243,0.8575019240379333,-0.7543457746505737,2.519416570663452,104.22268676757812,25.63,0
-0.5168395638465881,0.0013736129039898,0.8581729531288147,-0.9247525334358216,2.5187933444976807,104.18589782714844,25.63,0
-0.5164044499397278,0.0008815057226456,0.8586035966873169,-0.6579393148422241,2.518393516540528,104.16229248046876,25.63,0
-0.5161252021789551,0.0061634737066924,0.8588799834251404,-0.1821950227022171,2.518136739730835,104.14714050292967,25.63,0
-0.5159460306167603,0.003955362830311,0.8590573072433472,0.1696837693452835,2.517971992492676,104.13742065429688,25.63,0
-0.5158309936523438,0.0025383241008967,0.8591711521148682,0.2665266096591949,2.517866373062134,104.13117980957033,25.63,0
-0.5157572031021118,0.0016289503546431,0.859244167804718,0.2462755292654037,2.517798662185669,104.1271743774414,25.63,0
-0.5213075876235962,0.0010453665163367,0.8592910170555115,0.2977659106254577,2.5177550315856934,104.12460327148438,25.63,0
-0.5248695611953735,0.0062686302699148,0.8537233471870422,0.3881306946277618,2.5154316425323486,104.12295532226562,25.67,0
-0.521557629108429,0.0040228459984064,0.8557481169700623,0.3923829793930053,2.5139408111572266,104.12189483642578,25.67,0
-0.5194322466850281,0.0025816310662776,0.8570474982261658,0.3270429074764251,2.512984037399292,104.1212158203125,25.67,0
-0.5236660242080688,0.0016567421844229,0.8578813672065735,0.2922765612602234,2.5123698711395264,104.12078094482422,25.67,0
-0.5207852721214294,0.0010632018093019,0.8584164977073669,0.2699654996395111,2.5119757652282715,104.12049865722656,25.67,0
-0.5189365744590759,0.0006823017029091,0.8531621098518372,0.2090740650892257,2.511723041534424,104.12032318115234,25.67,0
-0.5177502036094666,0.0004378619487397,0.8553879261016846,0.1234239712357521,2.511560678482056,104.12020874023438,25.67,0
-0.5169888138771057,0.0058787688612937,0.8568163514137268,0.0362154953181743,2.5114564895629883,104.12013244628906,25.67,0
-0.5165002346038818,0.0037726555019617,0.8577330112457275,-0.0269150398671627,2.51138973236084,104.12008666992188,25.67,0
-0.5161866545677185,0.0024210731498897,0.8527234792709351,-0.0244376752525568,2.5113468170166016,104.12005615234376,25.67,0
-0.5215831995010376,0.007151479832828,0.8495086431503296,0.0273082125931978,2.511319398880005,104.12003326416016,25.67,0
-0.5194486379623413,0.0101871825754642,0.8530433177947998,0.0533505976200103,2.511301755905152,104.12002563476562,25.67,0
-0.5180788040161133,0.0121353222057223,0.8553116917610168,-0.0266664437949657,2.5112903118133545,104.1200180053711,25.67,0
-0.5227974653244019,0.0077877510339021,0.8567674160003662,-0.2177372127771377,2.511283159255981,104.12001037597656,25.67,0
-0.52022784948349,0.0049977302551269,0.8577015995979309,-0.4370849728584289,2.5112783908843994,104.12001037597656,25.67,0
-0.518578827381134,0.0032072556205093,0.8583011031150818,-0.6208406686782837,2.511275291442871,104.12001037597656,25.67,0
-0.5175206065177917,0.0020582319702953,0.8530880808830261,-0.8068334460258484,2.5121915340423584,104.12001037597656,25.67,0
-0.516841471195221,0.0013208547607064,0.8553404211997986,-0.9226102828979492,2.512779712677002,104.12001037597656,25.67,0
-0.5164056420326233,0.0008476485381834,0.8567858338356018,-0.7067205905914307,2.51315712928772,104.12001037597656,25.67,0
-0.5161259770393372,0.0005439720116555,0.8577134013175964,-0.1490136533975601,2.513399362564087,104.12001037597656,25.67,0
-0.5159465074539185,0.0003490899107418,0.8583086729049683,0.3056200742721557,2.513554811477661,104.12001037597656,25.67,0
-0.5214291214942932,0.0002240258036181,0.8586906790733337,0.3430149853229522,2.5136544704437256,104.12001037597656,25.67,0
-0.5249475240707397,0.0057415412738919,0.8533380627632141,0.1198151558637619,2.513718366622925,104.12001037597656,25.67,0
-0.5272054076194763,0.0036845908034592,0.8555008172988892,-0.0484996698796749,2.5137593746185303,104.12001037597656,25.67,0
-0.5230566263198853,0.0023645584005862,0.8568887710571289,-0.0132114179432392,2.51332688331604,104.06268310546876,25.67,0
-0.5203942060470581,0.001517437514849,0.8577795028686523,0.1813981682062149,2.513049364089966,104.02589416503906,25.67,0
-0.5242833495140076,0.0065715783275663,0.8583511114120483,0.2847919464111328,2.512871265411377,104.00228881835938,25.67,0
-0.5267792344093323,0.0042172605171799,0.8587179183959961,0.1003638282418251,2.512756824493408,103.98713684082033,25.67,0
-0.5227831602096558,0.002706394996494,0.8533555269241333,-0.1075558960437774,2.512683391571045,103.9774169921875,25.67,0
-0.5258164405822754,0.0017368085682392,0.8499142527580261,0.0277063623070716,2.512636423110962,103.97117614746094,25.67,0
-0.5277630686759949,0.001114583807066,0.8477058410644531,0.3437947332859039,2.512606143951416,103.96717071533205,25.67,0
-0.5234144926071167,0.0063130501657724,0.8518863916397095,0.4463299214839935,2.512586832046509,103.964599609375,25.67,0
-0.5206238627433777,0.0040513523854315,0.8545692563056946,0.347332626581192,2.511197328567505,103.96295166015624,25.63,0
-0.5244307518005371,0.0025999248027801,0.8562909364700317,0.2909670174121856,2.510305404663086,103.9618911743164,25.63,0
-0.5268738269805908,0.0072662564925849,0.8517980575561523,0.2368819415569305,2.509733200073242,103.96121215820312,25.63,0
-0.5228438377380371,0.0102608390152454,0.8545125722885132,0.0660353899002075,2.5093657970428467,103.96077728271484,25.63,0
-0.5202576518058777,0.0121825905516743,0.8562545776367188,-0.036438949406147,2.5091302394866943,103.9604949951172,25.63,0
-0.5241957306861877,0.0078180851414799,0.8573724627494812,0.0805102661252021,2.508979082107544,103.96031951904295,25.63,0
-0.5211251974105835,0.0050171972252428,0.852492094039917,0.1913872957229614,2.5088820457458496,103.960205078125,25.63,0
-0.5191547274589539,0.0088175227865576,0.8549579381942749,0.0834130123257637,2.508819580078125,103.96012878417967,25.63,0
-0.52348792552948,0.0056585785932838,0.8565403819084167,-0.0002089638583129,2.5051071643829346,103.9600830078125,25.63,0
-0.526268720626831,0.0036313501186668,0.851958155632019,0.1897424012422561,2.5027246475219727,103.96005249023438,25.63,0
-0.5280532836914062,0.0023303914349526,0.8490175008773804,0.3904589414596557,2.5011956691741943,103.96002960205078,25.63,0
-0.5236007571220398,0.0014955110382288,0.8527281284332275,0.2362437695264816,2.5002145767211914,103.96002197265624,25.63,0
-0.5263411402702332,0.0065575074404478,0.8495116233825684,-0.1959021836519241,2.499584913253784,103.96001434326172,25.63,0
-0.528099775314331,0.0042082308791577,0.8530452251434326,-0.562792956829071,2.499180793762207,103.9600067138672,25.63,0
-0.5236306190490723,0.0082983747124671,0.8553129434585571,-0.6728522181510925,2.4989213943481445,103.9600067138672,25.63,0
-0.52076256275177,0.0053254193626344,0.8567681908607483,-0.575100839138031,2.498754978179932,103.9600067138672,25.63,0
-0.5245197415351868,0.0034175475593656,0.8577020764350891,-0.397727221250534,2.5004842281341557,103.9600067138672,25.63,0
-0.5269309282302856,0.0021931852679699,0.8583014011383057,-0.2265778332948684,2.501594066619873,103.9600067138672,25.63,0
-0.5284782648086548,0.0014074600767344,0.8586860299110413,-0.0773356780409812,2.5023062229156494,103.9600067138672,25.63,0
-0.523873507976532,0.0009032268426381,0.8589328527450562,0.0220219250768423,2.502763271331787,103.9600067138672,25.63,0
-0.5265161991119385,0.0005796389887109,0.8590912818908691,0.0714536160230636,2.503056526184082,103.9600067138672,25.63,0
-0.5226143598556519,0.0003719789383467,0.8591929078102112,0.1282540559768676,2.5032448768615723,103.9600067138672,25.63,0
-0.5257081389427185,0.0002387146669207,0.8592581152915955,0.2112787961959839,2.5033657550811768,103.9600067138672,25.63,0
-0.522095799446106,0.0001531933376099,0.8593000173568726,0.3182979226112366,2.5034432411193848,103.9600067138672,25.63,0
-0.5197775959968567,0.00569608528167,0.8537291288375854,0.4944539070129394,2.501197576522827,103.93492889404295,25.63,0
-0.5238876938819885,0.0092531936243176,0.8557518124580383,0.643326461315155,2.499756336212158,103.91883087158205,25.63,0
-0.5209275484085083,0.0059381672181189,0.857049822807312,0.4916665554046631,2.4988315105438232,103.90850067138672,25.63,0
-0.5246256589889526,0.0094085484743118,0.8578828573226929,0.0360824055969715,2.4982380867004395,103.90187072753906,25.63,0
-0.5269988775253296,0.0060378648340702,0.8584174513816833,-0.3136065006256103,2.4978573322296143,103.89762115478516,25.63,0
-0.5229241251945496,0.0038747540675103,0.8587604761123657,-0.240662932395935,2.497612953186035,103.89488983154295,25.63,0
-0.5203091502189636,0.0024865940213203,0.858980655670166,0.0390154756605625,2.4974560737609863,103.89313507080078,25.63,0
-0.5242288112640381,0.0015957528958097,0.8591219186782837,0.1396803110837936,2.497355461120605,103.89201354980467,25.63,0
-0.5211464166641235,0.0066218366846442,0.8592125773429871,0.0717259049415588,2.4959137439727783,103.89128875732422,25.65,0
-0.5191683173179626,0.0042495136149227,0.8592707514762878,0.0639424324035644,2.494988441467285,103.8908233642578,25.65,0
-0.5178989171981812,0.0083248680457472,0.859308123588562,0.087608054280281,2.494394540786743,103.8905258178711,25.65,0
-0.5170842409133911,0.0053424211218953,0.8593320846557617,-0.0046819797717034,2.494013547897339,103.8903350830078,25.65,0
-0.5165614485740662,0.0034284584689885,0.853749692440033,-0.0925690159201622,2.4937689304351807,103.89021301269533,25.65,0
-0.5218237042427063,0.0077979615889489,0.8557649850845337,-0.0701531916856765,2.493612051010132,103.89013671875,25.65,0
-0.5252007246017456,0.0050042830407619,0.8570582866668701,-0.1345846652984619,2.493511438369751,103.8900909423828,25.65,0
-0.5217701196670532,0.0032114607747644,0.8578882813453674,-0.4159656465053558,2.4934468269348145,103.89006042480467,25.65,0
-0.5195685625076294,0.0020609307102859,0.8584209084510803,-0.6717738509178162,2.4906513690948486,103.8900375366211,25.65,0
-0.5237535238265991,0.0013225866714492,0.8587627410888672,-0.5779913663864136,2.4888575077056885,103.89002227783205,25.65,0
-0.5208414196968079,0.0008487600134685,0.8589820861816406,-0.195375382900238,2.487706184387207,103.8900146484375,25.65,0
-0.5189725756645203,0.00054468534654,0.8591228723526001,0.06807841360569,2.4869673252105717,103.89000701904295,25.65,0
-0.5177732706069946,0.0003495477139949,0.8592131733894348,-0.0458755791187286,2.4864933490753174,103.89000701904295,25.65,0
-0.5226014256477356,0.0002243196067865,0.8536733984947205,-0.3590372502803802,2.486189126968384,103.89000701904295,25.65,0
-0.5201020836830139,0.0001439554180251,0.8557160496711731,-0.5707541108131409,2.4859938621521,103.89000701904295,25.65,0
-0.5184981226921082,9.238230268238112e-05,0.8570268750190735,-0.5776491165161133,2.485868453979492,103.89000701904295,25.65,0
-0.5174688100814819,5.928564496571198e-05,0.8578681349754333,-0.4208579957485199,2.485788106918335,103.89000701904295,25.65,0
-0.5224060416221619,3.804611333180219e-05,0.8584079742431641,-0.19843091070652,2.485736608505249,103.89000701904295,25.65,0
-0.5199766755104065,2.441580545564648e-05,0.8587543964385986,-0.0592726059257984,2.485703468322754,103.89000701904295,25.65,0
-0.5184176564216614,1.566865830682218e-05,0.8589767217636108,-0.0666983500123024,2.485682249069214,103.89000701904295,25.65,0
-0.5230149626731873,1.005524336505914e-05,0.8535216450691223,-0.0822114944458007,2.485668659210205,103.89000701904295,25.65,0
-0.5259652137756348,6.452876277762698e-06,0.8556186556816101,0.0511360839009285,2.4856598377227783,103.89000701904295,25.65,0
-0.5222607254981995,4.1410844460187946e-06,0.8569644093513489,0.3122570812702179,2.48565411567688,103.89000701904295,25.65,0
-0.5198834538459778,2.6575096399028557e-06,0.8578280210494995,0.5299855470657349,2.4856505393981934,103.89000701904295,25.65,0
-0.5183578133583069,1.705436716292752e-06,0.8583822250366211,0.5980596542358398,2.486107110977173,103.87925720214844,25.65,0
-0.5173787474632263,0.0055988687090575,0.8587378859519958,0.5199381113052368,2.4864001274108887,103.8723602294922,25.65,0
-0.5223482251167297,0.0035930315498262,0.8589661121368408,0.2906754314899444,2.4865882396698,103.86793518066406,25.65,0
-0.5199396014213562,0.0023058007936924,0.8591126203536987,-0.0140854865312576,2.486708879470825,103.8650894165039,25.65,0
-0.518393874168396,0.007077504415065,0.8592066168785095,-0.0842733383178711,2.486786365509033,103.86326599121094,25.65,0
-0.517401933670044,0.0045419349335134,0.8536691665649414,0.2289417088031768,2.4868359565734863,103.86209869384766,25.65,0
-0.5223631262779236,0.0085125267505645,0.8557133078575134,0.5732481479644775,2.486867904663086,103.86134338378906,25.65,0
-0.5255469083786011,0.0054628495126962,0.857025146484375,0.5756670236587524,2.4868884086608887,103.8608627319336,25.65,0
-0.5219923257827759,0.0035057424101978,0.8578670024871826,0.3694299459457397,2.4855244159698486,103.86055755615234,25.61,0
-0.5197111964225769,0.0022497836034744,0.8584072589874268,0.1797576695680618,2.484649181365967,103.86035919189452,25.61,0
-0.5238450765609741,0.0070415558293461,0.8587539792060852,-0.0136145967990159,2.4840874671936035,103.8602294921875,25.61,0
-0.5209001898765564,0.0045188651420176,0.8589764833450317,-0.1233794838190078,2.483726978302002,103.86014556884766,25.61,0
-0.5190103054046631,0.0028999475762248,0.8591192364692688,0.1071160659193992,2.4834954738616943,103.86009216308594,25.61,0
-0.5233952403068542,0.0074587939307093,0.8536130785942078,0.577466607093811,2.483346939086914,103.8600616455078,25.61,0
-0.52620929479599,0.0047866245731711,0.8500795364379883,0.8148242235183716,2.4832518100738525,103.86003875732422,25.61,0
-0.5224173665046692,0.003071780083701,0.8534097075462341,0.6017239689826965,2.4831905364990234,103.86002349853516,25.61,0
-0.5255817174911499,0.001971291610971,0.8555468320846558,0.2213533371686935,2.4813151359558105,103.86001586914062,25.61,0
-0.5276124477386475,0.0012650614371523,0.8569182753562927,0.0166616905480623,2.480111837387085,103.8600082397461,25.61,0
-0.5233178734779358,0.0008118436089716,0.8577983975410461,-0.0394635461270809,2.479339599609375,103.8600082397461,25.61,0
-0.5205618143081665,0.0005209944793023,0.8583632111549377,-0.1220549792051315,2.478843927383423,103.8600082397461,25.61,0
-0.5243909358978271,0.005932118743658,0.8531278967857361,-0.232378602027893,2.4785258769989014,103.8600082397461,25.61,0
-0.5212504863739014,0.0094046667218208,0.8553659915924072,-0.3139256834983825,2.4783217906951904,103.8600082397461,25.61,0
-0.5192351341247559,0.0060353735461831,0.856802225112915,-0.384170800447464,2.478190660476685,103.8600082397461,25.61,0
-0.5179417729377747,0.0038731552194803,0.8577239513397217,-0.3611811101436615,2.4781064987182617,103.8600082397461,25.61,0
-0.5171117782592773,0.0080833425745368,0.8583154678344727,-0.1386382728815078,2.474838972091675,103.8600082397461,25.61,0
-0.5165791511535645,0.0051874238997697,0.8586950302124023,0.1474799364805221,2.472742080688477,103.8600082397461,25.61,0
-0.5162373185157776,0.0089267641305923,0.8589386343955994,0.2881032228469848,2.471396446228028,103.8600082397461,25.61,0
-0.521615743637085,0.0057286834344267,0.8534972071647644,0.2314615398645401,2.470532894134521,103.8600082397461,25.61,0
-0.5194694995880127,0.0036763392854481,0.8556029796600342,0.0016530884895473,2.469978809356689,103.8600082397461,25.61,0
-0.518092155456543,0.0023592629004269,0.8569543361663818,-0.2568846046924591,2.46962308883667,103.8600082397461,25.61,0
-0.5228060483932495,0.0071118134073913,0.8522237539291382,-0.3009916245937347,2.4693949222564697,103.8600082397461,25.61,0
-0.5202333927154541,0.0045639523304998,0.8547857403755188,-0.1788288056850433,2.4692485332489014,103.8600082397461,25.61,0
-0.5185824036598206,0.0029288819059729,0.8564298748970032,-0.1864135414361953,2.471449851989746,103.72028350830078,25.61,0
-0.523120641708374,0.0018795877695083,0.8518872261047363,-0.3453317582607269,2.472862482070923,103.630615234375,25.61,0
-0.5204352736473083,0.00680398568511,0.8489720225334167,-0.483142077922821,2.473769187927246,103.57307434082033,25.61,0
-0.5187119841575623,0.0043664062395691,0.8526989817619324,-0.6002414226531982,2.474350929260254,103.53614807128906,25.61,0
-0.5176060199737549,0.0028021081816405,0.8550907373428345,-0.6682238578796387,2.474724292755127,103.512451171875,25.61,0
-0.5224940776824951,0.0073960060253739,0.8566256165504456,-0.5148094296455383,2.474963903427124,103.49724578857422,25.61,0
-0.5200331807136536,0.0047463309019804,0.8576105833053589,-0.2443932443857193,2.4751176834106445,103.48748779296876,25.61,0
-0.5184538960456848,0.0030459219124168,0.8582426905632019,-0.1138466149568557,2.4752163887023926,103.4812240600586,25.61,0
-0.5174404382705688,0.0019546973053365,0.8586483597755432,-0.0408170223236084,2.470689058303833,103.47720336914062,25.63,0
-0.5223878026008606,0.0068521867506206,0.8589087128639221,0.1063612848520279,2.4677836894989014,103.47462463378906,25.63,0
-0.5255627632141113,0.0043973391875624,0.8590757846832275,0.1936466991901397,2.465919017791748,103.47296905517578,25.63,0
-0.5220024585723877,0.0028219590894877,0.8591829538345337,0.1744273602962494,2.4647223949432373,103.47190856933594,25.63,0
-0.5197176933288574,0.001810970949009,0.8592517375946045,0.2229972779750824,2.463954448699951,103.47122192382812,25.63,0
-0.5238492488861084,0.001162176951766,0.8536981344223022,0.3508962094783783,2.463461637496948,103.47078704833984,25.63,0
-0.5209028720855713,0.0007458182517439,0.8557319045066833,0.346992552280426,2.46314549446106,103.4705047607422,25.63,0
-0.5190120339393616,0.0004786232311744,0.8570370674133301,0.20476695895195,2.462942600250244,103.47032165527344,25.63,0
-0.523396372795105,0.0003071528335567,0.8578746318817139,0.1493205279111862,2.464648723602295,103.47020721435548,25.63,0
-0.5206122398376465,0.0057948874309659,0.8584121465682983,0.18180713057518,2.4657437801361084,103.47013092041016,25.63,0
-0.5188255310058594,0.0037188252899795,0.8587570786476135,0.1202559322118759,2.4664463996887207,103.47008514404295,25.63,0
-0.5176789164543152,0.0023865280672907,0.8589784502983093,0.0449301525950431,2.4668972492218018,103.47005462646484,25.63,0
-0.5225408673286438,0.0071293106302618,0.8591204881668091,0.1757191866636276,2.467186689376831,103.47003173828124,25.63,0
-0.5200632214546204,0.004575181286782,0.8592116832733154,0.3707119226455688,2.467372417449951,103.47002410888672,25.63,0
-0.518473207950592,0.002936088014394,0.8592702150344849,0.3310485482215881,2.467491626739502,103.4700164794922,25.63,0
-0.5174528360366821,0.0018842122517526,0.8593077659606934,0.1300486624240875,2.4675681591033936,103.47000885009766,25.63,0
-0.5167980194091797,0.0012091789394617,0.8593318462371826,0.0512145645916461,2.4662399291992188,103.47000885009766,25.63,0
-0.5163777470588684,0.0007759814616292,0.8593472838401794,0.1618392765522003,2.4653875827789307,103.47000885009766,25.63,0
-0.5161080956459045,0.0060957544483244,0.8593572378158569,0.2650750279426574,2.464840650558472,103.47000885009766,25.63,0
-0.5159350037574768,0.0095096789300441,0.8593636155128479,0.1486144363880157,2.464489698410034,103.47000885009766,25.63,0
-0.5158239603042603,0.0061027645133435,0.8593676686286926,-0.180486112833023,2.464264392852783,103.47000885009766,25.63,0
-0.5157526731491089,0.0039164028130471,0.8593702912330627,-0.4812483191490173,2.464119911193848,103.47000885009766,25.63,0
-0.521304726600647,0.0025133218150585,0.8593719601631165,-0.5309571623802185,2.464027166366577,103.47000885009766,25.63,0
-0.5192699432373047,0.001612905296497,0.8593730330467224,-0.3586506247520447,2.4639675617218018,103.47000885009766,25.63,0
-0.5179641246795654,0.0010350698139518,0.8537759780883789,-0.1835878491401672,2.4620933532714844,103.2801284790039,25.63,0
-0.522723913192749,0.0006642482476308,0.8557818531990051,-0.1213986948132515,2.460890531539917,103.15827941894533,25.63,0
-0.5201807022094727,0.0004262762959115,0.8514713644981384,-0.067158967256546,2.460118532180786,103.080078125,25.63,0
-0.5185486078262329,0.0002735595917329,0.8543028831481934,0.0715436562895774,2.459623098373413,103.02989196777344,25.63,0
-0.517501175403595,0.0001755548000801,0.8561199903488159,0.2178762257099151,2.4593052864074707,102.99768829345705,25.63,0
-0.5168290138244629,0.0001126609640778,0.8572860956192017,0.2580454349517822,2.45910120010376,102.97702026367188,25.63,0
-0.5163976550102234,7.229932089103386e-05,0.8580344319343567,0.1978418827056884,2.458970308303833,102.96376037597656,25.63,0
-0.5161208510398865,4.639754115487449e-05,0.8585147261619568,0.0947203487157821,2.4588863849639893,102.95524597167967,25.63,0
-0.5159432291984558,2.977527037728578e-05,0.8588229417800903,-0.0287783276289701,2.459291458129883,102.94978332519533,25.65,0
-0.5214269757270813,0.0056168823502957,0.8590207099914551,-0.1868493258953094,2.4595513343811035,102.94628143310548,25.65,0
-0.5249461531639099,0.0036045918241143,0.8591476082801819,-0.3348636925220489,2.4597182273864746,102.94403076171876,25.65,0
-0.5216068029403687,0.0079109938815236,0.8592290878295898,-0.3008780479431152,2.459825277328491,102.94258880615234,25.65,0
-0.5194637775421143,0.0106745949015021,0.8592813611030579,0.0361986234784126,2.4598939418792725,102.94166564941406,25.65,0
-0.5180885195732117,0.0068503404036164,0.8593149185180664,0.4746347069740295,2.4599380493164062,102.94107055664062,25.65,0
-0.5172059535980225,0.0043961540795862,0.8593364357948303,0.6485204696655273,2.45996642112732,102.94068908691406,25.65,0
-0.5166395902633667,0.0028211986646056,0.8593502640724182,0.4842520356178283,2.459984540939331,102.94044494628906,25.65,0
-0.5162761211395264,0.0018104829359799,0.8593591451644897,0.2212006896734237,2.4563236236572266,102.9402847290039,25.65,0
-0.5160428285598755,0.0011618636781349,0.8593648076057434,0.0380591861903667,2.45397424697876,102.940185546875,25.65,0
-0.5158931612968445,0.0007456172024831,0.8593684434890747,-0.0687227621674537,2.452466487884521,102.94011688232422,25.65,0
-0.5213948488235474,0.000478494213894,0.8537729978561401,-0.0584326162934303,2.451498985290528,102.94007873535156,25.65,0
-0.5193277597427368,0.0059048444963991,0.8557799458503723,0.0914740338921547,2.450878143310547,102.94004821777344,25.65,0
-0.5180011987686157,0.0093871634453535,0.857067883014679,0.2020058035850525,2.450479745864868,102.94003295898438,25.65,0
-0.5171499252319336,0.0060241413302719,0.8578944206237793,0.043653879314661,2.450223922729492,102.94002532958984,25.65,0
-0.5222013592720032,0.0038659472484141,0.8584248423576355,-0.3696513473987579,2.4500598907470703,102.94001770019533,25.65,0
-0.5198453068733215,0.0024809425231069,0.8587652444839478,-0.7853550314903259,2.4522500038146973,102.94001007080078,25.65,0
-0.5239311456680298,0.0015921260928735,0.8589836955070496,-0.9231569766998292,2.453655481338501,102.94001007080078,25.65,0
-0.5209553837776184,0.0010217349044978,0.8591238856315613,-0.6927410960197449,2.454557418823242,102.94001007080078,25.65,0
-0.5190457105636597,0.0062534650787711,0.8592138290405273,-0.2725977301597595,2.455136299133301,102.94001007080078,25.65,0
-0.5178202390670776,0.0040131141431629,0.8592715859413147,0.0794253274798393,2.455507755279541,102.94001007080078,25.65,0
-0.5170337557792664,0.0025753856170922,0.859308660030365,0.2229342311620712,2.4557461738586426,102.94001007080078,25.65,0
-0.5165290832519531,0.0072505087591707,0.8593324422836304,0.1932224184274673,2.4558990001678467,102.94001007080078,25.65,0
-0.5162051916122437,0.0046529592946171,0.8593477010726929,0.1311641782522201,2.4559972286224365,102.94001007080078,25.65,0
-0.5159973502159119,0.0029860015492886,0.859357476234436,0.1235819533467292,2.452387571334839,103.0618133544922,25.65,0
-0.5158639550209045,0.0019162439275532,0.8593637347221375,0.0685600563883781,2.450071096420288,103.13997650146484,25.65,0
-0.5157783627510071,0.0012297350913286,0.8593677878379822,-0.138713464140892,2.44858455657959,103.1901397705078,25.65,0
-0.5157234072685242,0.0007891731802374,0.8593703508377075,-0.3218857049942016,2.4476306438446045,103.22233581542967,25.65,0
-0.5156881809234619,0.0005064459401182,0.8593720197677612,-0.2208980172872543,2.447018384933472,103.24299621582033,25.65,0
-0.5156655311584473,0.0059227822348475,0.8593730926513672,0.0911077782511711,2.4466254711151123,103.25625610351562,25.65,0
-0.5156509876251221,0.0093986755236983,0.8593737483024597,0.3343260288238525,2.446373462677002,103.26476287841795,25.65,0
-0.5156416893005371,0.006031529046595,0.8593742251396179,0.4115928709506988,2.446211576461792,103.2702178955078,25.65,0
-0.5212334990501404,0.0038706881459802,0.853776752948761,0.3966919183731079,2.452888965606689,103.27371978759766,25.63,0
-0.5248219966888428,0.0024839849211275,0.8557823896408081,0.3799641728401184,2.457174062728882,103.27597045898438,25.63,0
-0.521527111530304,0.0071918531320989,0.8570694923400879,0.387142151594162,2.4599239826202397,103.27741241455078,25.63,0
-0.519412636756897,0.0046153175644576,0.8578954339027405,0.3415925204753876,2.461688756942749,103.27833557128906,25.63,0
-0.5236534476280212,0.0029618451371788,0.858425498008728,0.1905538141727447,2.462821245193481,103.2789306640625,25.63,0
-0.52077716588974,0.0019007417140528,0.8531678915023804,0.0470523796975612,2.463547945022583,103.27931213378906,25.63,0
-0.5189313888549805,0.0012197865871712,0.8553916215896606,-0.0092128245159983,2.4640142917633057,103.27955627441406,25.63,0
-0.5233446359634399,0.0063805631361901,0.856818675994873,-0.0847289264202117,2.464313745498657,103.27971649169922,25.63,0
-0.5205790400505066,0.009692451916635,0.8577345013618469,-0.2155900448560714,2.460374593734741,103.27981567382812,25.63,0
-0.5188041925430298,0.006220057606697,0.8583222031593323,-0.2744911611080169,2.457846641540528,103.2798843383789,25.63,0
-0.5232629776000977,0.0095894495025277,0.8531016111373901,-0.2298912703990936,2.456224203109741,103.27992248535156,25.63,0
-0.5261244177818298,0.0061539565213024,0.8553491234779358,-0.2084347754716873,2.4551830291748047,103.27995300292967,25.63,0
-0.5223629474639893,0.0039492552168667,0.8567914366722107,-0.2627341747283935,2.454514980316162,103.27996826171876,25.63,0
-0.5199490189552307,0.0025344046298414,0.8521192669868469,-0.283250093460083,2.454086303710937,103.27997589111328,25.63,0
