acc_x,acc_y,acc_z,bvp,eda,hr,temp,label
0.0,0.0,0.0,0.0,0.0,0.0,25.29,0
-0.0651041641831398,-0.1145833283662796,0.1041666567325592,-8.733332633972168,0.2208884805440902,9.833333015441896,25.29,0
-0.1398628056049347,-0.2641006112098694,0.2480945140123367,-22.54951286315918,0.5172023177146912,23.024391174316406,25.29,0
-0.2048899531364441,-0.3841881155967712,0.3782703578472137,-34.59272766113281,0.7749443650245667,34.49834060668945,25.29,0
-0.2416543662548065,-0.4771366417407989,0.4839170575141907,-44.22959518432617,0.962981104850769,42.86920547485352,25.29,0
-0.1951790452003479,-0.5455564260482788,0.6597490310668945,-55.65889739990234,1.090289831161499,48.5366325378418,25.29,0
-0.3201706707477569,-0.501600444316864,0.6807177662849426,-71.68413543701172,1.1738227605819702,52.255279541015625,25.29,0
-0.4290183186531067,-0.5289255976676941,0.5827115774154663,-86.18000030517578,1.2279229164123535,54.663665771484375,25.29,0
-0.6556597948074341,-0.7645444869995117,0.3351029753684997,-82.9529037475586,1.2297662496566772,56.21508026123047,25.29,0
-0.5719514489173889,-0.6922010183334351,0.3493883907794952,-51.13490676879883,1.230950951576233,57.21224212646485,25.29,0
-0.4734259247779846,-0.7464820742607117,0.3921407461166382,-1.730066418647766,1.231711745262146,57.85257339477539,25.29,0
-0.4325701892375946,-0.7253533005714417,0.4251812398433685,41.58634948730469,1.2322001457214355,58.26360702514648,25.29,0
-0.4007509350776672,-0.722987711429596,0.4407894611358642,65.99837493896484,1.2325135469436646,58.52741622924805,25.29,0
-0.4083186686038971,-0.727067232131958,0.4284156262874603,74.09902954101562,1.2327146530151367,58.696720123291016,25.29,0
-0.4187730252742767,-0.7352830171585083,0.4148769378662109,71.50560760498047,1.2328437566757202,58.80537033081055,25.29,0
-0.4422753751277923,-0.7293599843978882,0.3949930071830749,61.80200958251953,1.232926607131958,58.875099182128906,25.29,0
-0.4573578536510467,-0.7087655663490295,0.3766348361968994,50.44453811645508,1.2802618741989136,58.91984558105469,25.25,0
-0.4614391624927521,-0.689951479434967,0.3648535907268524,44.23431015014648,1.3106389045715332,58.94856262207031,25.25,0
-0.4528627693653106,-0.6610843539237976,0.3628908395767212,45.09258270263672,1.3301331996917725,58.96699142456055,25.25,0
-0.4473589360713959,-0.6593524217605591,0.3560335040092468,48.36971282958984,1.3426434993743896,58.978816986083984,25.25,0
-0.449424684047699,-0.7142186760902405,0.3404372930526733,48.93228149414063,1.350671887397766,58.98640441894531,25.25,0
-0.4563481211662292,-0.7942109107971191,0.3248307704925537,45.7787971496582,1.355823993682861,58.99127578735352,25.25,0
-0.4663889706134796,-0.8511430621147156,0.3148154020309448,39.50971984863281,1.3591303825378418,58.99440002441406,25.25,0
-0.4560392796993255,-0.887678861618042,0.3139858841896057,30.21661949157715,1.3612521886825562,58.99640655517578,25.25,0
-0.4437996745109558,-0.905527651309967,0.3190513253211975,19.584747314453125,1.367204189300537,58.9976921081543,25.25,0
-0.4359450042247772,-0.9057864546775818,0.3167042732238769,10.074891090393066,1.3710238933563232,58.99851989746094,25.25,0
-0.4253065586090088,-0.9003547430038452,0.309600293636322,0.5936443209648132,1.373475193977356,58.99905014038086,25.25,0
-0.4128816425800323,-0.8912712335586548,0.2994435727596283,-11.477357864379885,1.375048279762268,58.9993896484375,25.25,0
-0.3993102610111236,-0.8798441886901855,0.2817300260066986,-22.17945671081543,1.376057744026184,58.99960708618164,25.25,0
-0.3794053792953491,-0.8725109696388245,0.2647647261619568,-22.22264289855957,1.376705527305603,58.99974822998047,25.25,0
-0.3554360270500183,-0.8734026551246643,0.2482796013355255,-9.65760326385498,1.3771213293075562,58.99983978271485,25.25,0
-0.3288583159446716,-0.8851704597473145,0.2377004027366638,6.291165351867676,1.3773881196975708,58.99989700317383,25.25,0
-0.3062044978141784,-0.8983201384544373,0.2253134995698928,16.637226104736328,1.385363221168518,58.64167785644531,25.25,0
-0.2860687971115112,-0.92355215549469,0.2005709856748581,21.349308013916016,1.3904812335968018,58.41179275512695,25.25,0
-0.2731468677520752,-0.9621357321739196,0.1734971106052398,26.074974060058597,1.3937656879425049,58.26426315307617,25.25,0
-0.2648543417453766,-0.9924942255020142,0.1449270993471145,36.32652282714844,1.3958734273910522,58.16958999633789,25.25,0
-0.2147504687309265,-1.079149842262268,0.0874080955982208,55.30825424194336,1.397226095199585,58.10883331298828,25.25,0
-0.1714011430740356,-1.1907382011413574,0.044897936284542,82.4791259765625,1.3980941772460938,58.06984329223633,25.25,0
-0.1771686822175979,-1.1447958946228027,0.0232151374220848,112.77369689941406,1.3986512422561646,58.04482269287109,25.25,0
-0.2032610476016998,-1.1488994359970093,0.0037025900091975,139.7921600341797,1.3990087509155271,58.02876281738281,25.25,0
-0.2200056314468383,-1.196315050125122,-0.0032216652762144,161.7884063720703,1.3978610038757324,58.01845932006836,25.25,0
-0.2083602398633957,-1.0812015533447266,0.0427147150039672,182.7398834228516,1.397124409675598,58.011844635009766,25.25,0
-0.1673002541065216,-0.9849371910095216,0.0777918174862861,206.31326293945312,1.3966517448425293,58.00760269165039,25.25,0
-0.118559218943119,-0.9791380167007446,0.1450844854116439,230.65570068359372,1.3963483572006226,58.004878997802734,25.25,0
-0.0984755828976631,-1.0201985836029053,0.1938668042421341,248.165283203125,1.396153688430786,58.00313186645508,25.25,0
-0.0743915066123008,-1.0185600519180298,0.2139769494533538,248.85482788085935,1.396028757095337,58.00201034545898,25.25,0
-0.0589357353746891,-0.9559330344200134,0.2324802577495575,226.82742309570312,1.3959486484527588,58.00128936767578,25.25,0
-0.0658104345202446,-0.9045470356941224,0.2499523907899856,183.83743286132807,1.3958971500396729,58.00082778930664,25.25,0
-0.0982110947370529,-0.8883638381958008,0.2443716675043106,124.23145294189452,1.398159146308899,58.00053024291992,25.27,0
-0.130199521780014,-0.8835761547088623,0.229594737291336,50.41554641723633,1.3996107578277588,58.00033950805664,25.27,0
-0.1731189489364624,-0.8916992545127869,0.1865251064300537,-30.663705825805664,1.4005422592163086,58.00021743774414,25.27,0
-0.2174554914236068,-0.8745210766792297,0.153287723660469,-102.57183837890624,1.4011400938034058,58.00014114379883,25.27,0
-0.2515059113502502,-0.8411059975624084,0.1375556588172912,-150.33407592773438,1.4015237092971802,58.000091552734375,25.27,0
-0.284553050994873,-0.7972710132598877,0.1274597197771072,-172.89208984375,1.4017698764801023,58.00005722045898,25.27,0
-0.3113585710525512,-0.7803358435630798,0.1321762800216674,-178.455078125,1.4019279479980469,58.000038146972656,25.27,0
-0.3341585993766784,-0.7806633710861206,0.1463986486196518,-173.42332458496094,1.4020293951034546,58.0000228881836,25.27,0
-0.3319970071315765,-0.8648401498794556,0.1499279737472534,-161.721435546875,1.402094483375549,58.00001525878906,25.27,0
-0.325012058019638,-0.9468488097190856,0.1521928906440735,-147.92442321777344,1.402136206626892,58.0000114440918,25.27,0
-0.3205295205116272,-0.9882817268371582,0.1480486094951629,-134.63864135742188,1.402163028717041,58.00000762939453,25.27,0
-0.3344462215900421,-1.0708487033843994,0.139791265130043,-120.81397247314452,1.4021801948547363,58.00000381469727,25.27,0
-0.4049526751041412,-1.1574220657348633,0.1568832844495773,-105.53644561767578,1.402191162109375,58.00000381469727,25.27,0
-0.4110152125358581,-1.08423113822937,0.2238297015428543,-90.48731994628906,1.4021981954574585,58.00000381469727,25.27,0
-0.4093080461025238,-0.9924792051315308,0.2835853695869446,-77.40829467773438,1.4022027254104614,58.00000381469727,25.27,0
-0.4641902148723602,-1.0455535650253296,0.2883464694023132,-65.75836944580078,1.4022057056427002,58.00000381469727,25.27,0
-0.4938126504421234,-1.0908092260360718,0.2858040928840637,-54.21589660644531,1.402207612991333,57.1043586730957,25.27,0
-0.4736382067203522,-1.0750694274902344,0.2841725647449493,-43.05406188964844,1.4022088050842283,56.52958679199219,25.27,0
-0.4215070009231567,-1.0425775051116943,0.2831255197525024,-33.702083587646484,1.4022095203399658,56.16072845458984,25.27,0
-0.3936499655246734,-0.9881393909454346,0.2824535965919494,-26.6150016784668,1.402209997177124,55.92401885986328,25.27,0
-0.370175153017044,-0.9084219336509703,0.2820223867893219,-20.81302070617676,1.402210354804993,55.77210998535156,25.27,0
-0.3495126068592071,-0.8516660928726196,0.2929412126541137,-15.46673583984375,1.4022105932235718,55.67462539672852,25.27,0
-0.3250569999217987,-0.7928523421287537,0.3055460751056671,-10.93594741821289,1.402210712432861,55.612064361572266,25.27,0
-0.3093627989292145,-0.7159246206283569,0.3192329108715057,-7.813393592834473,1.4022108316421509,55.57191467285156,25.27,0
-0.288095623254776,-0.6497635245323181,0.3392118811607361,-5.788022518157959,1.3999159336090088,55.54615020751953,25.27,0
-0.2800453603267669,-0.6185007095336914,0.340837687253952,-4.147911548614502,1.3984431028366089,55.52961730957031,25.27,0
-0.2916724681854248,-0.6096335649490356,0.336283266544342,-2.8338544368743896,1.3974980115890503,55.519004821777344,25.27,0
-0.3215251863002777,-0.6095409393310547,0.3501538336277008,-2.313000202178955,1.396891474723816,55.5121955871582,25.27,0
-0.3350851535797119,-0.6710569858551025,0.3534573912620544,-2.688095808029175,1.3965022563934326,55.50782775878906,25.27,0
-0.3605805039405823,-0.7609144449234009,0.3387840986251831,-3.530683279037476,1.3962525129318235,55.50502395629883,25.27,0
-0.4105286002159118,-0.9081441760063172,0.3405631780624389,-4.4332475662231445,1.396092176437378,55.50322341918945,25.27,0
-0.4481801688671112,-1.0362143516540527,0.3417048752307892,-5.145016670227051,1.3959892988204956,55.50206756591797,25.27,0
-0.4331583678722381,-1.0904135704040527,0.320046454668045,-5.4226603507995605,1.3945461511611938,55.50132751464844,25.27,0
-0.4123227000236511,-1.0356311798095703,0.3061473369598388,-5.249743461608887,1.3936200141906738,55.50085067749024,25.27,0
-0.3989515602588653,-0.9724860787391664,0.3084232211112976,-4.852169513702393,1.3930256366729736,55.50054550170898,25.27,0
-0.4127618372440338,-0.943158745765686,0.3042859733104706,-4.328336238861084,1.3926441669464111,55.50035095214844,25.27,0
-0.4160267114639282,-0.9523270130157472,0.2848376035690307,-3.705564022064209,1.3923994302749634,55.50022506713867,25.27,0
-0.4069263637065887,-0.9917973279953004,0.1995857059955597,-3.245001077651977,1.3922423124313354,55.500144958496094,25.27,0
-0.3842929601669311,-1.0059314966201782,0.122484840452671,-3.021089792251587,1.392141580581665,55.500091552734375,25.27,0
-0.3305837213993072,-0.9646220803260804,0.1065925955772399,-2.6588592529296875,1.392076849937439,55.50005722045898,25.27,0
-0.3129095435142517,-0.9045253992080688,0.1131871864199638,-2.078890562057495,1.3957074880599976,55.500038146972656,25.27,0
-0.3239583671092987,-0.8771543502807617,0.1062236651778221,-1.764021396636963,1.3980374336242676,55.5000228881836,25.27,0
-0.3646355271339416,-0.8763825297355652,0.1017548814415931,-1.9058837890625,1.399532675743103,55.50001525878906,25.27,0
-0.401935338973999,-0.8534961342811584,0.104484848678112,-2.118730306625366,1.4004921913146973,55.5000114440918,25.27,0
-0.4426655173301697,-0.8052223324775696,0.1230301037430763,-2.1657586097717285,1.401107907295227,55.50000762939453,25.27,0
-0.463206022977829,-0.7910363078117371,0.151724711060524,-2.1672780513763428,1.401503086090088,55.50000381469727,25.27,0
-0.4707899689674377,-0.8043236136436462,0.164541482925415,-2.096601724624634,1.4017566442489624,55.50000381469727,25.27,0
-0.4532658159732818,-0.8520350456237793,0.1671687662601471,-1.789717674255371,1.4019193649291992,55.50000381469727,25.27,0
-0.4420198202133178,-0.8938490748405457,0.1688548028469085,-1.3993180990219116,1.3978924751281738,56.6822509765625,25.27,0
-0.4571938812732696,-0.9878562092781068,0.1587412655353546,-1.2490942478179932,1.3953081369400024,57.440948486328125,25.27,0
-0.4837250411510467,-1.0929667949676514,0.1410554349422454,-1.25300133228302,1.393649697303772,57.92783737182617,25.27,0
-0.5007511973381042,-1.1604206562042236,0.1241079047322273,-1.0727972984313965,1.3925853967666626,58.24029541015625,25.27,0
-0.4892865121364593,-1.1813175678253174,0.0796453058719635,-0.6848769783973694,1.3919024467468262,58.44081497192383,25.27,0
-0.4763313829898834,-1.289890170097351,0.0455139987170696,-0.2424729615449905,1.391464114189148,58.56949615478516,25.27,0
-0.4568219780921936,-1.191632628440857,0.001219391124323,0.2205652445554733,1.3911828994750977,58.652076721191406,25.27,0
-0.4498997330665588,-1.223738670349121,-0.0887818560004234,0.6072809100151062,1.3910024166107178,58.70507049560547,25.27,0
-0.4398596584796905,-1.261135816574097,-0.1577350199222564,0.7121497392654419,1.3895094394683838,58.73907852172852,25.27,0
-0.4278187453746795,-1.318721890449524,-0.1963874250650406,0.6003197431564331,1.3885512351989746,58.76090240478516,25.27,0
-0.3921027183532715,-1.316492795944214,-0.2043989896774292,0.5822923183441162,1.3879363536834717,58.77490997314453,25.27,0
-0.3020089268684387,-1.264682412147522,-0.1983447968959808,0.7176089286804199,1.3875417709350586,58.78389739990234,25.27,0
-0.2162030488252639,-1.2202378511428833,-0.1888617873191833,0.693387508392334,1.3872885704040527,58.78966522216797,25.27,0
-0.1723333150148391,-1.1805204153060913,-0.1883739233016967,0.3804898262023926,1.387126088142395,58.79336929321289,25.27,0
-0.1665713489055633,-1.1326409578323364,-0.1936586052179336,0.1510295122861862,1.387021780014038,58.795745849609375,25.27,0
-0.174069195985794,-1.096316933631897,-0.202647790312767,0.2294773459434509,1.3869549036026,58.79726791381836,25.27,0
-0.173283115029335,-1.078603982925415,-0.2084165215492248,0.251160055398941,1.3827805519104004,58.798248291015625,25.27,0
-0.1615830957889557,-1.0784324407577517,-0.2065207958221435,-0.100347951054573,1.3801016807556152,58.79887390136719,25.27,0
-0.1540746986865997,-1.1007133722305298,-0.2053042203187942,-0.5910361409187317,1.3783825635910034,58.799278259277344,25.27,0
-0.1660495698451995,-1.0478386878967283,-0.1877301782369613,-0.7518808245658875,1.377279281616211,58.799537658691406,25.27,0
-0.1849298924207687,-0.980320155620575,-0.1596588492393493,-0.2138206362724304,1.3765712976455688,58.79970169067383,25.27,0
-0.2026439756155014,-0.9425883889198304,-0.1416442841291427,1.1381791830062866,1.3761168718338013,58.79980850219727,25.27,0
-0.2531962692737579,-0.7952232956886292,-0.090899147093296,2.862050294876098,1.37582528591156,58.79987716674805,25.27,0
-0.3080289363861084,-0.6446751356124878,-0.0135516477748751,4.240607261657715,1.375638127326965,58.79991912841797,25.27,0
-0.4047929048538208,-0.60403972864151,0.0808677226305008,5.060799598693848,1.374600172042847,58.799949645996094,25.27,0
-0.5004770755767822,-0.8746442794799805,0.1246673166751861,5.637307643890381,1.3739341497421265,58.79996871948242,25.27,0
-0.5282950401306152,-1.076291561126709,0.1639709174633026,6.050268173217773,1.3735066652297974,58.79998016357422,25.27,0
-0.4229959547519684,-1.1553171873092651,0.2227803617715835,5.960608005523682,1.373232364654541,58.79998779296875,25.27,0
-0.2826499938964844,-1.206031322479248,0.2829119861125946,5.1435627937316895,1.3730562925338743,58.799991607666016,25.27,0
-0.1533996313810348,-1.1602078676223757,0.3830765187740326,3.8167333602905273,1.3729432821273804,58.79999542236328,25.27,0
-0.154420793056488,-1.1084100008010864,0.4697474241256714,2.384873390197754,1.3728708028793335,58.79999542236328,25.27,0
-0.2166516333818435,-1.0863646268844604,0.5141722559928894,1.1650516986846924,1.3728243112564087,58.79999542236328,25.27,0
-0.3181633353233337,-1.0442283153533936,0.4923016130924225,0.249685063958168,1.3764666318893433,62.4542236328125,25.27,0
-0.4056988060474396,-1.00599205493927,0.4558751881122589,-0.4917953312397003,1.3788039684295654,64.79930114746094,25.27,0
-0.4730695784091949,-0.9478676319122314,0.3989121615886688,-1.2542407512664795,1.380303978919983,66.30422973632812,25.27,0
-0.4995109140872955,-0.9049689173698424,0.3343676924705505,-2.022975206375122,1.3812665939331057,67.27001190185547,25.27,0
-0.5052838921546936,-0.8998301029205322,0.2817512452602386,-2.505557060241699,1.3818843364715576,67.8897933959961,25.27,0
-0.503390908241272,-0.9189233779907228,0.2199961543083191,-2.471323013305664,1.3822808265686035,68.28753662109375,25.27,0
-0.4965783059597015,-0.942371904850006,0.1691697388887405,-2.0266096591949463,1.3825352191925049,68.54278564453125,25.27,0
-0.4698152840137481,-0.9854087233543396,0.1253567188978195,-1.3435523509979248,1.3826985359191897,68.70658874511719,25.27,0
-0.4470425546169281,-1.0522116422653198,0.0804467275738716,-0.4072274565696716,1.381426215171814,68.81170654296875,25.27,0
-0.4212327599525451,-1.195841908454895,0.0404305309057235,0.6737170815467834,1.3806096315383911,68.87916564941406,25.27,0
-0.4102672934532165,-1.1760600805282593,0.0203482136130332,1.5214558839797974,1.3800857067108154,68.92245483398438,25.27,0
-0.3864369690418243,-1.04021418094635,0.0018627634271979,1.9078524112701416,1.379749417304993,68.95023345947266,25.27,0
-0.3767418265342712,-0.8914605379104614,-0.0603801049292087,1.9193695783615112,1.3795336484909058,68.96806335449219,25.27,0
-0.4097044467926025,-0.8799656629562378,-0.1395084112882614,1.6437370777130127,1.3793951272964478,68.97950744628906,25.27,0
-0.4644446074962616,-0.9565555453300476,-0.2518639266490936,1.047690749168396,1.3793061971664429,68.98684692382812,25.27,0
-0.4939759075641632,-1.005706548690796,-0.3407605588436126,0.1313787400722503,1.3792492151260376,68.99156188964844,25.27,0
-0.4849385321140289,-1.0372487306594849,-0.3810159564018249,-1.0298696756362915,1.3778355121612549,68.99458312988281,25.27,0
-0.4175633490085602,-1.0295019149780271,-0.3732629120349884,-2.287400484085083,1.376928210258484,68.99652099609375,25.27,0
-0.3519347310066223,-1.0245304107666016,-0.3458963632583618,-3.3308613300323486,1.376345992088318,68.99776458740234,25.27,0
-0.2986225187778473,-0.9821555614471436,-0.2947474420070648,-3.889434576034546,1.3759723901748655,68.99856567382812,25.27,0
-0.2644098103046417,-0.9493640661239624,-0.2451296895742416,-4.101008892059326,1.3757325410842896,68.99907684326172,25.27,0
-0.2368562817573547,-0.922722578048706,-0.2076900899410247,-4.412331581115723,1.3755786418914795,68.99940490722656,25.27,0
-0.2247717976570129,-0.9112233519554138,-0.1724679619073867,-5.063525199890137,1.3754799365997314,68.99961853027344,25.27,0
-0.22261443734169,-0.9318327307701112,-0.1386688798666,-5.900585174560547,1.3754165172576904,68.999755859375,25.27,0
-0.2548166215419769,-1.0066341161727903,-0.0833919271826744,-6.6455512046813965,1.3721625804901123,68.99983978271484,25.27,0
-0.2978732287883758,-1.0098551511764526,-0.0423205904662609,-7.191696643829346,1.3700743913650513,68.9999008178711,25.27,0
-0.3087111413478851,-1.0119222402572632,-0.0215611439198255,-7.678318977355957,1.368734359741211,68.99993896484375,25.27,0
-0.3156662881374359,-1.0860198736190796,-0.0194344762712717,-8.209142684936523,1.3678743839263916,68.99996185302734,25.27,0
-0.3425208032131195,-1.0608004331588743,0.0155169432982802,-8.768331527709961,1.367322564125061,68.9999771118164,25.27,0
-0.426927775144577,-0.9774426817893982,0.1107178255915641,-9.395879745483398,1.3669683933258057,68.99998474121094,25.27,0
-0.4587042331695556,-0.9407418370246888,0.1382256150245666,-10.11387062072754,1.3667410612106323,68.99999237060547,25.27,0
-0.4175209999084472,-1.001155972480774,0.1222918927669525,-10.395506858825684,1.3665952682495115,68.99999237060547,25.27,0
-0.3239187002182007,-1.0567195415496826,0.15684874355793,-9.100224494934082,1.3674198389053345,71.81590270996094,25.27,0
-0.2526545822620392,-1.0699859857559204,0.2126119881868362,-5.374265193939209,1.3679490089416504,73.62298583984375,25.27,0
-0.1845302581787109,-1.0505107641220093,0.2763864994049072,0.3987922668457031,1.3682886362075806,74.78266906738281,25.27,0
-0.2023875117301941,-0.9820349216461182,0.3061177432537079,6.636488914489746,1.3685065507888794,75.52688598632812,25.27,0
-0.247433915734291,-0.95488440990448,0.3140020072460174,11.746499061584473,1.3686463832855225,76.00448608398438,25.27,0
-0.3267220854759216,-0.9430585503578186,0.279877245426178,15.14761734008789,1.3687361478805542,76.31098175048828,25.27,0
-0.3832024335861206,-0.9242738485336304,0.2411846220493316,16.92542839050293,1.3687937259674072,76.50767517089844,25.27,0
-0.4194482564926147,-0.9066210985183716,0.199560597538948,17.15993309020996,1.368830680847168,76.63389587402344,25.27,0
-0.4427087604999542,-0.8729014992713928,0.1784464716911316,16.146087646484375,1.3697723150253296,76.71489715576172,25.27,0
-0.4576359987258911,-0.8512622117996216,0.1537010967731475,14.61772918701172,1.3703765869140625,76.76688385009766,25.27,0
-0.4840087592601776,-0.8485708832740784,0.1266253888607025,13.07445240020752,1.3707643747329712,76.80024719238281,25.27,0
-0.5009332895278931,-0.8524415493011475,0.1092497557401657,11.475028038024902,1.3710132837295532,76.8216552734375,25.27,0
-0.5005989074707031,-0.8717188239097595,0.0869035273790359,9.76792049407959,1.3711730241775513,76.83539581298828,25.27,0
-0.4891887903213501,-0.9848498106002808,0.0557696819305419,8.195915222167969,1.3712754249572754,76.84420776367188,25.27,0
-0.4706708788871765,-1.1526129245758057,0.0189964491873979,7.004380702972412,1.3713412284851074,76.84986877441406,25.27,0
-0.4307982921600342,-1.1539158821105957,0.023386375978589,6.293461322784424,1.3713834285736084,76.85350036621094,25.27,0
-0.4052103459835052,-1.0204055309295654,0.0541924498975276,5.855146884918213,1.3737058639526367,76.85582733154297,25.27,0
-0.4111805856227875,-0.9347262382507324,0.0459731444716453,4.889590263366699,1.3751962184906006,76.8573226928711,25.27,0
-0.4150119423866272,-1.1316421031951904,-0.0376703776419162,2.5753931999206543,1.376152753829956,76.85828399658203,25.27,0
-0.4230684638023376,-1.2132291793823242,-0.0913479775190353,-0.8478986620903015,1.376766562461853,76.85890197753906,25.27,0
-0.4282386600971222,-1.1424360275268557,-0.1145996153354644,-4.187612056732178,1.3771604299545288,76.85929870605469,25.27,0
-0.3979699611663818,-1.097005009651184,-0.1127278581261634,-6.685522556304932,1.377413272857666,76.85955047607422,25.27,0
-0.3393608331680298,-1.0062744617462158,-0.0779400244355201,-8.403180122375488,1.3775755167007446,76.85971069335938,25.27,0
-0.3129444122314453,-0.9200599789619446,-0.0556151941418647,-9.276188850402832,1.3776795864105225,76.85981750488281,25.27,0
-0.2959918677806854,-0.8647325038909912,-0.0468861795961856,-8.99453067779541,1.3731560707092283,76.8598861694336,25.27,0
-0.3242971301078796,-0.8684108853340149,-0.0468821749091148,-7.921717643737793,1.370253086090088,76.85992431640625,25.27,0
-0.3312662541866302,-0.8875648379325867,-0.0412818305194377,-6.996798038482666,1.3683900833129885,76.85995483398438,25.27,0
-0.3077497780323028,-0.899856686592102,-0.0041012037545442,-6.650435447692871,1.3671945333480835,76.85997009277344,25.27,0
-0.2758649289608001,-0.9357337951660156,0.0589435994625091,-6.625201225280762,1.366427302360535,76.85997772216797,25.27,0
-0.2386097460985183,-0.992344319820404,0.1217932254076004,-6.691406726837158,1.36593496799469,76.8599853515625,25.27,0
-0.2258970737457275,-1.017478108406067,0.1845175921916961,-6.812710285186768,1.3656190633773804,76.85999298095703,25.27,0
-0.2233365774154663,-1.0280097723007202,0.2359660267829895,-6.783078670501709,1.3654162883758545,76.85999298095703,25.27,0
-0.2272911816835403,-1.0459638833999634,0.2689826786518097,-6.366396903991699,1.3634496927261353,78.88056945800781,25.27,0
-0.2578178942203522,-1.102268099784851,0.2901708483695984,-5.833884239196777,1.3621876239776611,80.17726135253906,25.27,0
-0.2886037230491638,-1.093618631362915,0.348550409078598,-5.664111614227295,1.3613777160644531,81.0093994140625,25.27,0
-0.2747736573219299,-1.0432857275009155,0.4531883299350738,-5.709212303161621,1.3608579635620115,81.54341888427734,25.27,0
-0.2491049766540527,-1.0557671785354614,0.5259367227554321,-5.268837928771973,1.3605244159698486,81.88612365722656,25.27,0
-0.1934478878974914,-1.0861681699752808,0.5614268779754639,-3.943701267242432,1.360310435295105,82.10604858398438,25.27,0
-0.1689259111881256,-1.094482183456421,0.5506157875061035,-1.7928298711776731,1.3601731061935425,82.24718475341797,25.27,0
-0.1475913524627685,-1.077426552772522,0.538080096244812,1.0205057859420776,1.3600850105285645,82.33776092529297,25.27,0
-0.1506933718919754,-0.9825146198272704,0.5188398361206055,4.0798444747924805,1.3641598224639893,82.39588165283203,25.27,0
-0.1582818478345871,-0.8880189657211304,0.5008947849273682,6.623528957366943,1.3667747974395752,82.43318176269531,25.27,0
-0.1911405622959137,-0.810583770275116,0.4725853502750397,8.09470272064209,1.3684529066085815,82.45712280273438,25.27,0
-0.2290207296609878,-0.7776836156845093,0.4208313226699829,8.46202278137207,1.3695298433303833,82.47248077392578,25.27,0
-0.2645255923271179,-0.7565702199935913,0.3652274906635284,7.909581661224365,1.3702210187911987,82.48233795166016,25.27,0
-0.3264949917793274,-0.7262275218963623,0.3127508163452148,6.616421699523926,1.3706645965576172,82.48866271972656,25.27,0
-0.3774589300155639,-0.6899619698524475,0.2734765410423279,4.95180606842041,1.370949149131775,82.49272155761719,25.27,0
-0.4381535053253174,-0.6722866296768188,0.248272567987442,3.5073812007904053,1.3711317777633667,82.49533081054688,25.27,0
-0.4771037995815277,-0.7057257890701294,0.237695887684822,2.630588293075561,1.3698718547821045,82.49700164794922,25.25,0
-0.5188931822776794,-0.7607717514038086,0.2253106087446212,2.1180691719055176,1.3690632581710815,82.49807739257812,25.25,0
-0.5401134490966797,-0.8576726317405701,0.2341557741165161,1.5813745260238647,1.3685444593429563,82.49876403808594,25.25,0
-0.553731381893158,-0.9198580384254456,0.2398320883512497,1.0184177160263062,1.3682115077972412,82.49920654296875,25.25,0
-0.5568727850914001,-0.9541672468185424,0.2490725964307785,0.7574565410614014,1.3679977655410769,82.4994888305664,25.25,0
-0.5364976525306702,-0.9034138917922974,0.2941870391368866,0.876592755317688,1.3678606748580933,82.49967193603516,25.25,0
-0.5178242921829224,-0.921223282814026,0.3231388926506042,0.963795244693756,1.3677726984024048,82.49978637695312,25.25,0
-0.4722541868686676,-1.027814507484436,0.3473162949085235,0.6829946637153625,1.3677161931991575,82.49986267089844,25.25,0
-0.4262166023254394,-1.085023045539856,0.3684297502040863,0.1517006009817123,1.366302728652954,82.49990844726562,25.25,0
-0.3574878871440887,-1.0601606369018557,0.3931746780872345,-0.5869192481040955,1.3653956651687622,82.49993896484375,25.25,0
-0.2965884506702423,-0.9882276654243468,0.4538367688655853,-1.8813326358795168,1.3648135662078855,82.49996185302734,25.25,0
-0.2631044685840606,-0.936467468738556,0.5095595121383667,-3.793950319290161,1.3644400835037231,82.4999771118164,25.25,0
-0.2080297172069549,-0.8976529836654663,0.5397213697433472,-5.745038986206055,1.3642003536224363,82.49998474121094,25.25,0
-0.1670881509780883,-0.8671462535858154,0.5534797310829163,-7.201342105865479,1.364046573638916,82.49999237060547,25.25,0
-0.1184231042861938,-0.8363732695579529,0.5679068565368652,-8.16457462310791,1.363947868347168,82.49999237060547,25.25,0
-0.0759971290826797,-0.7998316287994385,0.5659698247909546,-8.857955932617188,1.363884449005127,82.49999237060547,25.25,0
-0.054368358105421,-0.7819790840148926,0.5535311698913574,-9.42115306854248,1.3624666929244995,83.99392700195312,25.25,0
-0.0460860319435596,-0.7873156666755676,0.5119621157646179,-10.022612571716309,1.361556887626648,84.95265197753906,25.25,0
-0.0463686846196651,-0.7907403707504272,0.4796877205371856,-10.831338882446287,1.3609730005264282,85.56790161132812,25.25,0
-0.05774562433362,-0.8097314834594727,0.4365847706794739,-11.597530364990234,1.36059832572937,85.96273803710938,25.25,0
-0.0762422382831573,-0.8555055260658264,0.3865326941013336,-11.687979698181152,1.3603578805923462,86.21611785888672,25.25,0
-0.0993078500032424,-0.9016739726066588,0.343216598033905,-10.843215942382812,1.360203504562378,86.37872314453125,25.25,0
-0.1532944589853286,-0.987280011177063,0.2930277287960052,-9.570249557495115,1.3601044416427612,86.48307800292969,25.25,0
-0.1935377269983291,-1.120585799217224,0.2552216351032257,-8.498970031738281,1.3600409030914309,86.55004119873047,25.25,0
-0.2137657701969146,-1.138960599899292,0.2421554028987884,-7.4568095207214355,1.361377239227295,86.593017578125,25.25,0
-0.2379425019025802,-1.1339590549468994,0.2449657917022705,-5.315572261810303,1.3622348308563232,86.62059783935547,25.25,0
-0.2590555250644684,-1.0747716426849363,0.2691604197025299,-1.043145775794983,1.3627852201461792,86.63829803466797,25.25,0
-0.3005934953689575,-1.0367885828018188,0.3014804720878601,4.822657585144043,1.3631383180618286,86.649658203125,25.25,0
-0.3048591017723083,-1.068390965461731,0.3110260665416717,10.23855972290039,1.3633649349212646,86.65694427490234,25.25,0
-0.2964009642601013,-1.1110626459121704,0.2835652530193329,13.52071475982666,1.3635103702545166,86.66162109375,25.25,0
-0.2853752374649048,-1.0544803142547607,0.2715402543544769,14.512832641601562,1.3636037111282349,86.66461944580078,25.25,0
-0.283897340297699,-0.9845823645591736,0.2638233006000519,13.86695384979248,1.363663673400879,86.66654968261719,25.25,0
-0.2885466814041137,-0.8949436545372009,0.2532732188701629,12.202147483825684,1.3595707416534424,86.66778564453125,25.27,0
-0.2971281409263611,-0.843016505241394,0.2409050166606903,10.058998107910156,1.3569440841674805,86.6685791015625,25.27,0
-0.3082329928874969,-0.8208881616592407,0.2273700386285781,7.805916786193848,1.3552584648132324,86.6690902709961,25.27,0
-0.332152783870697,-0.8234807848930359,0.2130862921476364,5.500200748443604,1.3541767597198486,86.66941833496094,25.27,0
-0.347503125667572,-0.8195468187332153,0.1983220279216766,3.2825145721435547,1.3534826040267944,86.66962432861328,25.27,0
-0.368549644947052,-0.7722400426864624,0.1776516288518905,1.579890251159668,1.3530371189117432,86.66976165771484,25.27,0
-0.3876538574695587,-0.7362834811210632,0.1587887853384018,0.6377121806144714,1.3527511358261108,86.66984558105469,25.27,0
-0.4446960389614105,-0.7691863775253296,0.1298903673887252,0.2981871366500854,1.3525676727294922,86.6698989868164,25.27,0
-0.4701068699359894,-0.7735082507133484,0.1337361335754394,0.2988366186618805,1.3529092073440552,86.66993713378906,25.27,0
-0.4752185344696045,-0.7818795442581177,0.1362041234970092,0.5142079591751099,1.353128433227539,86.66996002197266,25.27,0
-0.4952922165393829,-0.882413923740387,0.1321901679039001,0.903201162815094,1.353269100189209,86.66997528076172,25.27,0
-0.519369900226593,-0.9805177450180054,0.112820915877819,1.435858130455017,1.353359341621399,86.66998291015625,25.27,0
-0.540419340133667,-0.9707040786743164,0.1115863919258117,2.0535449981689453,1.3534172773361206,86.66999053955078,25.27,0
-0.5259388089179993,-0.8580484986305237,0.1667718887329101,2.668478012084961,1.3534544706344604,86.66999053955078,25.27,0
-0.5390371084213257,-0.8417304158210754,0.2133823186159134,3.163418769836426,1.3534783124923706,86.66999053955078,25.27,0
-0.5866273045539856,-0.9152250289916992,0.2544897496700287,3.42013955116272,1.353493571281433,86.66999053955078,25.27,0
-0.605972409248352,-0.9679874181747437,0.2976634502410888,3.498906373977661,1.3521262407302856,87.86299133300781,25.27,0
-0.6015936136245728,-0.9514672756195068,0.3645542860031128,3.8038170337677,1.3512487411499023,88.62859344482422,25.27,0
-0.5595991611480713,-0.8736923336982727,0.4410676062107086,4.673015594482422,1.3506855964660645,89.11991119384766,25.27,0
-0.5046606659889221,-0.8125852942466736,0.4789738953113556,5.793281555175781,1.350324273109436,89.43521118164062,25.27,0
-0.452610969543457,-0.829348087310791,0.5088977813720703,6.419056415557861,1.3500924110412598,89.6375503540039,25.27,0
-0.3968173861503601,-0.8345077037811279,0.5281012058258057,6.14353609085083,1.3499435186386108,89.76740264892578,25.27,0
-0.3106322884559631,-0.8098299503326416,0.5180337429046631,5.232295036315918,1.3498480319976809,89.8507308959961,25.27,0
-0.2553236782550812,-0.8163843154907227,0.4835841357707977,4.278507709503174,1.3497867584228516,89.90420532226562,25.27,0
-0.2254275530576706,-0.8093949556350708,0.4390852749347687,3.730908155441284,1.3469932079315186,89.93852233886719,25.27,0
-0.2174374908208847,-0.7993118166923523,0.3825396001338959,3.565784215927124,1.3452004194259644,89.9605484008789,25.27,0
-0.2179077118635177,-0.804036557674408,0.3350562751293182,3.3057665824890137,1.3440499305725098,89.97468566894531,25.27,0
-0.2238072454929351,-0.8238619565963745,0.282193124294281,2.537029504776001,1.3433115482330322,89.98375701904297,25.27,0
-0.2331909984350204,-0.8701714277267456,0.2370730489492416,1.5206422805786133,1.342837691307068,89.98957824707031,25.27,0
-0.2448107302188873,-0.9054879546165466,0.202519804239273,1.0403470993041992,1.3425337076187134,89.9933090209961,25.27,0
-0.2634631395339966,-0.984129786491394,0.1579544246196746,1.3734022378921509,1.3423385620117188,89.9957046508789,25.27,0
-0.2866287529468536,-1.1073687076568604,0.1181593835353851,1.755518913269043,1.3422133922576904,89.99724578857422,25.27,0
-0.3238861858844757,-1.180858492851257,0.081425666809082,1.316467523574829,1.3425918817520142,89.99822998046875,25.27,0
-0.358991414308548,-1.099271297454834,0.1474164724349975,0.2787860631942749,1.3428348302841189,89.99886322021484,25.27,0
-0.3927154839038849,-0.985337734222412,0.2401455342769622,-0.3047388792037964,1.342990756034851,89.999267578125,25.27,0
-0.3975643217563629,-0.9849928021430968,0.3668270111083984,0.0910422056913375,1.3430907726287842,89.99952697753906,25.27,0
-0.3614916205406189,-1.0127604007720947,0.453721672296524,0.8716703057289124,1.3431549072265625,89.99969482421875,25.27,0
-0.3159511387348175,-1.0193843841552734,0.4591056704521179,1.1720082759857178,1.343196153640747,89.99980163574219,25.27,0
-0.2867258787155151,-0.9340709447860718,0.4177786409854889,0.7843706607818604,1.3432226181030271,89.99987030029297,25.27,0
-0.2623730003833771,-0.862528383731842,0.3800617754459381,0.0806200355291366,1.3432395458221436,89.99991607666016,25.27,0
-0.2579402923583984,-0.839007556438446,0.3334661722183227,-0.4784839153289795,1.3391190767288208,89.99994659423828,25.27,0
-0.2662911713123321,-0.8183154463768005,0.2923682332038879,-0.6294952034950256,1.3364747762680054,89.99996948242188,25.27,0
-0.2828458249568939,-0.7994387149810791,0.2380050718784332,-0.4899556040763855,1.33477783203125,89.9999771118164,25.27,0
-0.3102629780769348,-0.7929224967956543,0.1919223815202713,-0.5365449786186218,1.333688735961914,89.99998474121094,25.27,0
-0.3390532732009887,-0.7719473838806152,0.1567513793706894,-1.1647334098815918,1.3329898118972778,89.99999237060547,25.27,0
-0.3743225634098053,-0.7249001264572144,0.1285828799009323,-2.2664709091186523,1.3325413465499878,89.99999237060547,25.27,0
-0.4081518948078155,-0.7282945513725281,0.1161037385463714,-3.3532557487487797,1.3322535753250122,89.99999237060547,25.27,0
-0.4690460562705993,-0.7808529138565063,0.1080953404307365,-4.097265243530273,1.332068920135498,89.99999237060547,25.27,0
-0.5305154919624329,-0.8481684923171997,0.102956011891365,-4.467250347137451,1.332868576049805,90.97804260253906,25.27,0
-0.5643652677536011,-0.947345495223999,0.0996578857302665,-4.482565879821777,1.3333817720413208,91.60569763183594,25.27,0
-0.6252725124359131,-0.9494160413742064,0.1143346652388572,-4.334761142730713,1.3337111473083496,92.00849151611328,25.27,0
-0.6867504119873047,-0.9059625864028932,0.1349489241838455,-4.512184143066406,1.3339225053787231,92.26697540283205,25.27,0
-0.7094100713729858,-0.8388922810554504,0.1705690622329712,-5.088196277618408,1.3340580463409424,92.432861328125,25.27,0
-0.757538378238678,-0.9693813920021056,0.2158191204071045,-5.375448703765869,1.3341450691223145,92.53931427001952,25.27,0
-0.7716310024261475,-1.0307307243347168,0.2560535371303558,-4.9256744384765625,1.3342009782791138,92.60762786865234,25.27,0
-0.6855126619338989,-0.997330129146576,0.2986670136451721,-4.149805068969727,1.3342368602752686,92.6514663696289,25.27,0
-0.602258026599884,-0.9646999835968018,0.348404973745346,-3.515758991241455,1.3296691179275513,92.67960357666016,25.27,0
-0.5040478110313416,-0.9325642585754396,0.4083128273487091,-2.90465784072876,1.3267377614974976,92.69766235351562,25.27,0
-0.4130332469940185,-0.8671592473983765,0.418769359588623,-1.9607716798782349,1.3248566389083862,92.7092514038086,25.27,0
-0.3546253442764282,-0.819588303565979,0.4198819696903229,-0.6564376950263977,1.3236494064331057,92.71668243408205,25.27,0
-0.3059469759464264,-0.7834622263908386,0.4149982035160064,0.5890223383903503,1.322874665260315,92.7214584350586,25.27,0
-0.2747080028057098,-0.760278582572937,0.4062663316726684,1.4276952743530271,1.3223775625228882,92.72451782226562,25.27,0
-0.2546606361865997,-0.7342051267623901,0.3950649201869964,2.0088982582092285,1.3220584392547607,92.72648620605467,25.27,0
-0.2529909312725067,-0.7398637533187866,0.3822787404060364,2.432036876678467,1.321853756904602,92.72774505615234,25.27,0
-0.2463216334581375,-0.7490929365158081,0.3684755265712738,2.3274126052856445,1.3235588073730469,92.72855377197266,25.27,0
-0.2588349878787994,-0.7718089818954468,0.3372263312339782,1.568833589553833,1.3246530294418335,92.72907257080078,25.27,0
-0.2668653428554535,-0.7975823879241943,0.3115746080875397,0.723763644695282,1.3253551721572876,92.72940826416016,25.27,0
-0.2832143008708954,-0.8812955617904663,0.2615261673927307,0.2530978918075561,1.3258057832717896,92.72962188720705,25.27,0
-0.2825105786323547,-0.9350178837776184,0.2014190852642059,-0.0131225502118468,1.3260949850082395,92.7297592163086,25.27,0
-0.2988522946834564,-1.0366671085357666,0.1460524946451187,-0.3236879408359527,1.3262805938720703,92.72984313964844,25.27,0
-0.348523885011673,-1.051519751548767,0.1105214059352874,-0.6913720369338989,1.3263996839523315,92.72990417480467,25.27,0
-0.385998010635376,-0.9994757771492004,0.1157084703445434,-1.1745282411575315,1.3264760971069336,92.72994232177734,25.27,0
-0.438035637140274,-0.938088059425354,0.1638194322586059,-1.663718819618225,1.326525092124939,92.72996520996094,25.27,0
-0.5665925741195679,-0.993855118751526,0.211487591266632,-1.48325777053833,1.3265565633773804,92.72998046875,25.27,0
-0.5987130403518677,-1.0072520971298218,0.2308827340602874,-0.0920512750744819,1.3265767097473145,92.72998809814452,25.27,0
-0.5353595018386841,-1.015849471092224,0.2265360951423645,1.86118745803833,1.3265897035598757,92.72999572753906,25.27,0
-0.4555183947086334,-1.0157690048217771,0.2237466722726822,3.086003065109253,1.326598048210144,92.72999572753906,25.27,0
-0.3874876499176025,-0.9933263063430786,0.2443476766347885,3.0802698135375977,1.3266034126281738,92.72999572753906,25.27,0
-0.3662205338478088,-0.967728316783905,0.2351771146059036,2.3636579513549805,1.3266068696975708,92.72999572753906,25.27,0
-0.3581703007221222,-0.9568988084793092,0.2180964350700378,1.6315020322799685,1.3266090154647827,92.72999572753906,25.27,0
-0.35300412774086,-0.9443512558937072,0.2015372514724731,1.226132869720459,1.3247740268707275,93.09542083740234,25.27,0
-0.3608843088150024,-0.9251034259796144,0.190910518169403,1.0519721508026123,1.3235963582992554,93.32992553710938,25.27,0
-0.3715391457080841,-0.9071534872055054,0.1728953570127487,0.6428520083427429,1.322840690612793,93.4804229736328,25.27,0
-0.3615834712982178,-0.906829833984375,0.144540935754776,-0.354125827550888,1.3223557472229004,93.5770034790039,25.27,0
-0.3551945090293884,-0.9066221117973328,0.1151491478085517,-1.6817833185195925,1.3220444917678833,93.63897705078124,25.27,0
-0.3510944247245788,-0.9064887762069702,0.0906894207000732,-2.766664981842041,1.3218446969985962,93.67874908447266,25.27,0
-0.3540610074996948,-0.9064032435417176,0.0693947970867157,-3.3446545600891118,1.321716547012329,93.70427703857422,25.27,0
-0.3671603202819824,-0.9455327391624452,0.0389358103275299,-3.52569842338562,1.321634292602539,93.7206573486328,25.27,0
-0.3923600316047668,-1.043414831161499,-0.0030021101702004,-3.484248638153076,1.323417901992798,93.73117065429688,25.27,0
-0.4197273254394531,-1.1062300205230713,-0.0411110036075115,-3.3788318634033203,1.3245625495910645,93.7379150390625,25.27,0
-0.4428878426551819,-1.174530029296875,-0.0991537421941757,-3.321929216384888,1.3252971172332764,93.74224090576172,25.27,0
-0.4689464867115021,-1.2183610200881958,-0.1364022344350814,-3.2925775051116943,1.3257684707641602,93.7450180053711,25.27,0
-0.4800716340541839,-1.067360520362854,-0.1715017259120941,-3.1877593994140625,1.32607102394104,93.7468032836914,25.27,0
-0.4928089082241058,-1.1048036813735962,-0.2276131957769394,-2.9807727336883545,1.3262652158737185,93.7479476928711,25.27,0
-0.4841896295547485,-1.1512235403060913,-0.2580245435237884,-2.589995145797729,1.3263897895812988,93.7486801147461,25.27,0
-0.4394738376140594,-1.192208766937256,-0.277540773153305,-1.7445091009140017,1.3264697790145874,93.74915313720705,25.27,0
-0.3715934157371521,-1.212912917137146,-0.27886962890625,-0.3277762532234192,1.3214714527130127,93.74945831298828,25.27,0
-0.2888472378253937,-1.2094063758850098,-0.2405380010604858,1.2119345664978027,1.3182637691497805,93.74964904785156,25.27,0
-0.2189521789550781,-1.1735693216323853,-0.1991456449031829,2.24660587310791,1.3162052631378174,93.74977111816406,25.27,0
-0.1852930933237075,-1.1337778568267822,-0.1725824028253555,2.659818172454834,1.3148843050003052,93.7498550415039,25.27,0
-0.1804859638214111,-1.1306331157684326,-0.1667311936616897,2.788856029510498,1.3140366077423096,93.74990844726562,25.27,0
-0.1829987913370132,-1.139810562133789,-0.1741717755794525,2.860917329788208,1.3134925365447998,93.74993896484376,25.27,0
-0.1902091652154922,-1.1457000970840454,-0.1789467185735702,2.831928014755249,1.3131433725357056,93.74996185302734,25.27,0
-0.2004341334104538,-1.1270885467529297,-0.1540221273899078,2.6485259532928467,1.3129193782806396,93.7499771118164,25.27,0
-0.2069959342479705,-1.1095470190048218,-0.1268314123153686,2.35886549949646,1.313234567642212,93.74998474121094,25.27,0
-0.2280002385377884,-1.0703009366989136,-0.0869908705353736,2.0117621421813965,1.31343674659729,93.74999237060548,25.27,0
-0.2470773756504058,-1.0283217430114746,-0.0502279587090015,1.563308835029602,1.3135665655136108,93.74999237060548,25.27,0
-0.2537221908569336,-0.9789908528327942,-0.0154400905594229,0.9709984064102172,1.3136498928070068,93.74999237060548,25.27,0
-0.257986456155777,-0.8465731739997864,0.0740580558776855,0.2684558928012848,1.3137032985687256,93.74999237060548,25.27,0
-0.2663207948207855,-0.728008508682251,0.1594816893339157,-0.5442355871200562,1.3137376308441162,93.74999237060548,25.27,0
-0.3052559494972229,-0.7246915698051453,0.2534860670566559,-1.3165545463562012,1.313759684562683,93.74999237060548,25.27,0
-0.3470356166362762,-0.8513117432594299,0.3138126730918884,-1.5076653957366943,1.31377375125885,93.74999237060548,25.27,0
-0.357054054737091,-0.9829492568969728,0.3581245839595794,-0.7239177227020264,1.3119467496871948,94.19781494140624,25.27,0
-0.3354944586753845,-1.0450356006622314,0.3921591937541961,0.552882730960846,1.3107742071151731,94.4852066040039,25.27,0
-0.2880721092224121,-1.079281210899353,0.4140006601810455,1.4474939107894895,1.3100217580795288,94.6696319580078,25.27,0
-0.2744324803352356,-1.078866958618164,0.4224194884300232,1.7600758075714111,1.309538960456848,94.7879867553711,25.27,0
-0.2824726700782776,-1.0786011219024658,0.4390177428722381,1.9212645292282104,1.309229016304016,94.86394500732422,25.27,0
-0.3436101675033569,-1.061637282371521,0.4328762292861938,2.189504623413086,1.3090301752090454,94.91268920898438,25.27,0
-0.3884424567222595,-1.039555311203003,0.4233371913433075,2.3616456985473637,1.308902621269226,94.9439697265625,25.27,0
-0.4340065717697143,-0.991797685623169,0.3948244750499725,2.1998403072357178,1.308820724487305,94.96404266357422,25.27,0
-0.4688447713851928,-0.95555180311203,0.3541355729103088,1.812979340553284,1.3142766952514648,94.97692108154295,25.27,0
-0.4912019073963165,-0.9210957288742064,0.3168282210826874,1.4894801378250122,1.3177779912948608,94.98519134521484,25.27,0
-0.5111472010612488,-0.9101793766021729,0.2648976445198059,1.335615634918213,1.3200249671936035,94.99049377441406,25.27,0
-0.5183491706848145,-0.9031738638877868,0.214778259396553,1.2046310901641846,1.3214669227600098,94.993896484375,25.27,0
-0.5005798935890198,-0.9042758941650392,0.149027869105339,0.9629393815994264,1.3223923444747925,94.99608612060548,25.27,0
-0.4611877202987671,-0.9385697841644288,0.0900397300720214,0.6287068128585815,1.3229862451553345,94.99748992919922,25.27,0
-0.430310308933258,-1.0165553092956543,0.0465867668390274,0.2852428257465362,1.3233673572540283,94.9983901977539,25.27,0
-0.3992994129657745,-1.0945909023284912,0.0187011566013097,0.0433319918811321,1.323611855506897,94.99897003173828,25.27,0
-0.3905939757823944,-1.178256273269653,-0.0103897722437977,0.0421382784843444,1.3219327926635742,94.99933624267578,25.25,0
-0.390605092048645,-1.1535789966583252,-0.0458519794046878,0.2061707079410553,1.3208552598953247,94.99957275390624,25.25,0
-0.4130033254623413,-1.1097537279129028,-0.1301850974559784,0.031996376812458,1.3201637268066406,94.99972534179688,25.25,0
-0.4385727643966675,-1.0984225273132324,-0.206696331501007,-0.9467620253562928,1.319719910621643,94.99982452392578,25.25,0
-0.4549817740917206,-1.074357509613037,-0.3005790412425995,-2.449021100997925,1.3194351196289062,94.99988555908205,25.25,0
-0.4375232458114624,-1.070109486579895,-0.3608275651931762,-3.760594606399536,1.319252371788025,94.99992370605467,25.25,0
-0.3871349394321441,-1.044992208480835,-0.4050893783569336,-4.537800312042236,1.319135069847107,94.9999542236328,25.25,0
-0.3268097639083862,-1.0120800733566284,-0.4334940612316131,-4.7929511070251465,1.3190598487854004,94.99996948242188,25.25,0
-0.2601076662540436,-1.0021544694900513,-0.434929221868515,-4.573356628417969,1.314880132675171,94.9999771118164,25.25,0
-0.1837154477834701,-0.9789915084838868,-0.3798724710941314,-4.228226661682129,1.3121978044509888,94.99998474121094,25.25,0
-0.1346913278102874,-0.9473335146903992,-0.3165513575077057,-4.253940105438232,1.3104764223098757,94.99999237060548,25.25,0
-0.1200237870216369,-0.9494083523750304,-0.2479266375303268,-4.5964555740356445,1.3093717098236084,94.99999237060548,25.25,0
-0.1218065544962883,-0.9899243116378784,-0.1926916986703872,-4.855670928955078,1.30866277217865,94.99999237060548,25.25,0
-0.1229506283998489,-1.038316249847412,-0.1516473144292831,-5.075758934020996,1.308207869529724,94.99999237060548,25.25,0
-0.1124892830848693,-1.0749691724777222,-0.114111840724945,-5.546595573425293,1.3079159259796145,94.99999237060548,25.25,0
-0.1001780182123184,-1.092893123626709,-0.0844259560108184,-6.095949172973633,1.3077285289764404,94.99999237060548,25.25,0
-0.0866795852780342,-1.205155611038208,-0.0933641418814659,-6.323102474212647,1.3066900968551636,95.38333129882812,25.25,0
-0.1843747794628143,-1.2044280767440796,-0.048720184713602,-6.3076605796813965,1.3060237169265747,95.62933349609376,25.25,0
-0.3534276485443115,-1.0976035594940186,0.0135163841769099,-6.498375415802002,1.3055959939956665,95.7872085571289,25.25,0
-0.489904910326004,-0.9114964604377748,0.0590540096163749,-7.057839393615723,1.3053215742111206,95.88851928710938,25.25,0
-0.5271081924438477,-0.8872258067131042,0.0602885633707046,-7.391792774200439,1.305145502090454,95.95353698730467,25.25,0
-0.4558209478855133,-0.9724102020263672,0.0722763761878013,-6.198153018951416,1.30503249168396,95.9952621459961,25.25,0
-0.3205085098743438,-0.9934899806976318,0.1303494274616241,-2.5195095539093018,1.3049598932266235,96.02203369140624,25.25,0
-0.188890591263771,-0.9902244806289672,0.1844106912612915,2.847012996673584,1.3049132823944092,96.03921508789062,25.25,0
-0.1380124390125274,-0.9545422196388244,0.241495206952095,7.795619964599609,1.3058016300201416,96.0502471923828,25.25,0
-0.1445461809635162,-0.9316433668136596,0.2837265431880951,11.053750038146973,1.3063716888427734,96.0573272705078,25.25,0
-0.2215102314949035,-0.9449371099472046,0.282839298248291,12.886685371398926,1.3067375421524048,96.0618667602539,25.25,0
-0.3100857436656952,-0.9310771822929382,0.243085503578186,13.85875129699707,1.3069723844528198,96.06478118896484,25.25,0
-0.3725261986255646,-0.9053893089294434,0.2007804811000824,14.04907512664795,1.307123064994812,96.066650390625,25.25,0
-0.4181946516036987,-0.8441221117973328,0.1568382233381271,13.54426383972168,1.3072197437286377,96.0678482055664,25.25,0
-0.4586975872516632,-0.7936088442802429,0.1286386102437973,12.647092819213867,1.3072818517684937,96.06861877441406,25.25,0
-0.4958855807781219,-0.7891811728477478,0.099346175789833,11.498126983642578,1.3073216676712036,96.0691146850586,25.25,0
-0.5085551738739014,-0.791937530040741,0.0693524330854415,10.072933197021484,1.3082650899887085,96.0694351196289,25.25,0
-0.4998924434185028,-0.8104997277259827,0.0445064008235931,8.466888427734375,1.308870553970337,96.06964111328124,25.25,0
-0.4719420969486236,-0.8895851969718933,0.022963872179389,6.79852294921875,1.309259057044983,96.06977081298828,25.25,0
-0.4484074115753174,-0.9907176494598388,0.0035413417499512,4.90028715133667,1.3095084428787231,96.06985473632812,25.25,0
-0.4053153395652771,-1.1339874267578125,0.0022726291790604,2.6933178901672363,1.3096684217453003,96.06990814208984,25.25,0
-0.3608680069446563,-1.0188121795654297,0.0238495413213968,0.7611208558082581,1.3097710609436035,96.06993865966795,25.25,0
-0.3435398042201996,-0.9337037205696106,0.0209030378609895,-0.0740208551287651,1.309836983680725,96.06996154785156,25.25,0
-0.3492128849029541,-1.0750081539154053,-0.0481611527502536,-0.0367545969784259,1.3098793029785156,96.06997680664062,25.25,0
-0.3696468770503998,-1.1488958597183228,-0.1092758998274803,-0.4606612026691437,1.3062342405319214,96.06998443603516,25.25,0
-0.4051513075828552,-1.0843572616577148,-0.1596913635730743,-2.1657302379608154,1.303895115852356,96.06999206542967,25.25,0
-0.3607627153396606,-0.9813645482063292,-0.1584584712982177,-4.531759738922119,1.3023940324783323,96.06999206542967,25.25,0
-0.3042878210544586,-0.9096720218658448,-0.1464717239141464,-6.587527751922607,1.3014307022094729,96.06999206542967,25.25,0
-0.2736432552337646,-0.8580660820007324,-0.1387793123722076,-7.9569573402404785,1.3008124828338623,96.06999206542967,25.25,0
-0.2651728689670563,-0.8249483704566956,-0.1450383216142654,-8.588581085205078,1.3004157543182373,96.06999206542967,25.25,0
-0.276530385017395,-0.8148908615112305,-0.1602505445480346,-8.549680709838867,1.3001611232757568,96.06999206542967,25.25,0
-0.2782212197780609,-0.8532187342643738,-0.1756106466054916,-8.195119857788086,1.2999976873397827,96.06999206542967,25.25,0
-0.2737085223197937,-0.900206446647644,-0.1798700988292694,-7.734715938568115,1.3003517389297483,96.4031753540039,25.25,0
-0.2540192306041717,-0.9247626662254332,-0.1546147018671035,-6.998598575592041,1.3005789518356323,96.6169891357422,25.25,0
-0.2357859909534454,-0.9349237084388732,-0.1160161420702934,-5.906414985656738,1.300724744796753,96.75420379638672,25.25,0
-0.2184871733188629,-0.9806289076805116,-0.0688547044992446,-4.739779949188232,1.3008183240890503,96.8422622680664,25.25,0
-0.2241791039705276,-1.0603398084640503,-0.005002565216273,-3.736737728118897,1.300878405570984,96.89877319335938,25.25,0
-0.2558207213878631,-1.161873698234558,0.0359740629792213,-2.917496681213379,1.3009170293807983,96.9350357055664,25.25,0
-0.2929198145866394,-1.2270323038101196,0.0622705034911632,-2.3881723880767822,1.3009417057037354,96.95831298828124,25.25,0
-0.3335212171077728,-1.2912384271621704,0.0735482722520828,-2.288515090942383,1.3009575605392456,96.97325134277344,25.25,0
-0.3931635022163391,-1.287660002708435,0.1423612087965011,-2.482506036758423,1.2995905876159668,96.98283386230467,25.25,0
-0.4034496247768402,-1.201396942138672,0.2424991279840469,-2.614163398742676,1.2987133264541626,96.98898315429688,25.25,0
-0.3316818177700043,-1.1348427534103394,0.2955663502216339,-2.386969566345215,1.2981504201889038,96.99292755126952,25.25,0
-0.1568765491247177,-1.1033276319503784,0.3128285109996795,-1.510324239730835,1.2977890968322754,96.9954605102539,25.25,0
-0.0335010401904583,-1.1110919713974,0.3183085918426513,0.2165932655334472,1.2975572347640991,96.99708557128906,25.25,0
-0.0159012656658887,-1.076890230178833,0.333020955324173,2.424680471420288,1.2974084615707395,96.99813079833984,25.25,0
-0.0773778110742569,-0.970974862575531,0.3200713992118835,4.36475944519043,1.2973129749298096,96.9988021850586,25.25,0
-0.1392210125923156,-0.880613386631012,0.2949678003787994,5.7710065841674805,1.2972517013549805,96.99922943115234,25.25,0
-0.2124950736761093,-0.805831253528595,0.2452711015939712,6.87049674987793,1.3027210235595703,96.99950408935548,25.25,0
-0.2707136869430542,-0.7522426247596741,0.2021830677986145,7.536677837371826,1.306230902671814,96.99967956542967,25.25,0
-0.3304661512374878,-0.7290480732917786,0.1633360981941223,7.365904331207275,1.308483362197876,96.99979400634766,25.25,0
-0.3576162755489349,-0.6917720437049866,0.1384063512086868,6.410823822021484,1.3099287748336792,96.99987030029295,25.25,0
-0.3638441264629364,-0.6454593539237976,0.1224078759551048,5.163792610168457,1.3108563423156738,96.99991607666016,25.25,0
-0.3678407967090606,-0.6325318813323975,0.1065431982278823,3.951523303985596,1.3114516735076904,96.99994659423828,25.25,0
-0.3816011846065521,-0.6690179705619812,0.0963621661067009,2.87978744506836,1.311833739280701,96.99996948242188,25.25,0
-0.4128229022026062,-0.7652037143707275,0.0730352401733398,2.073784112930298,1.312078833580017,96.9999771118164,25.25,0
-0.4440547525882721,-0.8773101568222046,0.035674262791872,1.613858699798584,1.3081047534942627,96.99998474121094,25.25,0
-0.4584997892379761,-1.0052313804626465,0.0061003663577139,1.41185200214386,1.3055543899536133,96.99999237060548,25.25,0
-0.4957586526870727,-1.1433016061782837,-0.0184762328863143,1.386110544204712,1.3039177656173706,96.99999237060548,25.25,0
-0.5364625453948975,-1.12554931640625,-0.0062592085450887,1.537972092628479,1.302867412567139,96.99999237060548,25.25,0
-0.5513884425163269,-0.951821506023407,0.0127765238285064,1.828887224197388,1.3021934032440186,96.99999237060548,25.25,0
-0.499391496181488,-1.036255121231079,-0.0029963112901896,2.0943963527679443,1.3017609119415283,96.99999237060548,25.25,0
-0.4548273086547851,-1.1296241283416748,-0.0019228601595386,1.9674311876297,1.3014832735061646,96.99999237060548,25.25,0
-0.4374241232872009,-1.1055763959884644,0.0547437630593776,0.9652302861213684,1.3013051748275757,96.99999237060548,25.25,0
-0.409462422132492,-1.050959587097168,0.1190980076789856,-0.9139132499694824,1.300731897354126,97.26869201660156,25.25,0
-0.3523338139057159,-0.9431385397911072,0.1995812803506851,-2.983240127563477,1.3003640174865725,97.44112396240234,25.25,0
-0.3100741803646087,-0.9075318574905396,0.2512308061122894,-4.612151145935059,1.3001279830932615,97.5517807006836,25.25,0
-0.2941499352455139,-0.8958770632743835,0.2619854211807251,-5.779300212860107,1.299976468086243,97.62279510498048,25.25,0
-0.3007239699363708,-0.8827999234199524,0.2408982366323471,-6.653699398040772,1.2998791933059692,97.66836547851562,25.25,0
-0.3105405867099762,-0.8744077682495117,0.2273656874895095,-7.264994144439697,1.2998168468475342,97.6976089477539,25.25,0
-0.2888514697551727,-0.8522288203239441,0.2298768311738968,-7.700279235839844,1.2997767925262451,97.71637725830078,25.25,0
-0.2469437718391418,-0.8491912484169006,0.2314883321523666,-8.115757942199707,1.299751043319702,97.72842407226562,25.25,0
-0.2200498133897781,-0.8696329593658447,0.2269247323274612,-8.446874618530273,1.299734592437744,97.73615264892578,25.25,0
-0.2139863669872284,-0.9107401371002196,0.2016049772500991,-8.440829277038574,1.299723982810974,97.7411117553711,25.25,0
-0.2156929671764373,-0.9483159184455872,0.1741606593132019,-7.9855451583862305,1.2997171878814695,97.74429321289062,25.25,0
-0.2279837280511856,-1.006016492843628,0.1285596042871475,-7.227634906768799,1.2997127771377563,97.746337890625,25.25,0
-0.2526645362377167,-1.1438053846359253,0.0713066086173057,-6.361498832702637,1.299710035324097,97.74765014648438,25.25,0
-0.2852965891361236,-1.198643684387207,0.0345649272203445,-5.325597286224365,1.2997082471847534,97.7484893798828,25.25,0
-0.3510201573371887,-1.239433526992798,0.0109862321987748,-3.804579973220825,1.299707055091858,97.74903106689452,25.25,0
-0.421186625957489,-1.069688081741333,0.0294414293020963,-1.402613401412964,1.2997063398361206,97.74937438964844,25.25,0
-0.4494221210479736,-0.932766318321228,0.0412849113345146,1.9337007999420168,1.2987877130508425,97.74959564208984,25.27,0
-0.3835754096508026,-0.9288644194602966,0.0320920534431934,5.565106391906738,1.298198103904724,97.74974060058594,25.27,0
-0.3357210159301758,-0.9543492794036864,0.0149970585480332,8.597718238830566,1.29781973361969,97.74983215332033,25.27,0
-0.3385974466800689,-0.9651062488555908,-0.0071690739132463,10.683594703674316,1.297576904296875,97.74989318847656,25.27,0
-0.3460411727428436,-0.9328250288963318,-0.0213940218091011,11.850226402282717,1.297421097755432,97.74993133544922,25.27,0
-0.3620136678218841,-0.8393377065658569,-0.052913874387741,11.925379753112791,1.297321081161499,97.7499542236328,25.27,0
-0.3890572190284729,-0.7513540387153625,-0.0563481748104095,10.76986312866211,1.2972569465637207,97.74996948242188,25.27,0
-0.4176077544689178,-0.7060867547988892,-0.058552112430334,8.699183464050293,1.2972158193588257,97.7499771118164,25.27,0
-0.4527231752872467,-0.6826345920562744,-0.0655642449855804,6.145099639892578,1.2958122491836548,97.74998474121094,25.27,0
-0.4864537715911865,-0.6731821298599243,-0.0644664540886879,3.485001564025879,1.294911503791809,97.74999237060548,25.27,0
-0.5192956924438477,-0.6503227353096008,-0.0469686351716518,1.1652833223342896,1.2943334579467771,97.74999237060548,25.27,0
-0.5291761755943298,-0.6692395210266113,-0.0189462155103683,-0.5060896873474121,1.293962478637695,97.74999237060548,25.27,0
-0.5299191474914551,-0.7373570203781128,0.0046347328461706,-1.575098156929016,1.2937244176864624,97.74999237060548,25.27,0
-0.5192003846168518,-0.8146575093269348,0.0309631768614053,-2.2038049697875977,1.293571710586548,97.74999237060548,25.27,0
-0.5011261701583862,-0.881057858467102,0.0478592589497566,-2.467552423477173,1.2934736013412476,97.74999237060548,25.27,0
-0.4503427445888519,-1.0300275087356567,0.0531044155359268,-2.45051646232605,1.2934106588363647,97.74999237060548,25.27,0
-0.44574174284935,-1.0584543943405151,0.0676660016179084,-2.328523874282837,1.2910749912261963,97.96495056152344,25.27,0
-0.4539846181869507,-1.0319149494171145,0.0882063433527946,-2.2788965702056885,1.2895760536193848,98.10289764404295,25.27,0
-0.4760677516460418,-0.9980900883674622,0.1237790435552597,-2.368856191635132,1.2886141538619995,98.19142150878906,25.27,0
-0.5070327520370483,-1.037958741188049,0.1522053331136703,-2.5233166217803955,1.287996768951416,98.24822998046876,25.27,0
-0.526904284954071,-1.1027286052703855,0.13686104118824,-2.593780040740967,1.2876006364822388,98.2846908569336,25.27,0
-0.4780811965465545,-1.149891972541809,0.099025085568428,-2.4061317443847656,1.287346363067627,98.30809020996094,25.27,0
-0.4019671678543091,-1.1409742832183838,0.1027330234646797,-1.8020622730255127,1.287183165550232,98.32310485839844,25.27,0
-0.297143816947937,-1.0736758708953855,0.1554925292730331,-0.8053674101829529,1.2870784997940063,98.3327407836914,25.27,0
-0.2298742234706878,-1.0248898267745972,0.1949483156204223,0.3035713732242584,1.2874705791473389,98.33892059326172,25.27,0
-0.2090955674648285,-1.0327662229537964,0.1978776752948761,1.197935700416565,1.2877222299575806,98.34288787841795,25.27,0
-0.2237498909235,-0.9986363649368286,0.1773664653301239,1.768304705619812,1.287883758544922,98.3454360961914,25.27,0
-0.2443497329950332,-0.9487449526786804,0.1642035543918609,2.0376052856445312,1.2879873514175415,98.3470687866211,25.27,0
-0.2295806556940078,-0.8831408619880676,0.1613541394472122,2.0312981605529785,1.2880538702011108,98.3481216430664,25.27,0
-0.2145049422979354,-0.8410398960113525,0.1539277732372284,1.8194611072540283,1.28809654712677,98.34879302978516,25.27,0
-0.1992324441671371,-0.808424174785614,0.1491619497537613,1.5402132272720337,1.2881239652633667,98.34922790527344,25.27,0
-0.1838336586952209,-0.8154821395874023,0.1405057460069656,1.2714437246322632,1.2881414890289309,98.34950256347656,25.27,0
-0.1739516109228134,-0.8368048667907715,0.1293529272079467,0.9843204617500304,1.2853984832763672,98.34967803955078,25.27,0
-0.1620121002197265,-0.8840752243995667,0.1110001355409622,0.7284097671508789,1.2836382389068604,98.34979248046876,25.27,0
-0.1543500125408172,-0.9591928124427797,0.0824290439486503,0.6609105467796326,1.2825086116790771,98.34986877441406,25.27,0
-0.166226252913475,-1.074572205543518,0.036104891449213,0.793139636516571,1.2817836999893188,98.34991455078124,25.27,0
-0.2186299264430999,-1.1878005266189575,-0.0104166036471724,0.981891393661499,1.281318426132202,98.34994506835938,25.27,0
-0.2858462333679199,-1.1932905912399292,-0.0234781000763177,1.13526451587677,1.2810198068618774,98.34996795654295,25.27,0
-0.3457751274108886,-1.0904561281204224,0.0297153033316135,1.2587685585021973,1.2808282375335691,98.3499755859375,25.27,0
-0.3674407005310058,-1.0356584787368774,0.0806450918316841,1.3666869401931765,1.2807053327560425,98.34998321533205,25.27,0
-0.3141711354255676,-1.0508724451065063,0.0965355709195137,1.435942769050598,1.2801671028137207,98.34999084472656,25.27,0
-0.2687902450561523,-1.0662336349487305,0.050755426287651,1.4660569429397583,1.279821753501892,98.34999084472656,25.27,0
-0.2340696305036544,-1.042504906654358,0.0101808132603764,1.5104604959487915,1.2796001434326172,98.34999084472656,25.27,0
-0.217385709285736,-0.9880927801132202,-0.0214554127305746,1.3920705318450928,1.279457926750183,98.34999084472656,25.27,0
-0.2178744822740554,-0.941978633403778,-0.036159947514534,0.6963090896606445,1.2793666124343872,98.34999084472656,25.27,0
-0.2237859219312667,-0.9011896848678588,-0.0455964691936969,-0.5132791996002197,1.2793079614639282,98.34999084472656,25.27,0
-0.2331773191690445,-0.8526226282119751,-0.0684456080198288,-1.6083725690841677,1.2792704105377195,98.34999084472656,25.27,0
-0.2448019534349441,-0.8214550614356995,-0.088706649839878,-2.3362185955047607,1.2792463302612305,98.34999084472656,25.27,0
-0.2690552771091461,-0.8014535307884216,-0.1073067933320999,-3.02901029586792,1.2769358158111572,98.52195739746094,25.27,0
-0.2958152294158935,-0.7886176705360413,-0.1192432940006256,-3.749462604522705,1.2754530906677246,98.63231658935548,25.27,0
-0.3409771025180816,-0.8251625895500183,-0.1101101264357566,-4.150903701782227,1.2745015621185305,98.70314025878906,25.27,0
-0.4091438055038452,-0.8598105311393738,-0.0706623420119285,-4.086093425750732,1.2738908529281616,98.74858856201172,25.27,0
-0.4752803742885589,-0.9268277883529664,-0.0285537000745534,-3.6325058937072754,1.2734990119934082,98.77775573730467,25.27,0
-0.5681029558181763,-1.1713554859161377,0.0040669771842658,-2.811198472976685,1.273247480392456,98.79647064208984,25.27,0
-0.5884867310523987,-1.2499104738235474,0.0026099518872797,-1.7754048109054563,1.2730860710144043,98.80848693847656,25.27,0
-0.5008079409599304,-1.0652159452438354,0.0520548857748508,-1.0067973136901855,1.272982478141785,98.81619262695312,25.27,0
-0.3773674666881561,-1.0194607973098757,0.1565568745136261,-0.7213386297225952,1.2706207036972046,98.82113647460938,25.27,0
-0.3317371010780334,-1.1300420761108398,0.234815776348114,-0.3912621140480041,1.2691049575805664,98.82431030273438,25.27,0
-0.3360408246517181,-1.2233978509902954,0.262646734714508,0.4546778798103332,1.2681323289871216,98.82634735107422,25.27,0
-0.3444004654884338,-1.249721646308899,0.2581159472465515,1.3558111190795898,1.2675081491470337,98.8276596069336,25.27,0
-0.3385696709156036,-1.1938436031341553,0.2608061134815216,1.7084041833877563,1.267107605934143,98.82849884033205,25.27,0
-0.3180344700813293,-1.1355931758880615,0.2793258428573608,1.784209966659546,1.266850471496582,98.82904052734376,25.27,0
-0.2936606109142303,-1.092613697052002,0.296808511018753,2.004821538925171,1.2666854858398438,98.82938385009766,25.27,0
-0.2388344407081604,-1.0314452648162842,0.3080278933048248,1.9887639284133911,1.2665796279907229,98.82960510253906,25.27,0
-0.1924546211957931,-0.9809953570365906,0.3096300661563873,1.3873341083526611,1.2674299478530884,98.82975006103516,25.29,0
-0.1514951735734939,-0.9206306338310242,0.293864905834198,0.6968520879745483,1.2679755687713623,98.82984161376952,25.29,0
-0.1587963998317718,-0.8762942552566528,0.2669544219970703,0.3862957656383514,1.268325686454773,98.82990264892578,25.29,0
-0.1858730018138885,-0.8478416800498962,0.2440870553255081,0.2371546626091003,1.2685503959655762,98.82994079589844,25.29,0
-0.2312380820512771,-0.8183869123458862,0.2182165384292602,-0.0161888319998979,1.2686946392059326,98.82996368408205,25.29,0
-0.2659485638141632,-0.8050823211669922,0.1960165500640869,-0.2217610031366348,1.268787145614624,98.8299789428711,25.29,0
-0.3050170540809631,-0.8413264155387878,0.1705743372440338,-0.235460415482521,1.2688465118408203,98.82998657226562,25.29,0
-0.3468822836875915,-0.9429545998573304,0.1430514305830001,-0.1296094954013824,1.2688846588134766,98.82999420166016,25.29,0
-0.3961400985717773,-1.024967074394226,0.1197910457849502,-0.0007766782073304,1.2707451581954956,98.82999420166016,25.29,0
-0.44454425573349,-1.0216201543807983,0.1384505182504654,0.0353273302316665,1.2719391584396362,98.82999420166016,25.29,0
-0.4756072461605072,-0.963494598865509,0.1784139573574066,-0.142127439379692,1.2727054357528689,98.82999420166016,25.29,0
-0.4451617002487182,-0.9485840797424316,0.2264512926340103,-0.3957281410694122,1.2731971740722656,98.82999420166016,25.29,0
-0.3752435445785522,-0.983797550201416,0.229290023446083,-0.361432820558548,1.2735127210617063,98.82999420166016,25.29,0
-0.3247763216495514,-1.017591118812561,0.2087206542491912,0.0403289534151554,1.273715257644653,98.82999420166016,25.29,0
-0.2923893630504608,-0.9944956302642822,0.1899226456880569,0.4557898938655853,1.2738451957702637,98.82999420166016,25.29,0
-0.2772030532360077,-0.9516854286193848,0.1778591722249984,0.6543398499488831,1.2739286422729492,98.82999420166016,25.29,0
-0.267457365989685,-0.8794301152229309,0.1701175272464752,0.7423494458198547,1.274441480636597,98.89089965820312,25.29,0
-0.2556053698062897,-0.8442563414573669,0.1595516055822372,0.7164297103881836,1.2747704982757568,98.92998504638672,25.29,0
-0.2535971999168396,-0.832879364490509,0.1471732258796692,0.3092951774597168,1.2749817371368408,98.95507049560548,25.29,0
-0.2970906794071197,-0.8423716425895691,0.1280339509248733,-0.5036969780921936,1.27511727809906,98.9711685180664,25.29,0
-0.3417955935001373,-0.8372676968574524,0.1269470155239105,-1.322782278060913,1.2752041816711426,98.98149871826172,25.29,0
-0.4040713012218475,-0.8116011619567871,0.1430428028106689,-1.9164930582046509,1.2752599716186523,98.98812866210938,25.29,0
-0.4608295857906341,-0.828716516494751,0.1645677089691162,-2.584108591079712,1.2752958536148071,98.99237823486328,25.29,0
-0.5140470862388611,-0.8508957028388977,0.1839789301156997,-3.643079042434693,1.2753188610076904,98.99510955810548,25.29,0
-0.5537968277931213,-0.92110675573349,0.1964359283447265,-4.9281206130981445,1.273956060409546,98.99686431884766,25.29,0
-0.5681103467941284,-1.0109463930130005,0.1988323330879211,-5.935497760772705,1.2730815410614014,98.99798583984376,25.29,0
-0.5493070483207703,-0.9958292245864868,0.211565762758255,-6.266707897186279,1.2725203037261963,98.99871063232422,25.29,0
-0.5540335178375244,-1.159658908843994,0.1861506998538971,-5.870221138000488,1.2721601724624634,98.99917602539062,25.29,0
-0.5626644492149353,-1.253599762916565,0.1810363233089447,-5.114218235015869,1.2719290256500244,98.99947357177734,25.29,0
-0.5849966406822205,-1.0675835609436035,0.1665586680173874,-4.525164604187012,1.2717807292938232,98.99966430664062,25.29,0
-0.5881326198577881,-1.0153824090957642,0.1460721939802169,-3.942937135696411,1.2716854810714722,98.99978637695312,25.29,0
-0.5565584301948547,-1.032262682914734,0.0993385016918182,-2.308230400085449,1.2716244459152222,98.99986267089844,25.29,0
-0.5027092695236206,-1.1326597929000854,0.0413586348295211,0.9118708968162536,1.2729626893997192,98.99990844726562,25.27,0
-0.4345653653144836,-1.174697756767273,0.0097482679411768,4.500941276550293,1.2738215923309326,98.99993896484376,25.27,0
-0.3460523188114166,-1.168088674545288,-0.0049396720714867,6.782704830169678,1.274372696876526,98.99996185302734,25.27,0
-0.2668586671352386,-1.1638473272323608,-0.0143655464053154,7.430181980133057,1.274726390838623,98.9999771118164,25.27,0
-0.2216345071792602,-1.1499300003051758,-0.0092189805582165,6.996624946594238,1.2749533653259275,98.99998474121094,25.27,0
-0.2206011116504669,-1.135400891304016,-0.0115139856934547,5.7761759757995605,1.2750990390777588,98.99999237060548,25.27,0
-0.2255357056856155,-1.1372724771499634,-0.0185845624655485,4.136726379394531,1.2751924991607666,98.99999237060548,25.27,0
-0.2119091302156448,-1.127277970314026,-0.0287198256701231,2.833841562271118,1.2752524614334106,98.99999237060548,25.27,0
-0.1919688284397125,-1.1152663230895996,-0.0296262800693511,2.176853895187378,1.2711591720581057,98.99999237060548,25.27,0
-0.1791722923517227,-1.1075578927993774,-0.0134146669879555,1.7588196992874146,1.268532395362854,98.99999237060548,25.27,0
-0.1597646623849868,-1.0578289031982422,0.0025867873337119,1.2684296369552612,1.2668466567993164,98.99999237060548,25.27,0
-0.1473099589347839,-1.003524661064148,0.018453374505043,0.7996748685836792,1.265764832496643,98.99999237060548,25.27,0
-0.1505127996206283,-1.007859706878662,0.0174400880932807,0.3770474195480346,1.265070557594299,98.99999237060548,25.27,0
-0.1693615168333053,-0.9546639323234558,0.0279853679239749,-0.0876296088099479,1.264625072479248,98.99999237060548,25.27,0
-0.2038486301898956,-0.8533526659011841,0.0683393701910972,-0.5183879137039185,1.2643390893936155,98.99999237060548,25.27,0
-0.2483715862035751,-0.7379569411277771,0.1166273355484008,-0.8019888997077942,1.264155626296997,98.99999237060548,25.27,0
-0.3161282837390899,-0.6079248785972595,0.2259846180677414,-0.8621801733970642,1.264037847518921,99.07164764404295,25.27,0
-0.3931972682476043,-0.73719322681427,0.2849682867527008,-0.431490033864975,1.2639622688293457,99.1176300048828,25.27,0
-0.4090690612792969,-0.8817257285118103,0.3060272932052612,0.6402338147163391,1.2639137506484983,99.14714050292967,25.27,0
-0.3408858180046081,-0.9464894533157348,0.3251395225524902,1.7794090509414673,1.2638826370239258,99.16607666015624,25.27,0
-0.2635430991649627,-0.9880511164665222,0.3597957491874695,2.0662267208099365,1.2638627290725708,99.17823028564452,25.27,0
-0.2307023108005523,-0.9867340922355652,0.4100249707698822,1.4083845615386963,1.2638499736785889,99.18602752685548,25.27,0
-0.2488114088773727,-0.9634978175163268,0.436661422252655,0.5742231607437134,1.26384174823761,99.19103240966795,25.27,0
-0.2772260904312134,-0.948586106300354,0.4425596296787262,0.0675670057535171,1.2638365030288696,99.19424438476562,25.27,0
-0.3290476500988006,-0.9390166401863098,0.4295514225959778,-0.2898189127445221,1.2619969844818115,99.19630432128906,25.27,0
-0.3790970742702484,-0.9328755140304564,0.4100079536437988,-0.7412883043289185,1.2608165740966797,99.19762420654295,25.27,0
-0.4280092418193817,-0.9121411442756652,0.3806727528572082,-1.281795620918274,1.2600589990615845,99.19847106933594,25.27,0
-0.4538004696369171,-0.8876395225524902,0.3562493622303009,-1.822121262550354,1.2595728635787964,99.1990203857422,25.27,0
-0.4647540152072906,-0.883111298084259,0.3349780440330505,-2.222609758377075,1.259260892868042,99.19937133789062,25.27,0
-0.4437945187091827,-0.9081942439079284,0.2989362478256225,-2.2646656036376958,1.259060621261597,99.19959259033205,25.27,0
-0.4247461259365082,-0.941084325313568,0.264611154794693,-1.7650160789489746,1.258932113647461,99.19973754882812,25.27,0
-0.390130877494812,-0.9789846539497375,0.2145944088697433,-0.8138365149497986,1.2588497400283811,99.1998291015625,25.27,0
-0.3735145628452301,-1.0536868572235107,0.1657032072544098,0.2372325807809829,1.2615511417388916,99.19989013671876,25.25,0
-0.3628511726856231,-1.0848331451416016,0.1287298798561096,1.1983542442321775,1.263284683227539,99.1999282836914,25.25,0
-0.378399133682251,-1.1775920391082764,0.0658181011676788,2.1483263969421387,1.264397144317627,99.199951171875,25.25,0
-0.3939746916294098,-1.2203260660171509,0.025444945320487,2.9406752586364746,1.2651110887527466,99.19996643066406,25.25,0
-0.4039701819419861,-1.0014482736587524,-0.0060619972646236,3.191213607788086,1.2655692100524902,99.1999740600586,25.25,0
-0.4103847146034241,-1.017722725868225,-0.0710635334253311,2.8289387226104736,1.265863299369812,99.19998168945312,25.25,0
-0.4200989603996277,-1.0393623113632202,-0.123973324894905,2.087725877761841,1.266052007675171,99.19998931884766,25.25,0
-0.4263330101966858,-1.1092270612716677,-0.1803188771009445,1.0603413581848145,1.2661731243133545,99.19998931884766,25.25,0
-0.3967470228672027,-1.1484644412994385,-0.2052826732397079,-0.2008475661277771,1.2607423067092896,99.19998931884766,25.25,0
-0.3385760188102722,-1.1176670789718628,-0.1989118903875351,-1.4042892456054688,1.257257103919983,99.19998931884766,25.25,0
-0.2620607912540436,-1.0755119323730469,-0.178030177950859,-2.266153335571289,1.2550204992294312,99.19998931884766,25.25,0
-0.2185554951429367,-1.0372636318206787,-0.1702272593975067,-2.83716082572937,1.2535851001739502,99.19998931884766,25.25,0
-0.2130274027585983,-1.0183159112930298,-0.170817568898201,-3.389894723892212,1.2526639699935913,99.19998931884766,25.25,0
-0.203882023692131,-1.0173518657684326,-0.176794171333313,-3.941648960113525,1.252072811126709,99.19998931884766,25.25,0
-0.198013037443161,-1.0391242504119873,-0.175031840801239,-4.267072677612305,1.2516934871673584,99.19998931884766,25.25,0
-0.177453339099884,-1.064292073249817,-0.1627053320407867,-4.354103088378906,1.2514500617980957,99.19998931884766,25.25,0
-0.1642593145370483,-1.0916389226913452,-0.1491971164941787,-4.495935916900635,1.249916672706604,99.26448059082033,25.25,0
-0.1557921469211578,-1.1091885566711426,-0.1293327659368515,-4.798328399658203,1.2489326000213623,99.3058624267578,25.25,0
-0.1615539491176605,-1.1316463947296145,-0.1109871938824653,-5.085533142089844,1.2483011484146118,99.3324203491211,25.25,0
-0.1932404190301895,-1.196438550949097,-0.1216051653027534,-5.337913513183594,1.2478958368301392,99.3494644165039,25.25,0
-0.2639549374580383,-1.1148674488067627,-0.0836369693279266,-5.764987468719482,1.247635841369629,99.36040496826172,25.25,0
-0.3429220914840698,-1.0345308780670166,-0.0256845206022262,-6.339995384216309,1.2474689483642578,99.36742401123048,25.25,0
-0.4159897565841675,-0.9102044701576232,0.0786793231964111,-6.569282054901123,1.2473617792129517,99.3719253540039,25.25,0
-0.4628803730010986,-0.880798876285553,0.1512517929077148,-5.781372547149658,1.2472931146621704,99.37481689453124,25.25,0
-0.4090054631233215,-0.9906768798828124,0.1530424356460571,-3.57759690284729,1.244953989982605,99.37667083740234,25.25,0
-0.2848672568798065,-1.0220057964324951,0.1597893387079239,-0.1391851603984832,1.2434529066085815,99.37786102294922,25.25,0
-0.1828114092350006,-1.0253175497055054,0.1921079903841018,3.804938554763794,1.2424895763397217,99.37862396240234,25.25,0
-0.1341111660003662,-1.005051851272583,0.2576304376125335,7.4251532554626465,1.241871356964111,99.37911224365234,25.25,0
-0.1308470219373703,-0.9752531051635742,0.2996789813041687,10.142481803894045,1.2414746284484863,99.37943267822266,25.25,0
-0.1791322529315948,-0.9561299681663512,0.3098699748516083,11.728673934936523,1.241219997406006,99.379638671875,25.25,0
-0.2437055855989456,-0.932662308216095,0.288421094417572,12.291613578796388,1.2410566806793213,99.37976837158205,25.25,0
-0.3075361251831054,-0.9120043516159058,0.2634609043598175,12.054585456848145,1.2409517765045166,99.37985229492188,25.25,0
-0.3764877617359161,-0.8819539546966553,0.2306495606899261,11.185959815979004,1.2422616481781006,99.3799057006836,25.27,0
-0.4263347387313843,-0.857071578502655,0.2095931321382522,9.994409561157228,1.2431023120880127,99.37993621826172,25.27,0
-0.4695191979408264,-0.813114583492279,0.2072758674621582,8.971796035766602,1.24364173412323,99.37995910644533,25.27,0
-0.4972324967384338,-0.8240899443626404,0.2001910060644149,8.225976943969727,1.2439879179000854,99.37997436523438,25.27,0
-0.5038217306137085,-0.8479266166687012,0.1900465786457061,7.31744384765625,1.244210124015808,99.3799819946289,25.27,0
-0.4912570118904114,-0.9136036038398744,0.1667431443929672,6.050127983093262,1.2443526983261108,99.37998962402344,25.27,0
-0.4719981551170349,-0.9781424403190612,0.1461905688047409,4.8069281578063965,1.2444441318511963,99.37998962402344,25.27,0
-0.4540411531925201,-1.0531463623046875,0.1330011188983917,3.840733289718628,1.2445029020309448,99.37998962402344,25.27,0
-0.4425173997879028,-1.1124751567840576,0.1077435612678527,2.9269137382507324,1.2454583644866943,99.37998962402344,25.27,0
-0.440719872713089,-1.1785378456115725,0.0803391635417938,1.8389164209365845,1.2460715770721436,99.37998962402344,25.27,0
-0.4563596546649933,-1.0250109434127808,0.0739481449127197,0.4564304947853088,1.246465086936951,99.37998962402344,25.27,0
-0.4719941318035126,-0.8761062026023865,0.0586512126028537,-1.3944822549819946,1.2467175722122192,99.37998962402344,25.27,0
-0.476429671049118,-0.8981009721755981,0.0040523270145058,-3.567499876022339,1.2468796968460083,99.37998962402344,25.27,0
-0.4792761504650116,-0.9290093183517456,-0.053377192467451,-5.44566535949707,1.2469836473464966,99.37998962402344,25.27,0
-0.4755050837993622,-0.9936267137527466,-0.1014277040958404,-6.507660388946533,1.247050404548645,99.37998962402344,25.27,0
-0.4339005947113037,-1.0127032995224,-0.1322637498378753,-6.766444206237793,1.2470932006835938,99.37998962402344,25.27,0
-0.390407919883728,-0.996956706047058,-0.146454781293869,-6.527685642242432,1.243907451629639,99.42298126220705,25.27,0
-0.3065190613269806,-0.9700581431388856,-0.1331706643104553,-6.087858200073242,1.2418631315231323,99.45057678222656,25.27,0
-0.2526840269565582,-0.9304050803184508,-0.113450139760971,-5.7124552726745605,1.2405511140823364,99.4682846069336,25.27,0
-0.2349291294813156,-0.9161535501480104,-0.1119901910424232,-5.636341571807861,1.2397091388702393,99.47964477539062,25.27,0
-0.2403283864259719,-0.923801064491272,-0.1222488284111023,-5.863354682922363,1.2391688823699951,99.4869384765625,25.27,0
-0.2493910938501358,-0.9343065619468688,-0.1344300061464309,-6.095020294189453,1.238822102546692,99.49161529541016,25.27,0
-0.2552070021629333,-0.9690372943878174,-0.131051629781723,-6.078891277313232,1.2385995388031006,99.49462127685548,25.27,0
-0.2589393258094787,-0.9969232678413392,-0.1064924895763397,-5.842838287353516,1.2384567260742188,99.49655151367188,25.27,0
-0.2557367384433746,-0.9924277663230896,-0.0851340740919113,-5.476398944854736,1.2369879484176636,99.49778747558594,25.27,0
-0.2536815106868744,-1.0175316333770752,-0.0770252496004104,-5.0477800369262695,1.2360453605651855,99.4985809326172,25.27,0
-0.2635581195354461,-1.1064130067825315,-0.0830170214176178,-4.812125205993652,1.2354404926300049,99.49909210205078,25.27,0
-0.3090807795524597,-1.1522563695907593,-0.075666643679142,-5.004822731018066,1.2350523471832275,99.49942016601562,25.27,0
-0.3774790465831756,-1.041731595993042,0.0018214705632999,-5.325526714324951,1.2348031997680664,99.49962615966795,25.27,0
-0.4213730990886688,-0.9092276692390442,0.0795377567410469,-4.997532367706299,1.2346433401107788,99.49976348876952,25.27,0
-0.4103573560714721,-0.857780933380127,0.1126182749867439,-3.425665855407715,1.2345407009124756,99.49984741210938,25.27,0
-0.3305170238018036,-0.936720848083496,0.1058585718274116,-0.7904428243637085,1.2344748973846436,99.4999008178711,25.27,0
-0.2848778665065765,-0.9817821979522704,0.1127161309123039,2.061446189880371,1.230760097503662,99.49993896484376,25.27,0
-0.2555892765522003,-0.9995043873786926,0.1339102387428283,4.360941410064697,1.2283761501312256,99.49996185302734,25.27,0
-0.2367935478687286,-0.9940841794013976,0.1587069481611251,5.922607421875,1.2268463373184204,99.4999771118164,25.27,0
-0.2527204155921936,-0.9290302991867064,0.180217832326889,6.795821666717529,1.2258645296096802,99.49998474121094,25.27,0
-0.2797346711158752,-0.8816846609115601,0.1940222680568695,6.937038898468018,1.2252345085144043,99.49999237060548,25.27,0
-0.3250597417354584,-0.8513009548187256,0.1916856169700622,6.46161699295044,1.224830150604248,99.49999237060548,25.27,0
-0.3653423190116882,-0.8318024277687073,0.1621972173452377,5.730192184448242,1.2245707511901855,99.49999237060548,25.27,0
-0.3967911303043365,-0.8192893862724304,0.137675479054451,4.959869384765625,1.224404215812683,99.49999237060548,25.27,0
-0.4281687140464782,-0.8000637292861938,0.1331343948841095,4.164584159851074,1.2270516157150269,99.49999237060548,25.27,0
-0.4483050405979156,-0.7765302658081055,0.1470135152339935,3.4786698818206787,1.2287505865097046,99.49999237060548,25.27,0
-0.4612273871898651,-0.7782211303710938,0.1727136522531509,3.056402444839477,1.229840874671936,99.49999237060548,25.27,0
-0.4527268707752228,-0.824088454246521,0.189206525683403,2.774667739868164,1.2305406332015991,99.49999237060548,25.27,0
-0.4360761940479278,-0.870316743850708,0.1941929310560226,2.511467456817627,1.230989694595337,99.49999237060548,25.27,0
-0.4029996395111084,-0.9279723167419434,0.191795140504837,2.496611356735229,1.2312778234481812,99.49999237060548,25.27,0
-0.3817729949951172,-0.9537767767906188,0.1958541423082351,2.9492299556732178,1.2314627170562744,99.49999237060548,25.27,0
-0.3737487494945526,-1.0990854501724243,0.1760678887367248,3.53704833984375,1.231581449508667,99.49999237060548,25.27,0
-0.3909903466701507,-1.130760669708252,0.1521746516227722,3.613339900970459,1.2284444570541382,99.5394058227539,25.27,0
-0.4020549952983856,-1.0839146375656128,0.1368413567543029,2.909958600997925,1.2264312505722046,99.564697265625,25.27,0
-0.3923623263835907,-0.9866783022880554,0.1158057749271392,1.6632370948791504,1.2251392602920532,99.58092498779295,25.27,0
-0.3917399048805237,-0.9410709142684937,0.0911108031868934,0.200386494398117,1.2243101596832275,99.59133911132812,25.27,0
-0.3969382643699646,-0.956584930419922,0.069665215909481,-1.2327821254730225,1.2237781286239624,99.5980224609375,25.27,0
-0.4058720469474792,-0.9833342432975768,0.0670982226729393,-2.302975416183472,1.223436713218689,99.60231018066406,25.27,0
-0.4060074388980865,-1.0060981512069702,0.0766464248299598,-2.7712268829345703,1.2232176065444946,99.60506439208984,25.27,0
-0.3557143807411194,-0.9815223217010498,0.110762782394886,-2.742126703262329,1.2230769395828247,99.6068344116211,25.27,0
-0.3066458702087402,-0.943359911441803,0.1494500190019607,-2.433263301849365,1.224822759628296,99.60797119140624,25.27,0
-0.2639609575271606,-0.8852828145027161,0.1854728162288665,-1.9806896448135376,1.225943088531494,99.60869598388672,25.27,0
-0.2645571231842041,-0.8536100387573242,0.2029923945665359,-1.654428243637085,1.226662039756775,99.60916137695312,25.27,0
-0.2761352360248565,-0.8332842588424683,0.2086376696825027,-1.8821265697479248,1.227123498916626,99.60945892333984,25.27,0
-0.2667720913887024,-0.8258381485939026,0.2122604846954345,-2.694609403610229,1.22741961479187,99.60964965820312,25.27,0
-0.2495678067207336,-0.8266574144363403,0.2145854085683822,-3.58501935005188,1.227609634399414,99.60977172851562,25.27,0
-0.2217337638139724,-0.827183187007904,0.2272729575634002,-4.070451259613037,1.2277315855026243,99.60985565185548,25.27,0
-0.198273703455925,-0.8387161493301392,0.2242195457220077,-4.102532863616943,1.2278097867965698,99.6099090576172,25.27,0
-0.1888161748647689,-0.8797039985656738,0.2054667174816131,-3.807854175567627,1.2269421815872192,99.60993957519533,25.27,0
-0.2051379680633545,-0.9451920390129088,0.1766389012336731,-3.292732000350952,1.2263853549957275,99.6099624633789,25.27,0
-0.2268079072237014,-0.9872184991836548,0.1469433307647705,-2.743619203567505,1.2260280847549438,99.60997772216795,25.27,0
-0.235116645693779,-1.1317418813705444,0.088701993227005,-2.283752918243408,1.2257988452911377,99.6099853515625,25.27,0
-0.2684375941753387,-1.168510913848877,0.0345327369868755,-1.7342743873596191,1.2256516218185425,99.60999298095705,25.27,0
-0.3066143691539764,-1.231291651725769,-0.0114255249500274,-0.8980029821395874,1.2255572080612185,99.60999298095705,25.27,0
-0.3702984452247619,-1.137234091758728,-0.0297233425080776,0.0614117830991745,1.2254966497421265,99.60999298095705,25.27,0
-0.4279605448246002,-0.9985045790672302,-0.0414658263325691,0.845490038394928,1.225457787513733,99.60999298095705,25.27,0
-0.4033892452716827,-0.9766492247581482,-0.0545992515981197,1.4597262144088743,1.222678542137146,99.60999298095705,25.27,0
-0.3708274960517883,-1.018601417541504,-0.0630275309085846,2.0258712768554688,1.2208949327468872,99.60999298095705,25.27,0
-0.3611267805099487,-1.0231329202651978,-0.062838539481163,2.4285988807678223,1.2197502851486206,99.60999298095705,25.27,0
-0.3437058627605438,-0.9700632095336914,-0.0459239333868026,2.464926481246948,1.2190157175064087,99.60999298095705,25.27,0
-0.3381238877773285,-0.9024194478988647,-0.0350691117346286,2.1765553951263428,1.218544363975525,99.60999298095705,25.27,0
-0.3569328188896179,-0.8254229426383972,-0.0337008871138095,1.6977243423461914,1.218241810798645,99.60999298095705,25.27,0
-0.3857966065406799,-0.7928043007850647,-0.0440183877944946,1.0715888738632202,1.2180477380752563,99.60999298095705,25.27,0
-0.415515273809433,-0.7662737965583801,-0.0450417920947074,0.3831651210784912,1.2179231643676758,99.60999298095705,25.27,0
-0.4177936911582947,-0.7548457980155945,-0.0512963272631168,-0.1589377224445343,1.2178431749343872,99.59925079345705,25.27,0
-0.413658082485199,-0.736316442489624,-0.0497123524546623,-0.4136811792850494,1.2177919149398804,99.59235382080078,25.27,0
-0.466981828212738,-0.7188276052474976,-0.0430980734527111,-0.419527530670166,1.2177590131759644,99.58792877197266,25.27,0
-0.5067996978759766,-0.7467886805534363,-0.0332556366920471,-0.3337149918079376,1.217737913131714,99.58509063720705,25.27,0
-0.543548047542572,-0.7703302502632141,-0.0269393268972635,-0.192663624882698,1.217724323272705,99.58326721191406,25.27,0
-0.5559355020523071,-0.858208954334259,-0.0284836590290069,0.1665481925010681,1.217715620994568,99.58209991455078,25.27,0
-0.5470917224884033,-0.9873754978179932,-0.040670271962881,0.7338317632675171,1.217710018157959,99.5813446044922,25.27,0
-0.5302207469940186,-1.0814627408981323,-0.0316976122558116,1.051308274269104,1.2177064418792725,99.58086395263672,25.27,0
-0.5305894613265991,-1.0746692419052124,0.0244404934346675,0.7319903373718262,1.2131134271621704,99.58055877685548,25.27,0
-0.5308260917663574,-1.0143318176269531,0.0940533429384231,-0.0783847942948341,1.2101658582687378,99.58036041259766,25.27,0
-0.5421735048294067,-0.9644151329994202,0.1667157411575317,-0.992520272731781,1.208274245262146,99.58023071289062,25.27,0
-0.5326622724533081,-1.0051525831222534,0.190955176949501,-1.7152975797653198,1.2070603370666504,99.58014678955078,25.27,0
-0.4649830162525177,-1.0872732400894165,0.144935131072998,-2.039413928985596,1.206281304359436,99.58009338378906,25.27,0
-0.3599748611450195,-1.139973521232605,0.1377932131290435,-1.8963208198547363,1.2057814598083496,99.58006286621094,25.27,0
-0.2590000033378601,-1.1402069330215454,0.1611988246440887,-1.363835096359253,1.2054606676101685,99.58003997802734,25.27,0
-0.1494179666042328,-1.0731834173202517,0.1986102908849716,-0.5384687185287476,1.2052547931671145,99.58002471923828,25.27,0
-0.0958878472447395,-0.9909871816635132,0.2282165884971618,0.3888697028160095,1.2064998149871826,99.58001708984376,25.29,0
-0.1287086009979248,-0.9606294631958008,0.2136295586824417,1.087876796722412,1.207298755645752,99.58000946044922,25.29,0
-0.2057488113641739,-0.9019631743431092,0.1762795746326446,1.4003214836120603,1.20781147480011,99.58000946044922,25.29,0
-0.2551887929439544,-0.8531190156936646,0.1411149501800537,1.4897706508636477,1.20814049243927,99.58000946044922,25.29,0
-0.2589276432991028,-0.8161758780479431,0.1241460964083671,1.550756573677063,1.208351731300354,99.58000946044922,25.29,0
-0.2557292580604553,-0.7924678921699524,0.1188542395830154,1.6149718761444092,1.2084872722625732,99.58000946044922,25.29,0
-0.2256878316402435,-0.7884489893913269,0.1210560053586959,1.6740944385528564,1.2085741758346558,99.58000946044922,25.29,0
-0.1896156519651413,-0.808260977268219,0.1056756451725959,1.7836874723434448,1.2086299657821655,99.58000946044922,25.29,0
-0.160868838429451,-0.8321707248687744,0.0902076438069343,2.043894529342652,1.2068297863006592,99.58000946044922,25.29,0
-0.1368230134248733,-0.8699057102203369,0.0466945245862007,2.4222521781921387,1.2056745290756226,99.58000946044922,25.29,0
-0.1325873285531997,-0.910915195941925,0.0019769859500229,2.6256520748138428,1.2049331665039062,99.58000946044922,25.29,0
-0.1522602140903473,-1.0603837966918943,-0.0603068023920059,2.351351499557495,1.204457402229309,99.58000946044922,25.29,0
-0.1984717845916748,-1.206684112548828,-0.1282658278942108,1.680925726890564,1.20415198802948,99.58000946044922,25.29,0
-0.2561165690422058,-1.3509511947631836,-0.1830735653638839,0.9748266935348512,1.2039560079574585,99.58000946044922,25.29,0
-0.3490874171257019,-1.286795735359192,-0.167866051197052,0.4428763091564178,1.2038302421569824,99.58000946044922,25.29,0
-0.4311418533325195,-1.1616579294204712,-0.1301178634166717,0.0011890514288097,1.2037495374679563,99.58000946044922,25.29,0
-0.4502130448818207,-1.0533627271652222,-0.072306603193283,-0.4434762895107269,1.2036978006362915,99.58717346191406,25.29,0
-0.4008763134479522,-1.0566362142562866,-0.0352066680788993,-0.8363142013549805,1.2036645412445068,99.59176635742188,25.29,0
-0.3468237221240997,-1.0811280012130735,-0.0281913876533508,-0.9952679872512816,1.2036432027816772,99.59471893310548,25.29,0
-0.2673536837100982,-1.080052137374878,-0.0460804812610149,-0.7605133056640625,1.203629493713379,99.59661102294922,25.29,0
-0.210756629705429,-1.040177345275879,-0.0463651232421398,-0.2301082015037536,1.2036207914352417,99.59782409667967,25.29,0
-0.2024247646331787,-0.953012466430664,-0.0353522412478923,0.1926744878292083,1.2036151885986328,99.59860229492188,25.29,0
-0.2250667214393615,-0.8690861463546753,-0.0338825806975364,0.0985693708062172,1.2036116123199463,99.59910583496094,25.29,0
-0.2395970374345779,-0.8096293210983276,-0.0329394377768039,-0.5350340008735657,1.2036092281341553,99.59942626953124,25.29,0
-0.2601172924041748,-0.8050599694252014,-0.0491275079548358,-1.3357274532318115,1.1999351978302002,99.5996322631836,25.29,0
-0.2788837850093841,-0.8077254295349121,-0.0651138499379158,-1.896139979362488,1.1975774765014648,99.59976196289062,25.29,0
-0.3021225929260254,-0.7926426529884338,-0.0641774162650108,-2.155468225479126,1.1960643529891968,99.59984588623048,25.29,0
-0.3170359134674072,-0.794158935546875,-0.0467831455171108,-2.3577160835266118,1.1950933933258057,99.5998992919922,25.29,0
-0.326606422662735,-0.8119252920150757,-0.0300227291882038,-2.663053274154663,1.1944702863693235,99.59993743896484,25.29,0
-0.349541574716568,-0.8737066984176636,-0.0024735375773161,-2.927070140838623,1.1940703392028809,99.59996032714844,25.29,0
-0.3698577880859375,-0.918952226638794,0.0264014992862939,-2.956780433654785,1.193813681602478,99.5999755859375,25.29,0
-0.3381133675575256,-0.9591837525367736,0.0337362848222255,-2.667745351791382,1.1936490535736084,99.59998321533205,25.29,0
-0.2785572111606598,-1.068968653678894,0.0160522311925888,-2.009359121322632,1.1935433149337769,99.59999084472656,25.27,0
-0.2571308314800262,-1.167411208152771,0.0103013981133699,-0.9849720597267152,1.1934754848480225,99.59999084472656,25.27,0
-0.2713694870471954,-1.1298259496688845,0.0513930395245552,0.1739811152219772,1.1934319734573364,99.59999084472656,25.27,0
-0.2693114876747131,-1.0273370742797852,0.1057521626353263,1.0431206226348877,1.1934040784835815,99.59999084472656,25.27,0
-0.2567952275276184,-0.9839566946029664,0.1798211336135864,1.4611639976501465,1.193386197090149,99.59999084472656,25.27,0
-0.2151763588190078,-1.0736709833145142,0.188169926404953,1.7007795572280884,1.1933746337890625,99.59999084472656,25.27,0
-0.1604789048433303,-1.1256465911865234,0.176734372973442,1.969193458557129,1.1933672428131104,99.59999084472656,25.27,0
-0.1029861271381378,-1.0862305164337158,0.1805912405252456,2.141446113586426,1.1933624744415283,99.59999084472656,25.27,0
-0.0660905689001083,-1.010555624961853,0.1942619085311889,2.11226749420166,1.1938186883926392,99.59999084472656,25.27,0
-0.0368153490126132,-0.967589557170868,0.2030349522829055,2.021890878677368,1.194111466407776,99.59999084472656,25.27,0
-0.0572126172482967,-0.9847986102104188,0.1862738877534866,1.8814929723739624,1.194299340248108,99.59999084472656,25.27,0
-0.0703024119138717,-0.9902446269989014,0.1699198335409164,1.4940400123596191,1.1944199800491333,99.59999084472656,25.27,0
-0.0507138147950172,-0.9433596134185792,0.153826966881752,0.8907199501991272,1.1944973468780518,99.59999084472656,25.27,0
-0.0437407568097114,-0.9132714867591858,0.143499493598938,0.406814306974411,1.1945470571517944,99.59999084472656,25.27,0
-0.0280703008174896,-0.9051582217216492,0.1256763637065887,0.2324094027280807,1.1945788860321045,99.59999084472656,25.27,0
-0.0348072275519371,-0.8999515771865845,0.0918474048376083,0.2351287901401519,1.1945993900299072,99.59999084472656,25.27,0
-0.0503261461853981,-0.913403570652008,0.0589423775672912,0.2153784930706024,1.192776083946228,99.59282684326172,25.27,0
-0.0770786181092262,-0.9332318305969238,0.0266302768141031,0.120304636657238,1.1916059255599976,99.5882339477539,25.27,0
-0.0998445898294448,-0.9571520090103148,0.0114920046180486,-0.044602982699871,1.1908550262451172,99.58528137207033,25.27,0
-0.1256500333547592,-1.0116870403289795,0.0017771326238289,-0.3367251455783844,1.190373182296753,99.58338928222656,25.27,0
-0.1478082537651062,-1.1586400270462036,-0.0380439609289169,-0.7427294254302979,1.1900639533996582,99.5821762084961,25.27,0
-0.1732236742973327,-1.2249571084976196,-0.0635988414287567,-1.0247750282287598,1.1898654699325562,99.5813980102539,25.27,0
-0.2511093318462372,-1.2675155401229858,-0.0520096234977245,-0.9334999322891236,1.189738154411316,99.58089447021484,25.27,0
-0.3234829604625702,-1.188469409942627,0.0058076395653188,-0.5274149775505066,1.189656376838684,99.58057403564452,25.27,0
-0.3139504492282867,-0.9474177956581116,0.0932914018630981,-0.0626062378287315,1.1886860132217407,99.5803680419922,25.27,0
-0.1566931307315826,-0.9382668733596802,0.1438356637954712,0.2894198894500732,1.188063383102417,99.58023834228516,25.27,0
0.0058010821230709,-0.9715787768363952,0.1538809686899185,0.443678468465805,1.1876637935638428,99.58015441894533,25.27,0
0.1156782880425453,-0.998554229736328,0.1211430430412292,0.338465929031372,1.187407374382019,99.5801010131836,25.27,0
0.1302134096622467,-1.0158655643463137,0.0945359542965889,0.0130011430010199,1.1872427463531494,99.58006286621094,25.27,0
0.0219879522919654,-0.9877905249595642,0.0942543819546699,-0.4358959794044494,1.1871371269226074,99.58003997802734,25.27,0
-0.0586604624986648,-0.9249913692474364,0.1164647787809372,-0.8959360122680664,1.187069296836853,99.58002471923828,25.27,0
-0.1048182025551796,-0.890288233757019,0.1307181417942047,-1.2126586437225342,1.187025785446167,99.58001708984376,25.27,0
-0.1176462620496749,-0.8680177927017212,0.1286695748567581,-1.2941054105758667,1.186079740524292,99.58000946044922,25.27,0
-0.1258785724639892,-0.8593236804008484,0.1161593720316886,-1.3356255292892456,1.18547260761261,99.58000946044922,25.27,0
-0.153552696108818,-0.8649398684501648,0.0969354957342147,-1.6237988471984863,1.1850829124450684,99.58000946044922,25.27,0
-0.2048989981412887,-0.8573484420776367,0.0790009424090385,-2.0344340801239014,1.1848328113555908,99.58000946044922,25.27,0
-0.243447870016098,-0.8524767160415649,0.0674915835261344,-2.0794191360473637,1.1846723556518557,99.58000946044922,25.27,0
-0.2849796414375305,-0.9053280353546144,0.0713010877370834,-1.5780667066574097,1.1845693588256836,99.58000946044922,25.27,0
-0.3228278756141662,-0.9560382962226868,0.0793435797095298,-0.9052350521087646,1.1845033168792725,99.58000946044922,25.27,0
-0.3471167087554931,-1.0949389934539795,0.0621136911213398,-0.4877807796001434,1.1844608783721924,99.58000946044922,25.27,0
-0.3794972002506256,-1.1448930501937866,0.0510565415024757,-0.3775160014629364,1.1844336986541748,99.58000946044922,25.27,0
-0.4058749079704284,-1.160157322883606,0.0495584718883037,-0.346162736415863,1.1844161748886108,99.58000946044922,25.27,0
-0.4451937079429626,-1.2203329801559448,0.0597926452755928,-0.1075049042701721,1.184404969215393,99.58000946044922,25.27,0
-0.4816218018531799,-1.1805814504623413,0.0775559023022651,0.4074921309947967,1.18439781665802,99.58000946044922,25.27,0
-0.5049992799758911,-1.043115735054016,0.0889553353190422,0.9457769393920898,1.1843931674957275,99.58000946044922,25.27,0
-0.497610479593277,-0.9940825700759888,0.0850752890110015,1.2947996854782104,1.1843901872634888,99.58000946044922,25.27,0
-0.4760754406452179,-1.018593668937683,0.0657919719815254,1.5402778387069702,1.184388279914856,99.58000946044922,25.27,0
-0.3894844353199005,-1.1238877773284912,0.0310259517282247,1.7981237173080444,1.1843870878219604,99.58000946044922,25.27,0
-0.2947308719158172,-1.1466773748397827,0.0087151201441884,2.0065853595733643,1.182550311088562,99.54418182373048,25.27,0
-0.2059346288442611,-1.1109224557876587,-4.911621999781346e-06,2.06154727935791,1.181371569633484,99.52118682861328,25.27,0
-0.154548093676567,-1.0655858516693115,-3.1519962249149103e-06,1.8961944580078125,1.1806150674819946,99.50643157958984,25.27,0
-0.1327667236328125,-1.0085026025772097,-0.0167953465133905,1.4927268028259275,1.1801296472549438,99.49696350097656,25.27,0
-0.1635708808898925,-0.9662720561027528,-0.0387671589851379,0.950780987739563,1.1798181533813477,99.49089050292967,25.27,0
-0.1889369934797287,-0.9559642672538756,-0.0640629529953002,0.3952019512653351,1.179618239402771,99.48699188232422,25.27,0
-0.1996177285909652,-0.9605448246002196,-0.1026874333620071,-0.1655434519052505,1.1794898509979248,99.48448944091795,25.27,0
-0.2008742392063141,-0.9690821766853333,-0.1274743974208831,-0.7081089615821838,1.1794074773788452,99.48287963867188,25.27,0
-0.1904850453138351,-1.0081475973129272,-0.1377834677696228,-1.124365210533142,1.1784363985061646,99.48184967041016,25.27,0
-0.1894156336784362,-1.0164241790771484,-0.133203700184822,-1.4129899740219116,1.1778132915496826,99.48118591308594,25.27,0
-0.1943271160125732,-1.0105401277542114,-0.1246668845415115,-1.6806119680404663,1.1774133443832395,99.4807586669922,25.27,0
-0.1974790245294571,-1.0851328372955322,-0.1191884502768516,-1.9132601022720337,1.177156686782837,99.4804916381836,25.27,0
-0.2106972932815551,-1.1497955322265625,-0.1212704852223396,-1.9264224767684937,1.1769920587539673,99.48031616210938,25.27,0
-0.2583644390106201,-1.0345546007156372,-0.0834221914410591,-1.5873594284057615,1.1768863201141355,99.4802017211914,25.27,0
-0.316943347454071,-0.8150575160980225,0.0192355047911405,-0.9756850004196168,1.1768184900283811,99.48013305664062,25.27,0
-0.3825247883796692,-0.6965879797935486,0.1242997348308563,-0.2822112441062927,1.176774978637695,99.48008728027344,25.27,0
-0.4470022618770599,-0.878058671951294,0.163735032081604,0.3312013447284698,1.1739927530288696,99.48005676269533,25.29,0
-0.4380002319812774,-0.9889183640480042,0.1722490042448043,0.7356020212173462,1.172207236289978,99.48003387451172,25.29,0
-0.3314633071422577,-0.9928884506225586,0.1777127832174301,0.8518200516700745,1.171061396598816,99.4800262451172,25.29,0
-0.2015185207128524,-0.995436191558838,0.2148057669401168,0.6863695383071899,1.1703261137008667,99.48001861572266,25.29,0
-0.1349207609891891,-0.9634845852851868,0.2554032504558563,0.315082311630249,1.1698542833328247,99.48001098632812,25.29,0
-0.1537576764822006,-0.9597731828689576,0.2982496917247772,-0.0772392004728317,1.1695514917373655,99.48001098632812,25.29,0
-0.1938349902629852,-0.9629892110824584,0.3201482892036438,-0.2394441664218902,1.169357180595398,99.48001098632812,25.29,0
-0.2699342668056488,-0.9538574814796448,0.3118104636669159,-0.2181478440761566,1.1692324876785278,99.48001098632812,25.29,0
-0.3467592895030975,-0.9535950422286988,0.284068614244461,-0.3764447271823883,1.1728249788284302,99.48001098632812,25.29,0
-0.4072566926479339,-0.9478288888931274,0.2606677412986755,-0.796879768371582,1.1751303672790527,99.48001098632812,25.29,0
-0.4348849058151245,-0.9273351430892944,0.2400526255369186,-1.1096817255020142,1.1766098737716677,99.48001098632812,25.29,0
-0.4358217716217041,-0.9141834378242492,0.2212252467870712,-1.0847177505493164,1.17755925655365,99.48001098632812,25.29,0
-0.419629693031311,-0.9169390201568604,0.1979473680257797,-0.8394124507904053,1.178168535232544,99.48001098632812,25.29,0
-0.4092385470867157,-0.9522939920425416,0.1606178730726242,-0.5351040363311768,1.1785595417022705,99.48001098632812,25.29,0
-0.3969723284244537,-1.0141671895980835,0.119868628680706,-0.2430868595838546,1.178810477256775,99.48001098632812,25.29,0
-0.3779050409793854,-1.0986560583114624,0.0993158817291259,0.0410425141453743,1.178971529006958,99.48001098632812,25.29,0
-0.354473203420639,-1.1024961471557615,0.0861263126134872,0.4311697483062744,1.1772384643554688,99.46209716796876,25.29,0
-0.3394359946250915,-1.1833293437957764,0.0552709102630615,1.0003801584243774,1.17612624168396,99.45059967041016,25.29,0
-0.3633726239204407,-1.1232479810714722,0.0466652363538742,1.598534107208252,1.1754125356674194,99.44322204589844,25.29,0
-0.3955270946025848,-0.983931303024292,0.0187515132129192,2.043298721313477,1.174954533576965,99.43848419189452,25.29,0
-0.4105642139911651,-1.006481409072876,-0.0775307416915893,2.310810089111328,1.174660563468933,99.4354476928711,25.29,0
-0.4146163761615753,-1.0377460718154907,-0.1449169367551803,2.389336585998535,1.1744719743728638,99.4334945678711,25.29,0
-0.4340101480484009,-1.10259211063385,-0.1937592923641204,2.1782023906707764,1.1743508577346802,99.43224334716795,25.29,0
-0.3848804533481598,-1.1162177324295044,-0.2139079570770263,1.6987812519073486,1.174273133277893,99.4314422607422,25.29,0
-0.330960750579834,-1.1025707721710205,-0.2212404310703277,1.1224231719970703,1.1742233037948608,99.43092346191406,25.29,0
-0.2571737468242645,-1.0602262020111084,-0.2035548985004425,0.4838565587997436,1.1741913557052612,99.43059539794922,25.29,0
-0.2042237222194671,-1.021856427192688,-0.1866075545549392,-0.3630129396915436,1.1741708517074585,99.43038177490234,25.29,0
-0.2038300931453704,-1.0084284543991089,-0.1869272738695144,-1.4008804559707642,1.1741576194763184,99.43024444580078,25.29,0
-0.2035774886608123,-1.0166044235229492,-0.1927302330732345,-2.328452110290528,1.1741491556167605,99.43016052246094,25.29,0
-0.2034153789281845,-1.0386446714401243,-0.1964542418718338,-2.8914711475372314,1.1741437911987305,99.43009948730467,25.29,0
-0.2033113539218902,-1.0527888536453247,-0.1764529943466186,-3.1703851222991943,1.1741403341293335,99.43006134033205,25.29,0
-0.2032445967197418,-1.0842567682266235,-0.1412262469530105,-3.4138622283935547,1.174138069152832,99.43003845214844,25.29,0
-0.2032017558813095,-1.098853349685669,-0.1074241995811462,-3.6847543716430655,1.1704645156860352,99.43002319335938,25.25,0
-0.2255653589963913,-1.0690361261367798,-0.0801342129707336,-3.840684413909912,1.168107032775879,99.43001556396484,25.25,0
-0.2511125802993774,-1.083487868309021,-0.0626210719347,-3.90850830078125,1.16659414768219,99.43000793457033,25.25,0
-0.2954961955547333,-1.0983599424362185,-0.0401865988969802,-4.177735805511475,1.1656231880187988,99.43000793457033,25.25,0
-0.3351745903491974,-1.0463284254074097,-0.0033983483444899,-4.77683687210083,1.165000081062317,99.43000793457033,25.25,0
-0.3494423329830169,-0.9849486947059632,0.0705901980400085,-5.265200138092041,1.1646002531051636,99.43000793457033,25.25,0
-0.3306096792221069,-0.8615921139717102,0.1516584455966949,-4.92299222946167,1.1643437147140503,99.43000793457033,25.25,0
-0.3017306625843048,-0.8440045118331909,0.192487820982933,-3.506802797317505,1.1641790866851809,99.43000793457033,25.25,0
-0.2664044499397278,-0.9726621508598328,0.2130919992923736,-1.3691506385803225,1.1608598232269287,99.43000793457033,25.25,0
-0.2605274319648742,-1.0384339094161987,0.2263145744800567,1.073861598968506,1.1587296724319458,99.43000793457033,25.25,0
-0.2847447693347931,-1.0358601808547974,0.2180067300796508,3.4656386375427246,1.157362699508667,99.43000793457033,25.25,0
-0.2946882843971252,-1.0286108255386353,0.2070774585008621,5.247741222381592,1.1564854383468628,99.43000793457033,25.25,0
-0.3178627789020538,-1.0127630233764648,0.2112592309713363,5.979395866394043,1.1559224128723145,99.43000793457033,25.25,0
-0.3495281636714935,-0.9857994914054872,0.2251384109258651,5.886465072631836,1.155561089515686,99.43000793457033,25.25,0
-0.3642514050006866,-0.957300305366516,0.2284474819898605,5.583212375640869,1.1553292274475098,99.43000793457033,25.25,0
-0.3848955035209656,-0.922217845916748,0.2137777358293533,5.370689392089844,1.1551804542541504,99.43000793457033,25.25,0
-0.3981436789035797,-0.8941061496734619,0.1931679844856262,5.133992671966553,1.1592164039611816,99.38701629638672,25.25,0
-0.4122433662414551,-0.8704679012298584,0.1743440628051757,4.756392002105713,1.1618064641952517,99.3594207763672,25.25,0
-0.4268895089626312,-0.8329071402549744,0.1510684043169021,4.320610523223877,1.163468599319458,99.34171295166016,25.25,0
-0.4474841356277466,-0.8199983239173889,0.1305336505174636,3.933473587036133,1.1645352840423584,99.33035278320312,25.25,0
-0.4495050311088562,-0.8285075426101685,0.0893667563796043,3.6886138916015625,1.165219783782959,99.32305908203124,25.25,0
-0.4675952494144439,-0.9123371243476868,0.0517526641488075,3.664032459259033,1.1656590700149536,99.3183822631836,25.25,0
-0.4736067354679107,-1.0109163522720337,0.016418557614088,3.709161281585693,1.1659409999847412,99.31537628173828,25.25,0
-0.4662689864635467,-1.1077654361724854,-0.0174523890018463,3.462264060974121,1.1661219596862793,99.31344604492188,25.25,0
-0.4615600407123565,-1.1923086643218994,-0.0391888096928596,2.902571201324463,1.1625659465789795,99.3122100830078,25.25,0
-0.4417448043823242,-1.140205979347229,-0.0363446697592735,2.263951539993286,1.1602839231491089,99.31141662597656,25.25,0
-0.4234307408332824,-0.9388362169265748,-0.0289216917008161,1.4063003063201904,1.1588194370269775,99.31090545654295,25.25,0
-0.417275607585907,-0.8040109276771545,-0.029755825176835,0.0354992598295211,1.1578795909881592,99.31057739257812,25.25,0
-0.4413144588470459,-0.8238455057144165,-0.0638777688145637,-1.6108729839324951,1.1572763919830322,99.31037139892578,25.25,0
-0.4791323244571686,-0.8645631074905396,-0.1025685966014862,-2.986269235610962,1.1568893194198608,99.31023406982422,25.25,0
-0.5145971775054932,-0.8906933069229126,-0.1553870141506195,-3.840258836746216,1.156640887260437,99.31015014648438,25.25,0
-0.5037698745727539,-0.8962666392326355,-0.1836850643157959,-4.176928520202637,1.1564815044403076,99.31009674072266,25.25,0
-0.4688326418399811,-0.8942455053329468,-0.1906495690345764,-4.05980396270752,1.1568381786346436,99.31005859375,25.27,0
-0.3960319757461548,-0.8761551380157471,-0.1615323424339294,-3.841337203979492,1.157067060470581,99.3100357055664,25.27,0
-0.3381171524524688,-0.8533502221107483,-0.1372487992048263,-3.984161138534546,1.1572139263153076,99.31002044677734,25.27,0
-0.3009507358074188,-0.8387153148651123,-0.1216650232672691,-4.469900608062744,1.1573082208633425,99.3100128173828,25.27,0
-0.288295030593872,-0.8629101514816284,-0.117262028157711,-4.885515213012695,1.1573686599731443,99.31000518798828,25.27,0
-0.2913688719272613,-0.8952302932739258,-0.1144364401698112,-5.048337936401367,1.157407522201538,99.31000518798828,25.27,0
-0.2989392578601837,-0.9719492793083192,-0.1126231402158737,-5.09550666809082,1.1574324369430542,99.31000518798828,25.27,0
-0.298199713230133,-1.0435742139816284,-0.1058616936206817,-5.136524677276611,1.157448410987854,99.31000518798828,25.27,0
-0.2753340303897857,-1.0503544807434082,-0.1071203649044036,-5.0732831954956055,1.153327226638794,99.31000518798828,25.27,0
-0.2606601417064667,-1.1666611433029177,-0.1415147483348846,-4.771170616149902,1.1506824493408203,99.31000518798828,25.27,0
-0.2512432932853699,-1.2524956464767456,-0.1635870933532714,-4.297851085662842,1.1489851474761963,99.31000518798828,25.27,0
-0.312373399734497,-1.122852802276611,-0.0993830040097236,-3.886624813079834,1.1478959321975708,99.31000518798828,25.27,0
-0.3851898312568664,-0.9556888341903688,-0.0133983241394162,-3.619140863418579,1.1471970081329346,99.31000518798828,25.27,0
-0.4878969490528106,-0.8204237222671509,0.0529772453010082,-3.0892274379730225,1.146748423576355,99.31000518798828,25.27,0
-0.4866351783275604,-0.9183449149131776,0.0116066476330161,-1.5884050130844116,1.1464605331420898,99.31000518798828,25.27,0
-0.4466410279273987,-0.997978448867798,-0.0037470709066838,1.0907901525497437,1.1462758779525757,99.31000518798828,25.27,0
-0.3482040166854858,-1.015496015548706,0.0367797650396823,4.124948978424072,1.1466162204742432,99.27059173583984,25.27,0
-0.2458483874797821,-1.0267378091812134,0.0851786583662033,6.416024684906006,1.1468346118927002,99.24530029296876,25.27,0
-0.1745646595954895,-0.9667788147926332,0.1554227024316787,7.6426897048950195,1.146974802017212,99.22907257080078,25.27,0
-0.1959921717643737,-0.9003117084503174,0.1837079674005508,8.111042976379395,1.1470648050308228,99.21865844726562,25.27,0
-0.2377319782972335,-0.863254725933075,0.1850664913654327,8.049765586853027,1.147122502326965,99.21197509765624,25.27,0
-0.3093003928661346,-0.8394736647605896,0.1411561220884323,7.523211002349853,1.1471595764160156,99.20768737792967,25.27,0
-0.3552288711071014,-0.824212372303009,0.0961836501955986,6.705233097076416,1.1471834182739258,99.2049331665039,25.27,0
-0.3958986699581146,-0.8200163245201111,0.061725128442049,5.829209804534912,1.1471986770629885,99.20316314697266,25.27,0
-0.4108026623725891,-0.8061280250549316,0.0676005035638809,4.984004974365234,1.1472084522247314,99.2020263671875,25.27,0
-0.4147694110870361,-0.7860197424888611,0.0825665295124054,4.090508937835693,1.1472147703170776,99.20130157470705,25.27,0
-0.3949239552021026,-0.7843109369277954,0.1145619675517082,3.080040216445923,1.1472188234329224,99.20083618164062,25.27,0
-0.3765904903411865,-0.8168009519577026,0.1350947916507721,2.0589916706085205,1.147221326828003,99.2005386352539,25.27,0
-0.3592273592948913,-0.9328133463859558,0.1146849319338798,1.2210302352905271,1.1472229957580566,99.20034790039062,25.27,0
-0.3312913775444031,-1.001665711402893,0.1071848347783088,0.7011876702308655,1.1472240686416626,99.20022583007812,25.27,0
-0.3301570117473602,-1.0682421922683716,0.1079694777727127,0.5861197710037231,1.1472247838974,99.20014190673828,25.27,0
-0.3462223410606384,-1.1165649890899658,0.1364618837833404,0.902776539325714,1.147225260734558,99.20008850097656,25.27,0
-0.3733254671096802,-1.0860002040863037,0.1547466814517974,1.3639341592788696,1.1472254991531372,99.20005798339844,25.29,0
-0.3851209282875061,-0.9544300436973572,0.1552852541208267,1.4090981483459473,1.1472256183624268,99.20003509521484,25.29,0
-0.3702994883060455,-1.015537977218628,0.1164464578032493,0.703653872013092,1.1472257375717163,99.20001983642578,25.29,0
-0.3663856983184814,-1.0659490823745728,0.0859241858124733,-0.5121482610702515,1.147225856781006,99.20001220703124,25.29,0
-0.3694718480110168,-1.0815067291259766,0.0719345211982727,-1.7867755889892578,1.147225856781006,99.20000457763672,25.29,0
-0.3602567911148071,-1.1026862859725952,0.0741523057222366,-2.894946575164795,1.147225856781006,99.20000457763672,25.29,0
-0.3207564651966095,-1.0379092693328855,0.1091621965169906,-3.634767532348633,1.147225856781006,99.20000457763672,25.29,0
-0.2506252229213714,-0.9347636103630066,0.1708139479160308,-3.7584497928619385,1.147225856781006,99.20000457763672,25.29,0
-0.2168145924806594,-0.8629728555679321,0.2215740531682968,-3.400747537612915,1.147225856781006,99.20000457763672,25.29,0
-0.2510946094989776,-0.8392928242683411,0.2317578643560409,-3.0207266807556152,1.147225856781006,99.20000457763672,25.29,0
-0.2842890918254852,-0.8184985518455505,0.2270977050065994,-2.827007293701172,1.147225856781006,99.20000457763672,25.29,0
-0.2832003235816955,-0.810751736164093,0.2185093015432357,-2.7277672290802,1.147225856781006,99.20000457763672,25.29,0
-0.2433171868324279,-0.8281713724136353,0.2297910749912262,-2.6246724128723145,1.147225856781006,99.20000457763672,25.29,0
-0.2065269351005554,-0.8505458831787109,0.2482266277074813,-2.4510347843170166,1.147225856781006,99.20000457763672,25.29,0
-0.1717215180397033,-0.8593067526817322,0.2656552791595459,-2.24645733833313,1.147225856781006,99.20000457763672,25.29,0
-0.154983177781105,-0.8873201012611389,0.2656444311141968,-2.140249252319336,1.147225856781006,99.20000457763672,25.29,0
-0.1498392522335052,-0.9388840794563292,0.2432463765144348,-2.16165542602539,1.147225856781006,99.18567657470705,25.29,0
-0.1633314937353134,-1.0223548412322998,0.2008837163448333,-2.2327139377593994,1.147225856781006,99.17647552490234,25.29,0
-0.1831855922937393,-1.0927149057388306,0.162502259016037,-2.188750743865967,1.147225856781006,99.17057800292967,25.29,0
-0.2127201408147812,-1.1938456296920776,0.1098823696374893,-1.7664543390274048,1.147225856781006,99.16678619384766,25.29,0
-0.2484670281410217,-1.314723253250122,0.0705161765217781,-0.993888258934021,1.147225856781006,99.16436004638672,25.29,0
-0.3217872977256775,-1.1292002201080322,0.1180242896080017,-0.3476316332817077,1.147225856781006,99.1627960205078,25.29,0
-0.3184600472450256,-1.0773154497146606,0.1205233931541442,-0.0045528542250394,1.147225856781006,99.16179656982422,25.29,0
-0.2603470683097839,-1.1615720987319946,0.0829427540302276,0.4878911077976227,1.147225856781006,99.1611557006836,25.29,0
-0.2286512851715088,-1.1932520866394043,0.0364345610141754,1.3807079792022705,1.147225856781006,99.1607437133789,25.29,0
-0.2251040786504745,-1.1799957752227783,0.0065882806666195,2.254602670669556,1.147225856781006,99.16047668457033,25.29,0
-0.228425458073616,-1.1155109405517578,-0.0125653436407446,2.6434545516967773,1.147225856781006,99.16030883789062,25.29,0
-0.2417524755001068,-1.0013571977615356,-0.0304548107087612,2.4415926933288574,1.147225856781006,99.1602020263672,25.29,0
-0.2559027671813965,-0.8945132493972778,-0.0475330166518688,1.6456903219223022,1.147225856781006,99.1601333618164,25.29,0
-0.276179164648056,-0.8203492164611816,-0.058492824435234,0.439906358718872,1.147225856781006,99.16008758544922,25.29,0
-0.3003869354724884,-0.7951460480690002,-0.0711239725351333,-0.6205024719238281,1.147225856781006,99.1600570678711,25.29,0
-0.3327153921127319,-0.7733743786811829,-0.0736321434378624,-1.0144057273864746,1.147225856781006,99.1600341796875,25.29,0
-0.3646574914455414,-0.7594025731086731,-0.0696439668536186,-0.8229508399963379,1.143094539642334,99.16002655029295,25.25,0
-0.3795583248138428,-0.7672295570373535,-0.0670845881104469,-0.5173747539520264,1.140443205833435,99.16001892089844,25.25,0
-0.4059141278266907,-0.8114368915557861,-0.0766376703977584,-0.4108380079269409,1.1387417316436768,99.1600112915039,25.25,0
-0.439621090888977,-0.8398066163063049,-0.0883660688996315,-0.4821892976760864,1.1376498937606812,99.1600112915039,25.25,0
-0.4780456125736236,-0.8860015869140625,-0.0958926752209663,-0.4778223931789398,1.1369491815567017,99.1600112915039,25.25,0
-0.5194975733757019,-0.9996134638786316,-0.1175161451101303,-0.1490055918693542,1.136499524116516,99.1600112915039,25.25,0
-0.5628923773765564,-1.022143006324768,-0.1201972961425781,0.4059373438358307,1.1362109184265137,99.1600112915039,25.25,0
-0.6131317615509033,-0.975025713443756,-0.088331252336502,0.7978935837745667,1.1360257863998413,99.1600112915039,25.25,0
-0.6285791993141174,-0.8944085240364075,-0.0342948138713836,0.8488042950630188,1.135447978973389,99.1600112915039,25.25,0
-0.588112473487854,-0.9154441356658936,0.0003826601605396,0.6521909832954407,1.1350772380828855,99.1600112915039,25.25,0
-0.5005677938461304,-1.0353013277053833,0.0394299887120723,0.1928363442420959,1.1348392963409424,99.1600112915039,25.25,0
-0.4331910908222198,-1.0954254865646362,0.0756838619709014,-0.5641032457351685,1.1346865892410278,99.1600112915039,25.25,0
-0.3563659489154815,-1.1060208082199097,0.1381339430809021,-1.2827308177947998,1.134588599205017,99.1600112915039,25.25,0
-0.2902706861495971,-1.1240158081054688,0.1838085800409317,-1.460881233215332,1.1345256567001345,99.1600112915039,25.25,0
-0.1974745690822601,-1.1019773483276367,0.2019243836402893,-0.9625875353813172,1.1344852447509766,99.1600112915039,25.25,0
-0.1323255896568298,-1.0766386985778809,0.1967567354440689,-0.1663287281990051,1.134459376335144,99.1600112915039,25.25,0
-0.1073100417852401,-1.0715733766555786,0.1822448968887329,0.3518294394016266,1.1330655813217163,99.12418365478516,25.25,0
-0.063267633318901,-1.0571272373199463,0.1393453776836395,0.3440088927745819,1.1321711540222168,99.10118865966795,25.25,0
-0.0350037515163421,-1.0254653692245483,0.0950216203927993,0.1204529851675033,1.1315971612930298,99.08643341064452,25.25,0
-0.0336589403450489,-0.9827555418014526,0.0385883077979087,0.08804751932621,1.131228804588318,99.07696533203124,25.25,0
-0.0439914688467979,-0.960944652557373,-0.0256162174046039,0.2857886552810669,1.130992412567139,99.07088470458984,25.25,0
-0.0674156099557876,-0.9581431746482848,-0.0892100855708122,0.6348072290420532,1.1308406591415403,99.06698608398438,25.25,0
-0.1440234035253524,-0.9955297708511353,-0.180400937795639,1.2206274271011353,1.130743384361267,99.06448364257812,25.25,0
-0.2155769616365432,-1.0251201391220093,-0.2613130807876587,1.922587513923645,1.1306809186935425,99.06287384033205,25.25,0
-0.267093688249588,-1.016120672225952,-0.3244333863258362,2.3336567878723145,1.130181908607483,99.06184387207033,25.25,0
-0.2945563793182373,-1.0159430503845217,-0.364940345287323,2.353842258453369,1.12986159324646,99.0611801147461,25.25,0
-0.3289736807346344,-1.0270246267318726,-0.3909353911876678,2.2163279056549072,1.1296560764312744,99.06075286865234,25.25,0
-0.373451828956604,-1.0173428058624268,-0.4132152795791626,1.959697961807251,1.1295242309570312,99.06048583984376,25.25,0
-0.4019953310489654,-0.9943363070487976,-0.4219154715538025,1.5334796905517578,1.1294395923614502,99.06031036376952,25.25,0
-0.4203129112720489,-0.9739742875099182,-0.410705417394638,1.2599573135375977,1.129385232925415,99.06019592285156,25.25,0
-0.4376658499240875,-0.9553093314170836,-0.3923158943653106,1.4677619934082031,1.1293504238128662,99.06012725830078,25.25,0
-0.4599975347518921,-0.9321357011795044,-0.3805145621299743,1.85548198223114,1.1293280124664309,99.0600814819336,25.25,0
-0.4799264967441559,-0.9116663932800292,-0.356147825717926,1.8714308738708496,1.1256412267684937,99.06005096435548,25.25,0
-0.4871179759502411,-0.9041281342506408,-0.3293151259422302,1.4696698188781738,1.1232752799987793,99.06002807617188,25.25,0
-0.4749397337436676,-0.8936927318572998,-0.2841065526008606,0.9431495070457458,1.121756911277771,99.06002044677734,25.25,0
-0.4615266621112823,-0.8813981413841248,-0.2383009791374206,0.3508962094783783,1.120782494544983,99.0600128173828,25.25,0
-0.4529189169406891,-0.8679103851318359,-0.1921122670173645,-0.4447566568851471,1.1201571226119995,99.06000518798828,25.25,0
