acc_x,acc_y,acc_z,bvp,eda,hr,temp,label
0.0,0.0,0.0,0.0,0.0,0.0,29.13,0
-0.0624999962747097,-0.1536458283662796,0.0390624962747097,-19.19999885559082,0.1072046607732772,10.778332710266112,29.13,0
-0.1421493887901306,-0.3597561120986938,0.091463416814804,-34.20024490356445,0.2510158121585846,25.23707389831543,29.13,0
-0.1964804828166961,-0.5390365719795227,0.1420265734195709,-17.188074111938477,0.3761067390441894,37.81368637084961,29.13,0
-0.2521325349807739,-0.6911841034889221,0.1629005372524261,27.710227966308597,0.4673673212528229,46.98900604248047,29.13,0
-0.2953010499477386,-0.7557663917541504,0.1825228035449981,74.76188659667969,0.5291545987129211,53.20108413696289,29.13,0
-0.3014135062694549,-0.8036947250366211,0.1953978389501571,105.41419219970705,0.5696959495544434,57.277099609375,29.13,0
-0.3332689106464386,-0.8514735698699951,0.1981570273637771,122.05249786376952,0.595952570438385,59.916934967041016,29.13,0
-0.3649696111679077,-0.8766611814498901,0.1775737255811691,135.54315185546875,0.61057448387146,61.6174430847168,29.13,0
-0.3517771363258362,-0.8984449505805969,0.1811279058456421,148.3891143798828,0.6199725866317749,62.71043395996094,29.13,0
-0.3600949943065643,-0.9124335050582886,0.1834102272987365,155.65321350097656,0.626007616519928,63.41230010986328,29.13,0
-0.3710315525531769,-0.9214128851890564,0.1792780309915542,154.32662963867188,0.6298815608024597,63.86283874511719,29.13,0
-0.3836483359336853,-0.9327735304832458,0.1822234988212585,146.41781616210938,0.6323679089546204,64.1520004272461,29.13,0
-0.3861477375030517,-0.923271417617798,0.1841138154268264,136.89627075195312,0.6339635848999023,64.33757781982422,29.13,0
-0.3877517282962799,-0.9171733856201172,0.1853269338607788,129.74684143066406,0.6349875926971436,64.45667266845703,29.13,0
-0.3831833302974701,-0.913259983062744,0.1805076897144317,124.80403137207033,0.635644793510437,64.53309631347656,29.13,0
-0.3690560460090637,-0.8995530605316162,0.1774149686098098,118.47576141357422,0.6255083680152893,64.58214569091797,29.05,0
-0.3711855113506317,-0.9243433475494384,0.1698324680328369,107.53968048095705,0.6190033555030823,64.61361694335938,29.05,0
-0.3837476372718811,-0.9234590530395508,0.1481731235980987,92.19921112060548,0.6148288249969482,64.63381958007812,29.05,0
-0.3862115144729614,-0.934087097644806,0.1510667204856872,75.8701171875,0.6121498346328735,64.64678192138672,29.05,0
-0.4101837873458862,-0.9073209166526794,0.1249347999691963,61.955352783203125,0.6104305982589722,64.65509796142578,29.05,0
-0.4031766951084137,-0.9125350117683412,0.1249581575393676,50.36022186279297,0.6093273162841797,64.66043853759766,29.05,0
-0.4042777419090271,-0.910283386707306,0.1249731481075286,38.92097854614258,0.6086192727088928,64.66386413574219,29.05,0
-0.4049843251705169,-0.9144361615180968,0.1305805444717407,26.72195816040039,0.60816490650177,64.66606140136719,29.05,0
-0.4054377675056457,-0.9171012043952942,0.1341790407896042,14.400778770446776,0.6110865473747253,64.66747283935547,29.05,0
-0.4001309871673584,-0.9188114404678344,0.1364883482456207,2.019118070602417,0.61296147108078,64.66838073730469,29.05,0
-0.3967253863811493,-0.9199090003967284,0.1379703283309936,-11.164443969726562,0.6141647100448608,64.66896057128906,29.05,0
-0.4001376628875732,-0.9206133484840392,0.1389213800430297,-25.11698341369629,0.614936888217926,64.6693344116211,29.05,0
-0.3967296779155731,-0.9210653305053712,0.1395317167043686,-39.595252990722656,0.6154323816299438,64.66957092285156,29.05,0
-0.4001404047012329,-0.9213554263114928,0.1399233937263488,-54.926795959472656,0.6157503724098206,64.66972351074219,29.05,0
-0.4023292064666748,-0.9215415716171264,0.1401747465133667,-72.52555847167969,0.6159544587135315,64.6698226928711,29.05,0
-0.3981360793113708,-0.9216610193252563,0.1403360515832901,-90.62274169921876,0.616085410118103,64.66988372802734,29.05,0
-0.4010429382324219,-0.9217376708984376,0.1404395699501037,-106.0017547607422,0.6124973297119141,65.68379211425781,29.05,0
-0.4029084146022796,-0.9161890745162964,0.1405059993267059,-118.53656005859376,0.6101946830749512,66.33446502685547,29.05,0
-0.3985077738761902,-0.91822612285614,0.1349508613348007,-132.1193389892578,0.6087169647216797,66.75202941894531,29.05,0
-0.401281476020813,-0.919533371925354,0.1313858926296234,-148.4023895263672,0.6077686548233032,67.0199966430664,29.05,0
-0.4030614793300628,-0.9203723073005676,0.1290981024503708,-160.6897735595703,0.6071600914001465,67.19196319580078,29.05,0
-0.4042038023471832,-0.920910656452179,0.1276299208402633,-162.25186157226562,0.6067695617675781,67.30232238769531,29.05,0
-0.4105346500873565,-0.9156583547592164,0.1322855055332183,-152.85768127441406,0.6065189242362976,67.37313842773438,29.05,0
-0.4145974218845367,-0.9066899418830872,0.129675418138504,-141.9782257080078,0.6063581109046936,67.41858673095703,29.05,0
-0.4172046780586242,-0.906532347202301,0.128000408411026,-134.07569885253906,0.6016641855239868,67.44775390625,29.05,0
-0.4244756400585174,-0.912028968334198,0.1213277131319046,-129.78172302246094,0.5986518859863281,67.46646881103516,29.05,0
-0.4291417300701141,-0.904360830783844,0.1170455664396286,-137.73800659179688,0.5967187881469727,67.47848510742188,29.05,0
-0.4321361482143402,-0.8826465606689453,0.119895301759243,-174.56759643554688,0.5954782366752625,67.48619079589844,29.05,0
-0.4284600019454956,-0.8687115907669067,0.1217240989208221,-244.7403717041016,0.5946820974349976,67.49113464355469,29.05,0
-0.426100879907608,-0.8709644675254822,0.1172999441623687,-322.6254272460937,0.5941711664199829,67.49430847167969,29.05,0
-0.4245869219303131,-0.9059968590736388,0.1144607737660408,-375.8103942871094,0.5938432812690735,67.49634552001953,29.05,0
-0.429213136434555,-0.9340764284133912,0.1126387566328048,-352.9570007324219,0.5936328768730164,67.4976577758789,29.05,0
-0.4377797544002533,-0.9464985132217408,0.1002739444375038,-239.2256317138672,0.5939571261405945,67.49849700927734,29.23,0
-0.4376795291900635,-0.971263587474823,0.0979366898536682,-102.61284637451172,0.5941652059555054,67.49903869628906,29.23,0
-0.4376152157783508,-0.9871563911437988,0.0964367762207984,6.574334621429443,0.594298779964447,67.49938201904297,29.23,0
-0.4207806289196014,-0.9469755291938782,0.1010719910264015,82.26544189453125,0.594384491443634,67.49960327148438,29.23,0
-0.3931838274002075,-0.9155919551849364,0.1096443831920623,125.66639709472656,0.5944395065307617,67.49974822998047,29.23,0
-0.3754737973213196,-0.9066473841667176,0.1207434237003326,141.22682189941406,0.5944747924804688,67.49983978271484,29.23,0
-0.3641085028648376,-0.8953094482421875,0.1334639191627502,145.77783203125,0.5944974422454834,67.4999008178711,29.23,0
-0.3512171506881714,-0.8880334496498108,0.1416272073984146,151.4032440185547,0.5945119857788086,67.49993896484375,29.23,0
-0.3429442048072815,-0.8721685409545898,0.1636592596769333,156.9407501220703,0.5940620303153992,67.49996185302734,29.23,0
-0.3488306701183319,-0.8507918119430542,0.1777981668710708,153.1357879638672,0.5937732458114624,67.4999771118164,29.23,0
-0.3638038039207458,-0.820280134677887,0.1868716925382614,141.5978240966797,0.5935879349708557,67.49998474121094,29.23,0
-0.3846082389354706,-0.8118950724601746,0.1926945596933365,131.10165405273438,0.5934690237045288,67.49999237060547,29.23,0
-0.4035571217536926,-0.8177095651626587,0.1964313387870788,123.18714904785156,0.5933927297592163,67.49999237060547,29.23,0
-0.4325107336044311,-0.8326365351676941,0.1988293975591659,113.03157043457033,0.5933437347412109,67.49999237060547,29.23,0
-0.4678848087787628,-0.8422157764434814,0.2003683298826217,98.2278060913086,0.5933123230934143,67.49999237060547,29.23,0
-0.4849880933761596,-0.8427654504776001,0.1901603788137436,83.83380126953125,0.5932921171188354,67.49999237060547,29.23,0
-0.5295506715774536,-0.8599115014076233,0.1780117303133011,72.9843978881836,0.5932791829109192,66.6760025024414,29.23,0
-0.5693438649177551,-0.8821104168891907,0.1478243321180343,64.24850463867188,0.5932708978652954,66.14720916748047,29.23,0
-0.6004786491394043,-0.9411385655403136,0.1172562465071678,54.80537033081055,0.5932655334472656,65.807861328125,29.23,0
-0.6260569095611572,-1.0293993949890137,0.1144327297806739,45.15915298461914,0.5932621359825134,65.590087890625,29.23,0
-0.6480693817138672,-1.0972356796264648,0.1014252081513404,37.25271224975586,0.5932599306106567,65.45033264160156,29.23,0
-0.6510001420974731,-1.0791935920715332,0.0930777341127395,30.92491149902344,0.5932585000991821,65.36064910888672,29.23,0
-0.6360875964164734,-1.0564196109771729,0.0709274783730506,25.008319854736328,0.5932576060295105,65.30309295654297,29.23,0
-0.5817354321479797,-1.0753912925720217,0.0735060423612594,18.9328727722168,0.5932570099830627,65.26615905761719,29.23,0
-0.5468553304672241,-1.0875662565231323,0.063965268433094,13.532901763916016,0.5946338176727295,65.2424545288086,29.23,0
-0.4908846318721771,-1.039401650428772,0.0690381005406379,9.598194122314451,0.5955173373222351,65.22724151611328,29.23,0
-0.4157814383506775,-0.9469168782234192,0.0722935497760772,7.184185028076172,0.5960843563079834,65.21748352050781,29.23,0
-0.3563889861106872,-0.8763698935508728,0.0799804851412773,5.903706073760986,0.5964482426643372,65.21121978759766,29.23,0
-0.3406654298305511,-0.8366947174072266,0.0737179666757583,5.200193405151367,0.5966817736625671,65.20719909667969,29.23,0
-0.3249771893024444,-0.8056356906890869,0.0585034973919391,4.576756000518799,0.5968316197395325,65.20462036132812,29.23,0
-0.3037138283252716,-0.7857037782669067,0.0487397275865078,3.6930220127105713,0.5969277620315552,65.20296478271484,29.23,0
-0.295665979385376,-0.7841081619262695,0.053669448941946,2.5132720470428467,0.5969894528388977,65.201904296875,29.23,0
-0.3072946667671203,-0.7830842137336731,0.0456375107169151,1.3585104942321775,0.5979472994804382,65.20121765136719,29.27,0
-0.348343938589096,-0.8328070640563965,0.0460808500647544,0.6461115479469299,0.5985619425773621,65.2007827758789,29.27,0
-0.3914803266525268,-0.8983029723167419,0.0463653616607189,0.4074720442295074,0.5989564061164856,65.20050048828125,29.27,0
-0.419162780046463,-0.9403344988822936,0.0521457195281982,0.1432671099901199,0.5992095470428467,65.2003173828125,29.27,0
-0.4481233358383178,-1.006492257118225,0.0278663467615842,-0.5493404269218445,0.5993720293045044,65.20020294189453,29.27,0
-0.4723063111305237,-1.0937306880950928,-0.0101058557629585,-1.4846289157867432,0.5994762778282166,65.20012664794922,29.27,0
-0.5158144235610962,-1.11612868309021,-0.0344742275774478,-2.3463714122772217,0.5995431542396545,65.20008087158203,29.27,0
-0.5437354445457458,-1.0577313899993896,-0.0389168970286846,-3.0032825469970703,0.5995860695838928,65.2000503540039,29.27,0
-0.5448602437973022,-1.031450867652893,-0.0361701734364032,-3.1489923000335693,0.6000725626945496,65.20002746582031,29.27,0
-0.5735709071159363,-0.9474123120307922,-0.0400052592158317,-2.554645776748657,0.6003847718238831,65.20001983642578,29.27,0
-0.5975935459136963,-0.8542967438697815,-0.0424663946032524,-1.7970579862594604,0.6005851030349731,65.20001220703125,29.27,0
-0.5794232487678528,-0.7217694520950317,-0.0104591641575098,-1.7479559183120728,0.6007136702537537,65.20000457763672,29.27,0
-0.562164843082428,-0.6255255341529846,0.0268745571374893,-2.425795078277588,0.6007961630821228,65.20000457763672,29.27,0
-0.5902737975120544,-0.6141417026519775,0.0676265135407447,-3.100825786590576,0.6008490920066833,65.20000457763672,29.27,0
-0.6251057982444763,-0.6180317401885986,0.0657899007201194,-3.046791315078736,0.6008830666542053,65.20000457763672,29.27,0
-0.6418612003326416,-0.6205281615257263,0.0758068189024925,-1.847778081893921,0.6009048819541931,65.20000457763672,29.27,0
-0.6694071888923645,-0.6389235258102417,0.093430645763874,0.2902235984802246,0.6009188890457153,65.84486389160156,29.27,0
-0.6926823854446411,-0.6507286429405212,0.0991428345441818,2.321463823318481,0.6009278893470764,66.25869750976562,29.27,0
-0.7244123816490173,-0.6415111422538757,0.1028085872530937,3.1664271354675293,0.6009336709976196,66.52427673339844,29.27,0
-0.7503726482391357,-0.6747803092002869,0.093965508043766,2.787954092025757,0.6009373664855957,66.69470977783203,29.27,0
-0.7950213551521301,-0.7465105056762695,0.0826927497982978,1.8500522375106807,0.6009397506713867,66.80408477783203,29.27,0
-0.8964453935623169,-0.8653138875961304,0.0530674457550048,0.7680956721305847,0.6009412407875061,66.87427520751953,29.27,0
-0.9559357166290284,-0.8911750912666321,0.0452511794865131,-0.2594212889671325,0.6009421944618225,66.91931915283203,29.27,0
-0.9157443642616272,-0.8629891276359558,0.0570284724235534,-1.298575520515442,0.600942850112915,66.94822692871094,29.27,0
-0.8563652038574219,-0.8784876465797424,0.0533909127116203,-3.0187220573425293,0.5963529348373413,66.9667739868164,29.27,0
-0.7958679795265198,-0.8884336948394775,0.0510565377771854,-5.64520788192749,0.593407392501831,66.97867584228516,29.27,0
-0.7066643834114075,-0.8556321263313293,0.066351793706417,-7.724818706512451,0.5915170907974243,66.98631286621094,29.27,0
-0.6214297413825989,-0.81219083070755,0.0817651823163032,-7.490224838256836,0.5903040170669556,66.99121856689453,29.27,0
-0.5443399548530579,-0.773117184638977,0.0860588327050209,-4.996671676635742,0.5895255208015442,66.9943618774414,29.27,0
-0.5060637593269348,-0.75923752784729,0.0720209255814552,-1.7556331157684326,0.5890259146690369,66.99638366699219,29.27,0
-0.4815002679824829,-0.7503303289413452,0.0630122050642967,0.8939082622528076,0.58870530128479,66.9976806640625,29.27,0
-0.465736836194992,-0.7558097839355469,0.0572309307754039,2.436598062515259,0.5884995460510254,66.9985122680664,29.27,0
-0.4556207656860351,-0.7705217003822327,0.0591186136007308,2.892803907394409,0.5888264179229736,66.9990463256836,29.21,0
-0.4883132874965668,-0.8135496377944946,0.0603300221264362,2.411734342575073,0.589036226272583,66.9993896484375,29.21,0
-0.5316845774650574,-0.8523580431938171,0.0611074343323707,1.2861841917037964,0.5891708135604858,66.9996109008789,29.21,0
-0.5651155114173889,-0.8884585499763489,0.0728018805384635,0.1805354207754135,0.5892572402954102,66.99974822998047,29.21,0
-0.5809718370437622,-0.917223572731018,0.0747089311480522,-0.3427124321460724,0.5893126726150513,66.99983978271484,29.21,0
-0.5967452526092529,-0.9636721611022948,0.0703349858522415,-0.3990618884563446,0.5893482565879822,66.9999008178711,29.21,0
-0.6012699604034424,-0.9263069033622742,0.0619302690029144,-0.363572210073471,0.5893710851669312,66.99993896484375,29.21,0
-0.6321625113487244,-0.8855347037315369,0.0789277032017707,-0.1939113885164261,0.5893857479095459,66.99996185302734,29.21,0
-0.6631831526756287,-0.8705649971961975,0.0786401256918907,0.0833482071757316,0.5893951654434204,66.9999771118164,29.21,0
-0.6998836994171143,-0.8329694271087646,0.0504667051136493,-0.2223702371120453,0.5894011855125427,66.99998474121094,29.21,0
-0.7178382277488708,-0.7864516973495483,0.0267888531088829,-1.729785442352295,0.5894050598144531,66.99999237060547,29.21,0
-0.6957737803459167,-0.7286103963851929,0.0227893181145191,-4.638913631439209,0.5894075632095337,66.99999237060547,29.21,0
-0.6872118711471558,-0.6858934164047241,0.0202226471155881,-9.715811729431152,0.5894091725349426,66.99999237060547,29.21,0
-0.6985106468200684,-0.6528823375701904,0.0129777304828166,-17.06159210205078,0.5894101858139038,66.99999237060547,29.21,0
-0.694566011428833,-0.6428932547569275,-0.0028671883046627,-24.14019012451172,0.5894108414649963,66.99999237060547,29.21,0
-0.6920345425605774,-0.636482834815979,-0.0186333190649747,-28.088119506835938,0.5894112586975098,66.99999237060547,29.21,0
-0.7183988690376282,-0.6435645818710327,-0.0455444380640983,-28.730073928833008,0.5889526009559631,67.46215057373047,29.21,0
-0.7241224646568298,-0.6816958785057068,-0.0740099921822547,-26.591249465942383,0.5886582732200623,67.75873565673828,29.21,0
-0.7333933115005493,-0.739753007888794,-0.0922775492072105,-21.012731552124023,0.588469386100769,67.94906616210938,29.21,0
-0.7449405789375305,-0.832988440990448,-0.1151961609721183,-12.68226432800293,0.5883481502532959,68.07120513916016,29.21,0
-0.7299598455429077,-0.90961492061615,-0.1355017870664596,-5.003993511199951,0.588270366191864,68.14958953857422,29.21,0
-0.6755638718605042,-0.9643871784210204,-0.1429349929094314,-0.9040963053703308,0.5882204174995422,68.19989013671875,29.21,0
-0.6630467772483826,-0.9939390420913696,-0.1644985228776931,0.0073454077355563,0.5881884098052979,68.23217010498047,29.21,0
-0.6774051189422607,-0.9681215286254884,-0.1895322948694229,0.1551820337772369,0.5881678462028503,68.25289154052734,29.21,0
-0.7146083116531372,-0.9459555745124816,-0.2111953049898147,1.0597171783447266,0.5886135697364807,68.26618957519531,29.21,0
-0.7272876501083374,-0.9485240578651428,-0.2139018326997757,2.628986597061157,0.5888996124267578,68.27471923828125,29.21,0
-0.7186312079429626,-0.9277812838554382,-0.1988454014062881,3.9978935718536377,0.589083194732666,68.28019714355469,29.21,0
-0.645902693271637,-0.869687557220459,-0.1499986350536346,3.934161901473999,0.5892009735107422,68.28370666503906,29.21,0
-0.5768386125564575,-0.8156130313873291,-0.1074560359120369,2.4494845867156982,0.5892765522003174,68.28596496582031,29.21,0
-0.4989306330680847,-0.7641177773475647,-0.0857524201273918,2.209636688232422,0.5893250703811646,68.28741455078125,29.21,0
-0.443336009979248,-0.7310711145401001,-0.0718242898583412,5.401841640472412,0.5893561840057373,68.28833770751953,29.21,0
-0.4244518876075744,-0.7042658925056458,-0.0516904704272747,10.180337905883787,0.5893761515617371,68.28893280029297,29.21,0
-0.41793093085289,-0.731846034526825,-0.0499652922153472,13.157337188720703,0.588930070400238,68.28931427001953,29.17,0
-0.4193439185619354,-0.7719364762306213,-0.0544559471309185,13.40907096862793,0.5886437892913818,68.28955841064453,29.17,0
-0.4314462542533874,-0.8424463868141174,-0.0405444651842117,11.865313529968262,0.5884600877761841,68.28971862792969,29.17,0
-0.4336150586605072,-0.9100866913795472,-0.0148235550150275,9.35202407836914,0.5883421897888184,68.2898178100586,29.17,0
-0.4182135462760925,-0.9926787614822388,0.0072804191149771,6.779009819030762,0.5882665514945984,68.28988647460938,29.17,0
-0.3859386444091797,-1.0512794256210327,0.0158677026629447,4.873434543609619,0.5882179737091064,68.28992462158203,29.17,0
-0.3540309071540832,-1.0385059118270874,0.0213785264641046,3.10241174697876,0.5881868004798889,68.28995513916016,29.17,0
-0.3671410083770752,-1.041504144668579,0.0585017018020153,0.6152403354644775,0.5881668329238892,68.28997039794922,29.17,0
-0.3923476636409759,-1.0490260124206543,0.0767274424433708,-1.743971824645996,0.5886129140853882,68.28997802734375,29.17,0
-0.4421104788780212,-1.0090709924697876,0.0716303512454032,-2.007659435272217,0.5888991951942444,68.28998565673828,29.17,0
-0.4348609745502472,-0.9554412961006165,0.0571637861430645,0.219864085316658,0.5890828967094421,68.28999328613281,29.17,0
-0.419013112783432,-0.8986337184906006,0.0422822013497352,2.7277157306671143,0.5892007946968079,68.28999328613281,29.17,0
-0.4480272829532623,-0.8621779084205627,0.1055031269788742,3.090374231338501,0.5892764329910278,68.28999328613281,29.17,0
-0.4890379905700683,-0.8443804383277893,0.1460746824741363,1.886494755744934,0.5893250107765198,68.28999328613281,29.17,0
-0.5657362937927246,-0.8385568261146545,0.1441222876310348,2.475292921066284,0.5893561840057373,68.28999328613281,29.17,0
-0.6205546259880066,-0.857210636138916,0.1484671384096145,6.77965259552002,0.5893761515617371,68.28999328613281,29.17,0
-0.6221472024917603,-0.8859748840332031,0.1512554138898849,12.884486198425291,0.5903071761131287,68.58734893798828,29.17,0
-0.589582622051239,-0.9380207657814026,0.1642403155565261,17.633373260498047,0.5909046530723572,68.7781753540039,29.17,0
-0.6022711396217346,-1.00500750541687,0.1501821726560592,19.70289421081543,0.5912880897521973,68.900634765625,29.17,0
-0.7335649728775024,-1.0815824270248413,-0.0435660928487777,19.461824417114254,0.5915341973304749,68.9792251586914,29.17,0
-0.7730395793914795,-1.3602324724197388,-0.2518691718578338,17.515832901000977,0.5916920900344849,69.0296630859375,29.17,0
-0.6920143961906433,-1.5782384872436523,-0.3855461180210113,14.160451889038086,0.591793417930603,69.06202697753906,29.17,0
-0.522463858127594,-1.4942312240600586,-0.3425834774971008,9.692818641662598,0.591858446598053,69.08279418945312,29.17,0
-0.3744716644287109,-1.3339624404907229,-0.275828093290329,5.020130634307861,0.5919001698493958,69.09612274169922,29.17,0
-0.4362364709377289,-1.0687757730484009,-0.283368319272995,1.376604437828064,0.5891726613044739,69.10467529296875,29.17,0
-0.5430468320846558,-0.8873986601829529,-0.2714138627052307,-0.8147153258323669,0.5874223113059998,69.11016845703125,29.17,0
-0.5556138753890991,-0.7486101388931274,-0.2581444084644317,-2.02393651008606,0.5862990617752075,69.11369323730469,29.17,0
-0.5077009201049805,-0.6371525526046753,-0.1992488652467727,-3.018482208251953,0.585578203201294,69.11595153808594,29.17,0
-0.4713553488254547,-0.5712233185768127,-0.1166709065437316,-4.78165340423584,0.5851156115531921,69.11740112304688,29.17,0
-0.4312375485897064,-0.5401092767715454,-0.0748726725578308,-7.854910850524902,0.5848187804222107,69.11833190917969,29.17,0
-0.4726655483245849,-0.5481309294700623,-0.1208200380206108,-10.995070457458496,0.5846282839775085,69.11892700195312,29.17,0
-0.5104472041130066,-0.5924631953239441,-0.1615019589662552,-11.835159301757812,0.5845060348510742,69.11931610107422,29.17,0
-0.4899110794067383,-0.7104774713516235,-0.1596204042434692,-9.597784042358398,0.5848864912986755,69.11956024169922,29.17,0
-0.4487433135509491,-0.8197988867759705,-0.1304240524768829,-6.026750087738037,0.5851306319236755,69.11972045898438,29.17,0
-0.4167264401912689,-0.9459328055381776,-0.0781008750200271,-3.1403584480285645,0.58528733253479,69.11981964111328,29.17,0
-0.4073753952980041,-1.054867148399353,-0.0669139698147773,-1.4134286642074585,0.5853878855705261,69.11988830566406,29.17,0
-0.3957766592502594,-1.1583616733551023,-0.0653326287865638,-0.5810427665710449,0.5854524374008179,69.11992645263672,29.17,0
-0.3827354907989502,-1.163202881813049,-0.0475244931876659,-0.759797990322113,0.5854938626289368,69.11995697021484,29.17,0
-0.3687686324119568,-1.1159297227859497,-0.0304984841495752,-2.0066065788269043,0.5855204463005066,69.1199722290039,29.17,0
-0.3877943754196167,-1.0967881679534912,-0.0083766235038638,-3.6056509017944336,0.5855374932289124,69.11997985839844,29.17,0
-0.4279928803443908,-1.0285264253616333,0.0170154627412557,-4.259237766265869,0.5850895047187805,69.11998748779297,29.17,0
-0.4537899792194366,-0.9567310810089112,0.0277128685265779,-2.9232101440429688,0.584801971912384,69.1199951171875,29.17,0
-0.4199650883674621,-0.8882659077644348,0.0457733981311321,-0.1706419289112091,0.5846174955368042,69.1199951171875,29.17,0
-0.3758671283721924,-0.8555244207382202,0.0685591548681259,1.3271046876907349,0.5844990611076355,69.1199951171875,29.17,0
-0.3475675880908966,-0.8457083702087402,0.1167683899402618,-0.5419626235961914,0.5844230651855469,69.1199951171875,29.17,0
-0.3573954701423645,-0.8673978447914124,0.1644996255636215,-3.697508811950684,0.5843743085861206,69.1199951171875,29.17,0
-0.3748979866504669,-0.8869146704673767,0.1895330101251602,-3.311483144760132,0.5843430161476135,69.1199951171875,29.17,0
-0.4253145158290863,-0.9442216753959656,0.1832069009542465,2.525063753128052,0.5843229293823242,69.1199951171875,29.17,0
-0.4464733898639679,-0.9698024392127992,0.1791471689939499,10.673608779907228,0.5843100547790527,69.3564453125,29.17,0
-0.4096719622611999,-0.9806209206581116,0.1765418648719787,16.38294219970703,0.584301769733429,69.50818634033203,29.17,0
-0.3636638224124908,-1.0043569803237915,0.1636743694543838,17.66086769104004,0.584296464920044,69.6055679321289,29.17,0
-0.3621273338794708,-1.0251871347427368,0.133025661110878,16.499801635742188,0.5842930674552917,69.66806030273438,29.17,0
-0.4115212559700012,-1.0385547876358032,0.0629771128296852,16.23476219177246,0.5842908620834351,69.70816040039062,29.17,0
-0.4544149935245514,-1.052731156349182,0.001230667810887,17.827302932739258,0.5842894911766052,69.73389434814453,29.17,0
-0.5323216915130615,-1.0618287324905396,-0.0271990988403558,19.264881134033203,0.5842885971069336,69.75041198730469,29.17,0
-0.599111020565033,-0.9725048542022704,-0.073432557284832,18.19552421569824,0.5842880010604858,69.7610092163086,29.17,0
-0.6419726014137268,-0.9711596369743348,-0.1198958531022071,13.801307678222656,0.5856648087501526,69.76781463623047,29.17,0
-0.6526853442192078,-0.9982852339744568,-0.1273222267627716,6.872137546539307,0.5865483283996582,69.77217864990234,29.17,0
-0.6203757524490356,-0.9988995790481568,-0.115294724702835,0.0752258375287056,0.5871153473854065,69.77497863769531,29.17,0
-0.5156747102737427,-0.9433160424232484,-0.090782843530178,-3.6847681999206543,0.5874792337417603,69.77677917480469,29.17,0
-0.4204947352409363,-0.9020479917526244,-0.0806502997875213,-5.255810737609863,0.5877127647399902,69.7779312133789,29.17,0
-0.3706092536449432,-0.8867600560188293,-0.0853433683514595,-8.829139709472656,0.5878626108169556,69.77867126464844,29.17,0
-0.3441933989524841,-0.8601558208465576,-0.1107462048530578,-15.328239440917969,0.5879587531089783,69.77914428710938,29.17,0
-0.3272412121295929,-0.8430827856063843,-0.1214505061507225,-19.520483016967773,0.5880204439163208,69.77944946289062,29.17,0
-0.3163622915744781,-0.8769084811210632,-0.1283199191093444,-17.148645401000977,0.5880600810050964,69.77964782714844,29.11,0
-0.3205763697624206,-0.9098113775253296,-0.1215327605605125,-11.259376525878906,0.5880854725837708,69.77976989746094,29.11,0
-0.3288784921169281,-0.9645132422447203,-0.1059816032648086,-7.153968334197998,0.5881018042564392,69.77985382080078,29.11,0
-0.3174130022525787,-1.044399976730347,-0.1071973145008087,-5.382754325866699,0.5881122946739197,69.7799072265625,29.11,0
-0.287663996219635,-1.106862187385559,-0.0967819392681121,-4.582853317260742,0.5881189703941345,69.77993774414062,29.11,0
-0.2685728073120117,-1.152544617652893,-0.0509135276079177,-6.4304399490356445,0.5881232619285583,69.77996063232422,29.11,0
-0.2507234215736389,-1.097894310951233,0.0065110493451356,-11.986857414245604,0.5881260633468628,69.77997589111328,29.11,0
-0.2616598010063171,-1.0348340272903442,0.0545583851635456,-17.454994201660156,0.588127851486206,69.77998352050781,29.11,0
-0.2686781287193298,-1.0167566537857056,0.0909901782870292,-18.64262008666992,0.5867518186569214,69.77999114990234,29.11,0
-0.2731820940971374,-0.99396014213562,0.1311633288860321,-16.151790618896484,0.585868775844574,69.77999114990234,29.11,0
-0.2816702425479889,-0.9289506673812866,0.1737374663352966,-13.335245132446287,0.5853021144866943,69.77999114990234,29.11,0
-0.2647263705730438,-0.8256558179855347,0.1954613178968429,-11.803606033325195,0.5849384665489197,69.77999114990234,29.11,0
-0.2594505250453949,-0.7593671083450317,0.2038046717643737,-10.458847999572754,0.5847050547599792,69.77999114990234,29.11,0
-0.2840536832809448,-0.7616090178489685,0.2203544974327087,-7.353167533874512,0.5845552682876587,69.77999114990234,29.11,0
-0.3166358768939972,-0.7798411250114441,0.2253774553537368,-1.1219336986541748,0.584459125995636,69.77999114990234,29.11,0
-0.3823274672031402,-0.8251280784606934,0.2062097936868667,8.58037281036377,0.5843974351882935,69.77999114990234,29.11,0
-0.4300823211669922,-0.8485928177833557,0.1771157681941986,19.71488380432129,0.5898664593696594,69.89463806152344,29.11,0
-0.4719241857528686,-0.8636511564254761,0.1528471261262893,27.6198787689209,0.5933761596679688,69.96820831298828,29.11,0
-0.4595914483070373,-0.912499189376831,0.1708595603704452,29.257158279418945,0.5956284999847412,70.01542663574219,29.11,0
-0.462872564792633,-0.9662381410598756,0.1656255722045898,27.108631134033203,0.5970739126205444,70.04572296142578,29.11,0
-0.4257937669754028,-0.9839313626289368,0.145473375916481,25.908958435058597,0.5980014801025391,70.06517028808594,29.11,0
-0.4411831498146057,-1.084850192070007,0.1493341773748397,26.844383239746094,0.5985967516899109,70.07764434814453,29.11,0
-0.4734502732753753,-1.177603006362915,0.157409593462944,27.695465087890625,0.5989787578582764,70.08565521240234,29.11,0
-0.4829619228839874,-1.1699531078338623,0.1122119650244712,26.805028915405277,0.5992239117622375,70.0907974243164,29.11,0
-0.4834681749343872,-1.1986305713653564,0.0832067281007766,24.29542350769043,0.6002994179725647,70.0940933227539,29.11,0
-0.4446086287498474,-1.2114362716674805,0.0813861638307571,20.821964263916016,0.6009896397590637,70.09620666503906,29.11,0
-0.3748886287212372,-1.1300898790359497,0.0914133787155151,16.912670135498047,0.6014325618743896,70.09756469726562,29.11,0
-0.3133530020713806,-1.04989755153656,0.0922504886984825,13.110600471496582,0.6017168164253235,70.09843444824219,29.11,0
-0.2794607579708099,-0.9872391819953918,0.0759943798184394,10.498687744140623,0.601899266242981,70.09899139404297,29.11,0
-0.2689062058925628,-0.9414308667182922,0.0599643662571907,10.610218048095703,0.6020163297653198,70.09934997558594,29.11,0
-0.2789262235164642,-0.8952404260635376,0.0272861290723085,13.626668930053713,0.6020914316177368,70.09957885742188,29.11,0
-0.2853565216064453,-0.8320114016532898,0.0007173444610089,17.428974151611328,0.6021396517753601,70.0997314453125,29.11,0
-0.2782875597476959,-0.7858368754386902,-0.0107351988554,19.661285400390625,0.6030884385108948,70.0998306274414,29.11,0
-0.2569577693939209,-0.772998034954071,-0.0068892328999936,19.57484245300293,0.6036972999572754,70.09989166259766,29.11,0
-0.254465103149414,-0.7871499061584473,-0.0044211130589246,17.351911544799805,0.6040880680084229,70.09992980957031,29.11,0
-0.2640610039234161,-0.818622887134552,-0.0140327643603086,13.299333572387695,0.6043388247489929,70.0999526977539,29.11,0
-0.270219087600708,-0.872407078742981,-0.0257987435907125,7.9973602294921875,0.6044997572898865,70.09996795654297,29.11,0
-0.2741709947586059,-0.9237160086631776,-0.0501427948474884,2.1658732891082764,0.6046030521392822,70.0999755859375,29.11,0
-0.2879026532173157,-1.1021852493286133,-0.099352054297924,-4.198884963989258,0.6046693325042725,70.09998321533203,29.11,0
-0.3191059231758117,-1.2838897705078125,-0.1141384020447731,-11.790761947631836,0.6047118306159973,70.09999084472656,29.11,0
-0.3559237122535705,-1.1989774703979492,-0.0956385508179664,-20.306272506713867,0.6061162948608398,70.09999084472656,29.11,0
-0.3459646105766296,-1.1556811332702637,-0.0725708678364753,-28.11045837402344,0.6070175766944885,70.09999084472656,29.11,0
-0.3507689833641052,-1.0943094491958618,-0.0689629018306732,-34.766719818115234,0.6075959801673889,70.09999084472656,29.11,0
-0.3762432634830475,-1.0045446157455444,-0.0834408402442932,-41.53538131713867,0.6079671382904053,70.09999084472656,29.11,0
-0.3813956379890442,-0.9189498424530028,-0.0983297228813171,-47.64891052246094,0.6082053184509277,70.09999084472656,29.11,0
-0.379104346036911,-0.8360311985015869,-0.0854934528470039,-49.16114807128906,0.6083582043647766,70.09999084472656,29.11,0
-0.4056228101253509,-0.7996121048927307,-0.0772558748722076,-43.66148376464844,0.6084563136100769,70.09999084472656,29.11,0
-0.4338363707065582,-0.7874359488487244,-0.0719694718718528,-33.35029983520508,0.6085192561149597,70.09999084472656,29.11,0
-0.4631377756595611,-0.7908175587654114,-0.0685769617557525,-21.7856388092041,0.6085596680641174,70.12865447998047,29.11,0
-0.476343959569931,-0.7985854744911194,-0.0496065206825733,-10.294299125671388,0.6085855960845947,70.14704895019531,29.11,0
-0.4904166758060455,-0.8203637599945068,-0.0150412879884243,0.7236611247062683,0.6086022257804871,70.15885162353516,29.11,0
-0.499447762966156,-0.8679264783859253,0.0183362402021884,9.768352508544922,0.6086128950119019,70.16642761230469,29.11,0
-0.5052433609962463,-0.9096450209617616,0.0341582410037517,15.798418045043944,0.608619749546051,70.1712875366211,29.11,0
-0.5257560014724731,-1.0315797328948977,0.0778985321521759,19.49620246887207,0.6086241602897644,70.17440795898438,29.11,0
-0.561310887336731,-1.1098304986953735,0.1283596307039261,21.53246688842773,0.6086269617080688,70.1764144897461,29.11,0
-0.5617368817329407,-1.1376562118530271,0.1551448851823806,21.836101531982425,0.6086287498474121,70.17769622802734,29.11,0
-0.4892392158508301,-1.233881950378418,0.1275519281625747,20.93110656738281,0.6086299419403076,70.17852020263672,29.11,0
-0.4091277420520782,-1.295634150505066,0.1154421344399452,19.562166213989254,0.6086307168006897,70.1790542602539,29.11,0
-0.3409234881401062,-1.2233076095581057,0.135659635066986,17.322280883789062,0.6086311936378479,70.17938995361328,29.11,0
-0.2971539199352264,-1.143306016921997,0.1430362910032272,14.16163158416748,0.6086314916610718,70.17961120605469,29.11,0
-0.2858584523200989,-1.0695744752883911,0.1309768855571746,12.190629959106444,0.6086316704750061,70.17974853515625,29.11,0
-0.3010007739067077,-1.0278555154800415,0.1120423004031181,12.985735893249512,0.6086317896842957,70.17984008789062,29.11,0
-0.3107182383537292,-0.9842894077301024,0.0942933931946754,14.502693176269531,0.6086318492889404,70.17990112304688,29.11,0
-0.2833676934242248,-0.9227445721626282,0.0773053988814354,14.014497756958008,0.6086319088935852,70.17993927001953,29.11,0
-0.249022364616394,-0.8664553165435791,0.0720012560486793,12.407892227172852,0.6100090742111206,70.17996215820312,29.13,0
-0.2157859653234481,-0.8135387897491455,0.0797929093241691,12.09338092803955,0.6108928918838501,70.17997741699219,29.13,0
-0.2168478518724441,-0.7907755374908447,0.067999817430973,12.654634475708008,0.6114600300788879,70.17998504638672,29.13,0
-0.2175293117761612,-0.7985584735870361,0.0492361448705196,11.986615180969238,0.6118240356445312,70.17999267578125,29.13,0
-0.223564401268959,-0.8315420150756836,0.0204013735055923,9.931429862976074,0.612057626247406,70.17999267578125,29.13,0
-0.2274373769760131,-0.8527089357376099,-0.0037008959334343,7.913927555084228,0.6122075319290161,70.17999267578125,29.13,0
-0.2187272906303405,-0.9726503491401672,-0.0471572168171405,6.038833141326904,0.6123037338256836,70.17999267578125,29.13,0
-0.2747131586074829,-1.1167951822280884,-0.0918383076786995,2.951070785522461,0.6123654246330261,70.17999267578125,29.13,0
-0.3218372166156769,-1.1253323554992676,-0.1149142831563949,-1.5920186042785645,0.6137821674346924,70.17999267578125,29.13,0
-0.3352854251861572,-1.1643977165222168,-0.1017342433333396,-5.919046878814697,0.6146913766860962,70.17999267578125,29.13,0
-0.3271223604679107,-1.1838698387145996,-0.0820805057883262,-8.652894020080566,0.6152748465538025,70.17999267578125,29.13,0
-0.3386771082878113,-1.09000825881958,-0.0694678649306297,-10.579282760620115,0.6156492829322815,70.17999267578125,29.13,0
-0.3516900539398193,-0.9570021629333496,-0.078167125582695,-14.670841217041016,0.6158895492553711,70.17999267578125,29.13,0
-0.3488454818725586,-0.8492554426193237,-0.0781520307064056,-24.067636489868164,0.616043746471405,70.17999267578125,29.13,0
-0.3806066215038299,-0.8080986738204956,-0.0613490231335163,-37.10905838012695,0.616142749786377,70.17999267578125,29.13,0
-0.4065868854522705,-0.7928821444511414,-0.0505658201873302,-45.682498931884766,0.6162062287330627,70.17999267578125,29.13,0
-0.4400528371334076,-0.8111059665679932,-0.0492435544729232,-43.2705307006836,0.6157880425453186,70.32329559326172,29.13,0
-0.4615293741226196,-0.8339964747428894,-0.0316016785800457,-32.92744445800781,0.6155197024345398,70.4152603149414,29.13,0
-0.480909526348114,-0.8598818182945251,-0.014682363718748,-22.97954750061035,0.6153475046157837,70.47428131103516,29.13,0
-0.4989443719387054,-0.8932868838310242,0.0017732529668137,-17.8100528717041,0.6152369976043701,70.51215362548828,29.13,0
-0.5105181336402893,-0.9203221201896667,0.0235290694981813,-16.556133270263672,0.6151660680770874,70.53646087646484,29.13,0
-0.5123476982116699,-0.9712584018707277,0.0542840249836444,-17.06624412536621,0.615120530128479,70.55206298828125,29.13,0
-0.5191196203231812,-1.0599241256713867,0.1132052019238472,-17.515411376953125,0.6150913238525391,70.56207275390625,29.13,0
-0.5234653949737549,-1.1336179971694946,0.1678107529878616,-16.230911254882812,0.6150725483894348,70.56849670410156,29.13,0
-0.4702765345573425,-1.2256927490234375,0.1692668050527572,-12.562026977539062,0.6146016120910645,70.57261657714844,29.13,0
-0.385763019323349,-1.284780979156494,0.1534078866243362,-7.774979591369629,0.6142994165420532,70.57526397705078,29.13,0
-0.3259293437004089,-1.2835159301757812,0.1600238680839538,-3.620990514755249,0.6141054630279541,70.57695770263672,29.13,0
-0.2875315248966217,-1.1931397914886477,0.1642696261405944,0.3667711615562439,0.6139810085296631,70.57804870605469,29.13,0
-0.2628900110721588,-1.1127504110336304,0.1557987630367279,7.203482151031494,0.6139011383056641,70.57875061035156,29.13,0
-0.2638698518276214,-1.0499656200408936,0.1447648704051971,18.45510482788086,0.6138498783111572,70.5792007446289,29.13,0
-0.2644986510276794,-1.0040762424468994,0.1320861876010894,30.143220901489254,0.6138169765472412,70.5794906616211,29.13,0
-0.2537066340446472,-0.9354426264762878,0.1071564108133316,35.881351470947266,0.6137958765029907,70.57967376708984,29.13,0
-0.218792051076889,-0.8466153144836426,0.085560142993927,35.013885498046875,0.6137823462486267,70.57978820800781,29.11,0
-0.1907881200313568,-0.7784155011177063,0.0717009007930755,33.12447738647461,0.6137736439704895,70.57986450195312,29.11,0
-0.1840123534202575,-0.7402465343475342,0.0628068372607231,33.663841247558594,0.6137680411338806,70.57991027832031,29.11,0
-0.1964573711156845,-0.7437407970428467,0.0515013635158538,34.57602310180664,0.6137644648551941,70.57994079589844,29.11,0
-0.2156394273042678,-0.7795698642730713,0.0106595130637288,33.64597702026367,0.6137621402740479,70.57996368408203,29.11,0
-0.2447426915168762,-0.8249539732933044,-0.0323437601327896,31.08587646484375,0.6137606501579285,70.5799789428711,29.11,0
-0.2634194791316986,-0.9044588804244996,-0.0711363330483436,26.627046585083008,0.6137596964836121,70.57998657226562,29.11,0
-0.3145895898342132,-1.1514025926589966,-0.1240200474858284,19.165599822998047,0.6137591004371643,70.57999420166016,29.11,0
-0.386612057685852,-1.248301386833191,-0.1411644518375396,9.64469051361084,0.6160537004470825,70.57999420166016,29.11,0
-0.3992452621459961,-1.1425522565841677,-0.1129823178052902,0.654327929019928,0.6175262331962585,70.57999420166016,29.11,0
-0.3401792347431183,-1.147459626197815,-0.0781033188104629,-7.003186225891113,0.6184712052345276,70.57999420166016,29.11,0
-0.3470562696456909,-1.1226199865341189,-0.0725133121013641,-14.930283546447754,0.6190776824951172,70.57999420166016,29.11,0
-0.3906539678573608,-1.0395060777664185,-0.0857192873954773,-25.104698181152344,0.6194668412208557,70.57999420166016,29.11,0
-0.4130346775054931,-0.9357883334159852,-0.0885963514447212,-38.630821228027344,0.6197165846824646,70.57999420166016,29.11,0
-0.4329951107501983,-0.835641622543335,-0.0512582659721374,-53.81348419189453,0.6198768615722656,70.57999420166016,29.11,0
-0.451402336359024,-0.7881665229797363,-0.0049057323485612,-64.6996841430664,0.619979739189148,70.57999420166016,29.11,0
-0.4632150530815124,-0.7632975578308105,0.0136451059952378,-65.19061279296875,0.6177507638931274,70.67672729492188,29.11,0
-0.4875890910625458,-0.7753269076347351,0.0367455147206783,-55.25232696533203,0.6163203120231628,70.73880004882812,29.11,0
-0.5032309293746948,-0.7942422032356262,0.0683633536100387,-40.35514450073242,0.615402340888977,70.77864074707031,29.11,0
-0.5356600880622864,-0.8231742978096008,0.0998494103550911,-25.804462432861328,0.6148132681846619,70.80420684814453,29.11,0
-0.5508734583854675,-0.8921211957931519,0.1424464434385299,-13.858556747436523,0.6144351959228516,70.82061004638672,29.11,0
-0.5494409799575806,-0.9531607031822203,0.1585872173309326,-4.895469665527344,0.6141926050186157,70.83113861083984,29.11,0
-0.570912778377533,-1.0707011222839355,0.1577498912811279,1.0069918632507324,0.6140369176864624,70.83789825439453,29.11,0
-0.6126810312271118,-1.1517295837402344,0.1628103256225586,4.293291568756104,0.6139370203018188,70.84223175048828,29.11,0
-0.6338877081871033,-1.1477513313293457,0.1716555953025818,6.653029918670654,0.6143317818641663,70.84501647949219,29.11,0
-0.6027147769927979,-1.128404974937439,0.1605386435985565,9.571743965148926,0.6145851612091064,70.8468017578125,29.11,0
-0.5715141892433167,-1.1327829360961914,0.1422088742256164,12.76319408416748,0.6147477626800537,70.84794616699219,29.11,0
-0.5179048180580139,-1.118799090385437,0.1192503422498703,15.760664939880373,0.6148520708084106,70.84867858886719,29.11,0
-0.4499147534370422,-1.081836223602295,0.1213102042675018,19.94487571716309,0.6149190068244934,70.84915161132812,29.11,0
-0.4006848931312561,-0.9965400099754332,0.0946432277560234,26.972143173217773,0.6149619817733765,70.84945678710938,29.11,0
-0.3634942173957824,-0.9306063055992126,0.0551388002932071,35.265037536621094,0.6149895787239075,70.84964752197266,29.11,0
-0.3452251553535461,-0.8882938027381897,0.0241893604397773,40.106876373291016,0.6150072813034058,70.84976959228516,29.11,0
-0.3390989005565643,-0.849944531917572,-0.0068677584640681,39.07621383666992,0.6145597100257874,70.849853515625,29.13,0
-0.3407651782035827,-0.8197364211082458,-0.0267984289675951,35.55231475830078,0.6142724752426147,70.84990692138672,29.13,0
-0.3250412046909332,-0.8059483766555786,-0.0395887866616249,34.20085525512695,0.6140881776809692,70.84993743896484,29.13,0
-0.3373415470123291,-0.830686628818512,-0.0310035794973373,35.31473159790039,0.6139699220657349,70.84996032714844,29.13,0
-0.3620285093784332,-0.8577578067779541,-0.0254940874874591,36.33049011230469,0.613893985748291,70.8499755859375,29.13,0
-0.3778711855411529,-0.8751304745674133,-0.0275561865419149,35.8681640625,0.6138452887535095,70.84998321533203,29.13,0
-0.3824403285980224,-0.886279284954071,-0.0232817493379116,33.418338775634766,0.6138140559196472,70.84999084472656,29.13,0
-0.3853725492954254,-0.9718027710914612,-0.0149408867582678,27.919679641723636,0.6137939691543579,70.84999084472656,29.13,0
-0.3872542679309845,-1.009893536567688,0.007205122616142,19.282203674316406,0.6133217811584473,70.84999084472656,29.13,0
-0.3940596282482147,-0.9559691548347472,0.0214171558618545,9.55472183227539,0.6130187511444092,70.84999084472656,29.13,0
-0.4152202308177948,-0.954950213432312,0.0473309457302093,0.5500177145004272,0.6128243207931519,70.84999084472656,29.13,0
-0.4455932378768921,-0.9710896611213684,0.063960924744606,-8.37060260772705,0.6126995086669922,70.84999084472656,29.13,0
-0.4706826508045196,-0.9254692792892456,0.0690353140234947,-18.96048164367676,0.6126194596290588,70.84999084472656,29.13,0
-0.4531969428062439,-0.8514105081558228,0.0778895393013954,-32.344810485839844,0.6125680804252625,70.84999084472656,29.13,0
-0.4307800829410553,-0.8150794506072998,0.0947672203183174,-47.447227478027344,0.6125350594520569,70.84999084472656,29.13,0
-0.4499808549880981,-0.819753110408783,0.1167938932776451,-58.432395935058594,0.6125138998031616,70.84999084472656,29.13,0
-0.4790961444377899,-0.8227524161338806,0.1253315657377243,-58.00162887573242,0.6125003099441528,71.00762939453125,29.13,0
-0.5257695317268372,-0.8190793991088867,0.1196150034666061,-46.85565185546875,0.6124916076660156,71.1087875366211,29.13,0
-0.5725151300430298,-0.8055267333984375,0.0991531237959861,-34.103240966796875,0.6124860048294067,71.1737060546875,29.13,0
-0.6025137901306152,-0.7968294024467468,0.0748263150453567,-25.61495780944824,0.6124824285507202,71.21537017822266,29.13,0
-0.6329607367515564,-0.8136390447616577,0.0424214489758014,-18.953174591064453,0.612480103969574,71.24210357666016,29.13,0
-0.6469020843505859,-0.8412198424339294,0.0216258689761161,-11.048874855041504,0.6124786138534546,71.25926208496094,29.13,0
-0.672642171382904,-0.9037017822265624,-0.0588928312063217,-3.3324098587036133,0.6124776601791382,71.27027130126953,29.13,0
-0.6779651045799255,-1.016570210456848,-0.1273584216833114,2.217863082885742,0.6124770641326904,71.27733612060547,29.13,0
-0.6645877361297607,-1.0890026092529297,-0.1768934726715088,6.360085964202881,0.6129359602928162,71.28187561035156,29.13,0
-0.661600649356842,-1.0851056575775146,-0.2198777645826339,10.293723106384276,0.6132304668426514,71.2847900390625,29.13,0
-0.6428903937339783,-0.9930403828620912,-0.2474626004695892,13.742409706115724,0.6134194731712341,71.28665924072266,29.13,0
-0.6084921360015869,-0.978740394115448,-0.2763605117797851,16.446392059326172,0.613540768623352,71.28785705566406,29.13,0
-0.5976128578186035,-0.9919545650482178,-0.2837099730968475,18.79068946838379,0.6136186122894287,71.28862762451172,29.13,0
-0.5682401061058044,-1.000434637069702,-0.2604375779628753,21.02238655090332,0.6136685609817505,71.28911590576172,29.13,0
-0.504608154296875,-0.9610944986343384,-0.2175138145685196,23.737123489379883,0.6137006282806396,71.28943634033203,29.13,0
-0.4413817226886749,-0.9246526956558228,-0.1787722706794738,27.546430587768555,0.6137211918830872,71.28964233398438,29.13,0
-0.3784155547618866,-0.8788753747940063,-0.1595079451799392,31.23059844970703,0.6128161549568176,71.2897720336914,29.13,0
-0.3324097096920013,-0.8439003229141235,-0.1471452116966247,32.401885986328125,0.6122353672981262,71.28985595703125,29.13,0
-0.3140813708305359,-0.8158575892448425,-0.1336137503385543,30.079700469970703,0.6118626594543457,71.28990936279297,29.13,0
-0.3135148286819458,-0.8482413291931152,-0.1361255794763565,25.01404571533203,0.6116234660148621,71.2899398803711,29.13,0
-0.3187490403652191,-0.89141446352005,-0.1377375274896621,18.391996383666992,0.6114699840545654,71.28996276855469,29.13,0
-0.3444991409778595,-0.9359138011932372,-0.1163808852434158,11.32285976409912,0.6113714575767517,71.28997802734375,29.13,0
-0.3554263114929199,-0.96447092294693,-0.0802843272686004,4.346560955047607,0.6113082766532898,71.28998565673828,29.13,0
-0.3624387383460998,-0.9604061841964722,-0.051521860063076,-3.1397898197174072,0.6112676858901978,71.28999328613281,29.13,0
-0.3389500379562378,-1.0697531700134275,-0.0610526353120803,-12.092720985412598,0.6112416386604309,71.28999328613281,29.13,0
-0.3070830106735229,-1.1399257183074951,-0.0559733919799327,-22.126541137695312,0.6112249493598938,71.28999328613281,29.13,0
-0.2810348272323608,-1.005829691886902,-0.0023338531609624,-30.897926330566406,0.6112142205238342,71.28999328613281,29.13,0
-0.3314918875694275,-0.9589589834213256,0.0376866869628429,-35.77455520629883,0.6112073659896851,71.28999328613281,29.13,0
-0.3918612003326416,-0.9064889550209044,0.0521740168333053,-35.91980743408203,0.6112029552459717,71.28999328613281,29.13,0
-0.4697871506214142,-0.8504256010055542,0.0390800535678863,-32.57733154296875,0.6112000942230225,71.28999328613281,29.13,0
-0.4862089157104492,-0.8200451731681824,0.0474704280495643,-27.845705032348636,0.6111983060836792,71.28999328613281,29.13,0
-0.446367472410202,-0.8453309535980225,0.0584526620805263,-22.97852325439453,0.6111971139907837,71.28999328613281,29.13,0
-0.4152017533779144,-0.8895467519760132,0.1326737105846405,-17.390233993530273,0.6111963391304016,71.3759765625,29.13,0
-0.4231902658939361,-0.934715211391449,0.202695608139038,-9.866741180419922,0.6111958622932434,71.43115997314453,29.13,0
-0.4619034826755523,-0.952506184577942,0.2196427583694458,-0.6857672929763794,0.6111955642700195,71.46656799316406,29.13,0
-0.4923451840877533,-0.9583256840705872,0.219322919845581,8.276320457458496,0.6111953854560852,71.48929595947266,29.13,0
-0.483892023563385,-0.9732558131217957,0.213519886136055,15.25649642944336,0.6111952662467957,71.50387573242188,29.13,0
-0.4336850941181183,-0.98283714056015,0.2209913879632949,19.82553482055664,0.6111952066421509,71.51323699951172,29.13,0
-0.3958673775196075,-0.98898583650589,0.2257861644029617,22.91889762878418,0.6111951470375061,71.51924133300781,29.13,0
-0.3995870351791382,-1.0153228044509888,0.1784832030534744,25.59547615051269,0.6111950874328613,71.5230941772461,29.13,0
-0.4243651926517486,-1.032224416732788,0.1089424714446067,27.52810478210449,0.6107361316680908,71.52556610107422,29.13,0
-0.4794507920742035,-1.0878530740737915,0.0251308102160692,27.31024742126465,0.6104416251182556,71.52715301513672,29.13,0
-0.6043659448623657,-1.1123567819595337,-0.0230569131672382,24.594566345214844,0.6102526187896729,71.5281753540039,29.13,0
-0.701322615146637,-1.04411518573761,-0.0875676646828651,20.713001251220703,0.6101313233375549,71.5288314819336,29.13,0
-0.696370542049408,-1.095483899116516,-0.162553608417511,16.183549880981445,0.6100534796714783,71.52925109863281,29.13,0
-0.6819970607757568,-1.145242691040039,-0.2162730395793914,9.52943515777588,0.6100035309791565,71.5295181274414,29.13,0
-0.6279907822608948,-1.1323927640914917,-0.2227582037448883,0.168366938829422,0.6099714636802673,71.52969360351562,29.13,0
-0.5317571759223938,-1.0737664699554443,-0.2269200086593628,-9.607897758483888,0.6099509000778198,71.52980041503906,29.13,0
-0.4532066285610199,-1.030545711517334,-0.2351885885000229,-16.79171371459961,0.6113148331642151,71.52986907958984,29.11,0
-0.4083952009677887,-0.9860158562660216,-0.2628859877586365,-20.29844093322754,0.6121901273727417,71.52991485595703,29.11,0
-0.3852355778217315,-0.957439124584198,-0.2806605696678161,-21.23046875,0.612751841545105,71.52994537353516,29.11,0
-0.3703730702400207,-0.9502958059310912,-0.3144583702087402,-21.180145263671875,0.6131123304367065,71.52996826171875,29.11,0
-0.3496395945549011,-0.9513093829154968,-0.3193545341491699,-20.230710983276367,0.6133436560630798,71.52997589111328,29.11,0
-0.3419318199157715,-0.9575576186180116,-0.3057032823562622,-17.63667106628418,0.6134921312332153,71.52998352050781,29.11,0
-0.3481809794902801,-0.972762942314148,-0.2689538300037384,-14.399215698242188,0.6135873794555664,71.52999114990234,29.11,0
-0.3409957587718963,-0.9713252782821656,-0.2341746091842651,-12.565217971801758,0.613648533821106,71.52999114990234,29.11,0
-0.3251891732215881,-1.0207825899124146,-0.1838664263486862,-12.459454536437988,0.6113923788070679,71.52999114990234,29.11,0
-0.3094476461410522,-1.0357282161712646,-0.129190444946289,-13.495014190673828,0.6099445223808289,71.52999114990234,29.11,0
-0.2937478423118591,-0.9725483655929564,-0.0717114433646202,-16.344947814941406,0.6090153455734253,71.52999114990234,29.11,0
-0.2892704010009765,-0.9376009106636048,-0.0180314015597105,-21.29787826538086,0.6084190607070923,71.52999114990234,29.11,0
-0.3087881207466125,-0.937564730644226,0.0276129059493541,-25.812685012817383,0.6080363988876343,71.52999114990234,29.11,0
-0.3493023514747619,-0.9039549231529236,0.0904914364218711,-26.589141845703125,0.6077908277511597,71.52999114990234,29.11,0
-0.3641065061092376,-0.8655927181243896,0.1308432668447494,-24.346755981445312,0.6076332330703735,71.52999114990234,29.11,0
-0.3512158691883087,-0.8409740924835205,0.1455432027578354,-23.81769752502441,0.6075321435928345,71.52999114990234,29.11,0
-0.3149545192718506,-0.8531641364097595,0.1549767702817917,-26.62009620666504,0.6079261898994446,71.63030242919922,29.11,0
-0.2972818315029144,-0.8777803182601929,0.1666284650564193,-27.247013092041016,0.6081790328025818,71.6946792602539,29.11,0
-0.3195271790027618,-0.9103708863258362,0.1964969485998153,-20.12592315673828,0.6083413362503052,71.73599243164062,29.11,0
-0.3617918193340301,-0.9424812197685242,0.226860374212265,-7.262355327606201,0.6084454655647278,71.76250457763672,29.11,0
-0.383317083120346,-0.9574899673461914,0.2295525521039962,5.3348236083984375,0.608512282371521,71.7795181274414,29.11,0
-0.3803374171257019,-0.9615239500999452,0.2088891267776489,14.586888313293455,0.6085551977157593,71.79043579101562,29.11,0
-0.3616319298744201,-0.9697105288505554,0.1956285387277603,20.63538932800293,0.6085827350616455,71.79744720458984,29.11,0
-0.3384322822093963,-0.9973552823066713,0.1759231090545654,25.17258071899414,0.608600378036499,71.80194091796875,29.11,0
-0.3515329360961914,-1.0150960683822632,0.1296906471252441,30.807048797607425,0.6095299124717712,71.80482482910156,29.11,0
-0.3655379712581634,-1.0376766920089722,0.0776302143931388,38.23478698730469,0.6101264357566833,71.80667877197266,29.11,0
-0.4584922194480896,-1.1641230583190918,0.0386230535805225,44.81426239013672,0.6105092763900757,71.80786895751953,29.11,0
-0.5629270672798157,-1.1892913579940796,0.0303838271647691,48.2484245300293,0.6107549667358398,71.80863189697266,29.11,0
-0.5571762919425964,-1.0710963010787964,-0.0084902802482247,49.51363754272461,0.6109126210212708,71.80912017822266,29.11,0
-0.5366924405097961,-1.05682110786438,-0.0334374457597732,50.38290023803711,0.6110137701034546,71.80943298339844,29.11,0
-0.5291448831558228,-1.042062282562256,-0.0382515527307987,50.11674880981445,0.611078679561615,71.80963897705078,29.11,0
-0.4963124096393585,-0.9878087043762208,-0.0581342913210392,46.47085189819336,0.611120343208313,71.80976867675781,29.11,0
-0.4528513252735138,-0.936198592185974,-0.0708938911557197,39.52751541137695,0.6111471056938171,71.80985260009766,29.09,0
-0.4025694131851196,-0.9086759686470032,-0.0790822654962539,32.528053283691406,0.6111642718315125,71.80990600585938,29.09,0
-0.3758991360664367,-0.891013503074646,-0.0955326408147811,27.688692092895508,0.6111752986907959,71.8099365234375,29.09,0
-0.3643814623355865,-0.874081015586853,-0.1116873174905777,22.802528381347656,0.6111823916435242,71.8099594116211,29.09,0
-0.3625878691673279,-0.8688125014305115,-0.1388477832078933,14.583194732666016,0.6111869215965271,71.80997467041016,29.09,0
-0.3614368438720703,-0.8766269683837891,-0.1506800353527069,3.465317726135254,0.6111898422241211,71.80998229980469,29.09,0
-0.3551003932952881,-0.9264240860939026,-0.147077739238739,-8.136967658996582,0.6111916899681091,71.80998992919922,29.09,0
-0.351034015417099,-0.952783226966858,-0.1167771220207214,-19.827999114990234,0.6111928820610046,71.80998992919922,29.09,0
-0.3428266942501068,-0.992090106010437,-0.074940837919712,-32.04171371459961,0.6098164916038513,71.80998992919922,29.09,0
-0.3263641595840454,-1.0453038215637207,-0.0536904893815517,-44.031982421875,0.6089332103729248,71.80998992919922,29.09,0
-0.2934083342552185,-1.1186378002166748,-0.045651014894247,-55.69972229003906,0.6083663702011108,71.80998992919922,29.09,0
-0.2890525162220001,-1.143308162689209,0.0098882289603352,-67.68354034423828,0.6080026030540466,71.80998992919922,29.09,0
-0.291854977607727,-1.041586995124817,0.0511278919875621,-78.24370574951172,0.6077691912651062,71.80998992919922,29.09,0
-0.2992511987686157,-0.987503707408905,0.0719953551888465,-83.58399963378906,0.6076193451881409,71.80998992919922,29.09,0
-0.3207910060882568,-0.9639917016029358,0.1021802201867103,-82.14237213134766,0.6075232028961182,71.80998992919922,29.09,0
-0.329016238451004,-0.9209141731262208,0.1271488964557647,-76.05472564697266,0.6074615120887756,71.80998992919922,29.09,0
-0.306305855512619,-0.8372917771339417,0.1487701386213302,-67.8131103515625,0.6083401441574097,71.87805938720703,29.09,0
-0.2805360853672027,-0.7836277484893799,0.1682431846857071,-57.4189453125,0.6089040040969849,71.92174530029297,29.09,0
-0.2695963084697723,-0.7659825682640076,0.1863376349210739,-43.90943145751953,0.6092658638954163,71.94978332519531,29.09,0
-0.2737713456153869,-0.7826477885246277,0.192351832985878,-27.66982078552246,0.6094980835914612,71.9677734375,29.09,0
-0.2876461744308471,-0.8045381307601929,0.1962113976478576,-10.143924713134766,0.6096470952033997,71.97931671142578,29.09,0
-0.3077457845211029,-0.8297816514968872,0.1986882537603378,6.641847610473633,0.6097427010536194,71.98672485351562,29.09,0
-0.3318401277065277,-0.8515792489051819,0.2002777457237243,19.85730743408203,0.609804093837738,71.9914779663086,29.09,0
-0.3417046964168548,-0.8767632246017456,0.20689557492733,27.74710464477539,0.6098434925079346,71.9945297241211,29.09,0
-0.3536329865455627,-0.9712936878204346,0.2111425101757049,31.886016845703125,0.6094094514846802,71.99649047851562,29.09,0
-0.3556900918483734,-1.0487512350082395,0.2026724070310592,35.538089752197266,0.6091309189796448,71.99774932861328,29.09,0
-0.3346191346645355,-1.092861294746399,0.180443450808525,40.01699447631836,0.6089521646499634,71.9985580444336,29.09,0
-0.3546836674213409,-1.1939395666122437,0.1829715073108673,43.98040008544922,0.6088374853134155,71.99907684326172,29.09,0
-0.4011465609073639,-1.2140235900878906,0.1901916414499282,45.900516510009766,0.6087638735771179,71.99940490722656,29.09,0
-0.4253660142421722,-1.131750226020813,0.1500429213047027,45.99347686767578,0.6087166666984558,71.99961853027344,29.09,0
-0.4185175597667694,-1.1293319463729858,0.1354733258485794,45.37961196899414,0.6086863279342651,71.999755859375,29.09,0
-0.3973293006420135,-1.166964411735535,0.137318953871727,44.100772857666016,0.6086668968200684,71.99983978271484,29.09,0
-0.3557430207729339,-1.1071481704711914,0.1217100471258163,41.17353057861328,0.6095725893974304,71.9999008178711,29.11,0
-0.317859798669815,-1.029577136039734,0.111693151295185,37.080963134765625,0.61015385389328,71.99993896484375,29.11,0
-0.287950724363327,-0.9518076181411744,0.1052648797631263,34.07841873168945,0.6105268597602844,71.99996185302734,29.11,0
-0.2687568068504333,-0.9130951762199402,0.0899440348148346,32.667449951171875,0.6107662320137024,71.9999771118164,29.11,0
-0.2676348090171814,-0.8882517218589783,0.0521231293678283,30.805423736572266,0.6109198331832886,71.99998474121094,29.11,0
-0.2669147849082947,-0.8611130714416504,0.0222540758550167,27.586328506469727,0.6110184192657471,71.99999237060547,29.11,0
-0.2552571594715118,-0.8325015306472778,0.0030858360696583,23.79727935791016,0.6110817193984985,71.99999237060547,29.11,0
-0.2477759718894958,-0.8085424900054932,-0.0036174627020955,19.05850601196289,0.6111223101615906,71.99999237060547,29.11,0
-0.2541705071926117,-0.8043625354766846,0.0032762947957962,12.742960929870604,0.6111483573913574,71.99999237060547,29.11,0
-0.2694697082042694,-0.8408644795417786,-0.0090930117294192,6.1320481300354,0.6111651062965393,71.99999237060547,29.11,0
-0.2680923044681549,-0.8754848837852478,-0.0282264687120914,-0.1023671999573707,0.6111758351325989,71.99999237060547,29.11,0
-0.2560128271579742,-0.9256911277770996,-0.0349074453115463,-7.66433572769165,0.611182689666748,71.99999237060547,29.11,0
-0.2538586854934692,-1.1482349634170532,-0.0503904595971107,-17.375144958496094,0.6111871004104614,71.99999237060547,29.11,0
-0.2860629260540008,-1.2406708002090454,-0.0547287948429584,-27.071332931518555,0.6111899614334106,71.99999237060547,29.11,0
-0.3067297637462616,-1.1432530879974363,-0.0407195650041103,-33.77385330200195,0.6111917495727539,71.99999237060547,29.11,0
-0.3143947720527649,-1.1647026538848877,-0.0317292474210262,-36.49523162841797,0.6111929416656494,71.99999237060547,29.11,0
-0.3473026156425476,-1.1280877590179443,-0.0371553264558315,-37.18837738037109,0.610734760761261,72.11821746826172,29.11,0
-0.3796164989471435,-1.0150260925292969,-0.0574307963252067,-38.43569564819336,0.610440731048584,72.194091796875,29.11,0
-0.3947559297084808,-0.9032851457595824,-0.0648446530103683,-39.25764846801758,0.6102520227432251,72.24278259277344,29.11,0
-0.4268626272678375,-0.8147829174995422,-0.052809115499258,-35.933860778808594,0.6101309061050415,72.27403259277344,29.11,0
-0.4698579609394073,-0.7803784012794495,-0.0506831742823123,-27.645980834960938,0.6100531816482544,72.29408264160156,29.11,0
-0.4974499046802521,-0.7582995891571045,-0.0437210910022258,-17.30452537536621,0.6100032925605774,72.30695343017578,29.11,0
-0.4983634948730469,-0.7609239816665649,-0.0280576795339584,-7.221536159515381,0.609971284866333,72.3152084350586,29.11,0
-0.49894979596138,-0.7794014811515808,-0.0068102548830211,1.6100633144378662,0.6099507808685303,72.32051086425781,29.11,0
-0.5049238204956055,-0.8304436802864075,0.0180206689983606,7.5821943283081055,0.6094783544540405,72.32391357421875,29.11,0
-0.5087575912475586,-0.8855907320976257,0.0451512746512889,9.86350917816162,0.6091751456260681,72.32609558105469,29.11,0
-0.5056201219558716,-0.9377742409706116,0.0625621378421783,10.030632972717283,0.6089805960655212,72.3274917602539,29.11,0
-0.5259977579116821,-1.0552293062210083,0.112919844686985,9.99099826812744,0.6088557243347168,72.3283920288086,29.11,0
-0.5446727275848389,-1.1138118505477903,0.1620298475027084,10.21634292602539,0.6087755560874939,72.32897186279297,29.11,0
-0.5230706334114075,-1.1066244840621948,0.1767524927854538,10.776535034179688,0.6087241172790527,72.32933807373047,29.11,0
-0.4476321041584015,-1.1747831106185913,0.175005093216896,12.14273738861084,0.6086910963058472,72.32957458496094,29.11,0
-0.3712311387062073,-1.2241212129592896,0.1626881659030914,14.05843448638916,0.6086699366569519,72.32972717285156,29.11,0
-0.3222014009952545,-1.194208025932312,0.1435883194208145,15.101524353027344,0.606820285320282,72.32982635498047,29.13,0
-0.2907369434833526,-1.1358270645141602,0.1313311457633972,14.413124084472656,0.6056332588195801,72.32988739013672,29.13,0
-0.2873381674289703,-1.053579330444336,0.112269639968872,13.387388229370115,0.6048715114593506,72.32992553710938,29.13,0
-0.3019503653049469,-0.9951996803283693,0.088841512799263,14.316210746765137,0.6043826341629028,72.3299560546875,29.13,0
-0.305729866027832,-0.9633327722549438,0.0570133700966835,17.395000457763672,0.60406893491745,72.32997131347656,29.13,0
-0.285764217376709,-0.9092957973480223,0.0309901256114244,20.49930191040039,0.6038675904273987,72.3299789428711,29.13,0
-0.2617558538913727,-0.8690202236175537,0.0142899053171277,22.011398315429688,0.6037384271621704,72.32998657226562,29.13,0
-0.2295553535223007,-0.8319780826568604,0.009170439094305,22.20793914794922,0.6036555171012878,72.32999420166016,29.13,0
-0.2312820255756378,-0.8194021582603455,0.0170806087553501,21.9471492767334,0.6049794554710388,72.32999420166016,29.13,0
-0.2491834312677383,-0.8281249403953552,0.016559125855565,21.70455551147461,0.6058290600776672,72.32999420166016,29.13,0
-0.2606715261936188,-0.8505160808563232,-0.0061666285619139,21.72441864013672,0.6063743233680725,72.32999420166016,29.13,0
-0.2624461352825165,-0.8872765302658081,-0.0207507107406854,21.378908157348636,0.606724202632904,72.32999420166016,29.13,0
-0.2411938905715942,-0.9948338866233826,-0.0469032600522041,18.721027374267575,0.606948733329773,72.32999420166016,29.13,0
-0.2667398452758789,-1.1366291046142578,-0.0636864602565765,12.354422569274902,0.6070928573608398,72.32999420166016,29.13,0
-0.2999270856380462,-1.1324628591537476,-0.063261404633522,3.80122971534729,0.6071853637695312,72.32999420166016,29.13,0
-0.3044314384460449,-1.1018003225326538,-0.0573908500373363,-3.7369496822357178,0.6072447299957275,72.32999420166016,29.13,0
-0.3129198253154754,-1.1157095432281494,-0.0536234676837921,-9.04383659362793,0.607282817363739,72.40164947509766,29.13,0
-0.346356064081192,-1.057462453842163,-0.0568035542964935,-13.982833862304688,0.6073072552680969,72.4476318359375,29.13,0
-0.3510201871395111,-0.9641050100326538,-0.0644421204924583,-21.79183387756348,0.6073229312896729,72.47714233398438,29.13,0
-0.3428178131580353,-0.8706069588661194,-0.0525507926940918,-33.85012435913086,0.6073330044746399,72.49607849121094,29.13,0
-0.3711406588554382,-0.8218008279800415,-0.0281262993812561,-45.76572799682617,0.6073394417762756,72.50823211669922,29.13,0
-0.3949143886566162,-0.8072732090950012,-0.0180498398840427,-49.46805953979492,0.6073436141014099,72.51602935791016,29.13,0
-0.4213665425777435,-0.8147435188293457,-0.017181122675538,-42.62603378295898,0.60734623670578,72.52103424072266,29.13,0
-0.4327442646026611,-0.8251352906227112,0.0113652413710951,-31.872562408447266,0.6073479652404785,72.52424621582031,29.13,0
-0.4400458037853241,-0.8429996967315674,0.0352824293076992,-24.179855346679688,0.6073490381240845,72.52630615234375,29.13,0
-0.4559270739555359,-0.8600618243217468,0.0618266500532627,-20.30714225769043,0.6073497533798218,72.52762603759766,29.13,0
-0.4717165231704712,-0.8878046274185181,0.0844589844346046,-18.104881286621094,0.60735023021698,72.52847290039062,29.13,0
-0.4706537425518036,-0.9503905773162842,0.0933853387832641,-16.55904197692871,0.6073505282402039,72.52902221679688,29.13,0
-0.4979605972766876,-1.1081079244613647,0.1382981836795807,-15.17651081085205,0.6073507070541382,72.52937316894531,29.13,0
-0.52108234167099,-1.1757351160049438,0.1727184355258941,-12.920738220214844,0.6073508262634277,72.52959442138672,29.13,0
-0.4799427986145019,-1.1743521690368652,0.1724162697792053,-9.21967315673828,0.6073508858680725,72.52973937988281,29.13,0
-0.4423462450504303,-1.2182469367980957,0.1722223609685897,-4.831135272979736,0.6073509454727173,72.52983093261719,29.13,0
-0.3790345191955566,-1.263209342956543,0.1665001362562179,-0.6641928553581238,0.6059738397598267,72.52989196777344,29.11,0
-0.3272091448307037,-1.1969014406204224,0.1404368430376052,3.930171251296997,0.6050900816917419,72.5299301147461,29.11,0
-0.2883528470993042,-1.1263600587844849,0.1293087005615234,10.70834255218506,0.6045229434967041,72.52995300292969,29.11,0
-0.2634170949459076,-1.0754928588867188,0.1165695264935493,20.030797958374023,0.6041589379310608,72.52996826171875,29.11,0
-0.2474147677421569,-1.031653642654419,0.1027964875102043,29.39536476135254,0.603925347328186,72.52997589111328,29.11,0
-0.2483409494161605,-0.9923245906829834,0.0827621892094612,35.22945785522461,0.6037754416465759,72.52998352050781,29.11,0
-0.2377397716045379,-0.9390966296195984,0.0587097853422164,36.293678283691406,0.6036792397499084,72.52999114990234,29.11,0
-0.2253387719392776,-0.8769491314888,0.0432743355631828,34.5333137512207,0.6036175489425659,72.52999114990234,29.11,0
-0.2061849683523178,-0.803479790687561,0.0445642992854118,32.615447998046875,0.6040368676185608,72.52999114990234,29.11,0
-0.193893164396286,-0.7619291543960571,0.0565876737236976,31.63187026977539,0.6043059825897217,72.52999114990234,29.11,0
-0.202798306941986,-0.7744487524032593,0.0363147109746933,30.86452865600586,0.604478657245636,72.52999114990234,29.11,0
-0.2141108959913253,-0.8216675519943237,0.0121091427281498,28.63096046447754,0.6045894622802734,72.52999114990234,29.11,0
-0.221370667219162,-0.8631653785705566,-0.0202179215848445,23.400054931640625,0.6046605706214905,72.52999114990234,29.11,0
-0.231627345085144,-1.0353384017944336,-0.0633546635508537,15.045469284057615,0.6047062277793884,72.52999114990234,29.11,0
-0.2997850179672241,-1.1906113624572754,-0.0910373479127883,5.445789813995361,0.6047355532646179,72.52999114990234,29.11,0
-0.3827090859413147,-1.1223233938217163,-0.0752158537507057,-2.556175470352173,0.6047543287277222,72.52999114990234,29.11,0
-0.3687517046928406,-1.1512712240219116,-0.070660300552845,-7.494335174560547,0.605225682258606,72.62672424316406,29.11,0
-0.3597946465015411,-1.158652663230896,-0.0677368119359016,-10.717100143432615,0.6055281758308411,72.68880462646484,29.11,0
-0.3876331746578216,-1.0626296997070312,-0.077056236565113,-15.626267433166504,0.6057223081588745,72.72864532470703,29.11,0
-0.3943027853965759,-0.9618232846260072,-0.0774391293525695,-25.16442108154297,0.6058468818664551,72.75421142578125,29.11,0
-0.4097785055637359,-0.8691426515579224,-0.0776848495006561,-38.18549728393555,0.6059268116950989,72.77061462402344,29.11,0
-0.4588943719863891,-0.8208611011505127,-0.0666469857096672,-48.494178771972656,0.6059781312942505,72.78114318847656,29.11,0
-0.496011883020401,-0.8066701292991638,-0.0483679734170436,-50.2409782409668,0.6060110330581665,72.78790283203125,29.11,0
-0.5030384063720703,-0.7975631952285767,-0.0254420060664415,-43.92812728881836,0.606032133102417,72.792236328125,29.11,0
-0.5187432169914246,-0.7805233001708984,0.0060638817958533,-34.79323196411133,0.606045663356781,72.7950210571289,29.11,0
-0.5456149578094482,-0.7751858830451965,0.0430758707225322,-26.91040802001953,0.6060543656349182,72.79680633544922,29.11,0
-0.5628597140312195,-0.8109450340270996,0.0668280348181724,-21.081411361694336,0.6060599684715271,72.7979507446289,29.11,0
-0.5739263892173767,-0.8674798607826233,0.0764730349183082,-16.441471099853516,0.6060635447502136,72.7986831665039,29.11,0
-0.6090171933174133,-0.976531744003296,0.1106515079736709,-12.195591926574709,0.6060658693313599,72.79915618896484,29.11,0
-0.6315364837646484,-1.0241237878799438,0.143780842423439,-8.166773796081543,0.6060673594474792,72.7994613647461,29.11,0
-0.6459880471229553,-1.0602633953094482,0.1650413423776626,-4.184105396270752,0.6060683131217957,72.79965209960938,29.11,0
-0.632871150970459,-1.1114445924758911,0.1562940031290054,0.1272038221359253,0.6060689091682434,72.79977416992188,29.11,0
-0.607660174369812,-1.1554853916168213,0.1394849121570587,4.534773826599121,0.6046921610832214,72.79985809326172,29.13,0
-0.5355034470558167,-1.1389659643173218,0.139893352985382,8.427323341369629,0.6038086414337158,72.79991149902344,29.13,0
-0.4724040925502777,-1.083582639694214,0.1457532495260238,12.333290100097656,0.6032416820526123,72.79994201660156,29.13,0
-0.4151172339916229,-1.0032585859298706,0.1383182406425476,17.83494758605957,0.6028777956962585,72.79996490478516,29.13,0
-0.3783538341522217,-0.9349178671836852,0.1055580079555511,25.145212173461918,0.6026442646980286,72.79998016357422,29.13,0
-0.3603589832782745,-0.8798651695251465,0.0845343768596649,31.986064910888672,0.6024944186210632,72.79998779296875,29.13,0
-0.3544086813926697,-0.8389377593994141,0.0710426196455955,35.928306579589844,0.6023982763290405,72.79999542236328,29.13,0
-0.3393945693969726,-0.8070751428604126,0.0623843856155872,36.88187789916992,0.602336585521698,72.79999542236328,29.13,0
-0.318563848733902,-0.7922253012657166,0.0568280294537544,36.1539421081543,0.6022969484329224,72.79999542236328,29.13,0
-0.3219892084598541,-0.777097761631012,0.0532622821629047,34.18569564819336,0.602271556854248,72.79999542236328,29.13,0
-0.3465785086154938,-0.7785853147506714,0.0509739890694618,30.765878677368164,0.6022552251815796,72.79999542236328,29.13,0
-0.3735540509223938,-0.8411154747009277,0.0551032684743404,26.500507354736328,0.6022447347640991,72.79999542236328,29.13,0
-0.3908653855323791,-0.8868415355682373,0.052155427634716,21.9898624420166,0.6022380590438843,72.79999542236328,29.13,0
-0.3963770270347595,-1.0169458389282229,0.0390681251883506,16.07866096496582,0.6022337675094604,72.79999542236328,29.13,0
-0.4167074263095855,-1.0780481100082395,0.0418649986386299,7.538280487060547,0.602230966091156,72.79999542236328,29.13,0
-0.4353520572185516,-1.0053045749664309,0.0604531913995742,-1.5823410749435425,0.6022291779518127,72.79999542236328,29.13,0
-0.4249260127544403,-0.975415289402008,0.0723820254206657,-7.804436683654785,0.6026869416236877,72.87165069580078,29.13,0
-0.4238329529762268,-1.012211799621582,0.0632439404726028,-11.299440383911133,0.6029807329177856,72.91763305664062,29.13,0
-0.4399248361587524,-0.991043508052826,0.0629774183034896,-15.903250694274902,0.6031692624092102,72.9471435546875,29.13,0
-0.4558494389057159,-0.9102856516838074,0.0795997008681297,-25.094974517822266,0.6032902598381042,72.96607971191406,29.13,0
-0.4492756128311157,-0.8528621196746826,0.1014624759554863,-38.99358367919922,0.6033679246902466,72.97823333740234,29.13,0
-0.4730457961559295,-0.8439998626708984,0.1210905238986015,-51.98271942138672,0.6034177541732788,72.98603057861328,29.13,0
-0.5050934553146362,-0.838312566280365,0.133686676621437,-55.32428741455078,0.6034497022628784,72.99103546142578,29.13,0
-0.5424531102180481,-0.8346627950668335,0.1417701542377472,-46.95743560791016,0.6034702062606812,72.99424743652344,29.13,0
-0.5496350526809692,-0.8099294900894165,0.1525554358959198,-34.44441604614258,0.6025651693344116,72.99630737304688,29.13,0
-0.5542440414428711,-0.7996548414230347,0.1538790464401245,-24.730470657348636,0.6019843816757202,72.99762725830078,29.13,0
-0.5739951133728027,-0.8210500478744507,0.1267395913600921,-17.772939682006836,0.6016116738319397,72.99847412109375,29.13,0
-0.6034635305404663,-0.857171356678009,0.0981274992227554,-11.986026763916016,0.601372480392456,72.9990234375,29.13,0
-0.6223746538162231,-0.9083408117294312,0.0293859336525201,-7.648951053619385,0.6012189388275146,72.99937438964844,29.13,0
-0.645706295967102,-1.0587316751480105,-0.0371195450425148,-4.152732849121094,0.6011204123497009,72.99959564208984,29.13,0
-0.6886680722236633,-1.194428324699402,-0.0965922549366951,0.1007632315158844,0.601057231426239,72.99974060058594,29.13,0
-0.6882495880126953,-1.1191750764846802,-0.1627472937107086,5.341797828674316,0.601016640663147,72.99983215332031,29.13,0
-0.6487966179847717,-1.0876752138137815,-0.233190655708313,10.535888671875,0.6005316972732544,72.99989318847656,29.13,0
-0.6290757656097412,-1.1178404092788696,-0.3063860237598419,14.61433219909668,0.6002205014228821,72.99993133544922,29.13,0
-0.5660400986671448,-1.092416524887085,-0.3141741752624511,17.102670669555664,0.6000207662582397,72.99995422363281,29.13,0
-0.4864029884338379,-1.0481120347976685,-0.2855855226516723,18.79269027709961,0.5998926162719727,72.99996948242188,29.13,0
-0.3905142843723297,-0.9637022614479064,-0.256043404340744,21.170557022094727,0.5998103618621826,72.9999771118164,29.13,0
-0.328978419303894,-0.8983373641967773,-0.2426827549934387,24.33735466003418,0.5997575521469116,72.99998474121094,29.13,0
-0.317477136850357,-0.8619877099990845,-0.2173153460025787,26.584577560424805,0.5997236967086792,72.99999237060547,29.13,0
-0.310096263885498,-0.8218672871589661,-0.2010359913110733,26.278417587280277,0.5997019410133362,72.99999237060547,29.13,0
-0.3053596317768097,-0.8129135966300964,-0.1905888468027115,23.258872985839844,0.6001468896865845,72.99999237060547,29.13,0
-0.3135154843330383,-0.8351565003395081,-0.1726889163255691,18.530277252197266,0.6004324555397034,72.99999237060547,29.13,0
-0.3243472278118133,-0.8606262803077698,-0.1500062197446823,13.410676956176758,0.6006157398223877,72.99999237060547,29.13,0
-0.3424939811229706,-0.8993624448776245,-0.1354497820138931,9.082682609558104,0.6007333397865295,72.99999237060547,29.13,0
-0.3709328174591064,-1.0025899410247805,-0.1261082887649536,6.061610221862793,0.6008087992668152,72.99999237060547,29.13,0
-0.3891832530498504,-1.046444296836853,-0.0977223664522171,3.381266832351685,0.6008572578430176,72.99999237060547,29.13,0
-0.3896997570991516,-0.979425311088562,-0.0403214916586875,-0.7642267942428589,0.6008883118629456,72.99999237060547,29.13,0
-0.3732379078865051,-0.9588074684143066,0.0021128596272319,-6.677545070648193,0.6009082794189453,72.99999237060547,29.13,0
-0.351478099822998,-1.0015538930892944,0.0349425598978996,-12.199173927307127,0.6004621386528015,73.03223419189453,29.13,0
-0.3655027747154236,-1.0177905559539795,0.0504129938781261,-15.06553077697754,0.6001758575439453,73.05292510986328,29.13,0
-0.3801007866859436,-0.96103698015213,0.0603410303592681,-15.42180633544922,0.5999921560287476,73.06620788574219,29.13,0
-0.3726756274700165,-0.9022247195243835,0.0723100453615188,-15.105892181396484,0.5998742580413818,73.0747299194336,29.13,0
-0.3735083639621734,-0.8812757134437561,0.0855888426303863,-15.257831573486328,0.5997985601425171,73.0802001953125,29.13,0
-0.3964338600635528,-0.8790273666381836,0.0997081845998764,-15.186957359313965,0.5997499823570251,73.08370971679688,29.13,0
-0.4391349852085113,-0.8775845170021057,0.1087691709399223,-13.307194709777832,0.5997188091278076,73.0859603881836,29.13,0
-0.4721358716487884,-0.8654630184173584,0.1201817616820335,-8.962535858154297,0.5996988415718079,73.08740997314453,29.13,0
-0.5045095086097717,-0.8520863652229309,0.1331034749746322,-3.057542562484741,0.6010631322860718,73.08833312988281,29.13,0
-0.5364806056022644,-0.8490998148918152,0.1413958966732025,3.3006484508514404,0.6019386649131775,73.08892822265625,29.13,0
-0.5737911462783813,-0.8975631594657898,0.1299241632223129,9.781295776367188,0.6025004982948303,73.08930969238281,29.13,0
-0.5977348685264587,-0.9566530585289,0.0889756232500076,15.846131324768066,0.6028611063957214,73.08955383300781,29.13,0
-0.6019050478935242,-1.00576913356781,0.0626972094178199,20.31857109069824,0.6030924916267395,73.08971405029297,29.13,0
-0.5877878665924072,-1.0820711851119995,0.0178443659096956,22.873458862304688,0.603240966796875,73.08981323242188,29.13,0
-0.6011193990707397,-1.187015175819397,-0.0053418357856571,24.63484764099121,0.6033362746238708,73.08988189697266,29.13,0
-0.6376636624336243,-1.1088200807571411,-0.0202214065939188,26.66084861755371,0.6033974289894104,73.08992004394531,29.13,0
-0.6331267952919006,-1.1258121728897097,-0.0633569061756134,28.688282012939453,0.6016005873680115,73.08995056152344,29.11,0
-0.6414108872413635,-1.1479122638702393,-0.113429881632328,29.692018508911133,0.6004474759101868,73.0899658203125,29.11,0
-0.5683582425117493,-1.1173126697540283,-0.1007816419005394,28.90312957763672,0.5997074842453003,73.08997344970703,29.11,0
-0.5214772820472717,-1.0584912300109863,-0.1094580516219139,26.15775489807129,0.5992326140403748,73.08998107910156,29.11,0
-0.4410118162631988,-1.009547472000122,-0.1206238493323326,22.21414375305176,0.5989278554916382,73.0899887084961,29.11,0
-0.4005692601203918,-0.961344838142395,-0.1557782888412475,18.601423263549805,0.5987322926521301,73.0899887084961,29.11,0
-0.3690177798271179,-0.930411159992218,-0.1839361488819122,15.792174339294434,0.5986068248748779,73.0899887084961,29.11,0
-0.3655631840229034,-0.899364173412323,-0.2187995761632919,11.735919952392578,0.5985262989997864,73.0899887084961,29.11,0
-0.3577484488487243,-0.8794399499893188,-0.2411729097366333,3.819889307022095,0.5993924736976624,73.0899887084961,29.11,0
-0.3471356332302093,-0.9058381915092468,-0.249933049082756,-7.816276550292969,0.5999482870101929,73.0899887084961,29.11,0
-0.3515204787254333,-0.9339746236801147,-0.2331637144088745,-20.353042602539062,0.6003050208091736,73.0899887084961,29.11,0
-0.3543344140052795,-0.9576287269592284,-0.2056088000535965,-31.483015060424805,0.6005339622497559,73.0899887084961,29.11,0
-0.3505424559116363,-0.9840040802955629,-0.1655345410108566,-40.85395431518555,0.6006808280944824,73.0899887084961,29.11,0
-0.3481090068817138,-1.0289191007614136,-0.1398171931505203,-48.46551132202149,0.6007751226425171,73.0899887084961,29.11,0
-0.3409495949745178,-0.996167540550232,-0.0953244045376777,-54.05235290527344,0.6008356213569641,73.0899887084961,29.11,0
-0.3419528603553772,-0.9639539122581482,-0.049978170543909,-58.38642883300781,0.6008744239807129,73.0899887084961,29.11,0
-0.3593900203704834,-0.9656721353530884,-0.0152797913178801,-62.36078643798828,0.5999814867973328,73.11865234375,29.11,0
-0.3873735070228576,-0.9387859106063844,0.0181831810623407,-64.87189483642578,0.5994084477424622,73.13704681396484,29.11,0
-0.4165272414684295,-0.8991407752037048,0.0340600162744522,-64.57386016845703,0.599040687084198,73.14884948730469,29.11,0
-0.3904542326927185,-0.8569055199623108,0.0554444044828414,-61.92137145996094,0.5988047122955322,73.15642547607422,29.11,0
-0.3457332253456116,-0.8577902317047119,0.0803632214665412,-56.432373046875,0.598653256893158,73.16128540039062,29.11,0
-0.3226316273212433,-0.8807491064071655,0.1131480112671852,-45.522579193115234,0.5985561013221741,73.1644058227539,29.11,0
-0.3525885343551636,-0.906678318977356,0.1565784960985183,-28.930747985839844,0.598493754863739,73.16641235351562,29.11,0
-0.3830087184906006,-0.9233182072639464,0.1900474578142166,-10.476632118225098,0.59845370054245,73.16769409179688,29.11,0
-0.4025306403636932,-0.9395945072174072,0.194732591509819,5.916026592254639,0.5975098013877869,73.16851806640625,29.11,0
-0.4038631319999695,-0.9444419145584106,0.1865436881780624,18.50662040710449,0.5969040393829346,73.16905212402344,29.11,0
-0.382327139377594,-0.9531504511833192,0.1812885254621505,26.69401741027832,0.5965152978897095,73.16938781738281,29.11,0
-0.3573110401630401,-0.9811301827430724,0.1611227393150329,30.927181243896484,0.5962658524513245,73.16960906982422,29.11,0
-0.3692460060119629,-1.0046837329864502,0.131388172507286,32.94518280029297,0.5961057543754578,73.16974639892578,29.11,0
-0.4272851645946502,-1.04778790473938,0.0731218159198761,34.52324295043945,0.596002995967865,73.16983795166016,29.11,0
-0.5205091238021851,-1.1874052286148071,0.024534273892641,36.58564376831055,0.5959370732307434,73.1698989868164,29.11,0
-0.6251170635223389,-1.2322213649749756,0.0045491359196603,39.30279541015625,0.5958947539329529,73.16993713378906,29.11,0
-0.6306728720664978,-1.0818530321121216,-0.0418628193438053,42.12486267089844,0.5963265299797058,73.16996002197266,29.09,0
-0.6174449920654297,-1.013344168663025,-0.082842893898487,43.828426361083984,0.5966036319732666,73.16997528076172,29.09,0
-0.653738260269165,-1.0029656887054443,-0.0979459956288337,43.234283447265625,0.5967814922332764,73.16998291015625,29.09,0
-0.6266492605209351,-0.9627187848091124,-0.102040521800518,39.99409866333008,0.5968956351280212,73.16999053955078,29.09,0
-0.5812761783599854,-0.9144995212554932,-0.0990703776478767,35.17764663696289,0.5969688296318054,73.16999053955078,29.09,0
-0.5241695046424866,-0.8835551738739014,-0.0971643105149269,31.183917999267575,0.5970158576965332,73.16999053955078,29.09,0
-0.4875217378139496,-0.8692946434020996,-0.1071366593241691,29.8139705657959,0.5970460176467896,73.16999053955078,29.09,0
-0.4807966351509094,-0.8545452952384949,-0.1247318834066391,29.96301651000977,0.5970653891563416,73.16999053955078,29.09,0
-0.4708830714225769,-0.8450800180435181,-0.147219032049179,28.751026153564453,0.5984549522399902,73.16999053955078,29.09,0
-0.45892333984375,-0.8446035385131836,-0.1616499871015548,25.017614364624023,0.5993466377258301,73.16999053955078,29.09,0
-0.4512482583522796,-0.8778843879699707,-0.1485198587179184,19.719839096069336,0.5999189019203186,73.16999053955078,29.09,0
-0.4463228285312652,-0.9048399329185486,-0.1288981437683105,13.425311088562012,0.6002861261367798,73.16999053955078,29.09,0
-0.4263686537742615,-0.9445295333862304,-0.0995127335190773,5.659966468811035,0.6005218029022217,73.16999053955078,29.09,0
-0.3967699110507965,-1.0539666414260864,-0.0582637712359428,-3.805186748504639,0.6006730794906616,73.16999053955078,29.09,0
-0.3777751326560974,-1.1074037551879885,-0.0205970108509063,-14.565385818481444,0.600770115852356,73.16999053955078,29.09,0
-0.3431942760944366,-1.0129477977752686,0.0315642207860946,-26.1530876159668,0.6008324027061462,73.16999053955078,29.09,0
-0.3154045045375824,-0.9467336535453796,0.0706360712647438,-37.94940185546875,0.5985773801803589,73.184326171875,29.09,0
-0.314363956451416,-0.9378278255462646,0.0901123583316803,-48.43939971923828,0.5971302390098572,73.19352722167969,29.09,0
-0.3360872864723205,-0.8929281830787659,0.1194044426083564,-55.40772247314453,0.5962015390396118,73.19942474365234,29.09,0
-0.3444302976131439,-0.8473208546638489,0.1382024139165878,-58.03456878662109,0.5956055521965027,73.20321655273438,29.09,0
-0.3105999231338501,-0.8012593984603882,0.1446681022644043,-57.61735153198242,0.595223069190979,73.20564270019531,29.09,0
-0.2776939868927002,-0.7884930968284607,0.1488174051046371,-54.85971832275391,0.594977617263794,73.20720672607422,29.09,0
-0.2733701765537262,-0.8250826001167297,0.1738712787628173,-48.57598114013672,0.5948200821876526,73.20820617675781,29.09,0
-0.2985842823982239,-0.865356981754303,0.1899494230747223,-38.281097412109375,0.5947189927101135,73.20884704589844,29.09,0
-0.3315585553646087,-0.8968005180358887,0.2002674490213394,-25.72019386291504,0.5960313081741333,73.20925903320312,29.09,0
-0.3471217751502991,-0.916979193687439,0.2124867439270019,-13.44263744354248,0.5968734622001648,73.20952606201172,29.09,0
-0.3571093678474426,-0.9243309497833252,0.2147306054830551,-3.643347978591919,0.5974138975143433,73.2096939086914,29.09,0
-0.3635188341140747,-0.9514399766921996,0.2105728089809417,2.6166112422943115,0.5977607369422913,73.20980072021484,29.09,0
-0.373229831457138,-0.9800325036048888,0.207904577255249,6.576571464538574,0.5979833006858826,73.20986938476562,29.09,0
-0.3514729142189026,-1.0207726955413818,0.1893989294767379,10.995115280151367,0.5981261134147644,73.20991516113281,29.09,0
-0.3543038964271545,-1.0413196086883545,0.1383386552333831,17.284284591674805,0.598217785358429,73.20994567871094,29.09,0
-0.3729139864444732,-1.0712987184524536,0.0999733358621597,24.379831314086918,0.5982766151428223,73.20996856689453,29.09,0
-0.42963907122612,-1.090537667274475,0.0921460017561912,30.276811599731445,0.5978550910949707,73.20997619628906,29.11,0
-0.4884330630302429,-1.052504062652588,0.0759273245930671,33.69573211669922,0.59758460521698,73.2099838256836,29.11,0
-0.5373591780662537,-1.1008673906326294,0.054323561489582,34.39228057861328,0.5974109768867493,73.20999145507812,29.11,0
-0.5463660955429077,-1.1542953252792358,0.0348617359995842,32.77930450439453,0.5972995758056641,73.20999145507812,29.11,0
-0.5073639750480652,-1.1382023096084597,0.027970029041171,29.67704391479492,0.5972281098365784,73.20999145507812,29.11,0
-0.387172520160675,-1.0495058298110962,0.0291451029479503,26.47169685363769,0.5971822142601013,73.20999145507812,29.11,0
-0.2988449931144714,-0.9869877696037292,0.0243014246225357,24.557992935180664,0.5971527695655823,73.20999145507812,29.11,0
-0.2533570230007171,-0.9636605978012084,-0.0011980676790699,24.04998588562012,0.5971338748931885,73.20999145507812,29.11,0
-0.2577521204948425,-0.9318972826004028,-0.0231599491089582,23.749053955078125,0.5971217751502991,73.20999145507812,29.11,0
-0.2661704123020172,-0.9171111583709716,-0.0316560454666614,22.785680770874023,0.5971139669418335,73.20999145507812,29.11,0
-0.2659750282764435,-0.8796334266662598,-0.0483038984239101,21.182233810424805,0.5971089601516724,73.20999145507812,29.11,0
-0.2546540796756744,-0.8891690373420715,-0.0421942099928855,18.523162841796875,0.5971057415008545,73.20999145507812,29.11,0
-0.247388944029808,-0.9064839482307434,-0.0326755903661251,13.595988273620604,0.5971037149429321,73.20999145507812,29.11,0
-0.2203354984521865,-0.9008023738861084,-0.0153715386986732,6.102676868438721,0.5971024036407471,73.20999145507812,29.11,0
-0.2029741555452346,-0.925145149230957,0.00692875450477,-2.4104816913604736,0.5971015691757202,73.20999145507812,29.11,0
-0.1974304169416427,-1.0359290838241575,0.0100442497059702,-10.091351509094238,0.5971010327339172,73.20999145507812,29.11,0
-0.2106660902500152,-1.0902304649353027,0.0400324687361717,-16.27797508239746,0.5980188846588135,73.1061019897461,29.11,0
-0.2415510863065719,-1.0579047203063965,0.064874954521656,-20.875144958496094,0.5986078977584839,73.0394287109375,29.11,0
-0.255773514509201,-1.0595510005950928,0.1144040822982788,-23.42767906188965,0.5989859104156494,72.99664306640625,29.11,0
-0.2760961949825287,-1.0885963439941406,0.1405912488698959,-23.85483741760254,0.5992285013198853,72.96918487548828,29.11,0
-0.2891381382942199,-1.0288671255111694,0.1350055634975433,-23.304969787597656,0.5993841886520386,72.9515609741211,29.11,0
-0.3087032437324524,-0.934558629989624,0.109029896557331,-22.966426849365234,0.5994840860366821,72.94025421142578,29.11,0
-0.3212590217590332,-0.8684390783309937,0.0923602059483528,-22.48047637939453,0.5995481610298157,72.93299865722656,29.11,0
-0.3629032373428345,-0.8428006768226624,0.0760647878050804,-20.6639404296875,0.5995892882347107,72.9283447265625,29.11,0
-0.4176169633865356,-0.8487385511398315,0.0488140024244785,-17.001136779785156,0.5973203182220459,72.92535400390625,29.11,0
-0.4695224165916443,-0.8469513654708862,0.0145326945930719,-11.401164054870604,0.5958642363548279,72.9234390258789,29.11,0
-0.4916367828845978,-0.851402223110199,0.0205217953771352,-4.23201322555542,0.5949298143386841,72.92220306396484,29.11,0
-0.4946329593658447,-0.8654540777206421,0.0411585792899131,2.19226598739624,0.5943301320075989,72.9214096069336,29.11,0
-0.4909579753875732,-0.8800695538520813,0.0599998533725738,5.000193595886231,0.593945324420929,72.92090606689453,29.11,0
-0.4830017983913421,-0.9006444215774536,0.072091095149517,4.742178916931152,0.5936983823776245,72.92057800292969,29.11,0
-0.4611026644706726,-0.925043761730194,0.0686550140380859,4.841710567474365,0.5935398936271667,72.92037200927734,29.11,0
-0.4638423919677734,-0.9910818338394164,0.0720477104187011,7.087372303009033,0.5934382081031799,72.92023468017578,29.11,0
-0.5327738523483276,-1.0950367450714111,0.1302026957273483,10.58849048614502,0.5938321948051453,72.92015075683594,29.11,0
-0.5546190142631531,-1.0609891414642334,0.1563276648521423,14.203849792480469,0.5940850377082825,72.92009735107422,29.11,0
-0.5406491160392761,-1.0951170921325684,0.173093169927597,17.398128509521484,0.5942472815513611,72.92005920410156,29.11,0
-0.4701085090637207,-1.2177783250808716,0.1838523000478744,19.56267547607422,0.5943514108657837,72.92003631591797,29.11,0
-0.3968507349491119,-1.2517130374908447,0.1851591169834137,20.228076934814453,0.5944182276725769,72.9200210571289,29.11,0
-0.3162514865398407,-1.1615349054336548,0.1803999841213226,19.72362327575684,0.5944611430168152,72.92001342773438,29.11,0
-0.2701252996921539,-1.0700771808624268,0.16615030169487,19.145530700683597,0.5944886803627014,72.92000579833984,29.11,0
-0.2573174834251404,-0.9945915341377258,0.1514078974723816,19.673770904541016,0.5945063233375549,72.92000579833984,29.11,0
-0.2826848030090332,-0.9629425406455994,0.1083604246377945,21.685827255249023,0.5945176482200623,72.92000579833984,29.11,0
-0.2933663129806518,-0.9258387088775636,0.0695394799113273,24.438739776611328,0.5945249199867249,72.92000579833984,29.11,0
-0.2722322344779968,-0.8572453856468201,0.0446264371275901,26.59231948852539,0.5945295691490173,72.92000579833984,29.11,0
-0.2418762743473053,-0.8076283931732178,0.0510297752916812,27.118127822875977,0.5945326089859009,72.92000579833984,29.11,0
-0.2279933393001556,-0.7757870554924011,0.06073684617877,25.90072250366211,0.5945345163345337,72.92000579833984,29.11,0
-0.2358773946762085,-0.7945375442504883,0.0333796367049217,23.446399688720703,0.594535768032074,72.92000579833984,29.11,0
-0.2353391498327255,-0.8289616107940674,0.0046278061345219,20.130224227905277,0.594536542892456,72.92000579833984,29.11,0
-0.2405915111303329,-0.9182263016700744,-0.0306167881935834,15.64475917816162,0.594537079334259,72.92000579833984,29.11,0
-0.2439621686935424,-1.0818688869476318,-0.0868213847279548,8.907812118530273,0.5949963331222534,72.82327270507812,29.11,0
-0.2685163617134094,-1.254058599472046,-0.122890256345272,-0.8252620697021484,0.5952910780906677,72.76119995117188,29.11,0
-0.3010671436786651,-1.168637990951538,-0.1068527624011039,-12.237462997436523,0.59548020362854,72.72135925292969,29.11,0
-0.2995652854442596,-1.069037675857544,-0.1077563762664794,-22.36631202697754,0.5956015586853027,72.69579315185547,29.11,0
-0.2930037081241607,-1.1002821922302246,-0.1195318102836608,-29.7011661529541,0.5956794619560242,72.67938995361328,29.11,0
-0.3503683805465698,-1.0419642925262451,-0.1326863765716552,-36.10280990600586,0.5957294702529907,72.66886138916016,29.11,0
-0.3983772695064544,-0.9653547406196594,-0.1411282271146774,-44.04437255859375,0.5957615375518799,72.66210174560547,29.11,0
-0.4011977314949035,-0.8770067095756531,-0.12415461987257,-51.69160461425781,0.5957821011543274,72.65776824951172,29.11,0
-0.4253988564014435,-0.8147122859954834,-0.1020663827657699,-53.24586868286133,0.5957953333854675,72.65498352050781,29.11,0
-0.4633208215236664,-0.785930871963501,-0.0934891998767852,-45.842166900634766,0.5958037972450256,72.6531982421875,29.11,0
-0.4876569509506225,-0.7730583548545837,-0.0823870822787284,-33.40985107421875,0.5958092212677002,72.65205383300781,29.11,0
-0.4976767301559448,-0.7759930491447449,-0.0640668347477912,-21.931331634521484,0.5958127379417419,72.65132141113281,29.11,0
-0.50970458984375,-0.7946696877479553,-0.0299188587814569,-14.059935569763184,0.5958150029182434,72.65084838867188,29.11,0
-0.5230211615562439,-0.8458397388458252,0.0143864443525671,-9.585321426391602,0.595816433429718,72.65054321289062,29.11,0
-0.5315669775009155,-0.9066665768623352,0.0428190380334854,-7.7634663581848145,0.5958173274993896,72.65035247802734,29.11,0
-0.5258556604385376,-1.0352661609649658,0.0610654391348362,-7.898362636566162,0.5958179235458374,72.65023040771484,29.11,0
-0.5445815324783325,-1.134587287902832,0.0951660275459289,-8.959391593933105,0.5944411754608154,72.650146484375,29.11,0
-0.5565987229347229,-1.1423481702804563,0.1394409239292144,-9.26054573059082,0.5935576558113098,72.65009307861328,29.11,0
-0.5419195890426636,-1.1585241556167605,0.1510606706142425,-7.315011501312256,0.5929906368255615,72.65006256103516,29.11,0
-0.4709238409996032,-1.2416760921478271,0.1417242437601089,-3.447617053985596,0.5926267504692078,72.65003967285156,29.11,0
-0.3917762041091919,-1.239060401916504,0.1525259763002395,0.4493714570999145,0.5923932194709778,72.6500244140625,29.11,0
-0.3297882676124573,-1.1814041137695312,0.1650556921958923,3.347900390625,0.5922433733940125,72.65001678466797,29.11,0
-0.2956057488918304,-1.0996214151382446,0.1563032120466232,6.813003540039063,0.5921472311019897,72.65000915527344,29.11,0
-0.2792671322822571,-1.0583335161209106,0.1450885981321334,13.52209186553955,0.5920855402946472,72.65000915527344,29.11,0
-0.2687819600105285,-1.0318373441696167,0.1266961544752121,23.405668258666992,0.5920459032058716,72.65000915527344,29.11,0
-0.2508576214313507,-0.9868447184562684,0.0980996191501617,32.334999084472656,0.5920205116271973,72.65000915527344,29.11,0
-0.2337570488452911,-0.9355799555778505,0.0797480121254921,36.40301513671875,0.5920041799545288,72.65000915527344,29.11,0
-0.2003917843103408,-0.857899010181427,0.0679710060358047,36.1081657409668,0.5919936895370483,72.65000915527344,29.11,0
-0.1789798885583877,-0.7912545204162598,0.0660109743475914,34.500247955322266,0.5919870138168335,72.65000915527344,29.11,0
-0.1820322871208191,-0.7764747738838196,0.0535575933754444,33.5400276184082,0.5919827222824097,72.65000915527344,29.11,0
-0.1895889043807983,-0.7893810868263245,0.0119790844619274,33.71198272705078,0.5919799208641052,72.65000915527344,29.11,0
-0.1888405382633209,-0.8088591694831848,-0.0258991606533527,34.091026306152344,0.591978132724762,72.65000915527344,29.11,0
-0.1715669631958007,-0.9221190214157104,-0.078196108341217,31.887374877929688,0.5942723751068115,72.60343170166016,29.11,0
-0.1660795509815216,-1.1067581176757812,-0.122952826321125,24.91304016113281,0.5957446694374084,72.57353973388672,29.11,0
-0.2633179724216461,-1.1300867795944214,-0.1516751199960708,15.124354362487791,0.5966895222663879,72.55435943603516,29.11,0
-0.3089266717433929,-1.1058733463287354,-0.1365207880735397,6.983182907104492,0.597295880317688,72.54204559326172,29.11,0
-0.3102068305015564,-1.135116696357727,-0.1211978271603584,1.844628930091858,0.5976849794387817,72.53414916992188,29.11,0
-0.3278217017650604,-1.0979056358337402,-0.1001688838005065,-3.674196243286133,0.5979346632957458,72.5290756225586,29.11,0
-0.3615170121192932,-1.0236457586288452,-0.0978692695498466,-13.786303520202637,0.5980949401855469,72.52582550048828,29.11,0
-0.3607496321201324,-0.9144145250320436,-0.1019912809133529,-29.51871681213379,0.5981977581977844,72.52373504638672,29.11,0
-0.3826482594013214,-0.8723050951957703,-0.0710499063134193,-46.45401382446289,0.596427321434021,72.52239227294922,29.11,0
-0.4246903955936432,-0.8788683414459229,-0.0511935129761695,-56.15419006347656,0.5952911972999573,72.52153778076172,29.11,0
-0.4628661870956421,-0.8886780142784119,-0.0496463738381862,-54.31840896606445,0.5945620536804199,72.52098846435547,29.11,0
-0.4929629862308502,-0.8949733376502991,-0.043055735528469,-46.44805908203125,0.5940941572189331,72.5206298828125,29.11,0
-0.5066795945167542,-0.8878177404403687,-0.0052395951934158,-40.36912155151367,0.5937938690185547,72.52040100097656,29.11,0
-0.5098843574523926,-0.8888234496116638,0.0246264021843671,-37.03763961791992,0.5936011672019958,72.52025604248047,29.11,0
-0.5119410157203674,-0.906262218952179,0.0437926799058914,-33.59204864501953,0.5934774875640869,72.5201644897461,29.11,0
-0.5188586115837097,-1.007017731666565,0.0728858187794685,-29.44627571105957,0.5933981537818909,72.52010345458984,29.11,0
-0.545689046382904,-1.094067931175232,0.136338323354721,-24.84041786193848,0.5924293994903564,72.52006530761719,29.13,0
-0.546113908290863,-1.1331384181976318,0.1714607030153274,-18.853784561157227,0.5918076634407043,72.5200424194336,29.13,0
-0.4848110675811767,-1.1973960399627686,0.1660113483667373,-11.38992404937744,0.5914086699485779,72.52002716064453,29.13,0
-0.4174815416336059,-1.2554261684417725,0.1625142693519592,-3.7483177185058594,0.5911526083946228,72.52001953125,29.13,0
-0.3574800193309784,-1.2366888523101809,0.1882589161396026,3.190528154373169,0.5909883379936218,72.52001190185547,29.13,0
-0.318974494934082,-1.1742843389511108,0.1935847997665405,9.520750045776367,0.5908828973770142,72.52000427246094,29.13,0
-0.2942638695240021,-1.0950523614883425,0.1858070939779281,15.929709434509276,0.5908152461051941,72.52000427246094,29.13,0
-0.2784059941768646,-1.0442057847976685,0.1640224903821945,23.50337791442871,0.5907717943191528,72.52000427246094,29.13,0
-0.2626315653324127,-1.0003798007965088,0.1500423848628997,32.050193786621094,0.5912028551101685,72.52000427246094,29.13,0
-0.2413128912448883,-0.95546156167984,0.1298752129077911,38.685054779052734,0.591479480266571,72.52000427246094,29.13,0
-0.2220340222120285,-0.9042444825172424,0.105737529695034,40.90802383422852,0.5916569828987122,72.52000427246094,29.13,0
-0.1928686201572418,-0.8321918845176697,0.0902473554015159,40.32835388183594,0.5917708873748779,72.52000427246094,29.13,0
-0.2077385932207107,-0.7971482276916504,0.0803066566586494,39.959938049316406,0.5918440222740173,72.52000427246094,29.13,0
-0.239672377705574,-0.7970503568649292,0.0683295130729675,39.65902328491211,0.5918909311294556,72.52000427246094,29.13,0
-0.2657634317874908,-0.8081830739974976,0.0326544009149074,37.78568649291992,0.5919210314750671,72.52000427246094,29.13,0
-0.2769093811511993,-0.8321207165718079,0.009760164655745,34.85310363769531,0.5919403433799744,72.52000427246094,29.13,0
-0.2784644365310669,-0.9650357961654664,-0.0273231342434883,31.78888893127441,0.5937888622283936,72.47342681884766,29.13,0
-0.3074512481689453,-1.083919644355774,-0.0679143816232681,27.06386947631836,0.5949751138687134,72.44353485107422,29.13,0
-0.3428466618061065,-1.076245903968811,-0.0771701857447624,19.349197387695312,0.5957363843917847,72.42435455322266,29.13,0
-0.371159166097641,-1.088114619255066,-0.0663167089223861,11.062987327575684,0.5962249040603638,72.41204833984375,29.13,0
-0.4061218202114105,-1.095731258392334,-0.0705471187829971,5.5268378257751465,0.5965384244918823,72.4041519165039,29.13,0
-0.4621454775333404,-1.005457043647766,-0.095653049647808,1.8128395080566408,0.596739649772644,72.39907836914062,29.13,0
-0.4645116031169891,-0.8915465474128723,-0.0949712693691253,-5.220773696899414,0.5968687534332275,72.39582824707031,29.13,0
-0.471627801656723,-0.8128475546836853,-0.0833381935954094,-21.15937614440918,0.5969516038894653,72.39373779296875,29.13,0
-0.5041834712028503,-0.7679408192634583,-0.0646772012114524,-46.25553894042969,0.5960869193077087,72.39239501953125,29.13,0
-0.5418691039085388,-0.7615134119987488,-0.041506104171276,-70.310546875,0.5955320000648499,72.39154052734375,29.13,0
-0.5604557991027832,-0.7573886513710022,-0.0154406800866127,-79.21663665771484,0.5951758623123169,72.3909912109375,29.13,0
-0.5723837018013,-0.7771326899528503,0.0460688024759292,-70.46202850341797,0.594947338104248,72.39063262939453,29.13,0
-0.5744405388832092,-0.7954010963439941,0.1023353710770607,-54.88426208496094,0.5948006510734558,72.3904037475586,29.13,0
-0.5813583135604858,-0.857504665851593,0.1384440213441848,-41.989044189453125,0.5947065353393555,72.3902587890625,29.13,0
-0.6025910377502441,-0.936543583869934,0.1560186892747879,-32.37733459472656,0.594646155834198,72.39016723632812,29.13,0
-0.6386080980300903,-1.0768306255340576,0.1616993397474289,-23.96998405456543,0.594607412815094,72.39010620117188,29.13,0
-0.6673195362091064,-1.194847583770752,0.1765403896570205,-16.44658088684082,0.5927460789680481,72.39006805419922,29.11,0
-0.6689515709877014,-1.2090085744857788,0.1916622966527938,-9.347140312194824,0.5915516018867493,72.39004516601562,29.11,0
-0.6084234118461609,-1.1341296434402466,0.1733777970075607,-1.3840991258621216,0.5907850861549377,72.39002990722656,29.11,0
-0.5695798993110657,-1.086076736450195,0.1448505371809005,7.24421215057373,0.5902931690216064,72.39002227783203,29.11,0
-0.5670434832572937,-1.094423532485962,0.1153478324413299,14.232307434082031,0.589977502822876,72.3900146484375,29.11,0
-0.5318291187286377,-1.054997801780701,0.0628280490636825,18.419511795043945,0.5897749066352844,72.39000701904297,29.11,0
-0.4588505923748016,-1.0073055028915403,0.045917198061943,22.07391357421875,0.5896449089050293,72.39000701904297,29.11,0
-0.4176149368286133,-0.9375149607658386,0.023869240656495,27.76522445678711,0.5895614624023438,72.39000701904297,29.11,0
-0.3799567222595215,-0.8983252048492432,0.0041223564185202,33.93254852294922,0.5899671912193298,72.39000701904297,29.11,0
-0.3669853806495666,-0.8675776720046997,-0.0421367064118385,36.57199478149414,0.5902276039123535,72.39000701904297,29.11,0
-0.3530633449554443,-0.8366501331329346,-0.0662253350019455,35.23139572143555,0.5903946757316589,72.39000701904297,29.11,0
-0.3385312259197235,-0.827998161315918,-0.0872818008065223,33.84085464477539,0.5905019044876099,72.39000701904297,29.11,0
-0.3292053341865539,-0.8672280311584473,-0.095196858048439,34.66812515258789,0.5905707478523254,72.39000701904297,29.11,0
-0.3288182914257049,-0.9147945642471312,-0.0946785137057304,35.40322494506836,0.590614914894104,72.39000701904297,29.11,0
-0.3173743784427643,-0.9453200697898864,-0.0887480899691581,33.71467590332031,0.5906432271003723,72.39000701904297,29.11,0
-0.3100303113460541,-0.9817028641700744,-0.0849422886967659,30.24864959716797,0.5906614065170288,72.39000701904297,29.11,0
-0.3109150826931,-1.0274423360824585,-0.0769021660089492,25.57745361328125,0.5920501947402954,72.31118774414062,29.11,0
-0.3226784467697143,-1.0455998182296753,-0.0213625114411115,18.63175201416016,0.5929414629936218,72.26060485839844,29.11,0
-0.3470208048820495,-0.9508944749832152,-0.0193070042878389,9.850231170654297,0.5935134291648865,72.22814178466797,29.11,0
-0.3738378882408142,-0.8957158327102661,-0.045976772904396,2.2049319744110107,0.5938804745674133,72.20731353759766,29.11,0
-0.42463418841362,-0.8826964497566223,-0.0407007969915866,-2.511504650115967,0.5941160321235657,72.1939468383789,29.11,0
-0.4796234369277954,-0.8519502878189087,-0.0261194296181201,-5.885751724243164,0.5942671895027161,72.18536376953125,29.11,0
-0.4813257157802582,-0.804230272769928,-0.0111641716212034,-10.892131805419922,0.5943642258644104,72.17985534667969,29.11,0
-0.4544292688369751,-0.7792040705680847,0.0208243504166603,-19.4644718170166,0.5944264531135559,72.17632293701172,29.11,0
-0.476353108882904,-0.7799370288848877,0.0525482892990112,-30.57960319519043,0.594007134437561,72.17405700683594,29.11,0
-0.5072158575057983,-0.8083962798118591,0.0841024369001388,-39.56484603881836,0.5937380194664001,72.17259979248047,29.11,0
-0.5214240550994873,-0.8322575688362122,0.0987543016672134,-42.01359176635742,0.5935653448104858,72.17166900634766,29.11,0
-0.5305420756340027,-0.8419725894927979,0.1081570237874984,-38.75574493408203,0.5934545397758484,72.17107391357422,29.11,0
-0.5419912338256836,-0.853804886341095,0.1029955968260765,-34.132164001464844,0.5933834314346313,72.17068481445312,29.11,0
-0.5661319494247437,-0.8613982200622559,0.0828899666666984,-30.62763023376465,0.5933377742767334,72.17044067382812,29.11,0
-0.5928196310997009,-0.9054555892944336,0.0475962348282337,-28.102764129638672,0.5933084487915039,72.17028045654297,29.11,0
-0.6043484807014465,-0.939326822757721,0.013751202262938,-25.9773063659668,0.5932896733283997,72.17018127441406,29.11,0
-0.6173447966575623,-0.9890522956848145,-0.07514189183712,-23.524206161499023,0.5859329700469971,72.17011260986328,29.09,0
-0.6256850957870483,-1.0321588516235352,-0.1657750010490417,-19.56037139892578,0.5812118649482727,72.17007446289062,29.09,0
-0.6422329545021057,-1.1325931549072266,-0.2295358926057815,-13.108019828796388,0.5781821012496948,72.1700439453125,29.09,0
-0.6080702543258667,-1.012319564819336,-0.281649500131607,-4.3099236488342285,0.5762377977371216,72.17002868652344,29.09,0
-0.5357666015625,-0.9631237983703612,-0.3150930106639862,5.294934272766113,0.5749900341033936,72.1700210571289,29.09,0
-0.5509418249130249,-1.0043238401412964,-0.2805773913860321,13.808948516845703,0.574189305305481,72.17001342773438,29.09,0
-0.5718759298324585,-1.0139703750610352,-0.2584272623062134,20.65204429626465,0.5736754536628723,72.17000579833984,29.09,0
-0.5461258292198181,-0.9417920708656312,-0.2554081380367279,26.67720413208008,0.5733456611633301,72.17000579833984,29.09,0
-0.4680253863334656,-0.8898744583129883,-0.2310795336961746,32.38166427612305,0.5671665668487549,72.17000579833984,29.09,0
-0.3955139219760895,-0.8565567135810852,-0.2098690569400787,37.0097541809082,0.5632011890411377,72.17000579833984,29.09,0
-0.3433824479579925,-0.8183819651603699,-0.2074529528617859,39.48181915283203,0.5606564283370972,72.17000579833984,29.09,0
-0.3211230337619781,-0.7938836216926575,-0.2115002125501632,38.818389892578125,0.5590233206748962,72.17000579833984,29.09,0
-0.3236315548419952,-0.8005530834197998,-0.1973041743040084,34.09354782104492,0.5579752922058105,72.17000579833984,29.09,0
-0.3476324677467346,-0.8496153354644775,-0.1769984364509582,25.89176177978516,0.557302713394165,72.17000579833984,29.09,0
-0.3686326444149017,-0.9090895652770996,-0.1583696007728576,16.863040924072266,0.5568711161613464,72.17000579833984,29.09,0
-0.3653160333633423,-0.9472566843032836,-0.1520124673843383,8.844146728515625,0.5565941333770752,72.17000579833984,29.09,0
-0.3631876111030578,-1.0053367614746094,-0.1367372721433639,1.1759488582611084,0.5495306849479675,72.10910034179688,29.09,0
-0.3786150515079498,-1.0873914957046509,-0.0989456623792648,-6.890560150146484,0.5449977517127991,72.07001495361328,29.09,0
-0.3605266213417053,-1.0113006830215454,-0.0523020811378955,-14.746947288513184,0.5420888066291809,72.04492950439453,29.09,0
-0.3377229571342468,-0.9848610162734984,-0.0167711433023214,-21.863035202026367,0.5402219891548157,72.0288314819336,29.09,0
-0.3454799652099609,-1.0070780515670776,0.0060305693186819,-28.12070846557617,0.5390239953994751,72.01850128173828,29.09,0
-0.3672512769699096,-1.0045422315597534,0.026261169463396,-33.27219772338867,0.5382551550865173,72.01187133789062,29.09,0
-0.3980161845684051,-0.935741662979126,0.0504395551979541,-37.2480697631836,0.5377617478370667,72.00762176513672,29.09,0
-0.3729771375656128,-0.8803938627243042,0.0659558475017547,-38.36652374267578,0.5374451279640198,72.00489044189453,29.09,0
-0.3625063002109527,-0.8560703992843628,0.0815110877156257,-31.87255859375,0.5363237261772156,72.00313568115234,29.09,0
-0.3837755918502807,-0.868449866771698,0.1194824203848838,-14.746930122375488,0.5356040596961975,72.00201416015625,29.09,0
-0.4142183065414428,-0.8707965016365051,0.1382524520158767,9.12625503540039,0.5351422429084778,72.00128936767578,29.09,0
-0.4337547123432159,-0.8723024129867554,0.144700214266777,32.17789077758789,0.5348458886146545,72.00082397460938,29.09,0
-0.4406942725181579,-0.8788666129112244,0.154435783624649,48.89852523803711,0.5346556901931763,72.00052642822266,29.09,0
-0.4451476633548736,-0.8886769413948059,0.1550857424736023,56.66607666015625,0.5345336198806763,72.00033569335938,29.09,0
-0.4480056166648865,-0.9117659330368042,0.127513974905014,55.513893127441406,0.5344552993774414,72.00021362304688,29.09,0
-0.4498396813869476,-0.9433764815330504,0.0986244529485702,48.62320327758789,0.5344050526618958,72.00013732910156,29.09,0
-0.4566144347190857,-0.9804556369781494,0.0520959496498107,39.67994689941406,0.5357499122619629,72.00009155273438,29.11,0
-0.4777554273605346,-1.0098485946655271,-0.0169477872550487,30.0034294128418,0.5366129875183105,72.00006103515625,29.11,0
-0.4969202578067779,-1.0846891403198242,-0.0668538585305213,19.927997589111328,0.5371668338775635,72.00003814697266,29.11,0
-0.5931857824325562,-1.1047285795211792,-0.1100762486457824,10.86479949951172,0.5375223159790039,72.0000228881836,29.11,0
-0.6381701231002808,-1.033622145652771,-0.1546072214841842,4.471765518188477,0.5377504229545593,72.00001525878906,29.11,0
-0.5942674279212952,-1.049565672874451,-0.1719890832901001,1.2360674142837524,0.5378968119621277,72.00000762939453,29.11,0
-0.5604954361915588,-1.0430039167404177,-0.1775459796190261,0.3382498621940613,0.5379907488822937,72.00000762939453,29.11,0
-0.5276269316673279,-1.0164018869400024,-0.1699165403842926,0.7293776273727417,0.5380510091781616,72.00000762939453,29.11,0
-0.461751639842987,-0.9769391417503356,-0.1594226211309433,2.338176965713501,0.5422211289405823,72.00000762939453,29.11,0
-0.4082811176776886,-0.9460164308547974,-0.169481560587883,5.305202960968018,0.5448972582817078,72.00000762939453,29.11,0
-0.3907601237297058,-0.9205742478370668,-0.1815345734357834,8.158652305603027,0.5466146469116211,72.00000762939453,29.11,0
-0.3907117247581482,-0.9042469263076782,-0.200465053319931,8.535305976867676,0.5477167963981628,72.00000762939453,29.11,0
-0.385082870721817,-0.8825734257698059,-0.2238090932369232,5.309086799621582,0.5484240651130676,72.00000762939453,29.11,0
-0.3814706206321716,-0.8854579925537109,-0.2387899607419967,-1.1499699354171753,0.5488779544830322,72.00000762939453,29.11,0
-0.3791524767875671,-0.9097002148628236,-0.2316104918718338,-9.583364486694336,0.5491692423820496,72.00000762939453,29.11,0
-0.3720670342445373,-0.9196596741676332,-0.2102098017930984,-18.352304458618164,0.5493561625480652,72.00000762939453,29.11,0
-0.3563244640827179,-0.9820288419723512,-0.1796827465295791,-26.70604515075684,0.5517714619636536,71.94268035888672,29.11,0
-0.3462218046188354,-1.061238169670105,-0.1488966941833496,-34.70018768310547,0.5533214807510376,71.90589141845703,29.11,0
-0.3341407179832458,-1.0672880411148071,-0.0899555534124374,-41.42461395263672,0.5543161630630493,71.88228607177734,29.11,0
-0.3207899928092956,-1.0095949172973633,-0.0409349724650383,-45.54292297363281,0.5549545288085938,71.86713409423828,29.11,0
-0.312222272157669,-0.9781686067581176,-0.0150741599500179,-47.433475494384766,0.555364191532135,71.85741424560547,29.11,0
-0.3459084033966064,-0.9803920984268188,0.0183151457458734,-48.413856506347656,0.5556271076202393,71.8511734008789,29.11,0
-0.3787217736244201,-0.9650256633758544,0.0453402549028396,-48.63459396362305,0.5557957887649536,71.84716796875,29.11,0
-0.366192877292633,-0.9047844409942628,0.0738789588212966,-47.164093017578125,0.5559040307998657,71.84459686279297,29.11,0
-0.3357614576816559,-0.8661250472068787,0.0977912321686744,-43.15730667114258,0.5545963644981384,71.84294891357422,29.11,0
-0.3106345534324646,-0.8637067675590515,0.1243323013186454,-36.415863037109375,0.5537571907043457,71.84188842773438,29.11,0
-0.3280961811542511,-0.8789482116699219,0.1525603830814361,-27.657947540283203,0.5532186627388,71.8412094116211,29.11,0
-0.3616931438446045,-0.8999248147010803,0.1650777608156204,-17.896163940429688,0.5528730750083923,71.84077453613281,29.11,0
-0.4056448340415954,-0.907788634300232,0.1619151532649994,-7.658536911010742,0.5526512861251831,71.84049224853516,29.11,0
-0.4226549565792084,-0.9184329509735109,0.1542878001928329,2.0783796310424805,0.5525089502334595,71.84031677246094,29.11,0
-0.4167777597904205,-0.9196661114692688,0.1493929922580719,9.272771835327148,0.5524176359176636,71.84020233154297,29.11,0
-0.3906150162220001,-0.9260552525520324,0.1294584721326828,13.166038513183594,0.5523590445518494,71.84012603759766,29.11,0
-0.3906185925006866,-0.9525465369224548,0.1054700911045074,15.7039213180542,0.5527803301811218,71.84008026123047,29.09,0
-0.446598619222641,-0.9863404035568236,0.0620868578553199,18.72620964050293,0.553050696849823,71.84004974365234,29.09,0
-0.4881211519241333,-1.00802743434906,0.0118549019098281,21.719018936157227,0.5532242059707642,71.84002685546875,29.09,0
-0.5147679448127747,-1.0779225826263428,-0.0315766260027885,23.49274444580078,0.5533355474472046,71.84001922607422,29.09,0
-0.5766505002975464,-1.0220173597335815,-0.0482529327273368,23.71388053894043,0.5534070134162903,71.84001159667969,29.09,0
-0.6163631677627563,-0.9973361492156982,-0.0645525977015495,22.297372817993164,0.5534528493881226,71.84000396728516,29.09,0
-0.6362506747245789,-1.0318771600723269,-0.0918061137199401,19.410757064819336,0.5534822940826416,71.84000396728516,29.09,0
-0.6322200298309326,-1.054043531417847,-0.1092958524823188,16.096603393554688,0.5535011887550354,71.84000396728516,29.09,0
-0.5456667542457581,-1.0066931247711182,-0.1093242093920707,13.482540130615234,0.5553493499755859,71.84000396728516,29.09,0
-0.4509374499320984,-0.9539152979850768,-0.1037446334958076,11.930375099182127,0.5565354228019714,71.84000396728516,29.09,0
-0.3901456296443939,-0.9200454950332642,-0.111359529197216,11.3749418258667,0.5572965741157532,71.84000396728516,29.09,0
-0.3679262697696686,-0.8871142864227295,-0.133039653301239,11.40183162689209,0.5577850341796875,71.84000396728516,29.09,0
-0.364862710237503,-0.8659809231758118,-0.1525504887104034,11.078743934631348,0.5580984950065613,71.84000396728516,29.09,0
-0.3517011404037475,-0.8748098611831665,-0.1762669682502746,9.965012550354004,0.5582996606826782,71.84000396728516,29.09,0
-0.3376570343971252,-0.8860735297203064,-0.1746935099363327,8.544516563415527,0.5584287643432617,71.84000396728516,29.09,0
-0.3342421054840088,-0.9156929850578308,-0.1568904370069503,6.708619594573975,0.5585116147994995,71.84000396728516,29.09,0
-0.3264528214931488,-0.9291033148765564,-0.134269893169403,3.509874105453491,0.5558105111122131,71.78626251220703,29.09,0
-0.3102585673332214,-0.948904812335968,-0.1029600128531456,-0.8464927077293396,0.5540770888328552,71.75177764892578,29.09,0
-0.2998660206794739,-1.0343832969665527,-0.077269360423088,-5.343881607055664,0.5529646873474121,71.72964477539062,29.09,0
-0.2987944781780243,-1.083640694618225,-0.0327937044203281,-10.479904174804688,0.5522508025169373,71.71543884277344,29.09,0
-0.3093023598194122,-1.042480230331421,0.0069437590427696,-17.25817108154297,0.5517926812171936,71.70632934570312,29.09,0
-0.2992523908615112,-1.0048702955245972,0.0548360720276832,-24.38815116882324,0.5514986515045166,71.70047760009766,29.09,0
-0.3039984405040741,-1.0199187994003296,0.0799728333950042,-29.458158493041992,0.5513099431991577,71.69672393798828,29.09,0
-0.3238375186920166,-1.0183805227279663,0.1017019301652908,-32.13858413696289,0.5511888861656189,71.6943130493164,29.09,0
-0.3197757601737976,-0.9558178186416626,0.1324397325515747,-33.67601776123047,0.551570475101471,71.6927719116211,29.09,0
-0.3003758490085602,-0.8820820450782776,0.152165487408638,-33.946136474609375,0.5518153309822083,71.69178009033203,29.09,0
-0.2991216480731964,-0.8291648626327515,0.1816176623106002,-31.62601089477539,0.551972508430481,71.69114685058594,29.09,0
-0.3207078576087951,-0.806401252746582,0.2005183845758438,-26.63332939147949,0.5520733594894409,71.69073486328125,29.09,0
-0.3513539731502533,-0.8085861802101135,0.201452225446701,-19.83957290649414,0.552138090133667,71.69047546386719,29.09,0
-0.3710208833217621,-0.8323794603347778,0.1964537352323532,-11.477993965148926,0.5521796345710754,71.6903076171875,29.09,0
-0.3948375284671783,-0.8420507907867432,0.193245992064476,-2.443456649780273,0.55220627784729,71.69020080566406,29.09,0
-0.3989261388778686,-0.8594528436660767,0.2023829966783523,4.593960285186768,0.5522233843803406,71.69013214111328,29.09,0
-0.4015499651432037,-0.904207170009613,0.2138443738222122,8.19303035736084,0.5513161420822144,71.6900863647461,29.11,0
-0.4144293367862701,-0.9721122980117798,0.1876129806041717,10.366568565368652,0.5507339239120483,71.69005584716797,29.11,0
-0.4059012532234192,-1.0436787605285645,0.153985857963562,13.642271995544434,0.5503603219985962,71.69003295898438,29.11,0
-0.4116239547729492,-1.1511815786361694,0.1268081367015838,17.89397621154785,0.5501205325126648,71.69002532958984,29.11,0
-0.4600786566734314,-1.147399663925171,0.1205625832080841,21.421388626098636,0.5499666333198547,71.69001770019531,29.11,0
-0.4967718720436096,-1.1057881116867063,0.0997612252831459,23.294578552246094,0.5498678684234619,71.69001007080078,29.11,0
-0.4643417298793793,-1.1518553495407104,0.0808143317699432,23.762256622314453,0.5498045086860657,71.69001007080078,29.11,0
-0.4211388230323791,-1.1478320360183716,0.0742530822753906,23.39602470397949,0.5497638583183289,71.69001007080078,29.11,0
-0.3822181522846222,-1.0892722606658936,0.0700424537062645,22.37999725341797,0.5506559610366821,71.69001007080078,29.11,0
-0.334850013256073,-0.99571430683136,0.0673403143882751,20.689022064208984,0.5512284636497498,71.69001007080078,29.11,0
-0.3044518530368805,-0.9356741905212402,0.0544106848537921,19.127368927001957,0.5515958666801453,71.69001007080078,29.11,0
-0.2905418276786804,-0.9083394408226012,0.0293198730796575,19.264450073242188,0.5518316626548767,71.69001007080078,29.11,0
-0.2760173976421356,-0.8684064745903015,0.0132180321961641,21.448226928710938,0.5519829988479614,71.69001007080078,29.11,0
-0.2666964828968048,-0.8427797555923462,0.0084825726225972,23.69513702392578,0.5520800948143005,71.69001007080078,29.11,0
-0.2551170587539673,-0.8263340592384338,0.0054436270147562,23.567907333374023,0.5521423816680908,71.69001007080078,29.11,0
-0.2476860582828521,-0.8101823329925537,0.0090911807492375,20.41240882873535,0.5521823763847351,71.69001007080078,29.11,0
-0.2653083801269531,-0.8390015363693237,0.0226275194436311,15.28129768371582,0.5531259179115295,71.63985443115234,29.11,0
-0.2934106886386871,-0.874289333820343,0.003325491445139,9.56304168701172,0.553731381893158,71.607666015625,29.11,0
-0.3058473467826843,-0.9025328159332277,-0.0090614398941397,4.037620067596436,0.5541199445724487,71.58700561523438,29.11,0
-0.3026329278945923,-0.9822333455085754,-0.0282062087208032,-1.5646759271621704,0.554369330406189,71.57374572753906,29.11,0
-0.3117656409740448,-1.0893583297729492,-0.0516877695918083,-8.183600425720215,0.5545293688774109,71.56523895263672,29.11,0
-0.3903975784778595,-1.102127194404602,-0.0555613338947296,-16.01382064819336,0.5546320676803589,71.55978393554688,29.11,0
-0.3904790580272674,-1.0935282707214355,-0.0468516163527965,-23.618261337280277,0.5546979904174805,71.55628204345703,29.11,0
-0.3961291313171386,-1.0936076641082764,-0.0412622205913066,-29.06081771850586,0.5547402501106262,71.55403137207031,29.11,0
-0.4277438819408417,-1.0208876132965088,-0.0488708168268203,-32.005401611328125,0.5538495182991028,71.5525894165039,29.11,0
-0.4368368685245514,-0.895851194858551,-0.0649491250514984,-33.952388763427734,0.5532779097557068,71.55166625976562,29.11,0
-0.4426722228527069,-0.7988166809082031,-0.069669485092163,-35.51711654663086,0.552911102771759,71.55107116699219,29.11,0
-0.4744058847427368,-0.7477411031723022,-0.0671009644865989,-34.65833282470703,0.552675724029541,71.55068969726562,29.11,0
-0.5003684759140015,-0.7373548150062561,-0.0654526352882385,-29.553760528564453,0.5525246262550354,71.55044555664062,29.11,0
-0.5170297622680664,-0.7642761468887329,-0.0531992837786674,-21.577600479125977,0.5524277091026306,71.55028533935547,29.11,0
-0.5221242904663086,-0.787150502204895,-0.0285424645990133,-13.177319526672363,0.5523654818534851,71.55018615722656,29.11,0
-0.5197958946228027,-0.8186232447624207,-0.0015235869213938,-5.138979911804199,0.5523255467414856,71.55011749267578,29.11,0
-0.5183016657829285,-0.850016176700592,0.0326088964939117,2.294498920440674,0.5532177686691284,71.55007934570312,29.11,0
-0.5117449760437012,-0.8869556784629822,0.0601109340786933,8.411927223205566,0.5537903308868408,71.550048828125,29.11,0
-0.5019394755363464,-0.9890301823616028,0.0833579301834106,13.011263847351074,0.5541577935218811,71.55003356933594,29.11,0
-0.5180379748344421,-1.0993179082870483,0.1206676140427589,16.149147033691406,0.5543935894966125,71.5500259399414,29.11,0
