acc_x,acc_y,acc_z,bvp,eda,hr,temp,label
0.0,0.0,0.0,0.0,0.0,0.0,28.37,0
-0.0364583320915699,-0.1302083283662796,0.0937499925494194,0.5516666173934937,0.482397973537445,9.999999046325684,28.37,0
-0.1063262224197387,-0.3006859719753265,0.2195121943950653,1.388292670249939,1.1295171976089478,23.414634704589844,28.37,0
-0.157132476568222,-0.4439888000488281,0.3289036452770233,2.498737573623657,1.6923996210098269,35.08305740356445,28.37,0
-0.1888601779937744,-0.559212327003479,0.3873578310012817,3.8930797576904297,2.1030526161193848,43.595802307128906,28.37,0
-0.254258930683136,-0.6866310238838196,0.40497487783432,5.392228603363037,2.381082057952881,49.35928726196289,28.37,0
-0.3193822205066681,-0.7202582955360413,0.4276403486728668,6.816577911376953,2.563509464263916,53.14096450805664,28.37,0
-0.3504007458686828,-0.7476164102554321,0.4311610162258148,8.146127700805664,2.681658744812012,55.59017181396485,28.37,0
-0.3815623521804809,-0.7987807393074036,0.4390190839767456,9.485577583312988,2.7032148838043213,57.16788101196289,28.37,0
-0.3624287247657776,-0.770125150680542,0.4720430374145508,10.99458122253418,2.7170698642730717,58.181941986083984,28.37,0
-0.3669314384460449,-0.7685133218765259,0.4820565283298492,12.952157020568848,2.7259669303894043,58.833126068115234,28.37,0
-0.3810162842273712,-0.7674786448478699,0.4828870594501495,15.652389526367188,2.731678009033203,59.25112915039063,28.37,0
-0.3788609802722931,-0.7612170577049255,0.4834201037883758,19.079923629760746,2.7353434562683105,59.5194091796875,28.37,0
-0.3662824034690857,-0.7516008615493774,0.4781645238399505,23.03146743774414,2.7376959323883057,59.69158172607422,28.37,0
-0.3638077974319458,-0.7510273456573486,0.4691939949989319,27.695423126220703,2.7392055988311768,59.80207443237305,28.37,0
-0.3622197210788727,-0.7562570571899414,0.4634371697902679,33.64054107666016,2.740174531936645,59.87298202514648,28.37,0
-0.3556028008460998,-0.7596132159233093,0.4429494440555572,41.16733169555664,2.818834066390991,59.918487548828125,28.37,0
-0.3513564467430115,-0.7617669701576233,0.4242038130760193,49.50494003295898,2.869313240051269,59.94768905639648,28.37,0
-0.3542291522026062,-0.7687469124794006,0.4121739566326141,56.26348876953125,2.901707887649536,59.9664306640625,28.37,0
-0.3728660047054291,-0.7956173419952393,0.3932583332061767,58.5120964050293,2.922497034072876,59.978458404541016,28.37,0
-0.3792282938957214,-0.8072634339332581,0.386717140674591,55.36942672729492,2.935838222503662,59.986175537109375,28.37,0
-0.3609201610088348,-0.8035417199134827,0.3881171643733978,48.89950180053711,2.944399833679199,59.99112701416016,28.37,0
-0.3491710424423218,-0.801153302192688,0.3890156149864197,42.19309997558594,2.9498941898345947,59.99430465698242,28.37,0
-0.3584244549274444,-0.8108161091804504,0.3895922005176544,37.86065673828125,2.953420162200928,59.99634552001953,28.37,0
-0.3587650060653686,-0.8058215975761414,0.3899621963500976,37.903411865234375,2.9662411212921143,59.99765396118164,28.37,0
-0.336592435836792,-0.7914208769798279,0.3957974314689636,42.73150253295898,2.974468946456909,59.99849319458008,28.37,0
-0.299972265958786,-0.8045703768730164,0.4051399230957031,49.871036529541016,2.9797489643096924,59.9990348815918,28.37,0
-0.2876670956611633,-0.8242045640945435,0.4055376052856445,54.69997787475586,2.983137369155884,59.99938201904297,28.37,0
-0.3189547657966614,-0.870391309261322,0.4113906025886535,53.19172286987305,2.985311985015869,59.999603271484375,28.37,0
-0.3166422843933105,-0.8720424175262451,0.4095489382743835,44.42812728881836,2.9867074489593506,59.9997444152832,28.37,0
-0.3039627373218536,-0.8563086986541748,0.4139648377895355,30.65379524230957,2.987602949142456,59.99983596801758,28.37,0
-0.3182168304920196,-0.835016131401062,0.4167987108230591,15.186455726623535,2.988177537918091,59.99989318847656,28.37,0
-0.3273642957210541,-0.8157539963722229,0.4130195677280426,0.9039967060089112,2.9890053272247314,59.5234489440918,28.41,0
-0.3332346081733703,-0.8033927083015442,0.4105943143367767,-10.235663414001465,2.9895365238189697,59.21769332885742,28.41,0
-0.3481973707675934,-0.7954599261283875,0.4090379178524017,-17.982746124267578,2.989877462387085,59.02147674560547,28.41,0
-0.3633973896503448,-0.7959668636322021,0.4080391228199005,-23.28755760192871,2.990096092224121,58.89555740356445,28.41,0
-0.378749668598175,-0.7906944155693054,0.4018003940582275,-25.78548812866211,2.990236520767212,58.81475067138672,28.41,0
-0.3886018693447113,-0.7929086685180664,0.3921989500522613,-23.483509063720703,2.9903266429901123,58.76289367675781,28.41,0
-0.3949244320392608,-0.8335140347480774,0.3748417496681213,-16.041242599487305,2.990384578704834,58.7296142578125,28.41,0
-0.398981899023056,-0.853974461555481,0.3469095826148987,-6.744013786315918,2.9904215335845947,58.708255767822266,28.41,0
-0.4015857577323913,-0.8950936794281006,0.323386549949646,-0.7095186710357666,2.991363525390625,58.69454956054688,28.41,0
-0.4200500845909118,-0.9886549115180968,0.3082908093929291,-2.1498863697052,2.9919681549072266,58.68575286865234,28.41,0
-0.4486927390098572,-1.0934792757034302,0.2986032366752624,-12.403258323669434,2.992356061935425,58.68010711669922,28.41,0
-0.4446828663349151,-1.1103695631027222,0.2699952125549316,-28.55592536926269,2.992604970932007,58.67648696899414,28.41,0
-0.3861317932605743,-1.026046633720398,0.2572340071201324,-44.55717086791992,2.992764711380005,58.674163818359375,28.41,0
-0.342959314584732,-1.011117458343506,0.2546423673629761,-55.388309478759766,2.9928672313690186,58.67267227172852,28.41,0
-0.3320470452308655,-1.0631122589111328,0.2361858785152435,-60.15732192993164,2.9929330348968506,58.67171478271485,28.41,0
-0.3194463849067688,-1.0964795351028442,0.1963526904582977,-61.04317855834961,2.992975234985352,58.67110061645508,28.41,0
-0.2945666909217834,-1.039523959159851,0.1707900464534759,-60.32910537719727,2.9874937534332275,58.67070388793945,28.41,0
-0.273002564907074,-0.95819091796875,0.1655809581279754,-58.93938827514648,2.983976125717163,58.67045211791992,28.41,0
-0.2647617161273956,-0.9003982543945312,0.1566402912139892,-56.7470703125,2.981718778610229,58.6702880859375,28.41,0
-0.2650710046291351,-0.8409191966056824,0.1509026885032653,-53.41632461547852,2.9802701473236084,58.67018508911133,28.41,0
-0.2652694880962372,-0.7915533781051636,0.1472206264734268,-48.97882843017578,2.9793403148651123,58.67011642456055,28.41,0
-0.2430057525634765,-0.771068811416626,0.1504554748535156,-44.074703216552734,2.9787437915802,58.67007446289063,28.41,0
-0.2511092722415924,-0.774716317653656,0.1525314003229141,-39.71660614013672,2.978360891342163,58.670047760009766,28.41,0
-0.2787007391452789,-0.7994481325149536,0.1482658386230468,-36.393192291259766,2.9781150817871094,58.67002868652344,28.41,0
-0.3020051419734955,-0.8265151381492615,0.1455284506082534,-33.59047317504883,2.976580142974853,58.67001724243164,28.41,0
-0.3057650029659271,-0.8662763237953186,0.1549673080444336,-30.77798080444336,2.975595235824585,58.67000961303711,28.41,0
-0.3081778585910797,-0.9253793954849244,0.1778179407119751,-28.22074508666992,2.9749631881713867,58.67000579833984,28.41,0
-0.3097262978553772,-1.0416772365570068,0.1644932925701141,-26.318130493164062,2.974557638168335,58.67000198364258,28.41,0
-0.3107199966907501,-1.1498970985412598,0.1447467505931854,-25.014741897583008,2.974297285079956,58.67000198364258,28.41,0
-0.3561398983001709,-1.1521730422973633,0.1488678753376007,-24.1711368560791,2.974130153656006,58.67000198364258,28.41,0
-0.3796899914741516,-1.0640692710876465,0.168305903673172,-23.69066429138184,2.97402286529541,58.67000198364258,28.41,0
-0.3556186556816101,-0.9851382374763488,0.1975734382867813,-23.185283660888672,2.973954200744629,58.67000198364258,28.41,0
-0.3177799880504608,-1.0296469926834106,0.2051600962877273,-22.30924224853516,2.9674832820892334,66.49076080322266,28.37,0
-0.2767039835453033,-1.0190256834030151,0.2212243378162384,-21.302810668945312,2.963330745697021,71.50967407226562,28.37,0
-0.250343769788742,-0.9562318325042723,0.2371312081813812,-20.72142601013184,2.960665702819824,74.73052978515625,28.37,0
-0.2558183968067169,-0.8823477029800415,0.2417415529489517,-20.7137508392334,2.9589555263519287,76.7974853515625,28.37,0
-0.29291832447052,-0.7789553999900818,0.2447002083063125,-20.712406158447266,2.957858085632324,78.12393951416016,28.37,0
-0.3111291527748108,-0.7293974757194519,0.2521966695785522,-19.751413345336918,2.957153797149658,78.97518157958984,28.37,0
-0.3116202652454376,-0.6975940465927124,0.2626052498817444,-17.354164123535156,2.9567017555236816,79.5214614868164,28.37,0
-0.3119354248046875,-0.6995755434036255,0.2692848742008209,-14.049537658691406,2.956411600112915,79.87203216552734,28.37,0
-0.3177354633808136,-0.7120426893234253,0.2791692316532135,-10.64625644683838,2.960356950759888,80.09700775146484,28.37,0
-0.3662397861480713,-0.7312389612197876,0.2911102175712585,-7.430444717407227,2.962888717651367,80.24138641357422,28.37,0
-0.4029648602008819,-0.7491558194160461,0.3211643695831299,-4.546311855316162,2.9645135402679443,80.33403778076172,28.37,0
-0.415337324142456,-0.7830448746681213,0.3460491597652435,-2.433913469314575,2.9655561447143555,80.39349365234375,28.37,0
-0.417679488658905,-0.8887595534324646,0.3396276831626892,-1.0424721240997314,2.9662253856658936,80.43164825439453,28.37,0
-0.4191825687885284,-1.02377450466156,0.3411045372486114,0.5526596903800964,2.9666547775268555,80.45613861083984,28.37,0
-0.4593315720558166,-1.1160171031951904,0.3364545106887817,2.959197759628296,2.966930389404297,80.47185516357422,28.37,0
-0.5074880123138428,-1.1024420261383057,0.327872633934021,5.399219036102295,2.9671072959899902,80.48194122314453,28.37,0
-0.52719646692276,-1.043350338935852,0.2887786328792572,6.298725128173828,2.9672207832336426,80.48841094970703,28.37,0
-0.4950620234012604,-1.0670042037963867,0.2580925822257995,4.955716133117676,2.967293500900269,80.49256134033203,28.37,0
-0.4464511275291443,-1.1437593698501587,0.2439977973699569,2.4387001991271973,2.9673402309417725,80.49522399902344,28.37,0
-0.3816688060760498,-1.120245337486267,0.2069637179374694,0.4078454673290252,2.9673702716827397,80.49693298339844,28.37,0
-0.3400952219963074,-0.9987977147102356,0.1496107280254364,-0.9026053547859192,2.9673895835876465,80.49803161621094,28.37,0
-0.3078179359436035,-0.8816751837730408,0.1184026524424552,-2.617725610733032,2.96740198135376,80.49873352050781,28.37,0
-0.3150931000709533,-0.7897193431854248,0.1095706522464752,-5.133508682250977,2.96740984916687,80.49918365478516,28.37,0
-0.3253596425056457,-0.7419029474258423,0.0983050093054771,-7.339118003845215,2.9674148559570312,80.49947357177734,28.37,0
-0.3319481313228607,-0.7112171053886414,0.0798798203468322,-8.167008399963379,2.965582132339477,80.49966430664062,28.37,0
-0.3025895953178406,-0.7307091355323792,0.073653370141983,-7.645024299621582,2.964406013488769,80.49978637695312,28.37,0
-0.272553414106369,-0.7544135451316833,0.0864509120583534,-6.077638626098633,2.963651180267334,80.49986267089844,28.37,0
-0.2812668085098266,-0.8032123446464539,0.111456960439682,-3.6100900173187256,2.9631667137146,80.49990844726562,28.37,0
-0.2980540990829468,-0.8793107867240906,0.1331021785736084,-0.9016305804252625,2.962855815887451,80.49993896484375,28.37,0
-0.3200227618217468,-0.9841241240501404,0.1581883877515792,1.2556639909744265,2.962656259536743,80.49996185302734,28.37,0
-0.3285232186317444,-1.1017673015594482,0.174287274479866,3.2240514755249023,2.9625282287597656,80.4999771118164,28.37,0
-0.3395760953426361,-1.1604706048965454,0.195814162492752,5.913114070892334,2.9624462127685547,80.49998474121094,28.37,0
-0.3802558481693268,-1.0470030307769775,0.2320199757814407,8.767311096191406,2.962852478027344,82.25545501708984,28.39,0
-0.400763988494873,-0.8958172798156738,0.2664503157138824,9.882455825805664,2.9631130695343018,83.38201141357422,28.39,0
-0.3915338516235351,-0.8771637678146362,0.2885457277297973,8.015053749084473,2.963280200958252,84.10497283935547,28.39,0
-0.3688171505928039,-0.9267685413360596,0.2803342044353485,3.825212240219116,2.963387489318848,84.56892395019531,28.39,0
-0.3430433273315429,-0.9362109303474426,0.2750645279884338,-0.4578330814838409,2.963456392288208,84.86666107177734,28.39,0
-0.3209053874015808,-0.9086838960647584,0.2604871988296509,-2.8625175952911377,2.963500738143921,85.05773162841797,28.39,0
-0.3234918713569641,-0.8798230886459351,0.2399367541074752,-3.7285990715026855,2.963529109954834,85.18035125732422,28.39,0
-0.3475428223609924,-0.8445085287094116,0.2379442155361175,-5.1048102378845215,2.9635472297668457,85.25904083251953,28.39,0
-0.3853684365749359,-0.810650110244751,0.2254699617624282,-7.668210983276367,2.961263656616211,85.30953979492188,28.39,0
-0.398447185754776,-0.7833240032196045,0.2118669301271438,-9.900795936584473,2.9597980976104736,85.34194946289062,28.39,0
-0.3956448137760162,-0.765787661075592,0.2143328487873077,-10.513131141662598,2.958857774734497,85.36274719238281,28.39,0
-0.3994441926479339,-0.7377405166625977,0.2215131074190139,-9.648609161376951,2.958254337310791,85.37609100341797,28.39,0
-0.4242735207080841,-0.6973503828048706,0.2261209785938263,-7.75034236907959,2.957866907119751,85.38465881347656,28.39,0
-0.4681964218616485,-0.7162125110626221,0.2178824990987777,-5.059705257415772,2.957618236541748,85.39015197753906,28.39,0
-0.5075791478157043,-0.7339149117469788,0.206997737288475,-2.125681638717652,2.957458734512329,85.39368438720703,28.39,0
-0.5328527092933655,-0.8628285527229309,0.1832192093133926,0.6241894960403442,2.9573564529418945,85.39595031738281,28.39,0
-0.5714629292488098,-1.1022956371307373,0.162361741065979,3.517409563064575,2.9517822265625,85.39739990234375,28.39,0
-0.6074362993240356,-1.076843023300171,0.1321832984685897,7.018514156341553,2.94820499420166,85.39833068847656,28.39,0
-0.5745441913604736,-1.1500734090805054,0.0624365359544754,10.633865356445312,2.945909261703491,85.39892578125,28.39,0
-0.5534359216690063,-1.202666163444519,0.0176770780235528,12.746200561523438,2.9444360733032227,85.3993148803711,28.39,0
-0.4895099103450775,-1.2588082551956177,-0.0110469656065106,11.712197303771973,2.943490505218506,85.3995590209961,28.39,0
-0.4260947704315185,-1.210870385169983,-0.029480405151844,7.552040100097656,2.9428837299346924,85.39971923828125,28.39,0
-0.3965941369533539,-1.1017378568649292,-0.052505474537611,2.3924002647399902,2.9424943923950195,85.39981842041016,28.39,0
-0.37766233086586,-1.0205073356628418,-0.0672816410660743,-1.4418154954910278,2.942244529724121,85.39988708496094,28.39,0
-0.3655129671096802,-0.9739760160446168,-0.0823619067668914,-3.7232658863067623,2.932903528213501,85.3999252319336,28.39,0
-0.3353251218795776,-0.9385170936584472,-0.0976373255252838,-5.882389068603516,2.9269089698791504,85.39995574951172,28.39,0
-0.293561190366745,-0.9101638197898864,-0.1018424332141876,-8.550552368164062,2.9230620861053467,85.39997100830078,28.39,0
-0.2667595148086548,-0.8975661396980286,-0.1045410335063934,-10.85753345489502,2.92059326171875,85.39997863769531,28.39,0
-0.2551575303077698,-0.9174705147743224,-0.1062728390097618,-12.001258850097656,2.91900897026062,85.39998626708984,28.39,0
-0.2589075863361358,-0.9470373392105104,-0.1017864346504211,-12.05096435546875,2.917992353439331,85.39999389648438,28.39,0
-0.2837052345275879,-1.0443804264068604,-0.0877117738127708,-11.22304344177246,2.91733980178833,85.39999389648438,28.39,0
-0.2996189594268799,-1.1124473810195925,-0.073081687092781,-9.602628707885742,2.916921138763428,85.39999389648438,28.39,0
-0.3378203213214874,-0.9770001173019408,-0.0245085228234529,-7.29450798034668,2.9111437797546387,89.25843048095703,28.35,0
-0.3903246521949768,-1.0468155145645142,0.0178584866225719,-3.993340730667114,2.9074361324310303,91.73455047607422,28.35,0
-0.412823349237442,-1.119607925415039,0.0562427416443824,0.8514981865882874,2.905056953430176,93.3235855102539,28.35,0
-0.4048706293106079,-1.166321873664856,0.1256577521562576,6.432614326477051,2.9035301208496094,94.34333801269533,28.35,0
-0.3605825901031494,-1.1291269063949585,0.1813998520374298,10.10740089416504,2.902550220489502,94.99774932861328,28.35,0
-0.2425967007875442,-0.9988995790481568,0.2115741521120071,9.990106582641602,2.901921510696411,95.41771697998048,28.35,0
-0.2340534329414367,-0.9377182722091676,0.2197427302598953,7.335379600524902,2.901517868041992,95.68722534179688,28.35,0
-0.2565597295761108,-0.909651219844818,0.2249848544597625,4.868640422821045,2.901258945465088,95.86018371582033,28.35,0
-0.3045896291732788,-0.8972371816635132,0.211555615067482,3.6510517597198486,2.897879123687744,95.97117614746094,28.35,0
-0.3298146724700928,-0.889270544052124,0.202937513589859,3.023724317550659,2.895710229873657,96.04240417480467,28.35,0
-0.3292093276977539,-0.8785602450370789,0.1862113624811172,2.345283269882202,2.8943183422088623,96.0881118774414,28.35,0
-0.3344186246395111,-0.854893684387207,0.1698797047138214,1.4226685762405396,2.8934249877929688,96.11744689941406,28.35,0
-0.34895721077919,-0.8341080546379089,0.1649967581033706,0.1104898154735565,2.8928518295288086,96.1362762451172,28.35,0
-0.3918738961219787,-0.8151712417602539,0.1394720673561096,-1.4696016311645508,2.892483949661255,96.14835357666016,28.35,0
-0.4362086653709411,-0.8030186891555786,0.1174940168857574,-2.8956093788146973,2.8922479152679443,96.1561050415039,28.35,0
-0.459062397480011,-0.8623932003974915,0.0809986740350723,-3.932546615600586,2.892096281051636,96.16107940673828,28.35,0
-0.4401419460773468,-0.917289674282074,0.0575780607759952,-4.691140174865723,2.8910810947418213,96.16427612304688,28.35,0
-0.4224021136760711,-1.0532790422439575,0.0425480604171752,-5.246030807495117,2.890429735183716,96.16632843017578,28.35,0
-0.4334088265895843,-1.0229958295822144,0.0217071212828159,-5.337017059326172,2.890011787414551,96.16764068603516,28.35,0
-0.451667845249176,-1.0371484756469729,-0.0084607154130935,-4.463937282562256,2.889743566513061,96.16848754882812,28.35,0
-0.4857765138149261,-1.0910130739212036,-0.0502117946743965,-2.187591314315796,2.88957142829895,96.16902923583984,28.35,0
-0.4740788638591766,-1.159166932106018,-0.0658096894621849,1.4012866020202637,2.889460802078247,96.16937255859376,28.35,0
-0.438583105802536,-1.124535322189331,-0.0702217444777488,4.9941487312316895,2.889389991760254,96.16959381103516,28.35,0
-0.3990106582641601,-1.0295395851135254,-0.0786509215831756,6.6764726638793945,2.889344453811645,96.16973876953124,28.35,0
-0.3792130947113037,-0.9629790782928468,-0.07846250385046,6.136767387390137,2.8815114498138428,96.16983032226562,28.35,0
-0.3609103858470917,-0.9090688228607178,-0.0671460404992103,5.084648132324219,2.876484632492065,96.16989135742188,28.35,0
-0.3323714435100555,-0.8800700902938843,-0.0598837882280349,4.617248058319092,2.873258590698242,96.16992950439452,28.35,0
-0.3084590137004852,-0.8670581579208374,-0.0552232898771762,4.055769443511963,2.8711884021759038,96.16995239257812,28.35,0
-0.2819178700447082,-0.9090877771377563,-0.052232451736927,2.928773880004883,2.8698599338531494,96.1699676513672,28.35,0
-0.264885276556015,-0.9584510922431946,-0.0503131039440631,1.7433805465698242,2.8690073490142822,96.16997528076172,28.35,0
-0.2651502788066864,-0.9733362793922424,-0.0434836037456989,0.4954331219196319,2.868460178375244,96.16998291015624,28.35,0
-0.2709181308746338,-1.0668554306030271,-0.0335030481219291,-1.3981133699417114,2.8681089878082275,96.16999053955078,28.35,0
-0.2690218389034271,-1.188446044921875,-0.0438914261758327,-3.619986057281494,2.864670515060425,99.07904815673828,28.37,0
-0.2734026610851288,-1.1545205116271973,-0.0169714409857988,-4.8810577392578125,2.8624637126922607,100.94590759277344,28.37,0
-0.2986051142215729,-1.082369089126587,0.039488673210144,-4.221484661102295,2.861047506332397,102.14395141601562,28.37,0
-0.2811919748783111,-0.9968820214271544,0.0589282028377056,-1.716732382774353,2.8601386547088623,102.91278839111328,28.37,0
-0.2252350151538849,-0.9868035316467284,0.0825989246368408,1.889750599861145,2.85955548286438,103.40618896484376,28.37,0
-0.1949228346347808,-1.0027267932891846,0.1201805248856544,5.8593339920043945,2.8591811656951904,103.72282409667967,28.37,0
-0.1810680031776428,-1.0185432434082031,0.1666893362998962,10.054768562316896,2.858941078186035,103.92601776123048,28.37,0
-0.1833723187446594,-1.0007044076919556,0.1853404641151428,14.764147758483888,2.8587870597839355,104.0564193725586,28.37,0
-0.1960466355085373,-0.9164854288101196,0.1973096877336502,19.26237678527832,2.854097843170166,104.14009857177734,28.37,0
-0.2041802853345871,-0.8344496488571167,0.22178415954113,21.25701904296875,2.851088523864746,104.1938018798828,28.37,0
-0.2093999981880188,-0.7762060761451721,0.2374904751777649,19.24468040466309,2.8491573333740234,104.22826385498048,28.37,0
-0.2239452600479126,-0.7500241994857788,0.2195810079574585,14.51400375366211,2.847918033599853,104.25038146972656,28.37,0
-0.2388773411512375,-0.7444177269935608,0.202489972114563,9.52562427520752,2.8471226692199707,104.26457214355467,28.37,0
-0.2652532160282135,-0.7520154118537903,0.2027174830436706,5.643679618835449,2.8466122150421143,104.273681640625,28.37,0
-0.2877775132656097,-0.7512933611869812,0.2028634846210479,3.206209897994995,2.8462846279144287,104.27952575683594,28.37,0
-0.3078300654888153,-0.7676233053207397,0.1973593980073928,1.967996597290039,2.84607458114624,104.28327941894533,28.37,0
-0.331894189119339,-0.8396784663200378,0.2050227373838424,0.9261848330497742,2.8463985919952397,104.2856903076172,28.37,0
-0.3417393863201141,-0.9027126431465148,0.2099406272172927,-0.9640482068061828,2.846606492996216,104.2872314453125,28.37,0
-0.3312641680240631,-1.0047398805618286,0.1907055526971817,-3.617286443710327,2.8467400074005127,104.28822326660156,28.37,0
-0.3581283986568451,-1.1709749698638916,0.1783615946769714,-5.893194198608398,2.84682559967041,104.28885650634766,28.37,0
-0.4201505184173584,-1.2216774225234983,0.1816354990005493,-6.6551384925842285,2.8468804359436035,104.28926849365234,28.37,0
-0.4543549716472626,-1.1366620063781738,0.1389543116092682,-5.463882446289063,2.8469157218933105,104.2895278930664,28.37,0
-0.4315232336521148,-1.1492773294448853,0.1283573061227798,-2.438797950744629,2.846938371658325,104.2896957397461,28.37,0
-0.4056755900382995,-1.157373070716858,0.1439478546380996,1.967339277267456,2.8469529151916504,104.28980255126952,28.37,0
-0.3163169920444488,-1.0897973775863647,0.1427574157714843,6.915829181671143,2.842371940612793,104.28987121582033,28.37,0
-0.2309829145669937,-0.9848557114601136,0.1363956928253173,11.23432731628418,2.839432001113892,104.2899169921875,28.37,0
-0.170622631907463,-0.86153244972229,0.143508642911911,13.636685371398926,2.837545394897461,104.28994750976562,28.37,0
-0.1486802101135254,-0.7879884839057922,0.1536711007356643,13.28678035736084,2.836334705352783,104.28997039794922,28.37,0
-0.134598821401596,-0.7687810659408569,0.1378016918897628,10.686984062194824,2.835557699203491,104.28997802734376,28.37,0
-0.0695844516158104,-0.8068348169326782,0.1052265167236328,7.6392927169799805,2.83505916595459,104.28998565673828,28.37,0
-0.0334597453474998,-0.8424510359764099,0.0787238702178001,5.5831475257873535,2.8347392082214355,104.2899932861328,28.37,0
-0.0718525052070617,-0.848514199256897,0.0449226722121238,4.39618730545044,2.834533929824829,104.2899932861328,28.37,0
-0.1300774216651916,-0.897187352180481,0.0176332369446754,3.19739031791687,2.8325657844543457,106.29265594482422,28.33,0
-0.1674428135156631,-0.9340207576751708,0.0001204476575367,1.7008087635040283,2.8313026428222656,107.57785034179688,28.33,0
-0.1858240067958831,-1.0024405717849731,0.0112728448584675,0.3319751620292663,2.8304920196533203,108.4026107788086,28.33,0
-0.2144133150577545,-1.1023261547088623,0.0072342627681791,-0.3673346936702728,2.8299717903137207,108.93189239501952,28.33,0
-0.2831402719020843,-1.2895779609680176,-0.01774856261909,-0.0100319888442754,2.8296380043029785,109.27156066894533,28.33,0
-0.3384408056735992,-1.2642033100128174,-0.0057922308333218,1.3943490982055664,2.829423666000366,109.48954010009766,28.33,0
-0.301158457994461,-1.0240083932876587,0.0634561702609062,2.901055335998535,2.829286336898804,109.62942504882812,28.33,0
-0.1876683831214904,-1.088178277015686,0.1078958138823509,3.219526529312134,2.829198122024536,109.7191925048828,28.33,0
-0.092445895075798,-1.09577214717865,0.1364146173000335,2.370625734329224,2.825928211212158,109.77680206298828,28.33,0
0.002249069744721,-1.033472180366516,0.1379230171442031,1.682547092437744,2.8238298892974854,109.81377410888672,28.33,0
0.0070410980843007,-0.9878938794136048,0.1332932412624359,1.9610755443573,2.82248330116272,109.8375015258789,28.33,0
-0.0906435921788215,-0.8746777176856995,0.1471154540777206,2.831256151199341,2.821619033813477,109.85272216796876,28.33,0
-0.1421364545822143,-0.8188154101371765,0.1447902023792266,3.611807584762573,2.8210644721984863,109.86249542236328,28.33,0
-0.1583882868289947,-0.7941617965698242,0.1377002149820327,3.693559169769287,2.820708513259888,109.86876678466795,28.33,0
-0.1688177734613418,-0.7671449780464172,0.1387480348348617,2.585268259048462,2.8204801082611084,109.87278747558594,28.33,0
-0.1867063641548156,-0.7498071193695068,0.1450182497501373,0.4553309977054596,2.820333480834961,109.87537384033205,28.33,0
-0.2373706549406051,-0.7610717415809631,0.1434443295001983,-1.8179317712783811,2.8197805881500244,109.87702941894533,28.33,0
-0.2866774201393127,-0.846669614315033,0.1144454106688499,-3.3054416179656982,2.819425582885742,109.87808990478516,28.33,0
-0.3071241080760956,-0.935188055038452,0.073444478213787,-3.5041162967681885,2.8191978931427,109.87877655029295,28.33,0
-0.2810612022876739,-0.986396312713623,0.0303391143679618,-2.506685495376587,2.819051742553711,109.87921142578124,28.33,0
-0.26993328332901,-1.0976276397705078,0.0082743484526872,-0.8598881959915161,2.818958044052124,109.8794937133789,28.33,0
-0.3075742423534393,-1.1858028173446655,0.0109077747911214,1.0065935850143433,2.8188977241516118,109.87967681884766,28.33,0
-0.2197745442390442,-1.1696175336837769,-0.0209888909012079,3.146611452102661,2.818859100341797,109.87979125976562,28.33,0
-0.1354408711194992,-1.1536329984664917,-0.0358605608344078,5.712949752807617,2.8188343048095703,109.87986755371094,28.33,0
-0.0253426302224397,-1.2105482816696167,-0.0286110173910856,8.431068420410156,2.814687013626098,109.87991333007812,28.33,0
0.0117254303768277,-1.2078888416290283,-0.040752001106739,10.282876968383787,2.812025547027588,109.87994384765624,28.33,0
0.0355135761201381,-1.083031177520752,-0.0653367117047309,9.880598068237305,2.8103175163269043,109.87996673583984,28.33,0
0.0115950191393494,-0.9525246620178224,-0.0699182152748107,7.125383377075195,2.8092212677001958,109.87997436523438,28.33,0
-0.014950081706047,-0.8799686431884766,-0.0840539038181305,4.049604892730713,2.8085179328918457,109.8799819946289,28.33,0
-0.0375829748809337,-0.8557974696159363,-0.0987231507897377,2.616716146469116,2.8080666065216064,109.87998962402344,28.33,0
-0.0577052347362041,-0.8570791482925415,-0.1025392562150955,2.277547836303711,2.807776927947998,109.87998962402344,28.33,0
-0.0706185474991798,-0.8523038625717163,-0.1105859875679016,1.106924057006836,2.807590961456299,109.87998962402344,28.33,0
-0.0956988856196403,-0.8660327196121216,-0.1213476881384849,-1.5645753145217896,2.8120620250701904,111.5136489868164,28.33,0
-0.1229895576834678,-0.9028319716453552,-0.1226561591029167,-4.798002243041992,2.8149313926696777,112.5620346069336,28.33,0
-0.1684920042753219,-0.9376431703567504,-0.1178980842232704,-7.532223224639893,2.816772699356079,113.23483276367188,28.33,0
-0.192095085978508,-0.987971842288971,-0.1092468500137329,-9.354957580566406,2.8179543018341064,113.66659545898438,28.33,0
-0.1904488652944564,-0.9978787899017334,-0.0701083391904831,-10.209417343139648,2.8187127113342285,113.94367218017578,28.33,0
-0.1781968623399734,-1.1441808938980105,-0.0449914969503879,-10.062740325927734,2.819199323654175,114.1214828491211,28.33,0
-0.2039208859205246,-1.2380691766738892,-0.0288729537278413,-8.99415111541748,2.819511651992798,114.235595703125,28.33,0
-0.2204290777444839,-1.0912035703659058,0.0094598717987537,-7.308853626251221,2.819711923599243,114.30882263183594,28.33,0
-0.2086319923400879,-0.9409759640693665,0.0452552251517772,-5.353178024291992,2.829021692276001,114.35581970214844,28.33,0
-0.094703584909439,-0.9621217846870422,0.0738243907690048,-3.363710165023804,2.834996223449707,114.38597869873048,28.33,0
0.0175935328006744,-0.986887514591217,0.0641695708036422,-1.689318299293518,2.8388302326202397,114.40533447265624,28.33,0
0.0616704858839511,-0.9859873652458192,0.0467781126499176,-0.6864413619041443,2.8412907123565674,114.41775512695312,28.33,0
0.0171854719519615,-0.957420825958252,0.030019499361515,-0.0392701029777526,2.842869758605957,114.42572784423828,28.33,0
-0.03935132548213,-0.9166973829269408,0.0360581092536449,0.97791987657547,2.8438830375671387,114.43083953857422,28.33,0
-0.0980244800448417,-0.8681723475456238,0.045531116425991,2.03910756111145,2.8445332050323486,114.43412017822266,28.33,0
-0.130079761147499,-0.825836181640625,0.0628058984875679,1.957028031349182,2.8449504375457764,114.43622589111328,28.33,0
-0.1562487632036209,-0.7930695414543152,0.0794896334409713,0.883320152759552,2.8603663444519043,114.43757629394533,28.33,0
-0.1898358464241027,-0.7944328784942627,0.095794066786766,0.3375791609287262,2.870259523391724,114.43844604492188,28.33,0
-0.2337812036275863,-0.8288944363594055,0.1062573119997978,0.6716259717941284,2.876608371734619,114.43900299072266,28.33,0
-0.2675805687904358,-0.8845965266227722,0.1129720211029052,0.7606078386306763,2.8806827068328857,114.43936157226562,28.33,0
-0.2780755162239074,-0.8979518413543701,0.0948900356888771,0.2015082538127899,2.8832974433898926,114.43959045410156,28.33,0
-0.2960061132907867,-0.9513046741485596,0.0720905140042305,-0.2934275269508362,2.8849754333496094,114.43973541259766,28.33,0
-0.3522951304912567,-1.0863033533096311,0.0798501893877983,-0.259956419467926,2.886052131652832,114.43983459472656,28.33,0
-0.3604293167591095,-1.10016667842865,0.0680365785956382,0.3311529755592346,2.8867430686950684,114.4398956298828,28.33,0
-0.2816827595233917,-1.0474878549575806,0.0660530552268028,1.4628338813781738,2.882596254348755,114.43993377685548,28.33,0
-0.2087566554546356,-1.1648215055465698,0.0759756937623024,2.8052845001220703,2.8799350261688232,114.43995666503906,28.33,0
-0.1283702254295349,-1.228924036026001,0.0431590527296066,3.763521671295166,2.8782272338867188,114.43997192382812,28.33,0
-0.048793975263834,-1.152508020401001,-0.0002918762911576,4.077526569366455,2.877131223678589,114.43997955322266,28.33,0
-0.0201176162809133,-1.069882035255432,-0.0057850838638842,3.999595880508423,2.8764278888702397,114.4399871826172,28.33,0
-0.0576925240457057,-1.0504440069198608,-0.009310308843851,3.981827735900879,2.8759765625,114.43999481201172,28.33,0
-0.0538170635700225,-1.004383206367493,-0.0227681435644626,4.267778873443604,2.875686883926392,114.43999481201172,28.33,0
-0.0345366932451725,-0.946835160255432,-0.0258068330585956,4.587423801422119,2.8755009174346924,114.43999481201172,28.33,0
-0.0613480843603611,-0.881915271282196,-0.0221591144800186,4.3841400146484375,2.885021686553955,115.71539306640624,28.35,0
-0.095347411930561,-0.8514489531517029,-0.0198182184249162,3.5156736373901367,2.891131639480591,116.53387451171876,28.35,0
-0.1339595466852188,-0.8374952077865601,-0.0183159653097391,2.449615955352783,2.895052433013916,117.0591278076172,28.35,0
-0.1643363684415817,-0.8453338146209717,-0.022949680685997,1.7260732650756836,2.897568702697754,117.39620208740234,28.35,0
-0.195026010274887,-0.8839508295059204,-0.0315211080014705,1.5304384231567385,2.899183511734009,117.61251831054688,28.35,0
-0.2203186303377151,-0.964710772037506,-0.0370217561721801,1.6950798034667969,2.900219678878784,117.75133514404295,28.35,0
-0.2477455288171768,-1.0389288663864136,-0.0573450773954391,2.0407698154449463,2.9008846282958984,117.84042358398438,28.35,0
-0.276542067527771,-1.1313400268554688,-0.0815829634666442,2.6244537830352783,2.9013113975524902,117.89759063720705,28.35,0
-0.3006198108196258,-1.1962419748306274,-0.113930769264698,3.575823307037353,2.894240617752075,117.9342803955078,28.35,0
-0.3104737401008606,-1.0867524147033691,-0.095505304634571,4.691500663757324,2.8897030353546143,117.95782470703124,28.35,0
-0.2888085544109344,-0.9381194710731506,-0.0388987138867378,5.55794620513916,2.886791229248047,117.97293090820312,28.35,0
-0.2581117749214172,-0.9602886438369752,0.0086236884817481,6.031581878662109,2.884922504425049,117.98262786865234,28.35,0
-0.1712390482425689,-0.9745155572891236,0.0391208343207836,6.2244744300842285,2.883723258972168,117.98885345458984,28.35,0
-0.1154891401529312,-0.9444611072540284,0.0363010466098785,6.140471935272217,2.882953643798828,117.99284362792967,28.35,0
-0.152483120560646,-0.9083805680274964,0.0456870198249816,5.69606351852417,2.882459878921509,117.9954071044922,28.35,0
-0.2210059314966201,-0.8572372794151306,0.0685037225484848,4.880646705627441,2.882143020629883,117.99705505371094,28.35,0
-0.2537843883037567,-0.8356120586395264,0.0831461697816848,3.669504404067993,2.8883659839630127,117.99810791015624,28.35,0
-0.2524285912513733,-0.8217341899871826,0.0981406196951866,2.186495542526245,2.892359495162964,117.99878692626952,28.35,0
-0.2459607571363449,-0.8296214938163757,0.113360971212387,0.9625101685523988,2.8949222564697266,117.9992218017578,28.35,0
-0.247407853603363,-0.8346831202507019,0.1287262886762619,0.4600502848625183,2.896566867828369,117.99950408935548,28.35,0
-0.2651298344135284,-0.8715180158615112,0.1329890936613083,0.481527715921402,2.897622346878052,117.99967956542967,28.35,0
-0.2821005582809448,-0.9007543325424194,0.1413224935531616,0.491728127002716,2.8982996940612797,117.99979400634766,28.35,0
-0.2594047486782074,-0.9531031847000122,0.1690614819526672,0.3083976507186889,2.898734331130981,117.99987030029295,28.35,0
-0.2448398768901825,-1.0538709163665771,0.1700694411993026,0.201494425535202,2.8990132808685303,117.99991607666016,28.35,0
-0.263481855392456,-1.157722234725952,0.1875096261501312,0.534138560295105,2.904700994491577,117.99994659423828,28.35,0
-0.3426184952259063,-1.2355636358261108,0.2322883754968643,1.3351527452468872,2.908350944519043,117.99996948242188,28.35,0
-0.3878060579299927,-1.2183444499969482,0.2442314773797989,2.24328088760376,2.9106931686401367,117.9999771118164,28.35,0
-0.3328382074832916,-1.1401208639144895,0.2239069938659668,2.9084644317626958,2.912196397781372,117.99998474121094,28.35,0
-0.2359874993562698,-1.1626925468444824,0.1940705925226211,3.138299465179444,2.913161039352417,117.99999237060548,28.35,0
-0.1682365089654922,-1.2051666975021362,0.1581299751996994,2.7125821113586426,2.913780212402344,117.99999237060548,28.35,0
-0.147148922085762,-1.137261986732483,0.0846853926777839,1.7336139678955078,2.914177417755127,117.99999237060548,28.35,0
-0.144811674952507,-1.043304681777954,0.0543462112545967,0.6790419816970825,2.9144322872161865,117.99999237060548,28.35,0
-0.2104850560426712,-0.9438238143920898,0.046071819961071,-0.4419610202312469,2.9104647636413574,119.07476806640624,28.35,0
-0.2470326870679855,-0.8967760801315308,0.0127729186788201,-1.888619065284729,2.907918691635132,119.76449584960938,28.35,0
-0.2592912912368774,-0.8721812963485718,-0.0197919476777315,-3.017625093460083,2.906284809112549,120.20712280273438,28.35,0
-0.2391692996025085,-0.8228111267089844,-0.0294946562498807,-2.9074161052703857,2.90523624420166,120.49118041992188,28.35,0
-0.2262561619281768,-0.8191170692443848,-0.0357212945818901,-1.9553767442703247,2.9045634269714355,120.67346954345705,28.35,0
-0.2235670238733291,-0.8279420137405396,-0.0397171936929225,-1.1330406665802002,2.9041316509246826,120.79045104980467,28.35,0
-0.2442323863506317,-0.8503986597061157,-0.0366837568581104,-0.4655922651290893,2.9038543701171875,120.8655242919922,28.35,0
-0.2518964409828186,-0.892798900604248,-0.0235415231436491,0.3747338950634002,2.9036765098571777,120.91370391845705,28.35,0
-0.2568148076534271,-0.9815844893455504,0.0184790529310703,1.1540393829345703,2.903562307357788,120.94461822509766,28.35,0
-0.2543733417987823,-1.0833441019058228,0.0398476645350456,1.8225338459014893,2.903489112854004,120.96446228027344,28.35,0
-0.2584043443202972,-1.148647665977478,0.0703541338443756,2.989545583724976,2.903442144393921,120.9771957397461,28.35,0
-0.3001756072044372,-1.0450135469436646,0.1906913667917251,4.816822052001953,2.903412103652954,120.98536682128906,28.35,0
-0.3213842511177063,-0.9001383185386658,0.2903079688549042,6.329807281494141,2.903392791748047,120.99060821533205,28.35,0
-0.228637009859085,-0.9135234355926514,0.2982584238052368,6.555578708648682,2.9033803939819336,120.99397277832033,28.35,0
-0.1411283016204834,-0.9668954014778136,0.2529806196689605,5.675848960876465,2.903372287750244,120.99613189697266,28.35,0
-0.0737746953964233,-1.0067442655563354,0.2127283662557602,4.609728813171387,2.903367280960083,120.99752044677734,28.35,0
-0.0697354525327682,-0.959545910358429,0.2092878818511963,4.033031463623047,2.897855043411255,120.99840545654295,28.35,0
-0.1063277199864387,-0.8956700563430786,0.2182755321264267,3.967458963394165,2.894317626953125,120.9989776611328,28.35,0
-0.1913860440254211,-0.8490804433822632,0.2184455096721649,3.943291425704956,2.89204740524292,120.99934387207033,28.35,0
-0.2515693604946136,-0.8191819190979004,0.2073590457439422,3.8203046321868896,2.8905906677246094,120.99958038330078,28.35,0
-0.2901915311813354,-0.8111903071403503,0.1890488415956497,4.371912002563477,2.889655828475952,120.9997329711914,28.35,0
-0.3149770200252533,-0.7948662042617798,0.1884939521551132,6.130271434783936,2.889055728912353,120.99983215332033,28.35,0
-0.3308829367160797,-0.7675970196723938,0.1937356293201446,8.14358139038086,2.8886706829071045,120.99989318847656,28.35,0
-0.3522859811782837,-0.7444994449615479,0.2194905430078506,9.29946994781494,2.8884236812591557,120.99993133544922,28.35,0
-0.3884123265743255,-0.7520678639411926,0.2472141087055206,9.930192947387695,2.886429071426392,120.9999542236328,28.35,0
-0.467573881149292,-0.7793158888816833,0.265005499124527,10.703960418701172,2.8851490020751958,120.99996948242188,28.35,0
-0.5183752179145813,-0.891964316368103,0.2428363412618637,11.29366683959961,2.8843274116516118,120.9999771118164,28.35,0
-0.5397810339927673,-1.09300434589386,0.2062183618545532,11.338926315307615,2.8838002681732178,120.99998474121094,28.35,0
-0.5927024483680725,-1.1940314769744873,0.221903458237648,11.317815780639648,2.8834619522094727,120.99999237060548,28.35,0
-0.5650888681411743,-1.1525070667266846,0.1815892904996872,11.512057304382324,2.883244752883911,120.99999237060548,28.35,0
-0.4689992070198059,-1.1594457626342771,0.0773491263389587,11.074246406555176,2.883105516433716,120.99999237060548,28.35,0
-0.4185299575328827,-1.2534630298614502,0.0496382154524326,8.643738746643066,2.8830161094665527,120.99999237060548,28.35,0
-0.3749461472034454,-1.3249934911727903,0.0374527238309383,3.662619113922119,2.875154733657837,121.3869171142578,28.33,0
-0.3357810080051422,-1.2141598463058472,-0.0039538708515465,-2.829946517944336,2.870109796524048,121.63522338867188,28.33,0
-0.3106471002101898,-1.1038488149642944,-0.0473195612430572,-8.7770414352417,2.866872310638428,121.79457092285156,28.33,0
-0.3057131469249725,-0.9994708895683287,-0.080746941268444,-12.758342742919922,2.8647947311401367,121.8968276977539,28.33,0
-0.3137423694133758,-0.9660738110542296,-0.1133942604064941,-14.944308280944824,2.863461494445801,121.9624481201172,28.33,0
-0.3076995015144348,-0.9446414709091188,-0.1231498792767524,-16.146509170532227,2.8626058101654053,122.00456237792967,28.33,0
-0.2702348828315735,-0.9476807713508606,-0.1182149276137352,-16.58125114440918,2.8620567321777344,122.03158569335938,28.33,0
-0.2293989360332489,-0.9496312141418456,-0.1094501838088035,-16.125816345214844,2.8617043495178223,122.04893493652344,28.33,0
-0.1975950002670288,-0.9508829116821288,-0.1038254722952842,-14.995221138000488,2.847247838973999,122.06006622314452,28.33,0
-0.2163694947957992,-0.9852728247642516,-0.0834225341677665,-13.338200569152832,2.837970495223999,122.06720733642578,28.33,0
-0.2340156584978103,-1.0465266704559326,-0.0703291073441505,-10.90269374847412,2.832016706466675,122.07179260253906,28.33,0
-0.2677310407161712,-1.024260401725769,-0.0507309474050998,-7.759809970855713,2.8281960487365723,122.0747299194336,28.33,0
-0.3117587268352508,-0.9092112183570862,-0.0045673311688005,-4.431665420532227,2.825744152069092,122.07662200927734,28.33,0
-0.3568064868450165,-0.8745636940002441,0.0698400139808654,-1.0921084880828855,2.824170589447021,122.0778350830078,28.33,0
-0.4025088846683502,-0.9530888199806212,0.1511770188808441,2.3479197025299072,2.8231608867645264,122.07861328125,28.33,0
-0.4598269164562225,-1.0370683670043943,0.2145699709653854,5.436845302581787,2.8225128650665283,122.07910919189452,28.33,0
-0.3510681986808777,-0.9678105711936952,0.2776430249214172,7.444217681884766,2.8165884017944336,122.07942962646484,28.33,0
-0.2140998095273971,-0.8897783160209656,0.3237174451351166,8.040996551513672,2.812786340713501,122.0796356201172,28.33,0
-0.154190257191658,-0.8676905632019043,0.3476875722408294,7.202316761016846,2.810346364974976,122.07976531982422,28.33,0
-0.2109059244394302,-0.8759070038795471,0.3518746793270111,5.023280620574951,2.808780670166016,122.07984924316406,28.33,0
-0.2752916514873504,-0.8811798095703125,0.3545617163181305,2.048567533493042,2.8077757358551025,122.07990264892578,28.33,0
-0.344599574804306,-0.862172544002533,0.3450905680656433,-0.8492230176925659,2.807131052017212,122.07994079589844,28.33,0
-0.3834796249866485,-0.8275836706161499,0.3390125334262848,-3.02770733833313,2.806717157363892,122.07996368408205,28.33,0
-0.3972350656986236,-0.7885931730270386,0.3239164352416992,-4.457976341247559,2.8064515590667725,122.0799789428711,28.33,0
-0.4508447051048279,-0.7803646326065063,0.2806420028209686,-5.683942317962647,2.8145439624786377,122.07998657226562,28.33,0
-0.5132371783256531,-0.7862796187400818,0.2304798513650894,-7.122725486755371,2.819737195968628,122.07999420166016,28.33,0
-0.5420815348625183,-0.834857702255249,0.187093123793602,-8.289669036865234,2.8230700492858887,122.07999420166016,28.33,0
-0.5382010340690613,-0.8996189832687378,0.1536522507667541,-8.393682479858398,2.825208902359009,122.07999420166016,28.33,0
-0.5077219009399414,-1.1203078031539917,0.1265940368175506,-7.636439800262451,2.8265814781188965,122.07999420166016,28.33,0
-0.4993577003479004,-1.0828044414520264,0.0924363136291503,-6.813723087310791,2.8274621963500977,122.07999420166016,28.33,0
-0.4548056125640869,-1.01955246925354,0.0369292087852954,-5.855841636657715,2.8280274868011475,122.07999420166016,28.33,0
-0.431812435388565,-1.130100965499878,-0.0658653527498245,-4.130529880523682,2.82839035987854,122.07999420166016,28.33,0
-0.4562411606311798,-1.2066423892974854,-0.1038441136479377,-1.6906061172485352,2.82265567779541,122.3271942138672,28.33,0
-0.4383314549922943,-1.2277733087539673,-0.1226189211010932,0.7708404064178467,2.8189754486083984,122.48583221435548,28.33,0
-0.3708602786064148,-1.118182897567749,-0.1626563817262649,2.4221067428588867,2.8166136741638184,122.58763885498048,28.33,0
-0.3219633996486664,-1.0478540658950806,-0.193947896361351,2.442847490310669,2.8150980472564697,122.65296936035156,28.33,0
-0.3073775172233581,-0.99712336063385,-0.1916378885507583,1.073283553123474,2.814125299453736,122.69489288330078,28.33,0
-0.298017144203186,-0.9477739930152892,-0.1789599061012268,-0.1495510190725326,2.8135011196136475,122.7218017578125,28.33,0
-0.2920101881027221,-0.9217021465301514,-0.1596283614635467,-0.6512724161148071,2.813100576400757,122.73906707763672,28.33,0
-0.2769597172737121,-0.9441551566123962,-0.147222489118576,-1.657520413398743,2.8128435611724854,122.7501449584961,28.33,0
-0.2561056315898895,-0.9641619920730592,-0.1224677935242652,-3.489104986190796,2.808547258377075,122.75725555419922,28.33,0
-0.2315271496772766,-0.9322190284729004,-0.0841905549168586,-4.517624855041504,2.8057899475097656,122.7618179321289,28.33,0
-0.2213518619537353,-0.9229153990745544,-0.0596264265477657,-3.956011295318604,2.804020643234253,122.7647476196289,28.33,0
-0.2652019262313843,-1.0233025550842283,0.0009196138125844,-2.868337392807007,2.802885055541992,122.7666244506836,28.33,0
-0.2989401519298553,-1.1437031030654907,0.0453723520040512,-1.6974307298660278,2.802156448364258,122.76782989501952,28.33,0
-0.3261891603469848,-1.1426002979278564,0.0906928852200508,0.4798547923564911,2.80168890953064,122.76860809326172,28.33,0
-0.3884582221508026,-0.985154926776886,0.1589614152908325,3.8296151161193848,2.801388740539551,122.76910400390624,28.33,0
-0.4060278236865997,-0.8617244958877563,0.1803811341524124,7.089897155761719,2.8011960983276367,122.76942443847656,28.33,0
-0.3781185448169708,-0.9672405123710632,0.1549426466226577,9.346957206726074,2.806122064590454,122.7696304321289,28.33,0
-0.3154257833957672,-0.9901723861694336,0.183399885892868,10.963788986206056,2.8092832565307617,122.76976013183594,28.33,0
-0.2360087633132934,-0.9824976325035096,0.2016621083021164,12.854031562805176,2.811311960220337,122.76984405517578,28.33,0
-0.2130323648452758,-0.9495835900306702,0.1797951012849807,15.636248588562012,2.8126139640808105,122.7698974609375,28.33,0
-0.2262762933969497,-0.9004723429679871,0.1601643413305282,18.82250213623047,2.8134493827819824,122.76993560791016,28.33,0
-0.2739599049091339,-0.8913466930389404,0.169957548379898,20.24388885498047,2.813985586166382,122.76995849609376,28.33,0
-0.2989627420902252,-0.8407081961631775,0.1650467216968536,17.752605438232422,2.8143296241760254,122.7699737548828,28.33,0
-0.303812563419342,-0.8026134967803955,0.1451019048690796,12.06612491607666,2.814550399780273,122.76998138427734,28.33,0
-0.312522679567337,-0.8061553835868835,0.1323024779558181,6.3568878173828125,2.8252499103546143,122.76998901367188,28.33,0
-0.3125145435333252,-0.8028306365013123,0.1408818662166595,2.642871856689453,2.8321163654327397,122.76998901367188,28.33,0
-0.3237048685550689,-0.7671103477478027,0.1631809324026107,0.3239165842533111,2.8365228176116943,122.76998901367188,28.33,0
-0.3532772958278656,-0.7609804272651672,0.1718934178352356,-1.7123894691467283,2.839350461959839,122.76998901367188,28.33,0
-0.3834507167339325,-0.7738399505615234,0.1718868166208267,-3.664036989212036,2.84116530418396,122.76998901367188,28.33,0
-0.4084120690822601,-0.8268746137619019,0.1774803549051284,-5.593599319458008,2.842329740524292,122.76998901367188,28.33,0
-0.4076374769210815,-0.8833003044128418,0.1754721999168396,-7.573473930358887,2.8430771827697754,122.76998901367188,28.33,0
-0.3903470933437347,-0.96989107131958,0.1517923772335052,-8.833295822143555,2.843556880950928,122.76998901367188,28.33,0
-0.4352288544178009,-1.098231077194214,0.1533893495798111,-8.226659774780273,2.832847595214844,122.80223846435548,28.33,0
-0.4752269387245178,-1.1078212261199951,0.1376208811998367,-5.727218627929688,2.825974941253662,122.82292938232422,28.33,0
-0.4952976107597351,-1.1643556356430054,0.0715238377451896,-2.6579477787017822,2.8215644359588623,122.83621215820312,28.33,0
-0.5081778168678284,-1.217429518699646,0.0347043350338935,-0.5127203464508057,2.818733930587769,122.84473419189452,28.33,0
-0.4492703080177307,-1.2346959114074707,0.0278690196573734,0.2477602362632751,2.816917657852173,122.85020446777344,28.33,0
-0.3722824454307556,-1.1114299297332764,0.0290802810341119,0.3560399115085602,2.8157520294189453,122.8537139892578,28.33,0
-0.3228760659694671,-0.993140459060669,0.035455372184515,0.4506056010723114,2.8150038719177246,122.85596466064452,28.33,0
-0.3079632222652435,-0.9004358053207397,0.0451443158090114,-0.0869976952672004,2.814523935317993,122.85741424560548,28.33,0
-0.2927952408790588,-0.82974773645401,0.0513621196150779,-1.9940035343170168,2.806871175765991,122.85833740234376,28.33,0
-0.2774635255336761,-0.7731886506080627,0.0553523488342762,-4.278252601623535,2.801960229873657,122.8589324951172,28.33,0
-0.23963563144207,-0.7816744446754456,0.0523152761161327,-4.945237636566162,2.7988085746765137,122.85931396484376,28.33,0
-0.2041643261909485,-0.8095112442970276,0.0503662563860416,-3.481670379638672,2.796786069869995,122.85955810546876,28.33,0
-0.1758031100034713,-0.8665597438812256,0.0491154864430427,-1.170310616493225,2.795488119125366,122.8597183227539,28.33,0
-0.1687980592250824,-0.9143657088279724,0.0427150391042232,0.8897815942764282,2.7946550846099854,122.8598175048828,28.33,0
-0.1866937130689621,-0.9954248070716858,0.0330098271369934,2.8172855377197266,2.79412055015564,122.8598861694336,28.33,0
-0.1981781274080276,-1.0754327774047852,0.0211838074028491,5.129019260406494,2.7937774658203125,122.85992431640624,28.33,0
-0.2111459374427795,-1.1435705423355105,0.0135945482179522,8.153064727783203,2.800442934036255,122.85995483398438,28.33,0
-0.2194679230451584,-1.1761019229888916,0.003126423805952,11.59482192993164,2.804720640182495,122.85997009277344,28.33,0
-0.2248084992170334,-1.1465986967086792,0.0076041333377361,13.656658172607422,2.8074657917022705,122.85997772216795,28.33,0
-0.2394313216209411,-1.0101120471954346,0.0496620871126651,12.271398544311523,2.809227466583252,122.8599853515625,28.33,0
-0.2264243066310882,-1.0176849365234375,0.0542613677680492,8.158101081848145,2.810358047485352,122.85999298095705,28.33,0
-0.2124793827533722,-1.050533652305603,0.0516151450574398,4.572623252868652,2.8110835552215576,122.85999298095705,28.33,0
-0.1923347860574722,-1.0436251163482666,0.0555147267878055,3.02759337425232,2.811549186706543,122.85999298095705,28.33,0
-0.1738093644380569,-1.0112028121948242,0.0692128017544746,1.6205034255981443,2.811847925186157,122.85999298095705,28.33,0
-0.2011052370071411,-0.9120271801948548,0.0891989842057228,-1.5430911779403689,2.8092854022979736,122.85999298095705,28.33,0
-0.2466110289096832,-0.8091975450515747,0.0852316468954086,-5.737179756164551,2.807640790939331,122.85999298095705,28.33,0
-0.2702162563800812,-0.7432073950767517,0.0826856344938278,-9.227618217468262,2.8065853118896484,122.85999298095705,28.33,0
-0.2685714066028595,-0.7456408739089966,0.0866495296359062,-11.456833839416504,2.805907964706421,122.85999298095705,28.33,0
-0.2675158381462097,-0.7528003454208374,0.0835955515503883,-12.7978515625,2.8054733276367188,122.85999298095705,28.33,0
-0.2836317420005798,-0.751797080039978,0.0816356837749481,-13.572457313537598,2.80519437789917,122.85999298095705,28.33,0
-0.3387562036514282,-0.7959354519844055,0.0803779512643814,-13.965660095214844,2.8050153255462646,122.85999298095705,28.33,0
-0.379729688167572,-0.8746408820152283,0.073973037302494,-14.071109771728516,2.804900646209717,122.85999298095705,28.33,0
-0.3892307877540588,-0.9699317216873168,0.0586671866476535,-13.716036796569824,2.804368019104004,122.91014862060548,28.33,0
-0.367339164018631,-1.0310838222503662,0.0488447733223438,-12.545954704284668,2.804026365280152,122.9423370361328,28.33,0
-0.3197037577629089,-1.0871211290359497,0.0369435399770736,-10.43010139465332,2.803807020187378,122.96299743652344,28.33,0
-0.3395140469074249,-1.1230826377868652,0.0516971088945865,-7.743133544921875,2.803666353225708,122.97625732421876,28.33,0
-0.3242383003234863,-1.190942883491516,0.0555673278868198,-5.0407490730285645,2.8035759925842285,122.9847640991211,28.33,0
-0.1856863796710968,-1.2400894165039062,-0.020317830145359,-2.4001224040985107,2.803518056869507,122.99021911621094,28.33,0
-0.0687828585505485,-1.26603102684021,-0.0970054343342781,0.2832707166671753,2.803480863571167,122.99372100830078,28.33,0
0.0118368677794933,-1.2378966808319092,-0.1014369279146194,2.3420798778533936,2.803457021713257,122.9959716796875,28.33,0
0.0355850905179977,-1.096690654754639,-0.1098785772919654,2.760496139526367,2.802523374557495,122.9974136352539,28.33,0
0.0396297872066497,-0.950094997882843,-0.1264914870262146,1.4240176677703855,2.801924228668213,122.9983367919922,28.33,0
0.0366276651620864,-0.8616161346435547,-0.1539460271596908,-0.924008846282959,2.801539659500122,122.99893188476562,28.33,0
0.0179077535867691,-0.8104332685470581,-0.1659669876098632,-3.430375576019287,2.801292896270752,122.9993133544922,28.33,0
-0.0276922546327114,-0.783184826374054,-0.1792791336774826,-5.228693962097168,2.8011345863342285,122.9995574951172,28.33,0
-0.0513579398393631,-0.7936872243881226,-0.187822088599205,-5.745052814483643,2.8010330200195312,122.99971771240234,28.33,0
-0.0721429884433746,-0.8060247898101807,-0.1877066940069198,-5.359907150268555,2.8009679317474365,122.99981689453124,28.33,0
-0.1022749617695808,-0.8699200749397278,-0.1876326501369476,-4.890623092651367,2.800925970077514,122.99988555908205,28.33,0
-0.1328074783086776,-0.9221199750900269,-0.1875851303339004,-4.456908226013184,2.8137524127960205,122.99992370605467,28.33,0
-0.1803903579711914,-0.9724121689796448,-0.170761302113533,-3.576702356338501,2.821983575820923,122.9999542236328,28.33,0
-0.1829374432563781,-1.0102845430374146,-0.143171414732933,-2.037376165390014,2.827265977859497,122.99996948242188,28.33,0
-0.1789742410182953,-1.1689355373382568,-0.1254658252000808,-0.0356564186513423,2.830655813217163,122.9999771118164,28.33,0
-0.2044197618961334,-1.231564164161682,-0.1029078438878059,2.137410879135132,2.8328311443328857,122.99998474121094,28.33,0
-0.1759670376777649,-1.081431269645691,-0.0660403296351432,3.908130645751953,2.8342273235321045,122.99999237060548,28.33,0
-0.0793388709425926,-0.9906823635101318,-0.0255875587463378,4.413943767547607,2.835123300552368,122.99999237060548,28.33,0
0.0218559503555297,-1.0052160024642944,-0.0500072687864303,3.32342791557312,2.835698127746582,122.99999237060548,28.33,0
0.0811991840600967,-1.008945107460022,-0.0992650762200355,1.3159575462341309,2.8397395610809326,122.99999237060548,28.33,0
0.0633045136928558,-0.9945449233055116,-0.0916914865374565,-0.4488040506839752,2.8423330783843994,122.99999237060548,28.33,0
0.0126363206654787,-0.962912619113922,-0.0700378641486167,-1.262477159500122,2.8439974784851074,122.99999237060548,28.33,0
-0.07025957852602,-0.8922328352928162,-0.0393484942615032,-1.426388144493103,2.8450655937194824,122.99999237060548,28.33,0
-0.1122618466615676,-0.8300812840461731,-0.0084582744166255,-1.8181828260421755,2.8457510471343994,122.99999237060548,28.33,0
-0.1224231645464897,-0.7901960015296936,0.0281586125493049,-2.635661125183105,2.846190929412842,122.99999237060548,28.33,0
-0.1625307500362396,-0.7813932299613953,0.0460594482719898,-3.1065330505371094,2.846473217010498,122.99999237060548,28.33,0
-0.2050628215074539,-0.7925374507904053,0.0519494004547596,-2.699361562728882,2.8466544151306152,122.99999237060548,28.33,0
-0.2435529977083206,-0.8332758545875549,0.0613270066678524,-1.872015357017517,2.8821170330047607,122.97850036621094,28.29,0
-0.2794493436813354,-0.8650171756744385,0.0617472417652606,-1.2801684141159058,2.9048750400543213,122.96470642089844,28.29,0
-0.3024855256080627,-0.9133757948875428,0.0508213751018047,-0.9791717529296876,2.9194798469543457,122.9558563232422,28.29,0
-0.3620510399341583,-1.0619628429412842,0.0662008821964263,-0.5603070855140686,2.9288523197174072,122.95018005371094,28.29,0
-0.3722878694534302,-1.0733507871627808,0.0704727843403816,0.3533596992492676,2.9348669052124023,122.946533203125,28.29,0
-0.2948906719684601,-1.091854453086853,0.0676164776086807,1.8317598104476929,2.9387269020080566,122.9441909790039,28.29,0
-0.2116349637508392,-1.1876957416534424,0.043392363935709,3.625999689102173,2.9412038326263428,122.94268798828124,28.29,0
-0.0966307148337364,-1.2492011785507202,0.011053399182856,5.286165714263916,2.942793607711792,122.94172668457033,28.29,0
-0.03962092846632,-1.1263363361358645,-0.0152976615354418,6.340816497802734,2.963552951812744,122.94110870361328,28.29,0
-0.0310242064297199,-1.0362931489944458,-0.0266104806214571,6.566226005554199,2.976875066757202,122.94071197509766,28.29,0
-0.0311050992459058,-0.9729108810424804,-0.0226748492568731,5.944210052490234,2.985424518585205,122.94046020507812,28.29,0
-0.0255592372268438,-0.9378335475921632,-0.0425402857363224,4.269639015197754,2.9909110069274902,122.94029998779295,28.29,0
-0.0220002215355634,-0.9265184998512268,-0.0496910028159618,1.52551531791687,2.994431972503662,122.94019317626952,28.29,0
-0.0589006692171096,-0.9024638533592224,-0.0486821494996547,-1.3066954612731934,2.996691465377808,122.94012451171876,28.29,0
-0.0993745774030685,-0.8926247358322144,-0.0480347238481044,-3.0633413791656494,2.9981415271759038,122.94007873535156,28.29,0
-0.1365439444780349,-0.919897198677063,-0.0532170198857784,-3.896884441375733,2.9990720748901367,122.94004821777344,28.29,0
-0.1659948825836181,-0.9206057786941528,-0.0565427169203758,-4.567942142486572,3.012981414794922,122.94003295898438,28.29,0
-0.19609035551548,-0.9266582727432252,-0.0642747357487678,-4.887528419494629,3.0219075679779053,122.94002532958984,28.29,0
-0.2433927655220031,-0.9529334902763368,-0.0692366957664489,-4.379688262939453,3.0276360511779785,122.94001770019533,28.29,0
-0.2737487256526947,-0.9809909462928772,-0.078018769621849,-3.376678705215454,3.031312227249145,122.94001007080078,28.29,0
-0.2820338904857635,-0.9989966154098512,-0.0556657314300537,-2.2206966876983643,3.0336713790893555,122.94001007080078,28.29,0
-0.2761552929878235,-1.1281049251556396,-0.0581141598522663,-0.5832099914550781,3.0351853370666504,122.94001007080078,28.29,0
-0.2835782766342163,-1.2053613662719729,-0.0652831941843032,1.6427195072174072,3.0361568927764893,122.94001007080078,28.29,0
-0.2827441394329071,-1.0758113861083984,-0.0586883202195167,3.812786102294922,3.03678035736084,122.94001007080078,28.29,0
-0.2430244386196136,-0.9814780950546264,-0.037662785500288,5.406033992767334,3.0509519577026367,122.94001007080078,28.29,0
-0.1447635442018509,-1.0552870035171509,-0.0241698082536458,6.693599700927734,3.060046434402466,122.94001007080078,28.29,0
-0.0649120360612869,-1.007491111755371,-0.0323041155934333,7.892472743988037,3.065882682800293,122.94001007080078,28.29,0
-0.0360590331256389,-0.9656229615211488,-0.0319264717400074,8.181775093078613,3.0696280002593994,122.94001007080078,28.29,0
-0.0567272566258907,-0.888374388217926,-0.0148907974362373,6.586893081665039,3.0720314979553223,122.94001007080078,28.29,0
-0.0979798063635826,-0.8332029581069946,-0.0095560569316148,3.3421926498413086,3.0735740661621094,122.94001007080078,28.29,0
-0.1300510913133621,-0.8033948540687561,0.010660795494914,-0.2805766463279724,3.074563980102539,122.94001007080078,28.29,0
-0.1562303751707077,-0.8066568374633789,0.0460259057581424,-2.874154806137085,3.0751991271972656,122.94001007080078,28.29,0
-0.1674329489469528,-0.8087502121925354,0.0743189752101898,-3.617841958999634,3.0866239070892334,122.8970184326172,28.29,0
-0.2082087695598602,-0.8212891221046448,0.0868780612945556,-2.869856834411621,3.0939557552337646,122.86942291259766,28.29,0
-0.2511696517467499,-0.8461292386054993,0.0949377566576004,-1.8918650150299072,3.098660945892334,122.85171508789062,28.29,0
-0.2955328226089477,-0.8620702028274536,0.1113055571913719,-1.4541226625442505,3.101680278778076,122.8403549194336,28.29,0
-0.301611453294754,-0.9450712203979492,0.088222824037075,-1.3308380842208862,3.1036179065704346,122.83306121826172,28.29,0
-0.2943167984485626,-0.9983364939689636,0.0566163286566734,-1.008105993270874,3.1048614978790283,122.82838439941406,28.29,0
-0.306428849697113,-1.1276812553405762,0.0531264245510101,-0.1883747279644012,3.105659484863281,122.82537841796876,28.29,0
-0.3253972232341766,-1.2330783605575562,0.056484580039978,1.007623314857483,3.1061716079711914,122.82344818115234,28.29,0
-0.2536033987998962,-1.138380765914917,0.041846327483654,2.054586887359619,3.1092545986175537,122.82221221923828,28.29,0
-0.145954743027687,-1.1000003814697266,0.0492456629872322,2.4756875038146973,3.1112329959869385,122.82141876220705,28.29,0
-0.0656764805316925,-1.1369456052780151,0.0483963564038276,2.2443649768829346,3.1125025749206543,122.82090759277344,28.29,0
0.0026348105166107,-1.1718504428863523,-0.0361152961850166,1.6301807165145874,3.1133174896240234,122.8205795288086,28.29,0
0.0128864189609885,-1.1382726430892944,-0.0903500169515609,0.7416372299194336,3.113840341567993,122.82037353515624,28.29,0
-0.0141213359311223,-1.0607465505599976,-0.0859703123569488,-0.8281175494194031,3.114176034927368,122.82023620605467,28.29,0
-0.048246681690216,-0.9830058813095092,-0.1223440915346145,-3.411828994750977,3.114391326904297,122.82015228271484,28.29,0
-0.0645485892891883,-0.899529755115509,-0.1344911456108093,-6.159008979797363,3.114529609680176,122.82009887695312,28.29,0
-0.0750102177262306,-0.8235684633255005,-0.1366886496543884,-7.531490325927734,3.10910964012146,122.82006072998048,28.29,0
-0.1097127571702003,-0.8028097748756409,-0.1380988806486129,-7.172698974609375,3.1056313514709477,122.82003784179688,28.29,0
-0.1039939820766449,-0.7838902473449707,-0.116612784564495,-6.147115230560303,3.1033992767333984,122.8200225830078,28.29,0
-0.1115195453166961,-0.8053354620933533,-0.0860309228301048,-5.245339870452881,3.101966857910156,122.82001495361328,28.29,0
-0.1331423372030258,-0.8526843786239624,-0.0720030143857002,-4.329870223999023,3.1010475158691406,122.82000732421876,28.29,0
-0.1973985731601715,-0.9446457624435424,-0.0574029386043548,-3.2014052867889404,3.100457668304444,122.82000732421876,28.29,0
-0.2498300820589065,-1.037247896194458,-0.0480334497988224,-2.1082162857055664,3.10007905960083,122.82000732421876,28.29,0
-0.2946731448173523,-1.1694456338882446,-0.0308251027017831,-1.2991931438446045,3.0998361110687256,122.82000732421876,28.29,0
-0.3122552931308746,-1.2150981426239014,0.0417937450110912,-0.711939811706543,3.0964670181274414,122.82000732421876,28.29,0
-0.2731585502624511,-1.1828198432922363,0.1331785321235656,-0.2956660687923431,3.0943048000335693,122.82000732421876,28.29,0
-0.1696996539831161,-1.0669432878494265,0.2086173593997955,-0.1360028237104416,3.0929172039031982,122.82000732421876,28.29,0
-0.080914594233036,-1.054155945777893,0.2346385568380355,-0.1159393861889839,3.092026948928833,122.82000732421876,28.29,0
0.0040514124557375,-1.118720769882202,0.161773070693016,0.0474043451249599,3.0914554595947266,122.82000732421876,28.29,0
-0.0365844555199146,-1.08738374710083,0.0702299922704696,0.4567479193210602,3.0910887718200684,122.82000732421876,28.29,0
-0.0850533172488212,-1.0336867570877075,0.0114829204976558,1.0812811851501465,3.090853452682495,122.82000732421876,28.29,0
-0.1105600669980049,-0.932053804397583,0.0185646265745162,1.9012320041656492,3.090702533721924,122.82000732421876,28.29,0
-0.1605154871940612,-0.8780272006988525,0.0175114832818508,2.78926944732666,3.1259520053863525,122.7841796875,28.29,0
-0.186976209282875,-0.8601493835449219,0.0056400876492261,3.8356432914733887,3.148573160171509,122.7611846923828,28.29,0
-0.198359414935112,-0.8318830728530884,0.0092172576114535,5.352633476257324,3.1630899906158447,122.74642944335938,28.29,0
-0.2224578261375427,-0.7969500422477722,0.0171106532216072,7.096404552459717,3.1724061965942383,122.7369613647461,28.29,0
-0.2659116685390472,-0.7465431690216064,0.0501650534570217,8.423245429992676,3.178384780883789,122.73088836669922,28.29,0
-0.3049933910369873,-0.7029994130134583,0.0825730115175247,9.35355281829834,3.1822214126586914,122.72698974609376,28.29,0
-0.3356715738773346,-0.691848874092102,0.1257616728544235,10.30166244506836,3.184683561325073,122.7244873046875,28.29,0
-0.3609568178653717,-0.746268630027771,0.1646732240915298,11.160884857177734,3.1862635612487797,122.7228775024414,28.29,0
-0.3771834373474121,-0.842767596244812,0.1840466409921646,11.683624267578123,3.189573049545288,122.72184753417967,28.29,0
-0.3764012157917022,-1.0446394681930542,0.1852838397026062,11.968932151794434,3.191696882247925,122.72118377685548,28.29,0
-0.415083646774292,-1.2077758312225342,0.2028711140155792,11.954984664916992,3.1930596828460693,122.72075653076172,28.29,0
-0.4622988998889923,-1.127740740776062,0.1861687451601028,11.408647537231444,3.193934440612793,122.72048950195312,28.29,0
-0.4366211891174316,-1.1715410947799685,0.1138746067881584,10.470497131347656,3.194495677947998,122.7203140258789,28.29,0
-0.4201427102088928,-1.2332361936569214,0.0786759406328201,9.162678718566896,3.1948559284210205,122.72019958496094,28.29,0
-0.3927744328975677,-1.2392419576644895,0.0840763375163078,6.815131664276123,3.19508695602417,122.72013092041016,28.29,0
-0.364015519618988,-1.1647272109985352,0.0819442272186279,3.2199699878692627,3.195235252380371,122.72008514404295,28.29,0
-0.3343641459941864,-1.0329413414001465,0.0525870881974697,-0.4163335263729095,3.2035932540893555,122.72005462646484,28.29,0
-0.3209333717823028,-0.9371732473373412,0.0225518159568309,-2.8502159118652344,3.2089569568634038,122.72003173828124,28.29,0
-0.3291076123714447,-0.8757147789001465,-0.0023208672646433,-4.071796894073486,3.2123990058898926,122.72002410888672,28.29,0
-0.3287555873394012,-0.858665406703949,-0.0462715923786163,-4.304020404815674,3.214607954025269,122.7200164794922,28.29,0
-0.3117363452911377,-0.858919620513916,-0.0800744146108627,-3.399770975112915,3.2160255908966064,122.72000885009766,28.29,0
-0.2672277390956878,-0.8646805286407471,-0.1017671227455139,-1.8700932264328003,3.216935396194458,122.72000885009766,28.29,0
-0.2274691313505172,-0.8683775663375854,-0.1100904792547226,-0.6376537680625916,3.2175192832946777,122.72000885009766,28.29,0
-0.2075521200895309,-0.8987389802932739,-0.1154319271445274,0.404035210609436,3.2178938388824463,122.72000885009766,28.29,0
-0.2339549362659454,-0.9965920448303224,-0.1020664349198341,1.9395145177841189,3.2112486362457275,122.72000885009766,28.29,0
-0.2620942890644073,-1.0873773097991943,-0.0878914594650268,3.7918801307678223,3.206984043121338,122.72000885009766,28.29,0
-0.2857502996921539,-1.005693793296814,-0.0452081300318241,5.396200656890869,3.204247236251831,122.72000885009766,28.29,0
-0.3625068664550781,-0.9476761817932128,0.0269657671451568,6.905826091766357,3.202491044998169,122.72000885009766,28.29,0
-0.406167060136795,-0.9944104552268982,0.09567391872406,8.583967208862305,3.201364040374756,122.72000885009766,28.29,0
-0.3614145815372467,-1.080379605293274,0.1621579527854919,9.911681175231934,3.2006406784057617,122.72000885009766,28.29,0
-0.2935105860233307,-1.0907673835754397,0.2048235833644867,9.964818000793455,3.200176477432251,122.72000885009766,28.29,0
-0.15477155148983,-1.0078693628311155,0.2322039306163787,8.064327239990234,3.199878692626953,122.72000885009766,28.29,0
-0.104921244084835,-0.9490723609924316,0.2777639329433441,4.125526428222656,3.1900475025177,122.68775939941406,28.29,0
-0.1345057040452957,-0.9225353598594666,0.2958061695098877,-1.2968904972076416,3.183738470077514,122.66706848144533,28.29,0
-0.2206646054983139,-0.9111032485961914,0.2849935293197632,-7.499443054199219,3.179689645767212,122.6537857055664,28.29,0
-0.2927497625350952,-0.8981689810752869,0.2668590545654297,-13.797810554504396,3.177091360092163,122.645263671875,28.29,0
-0.3502053916454315,-0.8674774169921875,0.2272325307130813,-18.864356994628903,3.1754238605499268,122.6397933959961,28.29,0
-0.3646860122680664,-0.8197924494743347,0.2074002772569656,-21.08399200439453,3.174353837966919,122.63628387451172,28.29,0
-0.3795766234397888,-0.7947887778282166,0.18907530605793,-20.09018898010254,3.1736671924591064,122.634033203125,28.29,0
-0.4115236699581146,-0.7955361604690552,0.1605220735073089,-16.790569305419922,3.173226356506348,122.63258361816406,28.29,0
-0.4376232028007507,-0.8072113394737244,0.1366004794836044,-11.90731430053711,3.177533864974976,122.63166046142578,28.29,0
-0.4487746059894562,-0.853888213634491,0.1156511977314949,-5.778489112854004,3.180298328399658,122.63106536865234,28.29,0
-0.4279420673847198,-1.0965582132339478,0.0742182806134224,0.6946837306022644,3.182072401046753,122.63068389892578,28.29,0
-0.4201707243919372,-1.2298986911773682,0.0588245689868927,6.378552913665772,3.183210849761963,122.63043975830078,28.29,0
-0.4151835143566131,-1.125144600868225,0.0265546739101409,11.104488372802734,3.18394136428833,122.63027954101562,28.29,0
-0.4007874727249145,-1.1418861150741575,-0.0165453851222991,15.423466682434082,3.184410095214844,122.63018035888672,28.29,0
-0.4475266635417938,-1.2198030948638916,-0.066595621407032,19.302154541015625,3.18471097946167,122.63011169433594,28.29,0
-0.4215434491634369,-1.2138280868530271,-0.0819216594099998,21.69095993041992,3.184904098510742,122.63007354736328,28.29,0
-0.376880019903183,-1.1428203582763672,-0.0805614739656448,21.02067375183105,3.1634531021118164,122.63004302978516,28.29,0
-0.337022066116333,-1.0468716621398926,-0.079688586294651,16.237693786621094,3.1496870517730717,122.6300277709961,28.29,0
-0.3058457672595978,-0.9852973222732544,-0.0791284218430519,8.192055702209473,3.140852689743042,122.63002014160156,28.29,0
-0.2970341444015503,-0.9513802528381348,-0.0787689387798309,-0.5752438902854919,3.135183334350586,122.63001251220705,28.29,0
-0.285781592130661,-0.907223105430603,-0.0785382464528083,-8.318894386291504,3.131545066833496,122.6300048828125,28.29,0
-0.261767029762268,-0.8732878565788269,-0.0839879736304283,-15.022289276123049,3.1292102336883545,122.6300048828125,28.29,0
-0.2295625358819961,-0.857107937335968,-0.0762897431850433,-20.48847961425781,3.127711772918701,122.6300048828125,28.29,0
-0.2088955342769622,-0.8635178804397583,-0.0713494643568992,-23.65243911743164,3.126750230789185,122.6300048828125,28.29,0
-0.2292192876338958,-0.9404025077819824,-0.0569835267961025,-24.36091423034668,3.116493225097656,122.6300048828125,28.29,0
-0.2590552270412445,-1.040122628211975,-0.0477642975747585,-23.8160343170166,3.1099109649658203,122.6300048828125,28.29,0
-0.2726044356822967,-1.132106065750122,-0.0306523758918046,-22.77134323120117,3.105686664581299,122.6300048828125,28.29,0
-0.342875063419342,-1.0567891597747805,0.0251112636178731,-20.589073181152344,3.102975845336914,122.6300048828125,28.29,0
-0.4103617966175079,-0.935684084892273,0.0888860300183296,-16.512434005737305,3.10123610496521,122.6300048828125,28.29,0
-0.4256820380687713,-0.9363346695899964,0.1298130005598068,-11.033803939819336,3.1001198291778564,122.6300048828125,28.29,0
-0.396329253911972,-1.0151209831237793,0.1168931573629379,-5.450788497924805,3.099403381347656,122.6300048828125,28.29,0
-0.3327101469039917,-1.043290376663208,0.1086019426584243,-0.6140288710594177,3.0989434719085693,122.6300048828125,28.29,0
-0.2303075492382049,-1.005390167236328,0.1256722211837768,3.374821424484253,3.0958940982818604,122.6729965209961,28.27,0
-0.1813847720623016,-0.9698724746704102,0.1310291737318039,6.934174537658691,3.0939371585845947,122.7005844116211,28.27,0
-0.2115644663572311,-0.9470792412757874,0.1176736280322074,10.572575569152832,3.092681407928467,122.7182846069336,28.27,0
-0.275714248418808,-0.9268540740013124,0.1035050302743911,13.563103675842283,3.0918755531311035,122.72964477539062,28.27,0
-0.3168818950653076,-0.902679204940796,0.0888146683573722,13.683798789978027,3.091358423233032,122.7369384765625,28.27,0
-0.3265075981616974,-0.8647740483283997,0.0737894624471664,9.85266399383545,3.091026544570923,122.74161529541016,28.27,0
-0.3326848149299621,-0.8348509073257446,0.0809404775500297,4.1339192390441895,3.090813636779785,122.74462127685548,28.27,0
-0.3422467708587646,-0.8100501894950867,0.1079206839203834,-0.4639294743537903,3.090676784515381,122.74655151367188,28.27,0
-0.3539808690547943,-0.8109278678894043,0.1252350211143493,-3.0491411685943604,3.0924251079559326,122.74778747558594,28.27,0
-0.3671089112758636,-0.833882212638855,0.1307485997676849,-4.375001907348633,3.093547105789185,122.7485809326172,28.27,0
-0.3923270404338836,-0.8766018152236938,0.1174935698509216,-4.996578216552734,3.0942671298980717,122.74909210205078,28.27,0
-0.402912825345993,-0.9320057034492492,0.0977917090058326,-5.2020111083984375,3.09472918510437,122.74942016601562,28.27,0
-0.3873150646686554,-1.0739184617996216,0.0739526376128196,-5.409080028533936,3.0950257778167725,122.74962615966795,28.27,0
-0.4220875203609466,-1.0810232162475586,0.0754474177956581,-5.602868556976318,3.0952160358428955,122.74976348876952,28.27,0
-0.4164136052131653,-1.0184093713760376,0.0596133582293987,-5.372556209564209,3.0953381061553955,122.74984741210938,28.27,0
-0.4015768766403198,-1.0454007387161257,0.0102675482630729,-4.737524509429932,3.09541654586792,122.7499008178711,28.27,0
-0.3976532816886902,-1.1075043678283691,-0.0213997513055801,-4.072052478790283,3.087663412094116,122.74993896484376,28.27,0
-0.4063308835029602,-1.0913811922073364,-0.0417219996452331,-3.473026990890503,3.0826878547668457,122.74996185302734,28.27,0
-0.3671174943447113,-0.9914699196815492,-0.0547636486589908,-2.809165954589844,3.0794947147369385,122.7499771118164,28.27,0
-0.3307570517063141,-0.9105592966079712,-0.063133031129837,-1.910238265991211,3.0774455070495605,122.74998474121094,28.27,0
-0.3242163360118866,-0.8754287958145142,-0.0629062429070472,-0.8676233887672424,3.0761306285858154,122.74999237060548,28.27,0
-0.3256166577339172,-0.8472862839698792,-0.0571629293262958,-0.4278180003166199,3.075286626815796,122.74999237060548,28.27,0
-0.309721976518631,-0.8292260766029358,-0.0534772016108036,-1.1164541244506836,3.074745178222656,122.74999237060548,28.27,0
-0.2827283442020416,-0.8512226939201355,-0.0455141402781009,-1.9882903099060056,3.074397563934326,122.74999237060548,28.27,0
-0.2542098462581634,-0.8821321725845337,-0.034806128591299,-1.7166271209716797,3.058566808700561,122.74999237060548,28.27,0
-0.2135172188282013,-0.9131636619567872,-0.0335321202874183,-0.4316908717155456,3.0484073162078857,122.74999237060548,28.27,0
-0.1874030232429504,-0.9498711824417114,-0.0383123084902763,0.8729724287986755,3.041887760162353,122.74999237060548,28.27,0
-0.1818399876356125,-1.0573946237564087,-0.0301844086498022,1.9825059175491333,3.0377037525177,122.74999237060548,28.27,0
-0.1782699525356292,-1.1431902647018433,-0.0249683912843465,3.4253861904144287,3.0350186824798584,122.74999237060548,28.27,0
-0.2039677798748016,-1.131075739860535,0.0007700475980527,5.411786079406738,3.0332956314086914,122.74999237060548,28.27,0
-0.2484480440616607,-1.0393346548080444,0.0620696917176246,7.528448104858398,3.0321898460388184,122.74999237060548,28.27,0
-0.2490040510892868,-0.9972538352012634,0.0958105027675628,9.180571556091309,3.031480312347412,122.74999237060548,28.27,0
-0.2101764380931854,-1.0318243503570557,0.1230611875653266,10.144079208374023,3.033320188522339,122.925537109375,28.27,0
-0.1460746824741363,-1.065205216407776,0.1517446488142013,10.79464626312256,3.034501075744629,123.03819274902344,28.27,0
-0.1049378737807273,-1.0418449640274048,0.1757498234510421,11.692208290100098,3.0352587699890137,123.11048889160156,28.27,0
-0.1065275073051452,-0.937289297580719,0.1855571866035461,12.540487289428713,3.035745143890381,123.1568832397461,28.27,0
-0.1243409663438797,-0.8645937442779541,0.1918509900569915,11.755728721618652,3.036057233810425,123.18666076660156,28.27,0
-0.1469681710004806,-0.8179419040679932,0.1790966689586639,8.052875518798828,3.03625750541687,123.20577239990234,28.27,0
-0.1558912247419357,-0.7936012148857117,0.1653138995170593,2.427201747894287,3.036386013031006,123.21803283691406,28.27,0
-0.1616175323724746,-0.7835785150527954,0.150871142745018,-2.5551583766937256,3.036468505859375,123.22589874267578,28.27,0
-0.1876834481954574,-0.7771465182304382,0.1360048353672027,-5.362049579620361,3.0282585620880127,123.23094940185548,28.27,0
-0.2156066000461578,-0.7730188369750977,0.1264645010232925,-6.360853672027588,3.0229897499084477,123.23419189453124,28.27,0
-0.2615149319171905,-0.7815654873847961,0.1203420609235763,-6.396373748779297,3.019608497619629,123.23627471923828,28.27,0
-0.2797807157039642,-0.8430280089378357,0.1220108047127723,-5.7492265701293945,3.0174386501312256,123.23760986328124,28.27,0
-0.2803070843219757,-0.9048621654510498,0.1174839287996292,-4.513514995574951,3.0160462856292725,123.23846435546876,28.27,0
-0.2582537829875946,-1.017314910888672,0.0865899696946144,-2.9896609783172607,3.0151526927948,123.239013671875,28.27,0
-0.2720901370048523,-1.156653881072998,0.0611662343144416,-1.4743529558181765,3.0145792961120605,123.23936462402344,28.27,0
-0.3313494622707367,-1.1509114503860474,0.0784373879432678,-0.1221624389290809,3.014211177825928,123.23959350585938,28.27,0
-0.3357920348644256,-1.2311928272247314,0.0783254727721214,1.0250364542007446,3.0107617378234863,123.23973846435548,28.27,0
-0.2994586229324341,-1.2995061874389648,0.0558625534176826,2.1051700115203857,3.0085480213165283,123.23983001708984,28.27,0
-0.1361975669860839,-1.2929657697677612,0.0526426956057548,3.1136040687561035,3.007127523422241,123.2398910522461,28.27,0
-0.0146326916292309,-1.2103996276855469,0.0729674696922302,3.366675615310669,3.006215810775757,123.23992919921876,28.27,0
-0.0093904193490743,-1.0230668783187866,0.0972062945365905,2.2930939197540283,3.0056307315826416,123.23995208740234,28.27,0
-0.0172217786312103,-0.8972497582435608,0.0847725048661232,0.5401059985160828,3.0052552223205566,123.2399673461914,28.27,0
-0.0222474951297044,-0.822105348110199,0.0599998869001865,-1.068508505821228,3.005014419555664,123.23997497558594,28.27,0
-0.0030816136859357,-0.8130663633346558,0.0273089259862899,-2.9283995628356934,3.0048599243164062,123.23998260498048,28.27,0
0.0204134956002235,-0.8184612393379211,0.0007319735013879,-5.443941116333008,2.997415781021118,123.239990234375,28.27,0
-0.0036931168287992,-0.8499122262001038,-0.0331169068813324,-7.584909439086914,2.99263858795166,123.239990234375,28.27,0
-0.0471522249281406,-0.9092800617218018,-0.0716324970126152,-8.149197578430176,2.989572763442993,123.239990234375,28.27,0
-0.0806395560503006,-0.947378933429718,-0.0963495820760726,-7.300414562225342,2.987605333328247,123.239990234375,28.27,0
-0.1133253425359726,-0.9606330394744872,-0.1066138073801994,-5.788419246673584,2.986342668533325,123.239990234375,28.27,0
-0.1287034302949905,-1.0139210224151611,-0.1243963465094566,-3.893803119659424,2.985532522201538,123.239990234375,28.27,0
-0.1273766458034515,-1.0201292037963867,-0.1190148368477821,-1.753643035888672,2.9850125312805176,123.239990234375,28.27,0
-0.1153296455740928,-1.1416665315628052,-0.143550157546997,0.3291385173797607,2.9846787452697754,123.239990234375,28.27,0
-0.1243918985128402,-1.253248929977417,-0.1704910695552826,2.299863576889038,2.9890553951263428,123.1862564086914,28.27,0
-0.1917830556631088,-1.2408894300460815,-0.1262046843767166,4.2273383140563965,2.991863965988159,123.15177154541016,28.27,0
-0.1958463937044143,-1.1154046058654783,-0.0921864509582519,5.639826774597168,2.993666410446167,123.129638671875,28.27,0
-0.0809007510542869,-1.074060082435608,-0.0927466005086898,6.076962947845459,2.994823217391968,123.1154327392578,28.27,0
-0.0183307956904172,-1.0419297218322754,-0.0707149803638458,6.07088565826416,2.995565414428711,123.1063232421875,28.27,0
-0.0173614230006933,-1.0157124996185305,-0.0677719041705131,6.246114730834961,2.996041774749756,123.10047149658205,28.27,0
-0.0447282083332538,-0.948507845401764,-0.0546876564621925,5.95015287399292,2.996347427368164,123.09671783447266,28.27,0
-0.0678884088993072,-0.9053797721862792,-0.0406931638717651,4.180305480957031,2.9965436458587646,123.09430694580078,28.27,0
-0.0995446145534515,-0.8721048831939697,-0.0093212071806192,1.2854751348495483,2.956273078918457,123.09276580810548,28.27,0
-0.114261969923973,-0.8451532125473022,0.0332026071846485,-1.471487045288086,2.930429697036743,123.0917739868164,28.27,0
-0.1293044984340667,-0.8166616559028625,0.0604919455945491,-3.441370725631714,2.91384506225586,123.09114074707033,28.27,0
-0.1613490283489227,-0.8095729351043701,0.0724068954586982,-4.798676013946533,2.9032018184661865,123.09072875976562,28.27,0
-0.181913360953331,-0.8106215596199036,0.0856509953737258,-5.780776023864746,2.896371603012085,123.09046936035156,28.27,0
-0.1839148104190826,-0.8616744875907898,0.1165414005517959,-6.396700859069824,2.891988515853882,123.09030151367188,28.27,0
-0.1572103649377823,-0.9112306237220764,0.0971806570887565,-6.584176540374756,2.8891756534576416,123.09019470214844,28.27,0
-0.1400729864835739,-0.9374351501464844,0.056767176836729,-6.14560604095459,2.887370586395264,123.09012603759766,28.27,0
-0.1290751993656158,-1.010229468345642,-0.019547838717699,-4.757140636444092,2.8595874309539795,123.09008026123048,28.27,0
-0.116419680416584,-1.1017268896102903,-0.0741202011704444,-2.483229398727417,2.841757774353028,123.09004974365234,28.27,0
-0.0747114494442939,-1.1324557065963743,-0.1259349286556244,-0.0602513328194618,2.8303158283233643,123.09002685546876,28.27,0
0.0528144277632236,-1.152175784111023,-0.1927732825279235,1.8493515253067017,2.8229730129241943,123.09001922607422,28.27,0
0.1122620999813079,-1.1592332124710083,-0.2748506963253021,3.329187631607056,2.818260908126831,123.09001159667967,28.27,0
0.1056300029158592,-1.1693600416183472,-0.3387188017368316,4.633536338806152,2.815236806869507,123.09000396728516,28.27,0
0.1237649992108345,-1.1310765743255615,-0.3629123568534851,5.477756977081299,2.81329607963562,123.09000396728516,28.27,0
0.1410007774829864,-1.0449329614639282,-0.3560473024845123,5.260023593902588,2.8120508193969727,123.09000396728516,28.27,0
0.04010621458292,-0.9616621136665344,-0.3516417145729065,3.680099248886109,2.7391812801361084,123.09000396728516,28.27,0
-0.130999818444252,-0.9362125396728516,-0.2872389256954193,1.240329623222351,2.692417860031128,123.09000396728516,28.27,0
-0.1344481110572815,-0.8806960582733154,-0.2235178351402282,-1.0168111324310305,2.662407636642456,123.09000396728516,28.27,0
-0.0918788313865661,-0.8450687527656555,-0.1938208490610122,-2.5620434284210205,2.643148899078369,123.09000396728516,28.27,0
-0.0981469675898552,-0.8389984965324402,-0.1859585791826248,-3.739978790283203,2.6307897567749023,123.09000396728516,28.27,0
-0.1357561349868774,-0.8462985157966614,-0.1809130311012268,-4.843419551849365,2.6228582859039307,123.09000396728516,28.27,0
-0.1598915457725525,-0.873374342918396,-0.1776750832796096,-5.605282783508301,2.6177682876586914,123.09000396728516,28.27,0
-0.197771355509758,-0.93553227186203,-0.181194931268692,-5.592642307281494,2.614501953125,123.09000396728516,28.27,0
-0.2388737648725509,-0.9698238968849182,-0.1610626727342605,-4.4166107177734375,2.638112545013428,123.04342651367188,28.27,0
-0.2596531510353088,-0.9862324595451356,-0.1369473934173584,-1.9386826753616333,2.6532645225524902,123.01353454589844,28.27,0
-0.2673904001712799,-1.1367069482803345,-0.1214715987443924,1.2529202699661257,2.6629881858825684,122.99435424804688,28.27,0
-0.2779534757137298,-1.2108817100524902,-0.0947468057274818,4.085691452026367,2.6692283153533936,122.98204803466795,28.27,0
-0.251145601272583,-1.0849517583847046,-0.0328141748905181,5.971670150756836,2.6732327938079834,122.97415161132812,28.27,0
-0.1723663359880447,-0.9313660860061646,0.0237239468842744,7.210643291473389,2.675802707672119,122.96907806396484,28.27,0
-0.0378437303006649,-0.922368049621582,0.0264202114194631,8.503722190856934,2.6774518489837646,122.96582794189452,28.27,0
0.0148984948173165,-0.9893646836280824,-0.0614138692617416,10.103799819946287,2.6785101890563965,122.96373748779295,28.27,0
0.0431476421654224,-0.9875770807266236,-0.1009874045848846,11.256028175354004,2.6833207607269287,122.96239471435548,28.27,0
0.0052985767833888,-0.9304521679878236,-0.0704056769609451,10.730812072753906,2.686408042907715,122.96154022216795,28.27,0
-0.0413818694651126,-0.8881949186325073,-0.0451823100447654,8.419759750366211,2.6883890628814697,122.96099090576172,28.27,0
-0.0321542769670486,-0.849881112575531,-0.0457887277007103,5.851139068603516,2.6896605491638184,122.96063232421876,28.27,0
-0.059819184243679,-0.8252934813499451,-0.0181890204548835,4.521595478057861,2.690476417541504,122.9604034423828,28.27,0
-0.0999640300869941,-0.8375034332275391,0.0107184313237667,4.34547758102417,2.690999984741211,122.96025848388672,28.27,0
-0.1425199955701828,-0.8565346598625183,0.0348673425614833,4.293359279632568,2.691335916519165,122.96016693115234,28.27,0
-0.1810255199670791,-0.8687477707862854,0.0503647252917289,3.880159616470337,2.691551685333252,122.9601058959961,28.27,0
-0.2113339304924011,-0.8989765644073486,0.0547122806310653,3.385706901550293,2.695821523666382,122.96006774902344,28.27,0
-0.2195885628461837,-0.9127779006958008,0.0183178689330816,3.118551731109619,2.698561668395996,122.96004486083984,28.27,0
-0.2304836958646774,-0.927232563495636,-0.0162335187196731,3.0474190711975098,2.70032000541687,122.96002960205078,28.27,0
-0.3102466166019439,-1.0764530897140503,-0.0216132868081331,3.044761180877685,2.701448440551758,122.96002197265624,28.27,0
-0.389422744512558,-1.2337898015975952,-0.0026746152434498,3.1756107807159424,2.7021727561950684,122.96001434326172,28.27,0
-0.3338757157325744,-1.183619499206543,-0.0409008339047431,3.682326555252075,2.7026374340057373,122.9600067138672,28.27,0
-0.1582844704389572,-1.134629726409912,-0.0486388988792896,4.795673847198486,2.7029356956481934,122.9600067138672,28.27,0
-0.0176112409681081,-1.170364260673523,-0.0480069704353809,6.685240745544434,2.703127145767212,122.9600067138672,28.27,0
0.0614691860973835,-1.1932965517044067,-0.1483613699674606,9.180418014526367,2.689478635787964,122.9600067138672,28.27,0
0.1066206768155098,-1.1296443939208984,-0.2183608263731002,11.430126190185549,2.6807196140289307,122.9600067138672,28.27,0
0.1299985349178314,-1.0440138578414917,-0.2185002565383911,12.494105339050291,2.675098657608032,122.9600067138672,28.27,0
0.1002188995480537,-0.9778655767440796,-0.2297852784395218,12.571451187133787,2.6714913845062256,122.9600067138672,28.27,0
0.0811080411076545,-0.9410132169723512,-0.2538206875324249,12.381054878234863,2.6691765785217285,122.9600067138672,28.27,0
0.0296593774110078,-0.9229612350463868,-0.2636474370956421,11.291574478149414,2.6676909923553467,122.9600067138672,28.27,0
-0.0257485136389732,-0.9113765358924866,-0.2587581276893616,8.095353126525879,2.6667375564575195,122.9600067138672,28.27,0
-0.0780994296073913,-0.9095399379730223,-0.2332293689250946,3.640293836593628,2.666125774383545,122.9600067138672,28.27,0
-0.1620752066373825,-0.8859701752662659,-0.1888576000928878,0.0898562222719192,2.676750421524048,122.78087615966795,28.29,0
-0.2271615713834762,-0.8708444833755493,-0.1547845900058746,-2.235183954238892,2.6835687160491943,122.6659164428711,28.29,0
-0.2577347159385681,-0.8891265392303467,-0.1497118026018142,-4.472436428070068,2.687944173812866,122.59214782714844,28.29,0
-0.2997458875179291,-0.906456708908081,-0.1296630650758743,-6.54229211807251,2.6907520294189453,122.54480743408205,28.29,0
-0.349097341299057,-0.9791536927223206,-0.1111991629004478,-7.4836883544921875,2.692553997039795,122.5144271850586,28.29,0
-0.363974928855896,-0.9978175759315492,-0.1441322863101959,-7.471619129180908,2.693710327148437,122.49492645263672,28.29,0
-0.3455336391925812,-1.0657727718353271,-0.1708646416664123,-7.413717746734619,2.6944525241851807,122.48241424560548,28.29,0
-0.3560901880264282,-1.1541646718978882,-0.1600310653448104,-7.562853813171387,2.6949288845062256,122.47438049316406,28.29,0
-0.3684625327587127,-1.1381183862686155,-0.1250898241996765,-7.712299823760986,2.7108418941497803,122.46923065185548,28.29,0
-0.2252624928951263,-1.0102676153182983,-0.1082643195986747,-7.919265270233154,2.721054077148437,122.46592712402344,28.29,0
0.0513616129755973,-1.0457736253738403,-0.1310533285140991,-8.589469909667969,2.727607727050781,122.46380615234376,28.29,0
0.167307510972023,-1.0237771272659302,-0.1904601901769638,-10.23047924041748,2.731813430786133,122.46244049072266,28.29,0
0.0961727797985076,-1.0208566188812256,-0.2173885554075241,-13.053377151489258,2.7345123291015625,122.46156311035156,28.29,0
0.0897070243954658,-0.9574068188667296,-0.2066807597875595,-16.509353637695312,2.736244440078736,122.46100616455078,28.29,0
0.1079487726092338,-0.9054928421974182,-0.2054068893194198,-19.393558502197266,2.737355947494507,122.4606475830078,28.29,0
0.0916664078831672,-0.9001663327217102,-0.1486116349697113,-20.73933219909668,2.7380692958831787,122.46041870117188,28.29,0
0.0756195485591888,-0.8855525255203247,-0.0841748416423797,-20.56402587890625,2.7500030994415283,122.46026611328124,28.29,0
0.0261371750384569,-0.8593809008598328,-0.0372252464294433,-19.53796768188477,2.7576615810394287,122.46016693115234,28.29,0
-0.028008859604597,-0.8481832146644592,0.0152954002842307,-18.112831115722656,2.7625763416290283,122.4601058959961,28.29,0
-0.0851477682590484,-0.8353994488716125,0.0993800982832908,-16.087661743164062,2.765730381011963,122.46006774902344,28.29,0
-0.1498050987720489,-0.8495866656303406,0.1477430462837219,-13.068387985229492,2.767754316329956,122.46004486083984,28.29,0
-0.2136895507574081,-0.909071147441864,0.1731818318367004,-9.20336627960205,2.7690532207489014,122.46002960205078,28.29,0
-0.2434913665056228,-1.0200159549713137,0.1839091926813125,-5.221919059753418,2.7698867321014404,122.46002197265624,28.29,0
-0.2458231300115585,-1.0968116521835327,0.1795978546142578,-1.8607757091522217,2.7704217433929443,122.46001434326172,28.29,0
-0.2921017110347748,-1.1908769607543943,0.1544399857521057,0.6365573406219482,2.788667917251587,122.4600067138672,28.29,0
-0.3441917598247528,-1.262438178062439,0.1494906693696975,2.694189071655273,2.800377130508423,122.4600067138672,28.29,0
-0.3440335094928741,-1.2187976837158203,0.1351189315319061,4.888806819915772,2.807891607284546,122.4600067138672,28.29,0
-0.2655631005764007,-1.1516072750091553,0.0811137780547142,6.899059295654297,2.812713861465454,122.4600067138672,28.29,0
-0.2096075266599655,-1.1420750617980957,0.0408586040139198,7.630241394042969,2.8158085346221924,122.4600067138672,28.29,0
-0.2072851061820984,-1.231119990348816,0.0038296026177704,6.756006717681885,2.8177945613861084,122.4600067138672,28.29,0
-0.2001969367265701,-1.1595150232315063,-0.0423245765268802,5.08079195022583,2.8190691471099854,122.4600067138672,28.29,0
-0.1900503933429718,-1.0631831884384155,-0.0775414481759071,3.278472661972046,2.819886922836304,122.4600067138672,28.29,0
-0.1947344690561294,-0.950982928276062,-0.1001416072249412,1.5307228565216064,2.8231661319732666,122.29520416259766,28.27,0
-0.2145337611436844,-0.8845770359039307,-0.1146450862288475,0.1296767741441726,2.825270414352417,122.18944549560548,28.27,0
-0.2496309131383896,-0.8419615626335144,-0.1239525899291038,-0.5222362279891968,2.826620817184448,122.12157440185548,28.27,0
-0.277752012014389,-0.8202111721038818,-0.1467189341783523,-0.2814025282859802,2.8274874687194824,122.07801818847656,28.27,0
-0.2846029698848724,-0.8006552457809448,-0.1613290607929229,0.8261157870292664,2.8280436992645264,122.05006408691406,28.27,0
-0.2330217808485031,-0.7881053686141968,-0.148313894867897,2.869575500488281,2.8284006118774414,122.0321273803711,28.27,0
-0.1943221539258957,-0.8080404996871948,-0.1287659704685211,6.011646747589111,2.828629732131958,122.02061462402344,28.27,0
-0.2086713910102844,-0.8824092149734497,-0.0938301384449005,9.951889991760254,2.828776836395264,122.0132293701172,28.27,0
-0.2514665424823761,-1.0476880073547363,-0.0770081058144569,13.709335327148438,2.817394971847534,122.00849151611328,28.27,0
-0.3069188892841339,-1.1369611024856567,-0.0718104690313339,16.53980827331543,2.8100907802581787,122.00544738769533,28.27,0
-0.4208738505840301,-1.0431115627288818,0.0154916932806372,18.607023239135746,2.805403470993042,122.00349426269533,28.27,0
-0.505199134349823,-0.9213088154792786,0.121897168457508,20.25249290466309,2.8023953437805176,122.0022430419922,28.27,0
-0.4137721061706543,-0.9606961011886596,0.1957798451185226,21.45176315307617,2.800464868545532,122.0014419555664,28.27,0
-0.3718928396701813,-0.9915703535079956,0.1648246496915817,22.20347213745117,2.7992260456085205,122.00092315673828,28.27,0
-0.2554527521133423,-1.0113836526870728,0.1505571603775024,22.263132095336918,2.798431158065796,122.00059509277344,28.27,0
-0.0911638066172599,-0.9905120730400084,0.2029766291379928,20.81464958190918,2.7979209423065186,122.00038146972656,28.27,0
-0.0641014575958252,-0.9659222960472108,0.2254208773374557,17.499101638793945,2.81779146194458,122.000244140625,28.27,0
-0.1754832118749618,-0.9277509450912476,0.2510198652744293,13.21108055114746,2.830543041229248,122.00016021728516,28.27,0
-0.2861460149288177,-0.9256458282470704,0.2394589483737945,9.05132293701172,2.838726282119751,122.0000991821289,28.27,0
-0.351565271615982,-0.9130993485450744,0.2208442687988281,5.067025184631348,2.843977928161621,122.00006103515624,28.27,0
-0.3711564838886261,-0.8546677827835083,0.1921051144599914,0.8084083199501038,2.8473479747772217,122.00003814697266,28.27,0
-0.366935670375824,-0.7947786450386047,0.1680642068386078,-3.3217313289642334,2.849510669708252,122.0000228881836,28.27,0
-0.3306403458118438,-0.7227585911750793,0.1526361256837844,-6.387795925140381,2.850898742675781,122.00001525878906,28.27,0
-0.3409347534179687,-0.6989313960075378,0.1539308279752731,-8.129716873168945,2.8517894744873047,122.00000762939452,28.27,0
-0.3867255449295044,-0.7172271013259888,0.1491639167070388,-8.839168548583984,2.875772476196289,122.00000762939452,28.27,0
-0.4161114394664764,-0.8521192669868469,0.1069203615188598,-8.73557186126709,2.8911633491516118,122.00000762939452,28.27,0
-0.4181762933731079,-1.000260829925537,0.0630175620317459,-8.217684745788574,2.901040315628052,122.00000762939452,28.27,0
-0.4306969344615936,-1.095329523086548,0.0292454957962036,-7.6453022956848145,2.907378911972046,122.00000762939452,28.27,0
-0.4051453173160553,-1.206719160079956,-0.0204163454473018,-6.561464786529541,2.9114465713500977,122.00000762939452,28.27,0
-0.3887477517127991,-1.2838003635406494,-0.0522864535450935,-4.536784648895264,2.9140570163726807,122.00000762939452,28.27,0
-0.3894203007221222,-1.3220710754394531,-0.0839344039559364,-2.649919271469116,2.915732145309448,122.00000762939452,28.27,0
-0.3786563575267792,-1.2906533479690552,-0.0930486917495727,-3.069109439849853,2.916807174682617,122.00000762939452,28.27,0
-0.3717486560344696,-1.1865246295928955,-0.0932999402284622,-7.056834697723389,2.9202513694763184,121.84954071044922,28.27,0
-0.350522369146347,-1.0637229681015017,-0.1046567261219024,-13.571090698242188,2.922461748123169,121.7529754638672,28.27,0
-0.3313027918338775,-0.9737204313278198,-0.1231404095888137,-19.98709297180176,2.923880100250244,121.69100952148438,28.27,0
-0.2909798920154571,-0.921559751033783,-0.1294043958187103,-24.717134475708008,2.924790382385254,121.65123748779295,28.27,0
-0.2539074420928955,-0.8992816209793091,-0.1334242671728134,-28.4082145690918,2.9253745079040527,121.62571716308594,28.27,0
-0.2077253758907318,-0.8793870210647583,-0.1471995264291763,-31.89470100402832,2.9257493019104004,121.60933685302734,28.27,0
-0.183686152100563,-0.9058042168617249,-0.161637470126152,-34.307674407958984,2.925989866256714,121.59882354736328,28.27,0
-0.1850524991750717,-0.9563438892364502,-0.1709029227495193,-34.34075164794922,2.926144361495972,121.59207916259766,28.27,0
-0.2139182090759277,-1.0447551012039185,-0.1600556224584579,-32.069129943847656,2.912931203842163,121.58775329589844,28.27,0
-0.2380403280258178,-1.1462745666503906,-0.1586922258138656,-28.26116371154785,2.904451847076416,121.58497619628906,28.27,0
-0.3039004802703857,-1.0994683504104614,-0.1074373126029968,-22.88330078125,2.899010181427002,121.58319091796876,28.27,0
-0.390947937965393,-0.9574753642082214,-0.0073715643957257,-15.580828666687012,2.8955180644989014,121.58204650878906,28.27,0
-0.4412122070789337,-0.9055368304252625,0.0568448714911937,-7.118488311767578,2.893277168273926,121.58131408691406,28.27,0
-0.4174911975860595,-1.0177477598190308,0.0588708631694316,0.8701138496398926,2.891839027404785,121.58084106445312,28.27,0
-0.3910728693008423,-1.0505739450454712,0.0489754788577556,7.45484733581543,2.890916109085083,121.5805435180664,28.27,0
-0.2341747283935547,-1.0324554443359375,0.0930051580071449,13.002520561218262,2.8903238773345947,121.58035278320312,28.27,0
-0.1446820795536041,-0.9928391575813292,0.1436519771814346,18.57610511779785,2.884435176849365,121.58023071289062,28.27,0
-0.1488263756036758,-0.9786112308502196,0.1593608558177948,24.818347930908203,2.880656242370605,121.58014678955078,28.27,0
-0.2018659114837646,-0.969480574131012,0.1526485979557037,30.11398696899414,2.8782310485839844,121.58009338378906,28.27,0
-0.2526969611644745,-0.9580233097076416,0.1315477341413498,30.52813720703125,2.8766748905181885,121.58006286621094,28.27,0
-0.2909151613712311,-0.9226818084716796,0.0956153124570846,24.00493431091309,2.875676155090332,121.58003997802734,28.27,0
-0.2986480891704559,-0.8776105642318726,0.0781537294387817,13.72117519378662,2.875035285949707,121.58002471923828,28.27,0
-0.3092084228992462,-0.843088686466217,0.0725456625223159,4.882540225982666,2.874624013900757,121.58001708984376,28.27,0
-0.338376522064209,-0.8153367638587952,0.0745445042848587,-0.3166872560977936,2.8743600845336914,121.58000946044922,28.27,0
-0.3794860243797302,-0.8031249046325684,0.0646316930651664,-2.8077642917633057,2.885666608810425,121.58000946044922,28.27,0
-0.4338566064834595,-0.8064836263656616,0.0414769016206264,-4.162778854370117,2.8929226398468018,121.58000946044922,28.27,0
-0.468748539686203,-0.8646168112754822,0.0210197139531373,-5.648552417755127,2.8975789546966557,121.58000946044922,28.27,0
-0.4631512761116028,-0.935509979724884,0.0022936942987143,-7.898928642272949,2.9005672931671143,121.58000946044922,28.27,0
-0.4987437129020691,-1.0761672258377075,0.0014719609171152,-10.278142929077148,2.902484893798828,121.58000946044922,28.27,0
-0.5327804088592529,-1.088064193725586,0.0065423944033682,-11.435979843139648,2.9037156105041504,121.58000946044922,28.27,0
-0.5042432546615601,-1.0453189611434937,-0.034985888749361,-10.96810245513916,2.9045052528381348,121.58000946044922,28.27,0
-0.4859297573566437,-1.073865294456482,-0.0728318989276886,-9.908339500427246,2.9050121307373047,121.58000946044922,28.27,0
-0.474177211523056,-1.1369669437408447,-0.0747281908988952,-9.378713607788086,2.911764144897461,121.42595672607422,28.25,0
-0.4498417675495147,-1.087897539138794,-0.081542894244194,-9.354096412658691,2.9160971641540527,121.32709503173828,28.25,0
-0.4118335843086242,-1.0060275793075562,-0.0971117317676544,-9.116178512573242,2.9188778400421143,121.2636489868164,28.25,0
-0.3874421119689941,-0.9310970902442932,-0.1127006858587265,-8.379536628723145,2.920662403106689,121.22293090820312,28.25,0
-0.3773868680000305,-0.8774132132530212,-0.11150923371315,-7.602283954620361,2.9218075275421143,121.1968002319336,28.25,0
-0.3597384393215179,-0.8429620265960693,-0.1107446253299713,-7.357850551605225,2.9225423336029053,121.1800308227539,28.25,0
-0.3260215818881988,-0.8656353950500488,-0.093460626900196,-7.5055060386657715,2.923013925552368,121.16927337646484,28.25,0
-0.276395171880722,-0.8913814425468445,-0.0767709761857986,-7.202597141265869,2.923316717147827,121.16236877441406,28.25,0
-0.238950029015541,-0.9246971011161804,-0.0660605132579803,-6.008668899536133,2.9423317909240723,121.1579360961914,28.25,0
-0.2541043162345886,-0.9572727084159852,-0.0591871589422225,-4.382656574249268,2.9545345306396484,121.15509033203124,28.25,0
-0.2694272398948669,-1.000568985939026,-0.0491784587502479,-2.783876180648804,2.9623653888702397,121.15326690673828,28.25,0
-0.2736628353595733,-1.1011251211166382,-0.0371576771140098,-0.8801398873329163,2.967390775680542,121.152099609375,28.25,0
-0.2875765562057495,-1.1152762174606323,-0.0014545606682077,1.7745988368988037,2.970615863800049,121.1513442993164,28.25,0
-0.341287761926651,-1.0291954278945925,0.0662398412823677,4.8682966232299805,2.972685575485229,121.15086364746094,28.25,0
-0.3421698808670044,-0.934769332408905,0.0928888842463493,7.777958393096924,2.9740138053894043,121.15055847167967,28.25,0
-0.320344865322113,-0.9413453936576844,0.1099907085299491,10.35814380645752,2.9748661518096924,121.15036010742188,28.25,0
-0.2895455062389374,-0.9959455132484436,0.1377590000629425,12.9561767578125,2.9997427463531494,121.15023040771484,28.25,0
-0.2417913824319839,-1.0365824699401855,0.166774645447731,15.984823226928713,3.015707015991211,121.150146484375,28.25,0
-0.2055477648973465,-0.9898898601531982,0.185395210981369,19.168004989624023,3.025952100753784,121.15009307861328,28.25,0
-0.210277572274208,-0.9095453023910522,0.1917470395565033,20.89910316467285,3.032526731491089,121.15006256103516,28.25,0
-0.1965195536613464,-0.8635825514793396,0.1902255117893219,19.40549087524414,3.036746025085449,121.15003967285156,28.25,0
-0.1876904517412185,-0.8340862989425659,0.1780535280704498,15.14742374420166,3.0394537448883057,121.1500244140625,28.25,0
-0.1764266788959503,-0.8095595240592957,0.1702422499656677,10.573397636413574,3.041191339492798,121.15001678466795,28.25,0
-0.1636004596948623,-0.8218085169792175,0.1540338695049286,7.172316074371338,3.042306423187256,121.15000915527344,28.25,0
-0.1553693264722824,-0.82407146692276,0.1436322629451751,4.351999282836914,3.060925006866455,121.15000915527344,28.25,0
-0.1612826138734817,-0.814328134059906,0.1369571089744568,1.3849103450775146,3.07287335395813,121.15000915527344,28.25,0
-0.1874685138463974,-0.813673198223114,0.1326733827590942,-1.214216232299805,3.080540895462036,121.15000915527344,28.25,0
-0.2154686599969864,-0.8244484663009644,0.1299243420362472,-2.581249713897705,3.0854616165161133,121.15000915527344,28.25,0
-0.2446330934762954,-0.876145601272583,0.133757933974266,-2.544976234436035,3.088619470596313,121.15000915527344,28.25,0
-0.2801424860954284,-0.9708973169326782,0.1194247901439666,-1.522159457206726,3.0906460285186768,121.15000915527344,28.25,0
-0.3477125465869903,-1.1156702041625977,0.1102266013622284,0.0513648837804794,3.0919463634490967,121.15000915527344,28.25,0
-0.424661785364151,-1.1637948751449585,0.1099215075373649,1.8815720081329343,3.0927810668945312,121.15000915527344,28.25,0
-0.4572500586509704,-1.161091923713684,0.0817368477582931,3.754695892333984,3.0960710048675537,121.00670623779295,28.27,0
-0.4557722210884094,-1.2209328413009644,0.0748450979590416,5.619535446166992,3.098182201385498,120.91474151611328,28.27,0
-0.3428683578968048,-1.2929219007492063,0.0648245960474014,7.271268844604492,3.099537134170532,120.85572052001952,28.27,0
-0.2368264943361282,-1.2551536560058594,0.0304051451385021,7.897765159606934,3.100406646728516,120.8178482055664,28.27,0
-0.1295905262231826,-1.0965696573257446,0.0251100454479455,6.75214147567749,3.1009645462036133,120.79354095458984,28.27,0
-0.0495770946145057,-0.9780062437057496,0.044103056192398,4.214910984039307,3.101322650909424,120.77793884277344,28.27,0
-0.0262179505079984,-0.8851257562637329,0.0730849951505661,1.132136583328247,3.1015524864196777,120.76792907714844,28.27,0
-0.0112273963168263,-0.853509247303009,0.0357061959803104,-2.361639976501465,3.1016998291015625,120.76150512695312,28.27,0
0.0319793261587619,-0.8612084984779358,0.0005230849492363,-6.140669822692871,3.110516309738159,120.75738525390624,28.27,0
0.0876957848668098,-0.8549538850784302,-0.0220554117113351,-9.14262866973877,3.1161742210388184,120.7547378540039,28.27,0
0.0954625308513641,-0.8341466784477234,-0.0477405413985252,-10.384840965270996,3.119805097579956,120.75304412841795,28.27,0
0.0388712584972381,-0.8655760288238525,-0.0810170993208885,-9.92453670501709,3.122135162353516,120.751953125,28.27,0
-0.0030435358639806,-0.891343355178833,-0.1023720800876617,-8.26059627532959,3.1236305236816406,120.75125122070312,28.27,0
-0.0299420394003391,-0.9582592844963074,-0.1104787066578865,-5.713171482086182,3.1245901584625244,120.75080108642578,28.27,0
-0.0528017245233058,-1.0291908979415894,-0.1156810671091079,-2.6955063343048096,3.125205993652344,120.7505111694336,28.27,0
-0.0954606235027313,-1.1474817991256714,-0.1470085233449936,0.2764215767383575,3.125601053237915,120.75032806396484,28.27,0
-0.1844121664762497,-1.3521429300308228,-0.2062970995903015,2.90373158454895,3.12769079208374,120.75021362304688,28.27,0
-0.2638872563838959,-1.3491361141204834,-0.1883673518896103,4.998201370239258,3.1290318965911865,120.75013732910156,28.27,0
-0.2701075971126556,-1.1344910860061646,-0.1040899977087974,6.370972156524658,3.129892349243164,120.75009155273438,28.27,0
-0.1789372861385345,-1.1366885900497437,-0.0835922956466674,7.101469039916992,3.1304445266723637,120.75006103515624,28.27,0
-0.1764071732759475,-1.1157077550888062,-0.098426915705204,7.383965969085693,3.1307990550994877,120.75003814697266,28.27,0
-0.1635879427194595,-1.0350701808929443,-0.1135446950793266,7.020704746246338,3.13102650642395,120.7500228881836,28.27,0
-0.1329701989889145,-0.9609305262565612,-0.0896597728133201,5.605334758758545,3.1311724185943604,120.75001525878906,28.27,0
-0.2140814363956451,-0.8965586423873901,-0.0631362572312355,3.2675843238830566,3.1312661170959477,120.75000762939452,28.27,0
-0.2605361938476562,-0.860846221446991,-0.0349194407463073,0.8215506076812744,3.125358819961548,120.75000762939452,28.27,0
-0.2735548317432403,-0.8547213673591614,-0.0168115124106407,-0.9882056713104248,3.121567726135254,120.75000762939452,28.27,0
-0.2819094657897949,-0.850790798664093,-0.0107886614277958,-2.192593812942505,3.1191349029541016,120.75000762939452,28.27,0
-0.2816731929779053,-0.8426706194877625,0.0322608798742294,-3.409740209579468,3.1175737380981445,120.75000762939452,28.27,0
-0.2927171289920807,-0.8318617939949036,0.0654853731393814,-4.860776424407959,3.11657190322876,120.75000762939452,28.27,0
-0.2998044788837433,-0.869707465171814,0.081209160387516,-6.006922721862793,3.115928888320923,120.75000762939452,28.27,0
-0.2763638794422149,-0.9051902294158936,0.0745064616203308,-6.291048526763916,3.115516185760498,120.75000762939452,28.27,0
-0.1941477507352829,-0.9727432131767272,0.0310206357389688,-5.717460632324219,3.115251302719116,120.75000762939452,28.27,0
-0.2029616981744766,-1.0720725059509275,0.0311028063297271,-4.543285369873047,3.1164586544036865,120.61744689941406,28.21,0
-0.191824659705162,-1.124620795249939,-0.0192244295030832,-2.9371144771575928,3.1172332763671875,120.53237915039062,28.21,0
-0.0559287257492542,-1.1415499448776243,-0.1354881674051284,-1.1898514032363892,3.1177303791046143,120.47779083251952,28.21,0
0.0536725558340549,-1.1860008239746094,-0.2156973183155059,0.3541853725910187,3.118049383163452,120.44275665283205,28.21,0
0.1016172543168068,-1.225722312927246,-0.2895620465278625,1.6459957361221311,3.1182541847229004,120.42027282714844,28.21,0
0.1211898475885391,-1.0944756269454956,-0.3089752793312073,2.603978157043457,3.1183855533599854,120.40584564208984,28.21,0
0.1505437344312667,-0.9542713165283204,-0.2990424931049347,2.6742043495178223,3.1184699535369877,120.3965835571289,28.21,0
0.0966103002429008,-0.8586984872817993,-0.3206570744514465,1.4223792552947998,3.118524074554444,120.39064025878906,28.21,0
0.0284122806042432,-0.8085609078407288,-0.3401258289813995,-0.9143123030662536,3.108459949493408,120.38682556152344,28.21,0
-0.0097555061802268,-0.8267654180526733,-0.3190331161022186,-3.86122727394104,3.102001190185547,120.3843765258789,28.21,0
-0.045444943010807,-0.8440458178520203,-0.2831059396266937,-6.920307159423828,3.0978565216064453,120.38280487060548,28.21,0
-0.0907394662499427,-0.860733151435852,-0.2544521689414978,-9.29544448852539,3.0951967239379883,120.38179779052734,28.21,0
-0.1366002112627029,-0.8826376795768738,-0.2472593784332275,-10.561725616455078,3.093489646911621,120.3811492919922,28.21,0
-0.16043321788311,-0.8910969495773315,-0.2426434457302093,-11.198805809020996,3.0923941135406494,120.3807373046875,28.21,0
-0.1813256442546844,-0.9021233916282654,-0.2116923332214355,-11.582569122314451,3.091691255569458,120.3804702758789,28.21,0
-0.1947332024574279,-0.937188446521759,-0.1918296962976455,-11.216226577758787,3.091240167617798,120.38030242919922,28.21,0
-0.1977396309375763,-0.9596911668777466,-0.1790830045938491,-9.67707061767578,3.09140944480896,120.38019561767578,28.21,0
-0.1940712034702301,-1.1084786653518677,-0.1876962333917617,-7.231220722198486,3.0915181636810303,120.380126953125,28.21,0
-0.2309014350175857,-1.2767330408096311,-0.198821485042572,-4.203506946563721,3.091588020324707,120.3800811767578,28.21,0
-0.2265480905771255,-1.1663957834243774,-0.1611788272857666,-0.8382120132446289,3.091632843017578,120.38005065917967,28.21,0
0.0001566052087582,-1.0228166580200195,-0.0866419672966003,2.2385799884796143,3.0916614532470703,120.3800277709961,28.21,0
0.1624359488487243,-0.9586646556854248,-0.061199601739645,4.485363960266113,3.091679811477661,120.38002014160156,28.21,0
0.1434264630079269,-0.9902666807174684,-0.1792187392711639,6.242486953735352,3.091691732406616,120.38001251220705,28.21,0
0.1144339442253112,-0.988155961036682,-0.2325655370950698,8.219178199768066,3.0916993618011475,120.3800048828125,28.21,0
0.0958282127976417,-0.9476169943809508,-0.1884315907955169,10.354687690734863,3.082064151763916,120.3800048828125,28.21,0
0.0503014847636222,-0.921601414680481,-0.1489134132862091,11.596161842346191,3.075881004333496,120.3800048828125,28.21,0
0.0322805978357791,-0.9049060940742492,-0.1179551556706428,10.924013137817385,3.071913003921509,120.3800048828125,28.21,0
-0.0016752667725086,-0.8662031292915344,-0.0980879291892051,8.615396499633789,3.069366455078125,120.3800048828125,28.21,0
-0.0514550618827343,-0.8581591248512268,-0.079740509390831,6.352858066558838,3.067732334136963,120.3800048828125,28.21,0
-0.1169875115156173,-0.869790256023407,-0.0455750934779644,5.57441520690918,3.066683530807495,120.3800048828125,28.21,0
-0.1646402478218078,-0.8772544860839844,-0.0124541474506258,5.891682624816895,3.0660104751586914,120.3800048828125,28.21,0
-0.1952210217714309,-0.8708490133285522,0.0199965164065361,5.95914888381958,3.0655786991119385,120.3800048828125,28.21,0
-0.2148460000753402,-0.8947272300720215,0.0352237112820148,5.558205604553223,3.0634653568267822,120.2546157836914,28.23,0
-0.2218424081802368,-0.9212464690208436,0.0338000990450382,5.544517993927002,3.0621092319488525,120.17414855957033,28.23,0
-0.2207345366477966,-1.0390249490737915,0.0216909572482109,6.026546955108643,3.061239004135132,120.12250518798828,28.23,0
-0.2368168830871582,-1.1537927389144895,0.019517783075571,6.049279689788818,3.060680389404297,120.08936309814452,28.23,0
-0.2191487401723861,-1.0930975675582886,0.0125253899022936,5.243458271026611,3.0603220462799072,120.0680923461914,28.23,0
-0.1126481667160987,-1.0765379667282104,0.0192336235195398,4.4934611320495605,3.060091972351074,120.054443359375,28.23,0
-0.0051178191788494,-1.1218887567520142,0.012343032285571,4.424152374267578,3.0599443912506104,120.04568481445312,28.23,0
0.052693422883749,-1.173383355140686,-0.1208277568221092,4.236371040344238,3.059849739074707,120.0400619506836,28.23,0
0.0897933468222618,-1.1392563581466677,-0.2062891125679016,2.9121181964874268,3.0492308139801025,120.03645324707033,28.23,0
0.0744175240397453,-1.055780053138733,-0.1883622258901596,0.700910210609436,3.0424160957336426,120.03414154052734,28.23,0
0.0645502060651779,-0.996612012386322,-0.1768577843904495,-1.3988051414489746,3.0380427837371826,120.03265380859376,28.23,0
0.0526201538741588,-0.9418480396270752,-0.1974637657403946,-2.9361581802368164,3.035236358642578,120.03170013427734,28.23,0
0.0281708110123872,-0.917899250984192,-0.1938941776752472,-4.087541580200195,3.033435344696045,120.03108978271484,28.23,0
0.0124806314706802,-0.9025302529335022,-0.1692123115062713,-4.9267449378967285,3.0322794914245605,120.03070068359376,28.23,0
-0.0087839718908071,-0.8926673531532288,-0.1533729135990142,-5.200186729431152,3.031537771224976,120.03044891357422,28.23,0
-0.0616147927939891,-0.8863378763198853,-0.1376103311777115,-4.691393852233887,3.0310616493225098,120.03028869628906,28.23,0
-0.101116344332695,-0.8934715390205383,-0.1218970343470573,-3.451323270797729,3.000918388366699,120.03018188476562,28.23,0
-0.115270622074604,-0.9372339248657228,-0.1230086982250213,-1.509093165397644,2.981574058532715,120.03011322021484,28.23,0
-0.1467451155185699,-0.9597203731536864,-0.1349176466464996,1.1882613897323608,2.9691600799560547,120.0300750732422,28.23,0
-0.2117258310317993,-0.9965419769287108,-0.131364569067955,4.205412864685059,2.961193561553955,120.03004455566406,28.23,0
-0.2254378348588943,-1.0257697105407717,-0.1066933199763298,6.653955459594727,2.956080913543701,120.030029296875,28.23,0
-0.2174440920352935,-1.0949063301086426,-0.1020562797784805,8.09631633758545,2.952800035476685,120.03002166748048,28.23,0
-0.2235097140073776,-1.2008497714996338,-0.1046782657504081,8.943123817443848,2.9506945610046387,120.03001403808594,28.23,0
-0.1938156336545944,-1.0785138607025146,-0.0615787096321582,10.01677703857422,2.94934344291687,120.0300064086914,28.23,0
-0.1243797168135643,-0.9104413390159608,-0.0171265751123428,11.651586532592772,2.9347047805786133,120.0300064086914,28.23,0
0.009744650684297,-0.9313308596611024,0.0002046987356152,12.718626022338867,2.925310611724853,120.0300064086914,28.23,0
0.0846223980188369,-0.9895187616348268,-0.0278575085103511,11.106959342956545,2.9192819595336914,120.0300064086914,28.23,0
0.0710991099476814,-0.959687113761902,-0.0738550871610641,5.93122673034668,2.9154131412506104,120.0300064086914,28.23,0
-0.0159481987357139,-0.9125539660453796,-0.0250048469752073,-1.1447994709014893,2.912930488586426,120.0300064086914,28.23,0
-0.0774079263210296,-0.8711110949516296,0.0231377501040697,-7.319439888000488,2.91133713722229,120.0300064086914,28.23,0
-0.0944581478834152,-0.8501132130622864,0.0372395738959312,-10.9129638671875,2.9103145599365234,120.0300064086914,28.23,0
-0.110997773706913,-0.819844663143158,0.0294959899038076,-12.03683090209961,2.909658432006836,120.0300064086914,28.23,0
-0.1328074932098388,-0.82840895652771,0.0245266035199165,-11.740612030029297,2.913827657699585,119.92610931396484,28.23,0
-0.1524014919996261,-0.8730894327163696,0.0493264086544513,-11.0382080078125,2.9165031909942627,119.85943603515624,28.23,0
-0.1649757921695709,-0.912958323955536,0.0596437230706214,-10.393986701965332,2.918220281600952,119.81664276123048,28.23,0
-0.1898385882377624,-0.9329460859298706,0.0942536517977714,-9.6079740524292,2.91932225227356,119.7891845703125,28.23,0
-0.2225874215364456,-0.951370894908905,0.1276598572731018,-8.16133975982666,2.920029401779175,119.77156066894533,28.23,0
-0.2324081808328628,-0.9967815279960632,0.1379024982452392,-6.014896869659424,2.920483112335205,119.76025390625,28.23,0
-0.2499061375856399,-1.115487813949585,0.1276823133230209,-3.895840406417847,2.920774221420288,119.75299835205078,28.23,0
-0.2947219610214233,-1.2476444244384766,0.1323191225528717,-2.453552722930908,2.920961141586304,119.74834442138672,28.23,0
-0.3066888451576233,-1.1925106048583984,0.1408925354480743,-1.5028973817825315,2.9123592376708984,119.74535369873048,28.23,0
-0.2863796353340149,-1.0955533981323242,0.1240033656358718,-0.6599540710449219,2.90683913230896,119.74343872070312,28.23,0
-0.2005752921104431,-1.1228961944580078,0.1075670942664146,-0.326790988445282,2.903296709060669,119.74220275878906,28.23,0
-0.1455110013484954,-1.1628342866897583,0.0802259147167205,-1.3382270336151123,2.9010233879089355,119.7414093017578,28.23,0
-0.1269672363996505,-1.1324865818023682,0.023495502769947,-3.860995292663574,2.899564504623413,119.74090576171876,28.23,0
-0.1262624561786651,-1.0178489685058594,-0.0073130363598465,-7.167356014251709,2.898628234863281,119.7405776977539,28.23,0
-0.1314079463481903,-0.9386833906173706,-0.0158886350691318,-10.152588844299316,2.8980274200439453,119.74037170410156,28.23,0
-0.1738944500684738,-0.887879490852356,-0.0157941859215497,-11.867714881896973,2.897641658782959,119.740234375,28.23,0
-0.217953160405159,-0.8552764654159546,-0.0213313475251197,-12.058409690856934,2.8891313076019287,119.74015045166016,28.23,0
-0.2294341772794723,-0.8231581449508667,-0.0416781045496463,-11.356794357299805,2.883669853210449,119.74009704589844,28.23,0
-0.2256064862012863,-0.8417308926582336,-0.0659310296177864,-10.45871639251709,2.880165100097656,119.74005889892578,28.23,0
-0.2175523191690445,-0.8480520248413086,-0.0758973881602287,-9.30916976928711,2.877915859222412,119.7400360107422,28.23,0
-0.2291769534349441,-0.8744996786117554,-0.0710976719856262,-7.539674758911133,2.8764724731445312,119.74002075195312,28.23,0
-0.2422347366809845,-0.8970699906349182,-0.0624197162687778,-5.25410795211792,2.8755462169647217,119.7400131225586,28.23,0
-0.2618100345134735,-0.9619343280792236,-0.0288618337363004,-2.9060492515563965,2.874951839447021,119.74000549316406,28.23,0
-0.279970109462738,-1.0651360750198364,-0.0017285397043451,-0.6934329271316528,2.874570369720459,119.74000549316406,28.23,0
-0.2972219586372375,-1.153756022453308,0.0268795955926179,1.4036035537719729,2.858718156814575,119.74000549316406,28.23,0
-0.2859021127223968,-1.0706828832626345,0.0900208428502082,3.197182893753052,2.84854507446289,119.74000549316406,28.23,0
-0.2562465965747833,-0.9613935947418212,0.158530130982399,4.301625728607178,2.8420164585113525,119.74000549316406,28.23,0
-0.2148242890834808,-0.9752246141433716,0.2136909961700439,4.684378623962402,2.837826728820801,119.74000549316406,28.23,0
-0.160252958536148,-1.0288827419281006,0.1875145435333252,4.84760856628418,2.8351380825042725,119.74000549316406,28.23,0
-0.1084389016032219,-1.0241330862045288,0.1595204621553421,5.296287059783936,2.8334126472473145,119.74000549316406,28.23,0
-0.1031764894723892,-0.9763028025627136,0.152751013636589,5.95681095123291,2.832305431365967,119.74000549316406,28.23,0
-0.127788245677948,-0.9288147687911988,0.1484067738056183,6.294715404510498,2.831594944000244,119.74000549316406,28.23,0
-0.1827670782804489,-0.9039374589920044,0.1456189006567001,6.042245864868164,2.82195782661438,119.64327239990234,28.21,0
-0.2572337388992309,-0.8711792826652527,0.1270364820957183,5.812156677246094,2.8157732486724854,119.5811996459961,28.21,0
-0.3162177205085754,-0.8557547330856323,0.1095135733485221,6.699862957000732,2.8118042945861816,119.5413589477539,28.21,0
-0.3652657866477966,-0.8402584195137024,0.1094639301300048,8.971264839172363,2.80925726890564,119.51579284667967,28.21,0
-0.3967420160770416,-0.8303137421607971,0.1206276193261146,11.44995403289795,2.80762267112732,119.4993896484375,28.21,0
-0.400148332118988,-0.7903451919555664,0.1445851624011993,12.89374828338623,2.806573867797852,119.48886108398438,28.21,0
-0.4079320728778839,-0.7758912444114685,0.1543619483709335,13.487112998962402,2.805900812149048,119.48210144042967,28.21,0
-0.4241227805614471,-0.7722132802009583,0.1606361269950866,14.086437225341797,2.805468797683716,119.47776794433594,28.21,0
-0.4457086026668548,-0.8202329277992249,0.1702603101730346,14.865132331848145,2.8047327995300293,119.47498321533205,28.21,0
-0.4539633691310882,-1.0077868700027466,0.1540454626083374,15.483078956604004,2.80426025390625,119.47319793701172,28.21,0
-0.5152385234832764,-1.1897237300872805,0.1436396986246109,15.621696472167969,2.803957223892212,119.47205352783205,28.21,0
-0.4985836446285248,-1.2113181352615356,0.0921796932816505,14.908156394958496,2.803762674331665,119.47132110595705,28.21,0
-0.4543088674545288,-1.2531651258468628,0.0423622988164424,13.060208320617676,2.803637742996216,119.4708480834961,28.21,0
-0.4258958697319031,-1.3024111986160278,-0.0287920609116554,9.893136978149414,2.8035576343536377,119.47054290771484,28.21,0
-0.3404887318611145,-1.294830083847046,-0.0576615072786808,4.980301856994629,2.803506135940552,119.47035217285156,28.21,0
-0.2968749105930328,-1.2283893823623655,-0.0761882588267326,-1.532928705215454,2.803473234176636,119.47023010253906,28.21,0
-0.2800816297531128,-1.1129804849624634,-0.0936754345893859,-7.955437183380127,2.795648097991944,119.47014617919922,28.21,0
-0.2693046629428863,-1.0277221202850342,-0.1104954704642295,-12.399465560913086,2.790626287460327,119.4700927734375,28.21,0
-0.2567908465862274,-0.9786060452461244,-0.1436807066202163,-14.696087837219238,2.7874035835266118,119.47006225585938,28.21,0
