acc_x,acc_y,acc_z,bvp,eda,hr,temp,label
0.0,0.0,0.0,0.0,0.0,0.0,36.11,0
-0.0651041641831398,-0.1249999925494194,0.0937499925494194,-0.8866666555404663,0.3757493197917938,14.333332061767578,36.11,0
-0.160823181271553,-0.2884908616542816,0.2278963327407837,-3.549024820327759,0.8798033595085144,33.560977935791016,36.11,0
-0.2341154515743255,-0.425716370344162,0.3445805609226227,-7.561561584472656,1.3182435035705566,50.28571701049805,36.11,0
-0.2929243147373199,-0.5311679840087891,0.4297080039978027,-10.676828384399414,1.63810932636261,62.4873161315918,36.11,0
-0.3382301330566406,-0.6080529093742371,0.4708737134933471,-10.649835586547852,1.8546719551086424,70.7483139038086,36.11,0
-0.3679572641849518,-0.6529473662376404,0.4923312664031982,-7.174112796783447,1.9967682361602783,76.16871643066406,36.11,0
-0.4039480686187744,-0.6820233464241028,0.5006489157676697,-1.6915076971054075,2.088797092437744,79.67924499511719,36.11,0
-0.4159519672393799,-0.7119336128234863,0.4892364144325256,4.047680854797363,2.13891077041626,81.94062805175781,36.11,0
-0.4404513239860534,-0.7199689149856567,0.4763064682483673,8.567193031311035,2.1711208820343018,83.39411163330078,36.11,0
-0.4673766493797302,-0.719532310962677,0.4624069631099701,10.559651374816896,2.191804885864258,84.32747650146484,36.11,0
-0.4846603572368622,-0.724849283695221,0.4534847140312195,9.112552642822266,2.2050821781158447,84.9266128540039,36.11,0
-0.4901556968688965,-0.7170667052268982,0.447758287191391,4.336251258850098,2.2136037349700928,85.31114959716797,36.11,0
-0.4936824440956116,-0.7008767127990723,0.4328878819942474,-2.444111585617065,2.2190725803375244,85.55792999267578,36.11,0
-0.4903480112552643,-0.6848889589309692,0.4177469909191131,-8.977213859558105,2.2225821018218994,85.71630096435547,36.11,0
-0.4826103746891022,-0.6690310835838318,0.3968348503112793,-13.39909839630127,2.224834442138672,85.81793975830078,36.11,0
-0.4664492607116699,-0.6588544249534607,0.3778168261051178,-15.129803657531738,2.223984479904175,85.88316345214844,36.11,0
-0.4112958014011383,-0.6411280632019043,0.376807689666748,-14.628313064575195,2.2234389781951904,85.92501831054688,36.11,0
-0.3870970010757446,-0.657741129398346,0.3593667447566986,-12.930776596069336,2.2230889797210693,85.9518814086914,36.11,0
-0.382763147354126,-0.685195803642273,0.3145875036716461,-11.458060264587402,2.222864389419556,85.96912384033203,36.11,0
-0.4023730456829071,-0.7252057194709778,0.2410685718059539,-11.899412155151367,2.222720146179199,85.98018646240234,36.11,0
-0.3981642127037048,-0.7956639528274536,0.1882905811071396,-14.77284812927246,2.222627639770508,85.9872817993164,36.11,0
-0.4738320708274841,-0.8576733469963074,0.1320296078920364,-18.63384437561035,2.2225682735443115,85.99183654785156,36.11,0
-0.5335869193077087,-0.8974673748016357,0.118315652012825,-20.30194854736328,2.2225301265716557,85.99475860595703,36.11,0
-0.549543023109436,-0.9397982358932496,0.1151125952601432,-17.84002113342285,2.246835470199585,85.99663543701172,36.11,0
-0.4702183306217193,-1.0229414701461792,0.1466436982154846,-12.79932975769043,2.2624330520629883,85.99784088134766,36.11,0
-0.3577367961406708,-1.093091368675232,0.2564429342746734,-8.994874954223633,2.2724428176879883,85.99861145019531,36.11,0
-0.2407704293727874,-1.1325117349624634,0.3884812891483307,-9.297647476196287,2.2788665294647217,85.99910736083984,36.11,0
-0.3056524991989136,-1.1130273342132568,0.3500648736953735,-13.310975074768066,2.282988786697388,85.99942779541016,36.11,0
-0.3640834093093872,-1.078132152557373,0.2862270176410675,-19.02841567993164,2.285634279251098,85.9996337890625,36.11,0
-0.3903854489326477,-1.0333473682403564,0.2116729021072387,-21.41497802734375,2.287332057952881,85.99976348876953,36.11,0
-0.3792757093906402,-0.9934115409851074,0.1582305878400802,-16.691360473632812,2.288421630859375,85.99984741210938,36.11,0
-0.3497550189495086,-0.962185263633728,0.1239343807101249,-8.569174766540527,2.2863664627075195,101.04672241210938,36.09,0
-0.3420059084892273,-0.9533416032791138,0.0907294973731041,0.0896146520972251,2.2850475311279297,110.70293426513672,36.09,0
-0.3426307439804077,-0.9532639980316162,0.0694205164909362,10.060060501098633,2.284201145172119,116.89974212646484,36.09,0
-0.3430317342281341,-0.9644097685813904,0.0669411867856979,20.528324127197266,2.283658027648926,120.87649536132812,36.09,0
-0.3320935070514679,-0.9771602153778076,0.0597523227334022,27.325071334838867,2.2833094596862797,123.42854309082033,36.09,0
-0.3194762170314789,-0.9741472005844116,0.0607366971671581,27.24802017211914,2.283085823059082,125.06629943847656,36.09,0
-0.3001836240291595,-0.972213625907898,0.0669661909341812,20.67470359802246,2.282942295074463,126.11731719970705,36.09,0
-0.2878027260303497,-0.9877660870552064,0.0653661414980888,11.268757820129396,2.2828500270843506,126.79180145263672,36.09,0
-0.3078462481498718,-1.02573561668396,0.0755348727107048,3.2119901180267334,2.2722327709198,127.22464752197266,36.09,0
-0.3375023603439331,-1.0445045232772827,0.0708650276064872,-0.8119555115699768,2.265419006347656,127.50242614746094,36.09,0
-0.3621317148208618,-1.0733426809310913,0.0678681954741478,-0.8040897846221924,2.2610464096069336,127.6806869506836,36.09,0
-0.3387530148029327,-1.0918493270874023,0.08833609521389,1.8234034776687624,2.2582404613494877,127.79508209228516,36.09,0
-0.2957610189914703,-1.0813347101211548,0.1070689931511879,6.669409275054932,2.256439685821533,127.86849212646484,36.09,0
-0.2401823699474334,-1.0354026556015017,0.1078951358795166,13.619817733764648,2.255284070968628,127.91560363769533,36.09,0
-0.193319633603096,-1.0115238428115845,0.1084253117442131,21.300926208496094,2.254542350769043,127.94583892822266,36.09,0
-0.1464525163173675,-0.979406476020813,0.1255588680505752,27.95343780517578,2.254066467285156,127.96524047851562,36.09,0
-0.1051803454756736,-0.9475998282432556,0.2149230390787124,32.047088623046875,2.2565152645111084,127.97769165039062,36.09,0
0.0108701530843973,-0.9271881580352784,0.3786295354366302,31.75436019897461,2.258086919784546,127.98568725585938,36.09,0
0.0965402275323867,-0.9084913730621338,0.4333069622516632,25.630176544189453,2.259095430374145,127.99081420898438,36.09,0
0.1067361533641815,-0.868503987789154,0.3788314163684845,15.72787380218506,2.2597427368164062,127.99410247802734,36.09,0
0.04050824791193,-0.8484401106834412,0.254307746887207,6.331539154052734,2.260158061981201,127.9962158203125,36.09,0
-0.0467752031981945,-0.874748706817627,0.2247755974531173,-0.1964648216962814,2.2604246139526367,127.99757385253906,36.09,0
-0.1083864718675613,-0.891632080078125,0.2226168811321258,-3.776724338531494,2.2605955600738525,127.99844360351562,36.09,0
-0.2039027959108352,-0.8800757527351379,0.1708515733480453,-4.5087432861328125,2.2607052326202397,127.9990005493164,36.09,0
-0.2819929718971252,-0.8614640235900879,0.109642706811428,-3.1657276153564453,2.255267143249512,127.99935913085938,36.09,0
-0.304117888212204,-0.8271289467811584,0.0535690523684024,-1.451204538345337,2.251777410507202,127.99958801269533,36.09,0
-0.2903275191783905,-0.8218880295753479,0.0399753078818321,-0.2470275610685348,2.249537706375122,127.9997329711914,36.09,0
-0.2758798897266388,-0.8353180289268494,0.0424471758306026,0.7012901306152344,2.248100519180298,127.99983215332033,36.09,0
-0.2722060084342956,-0.888718843460083,0.07762011885643,1.0877461433410645,2.247178316116333,127.99989318847656,36.09,0
-0.2978371977806091,-0.9677705764770508,0.1169854179024696,-0.3193985819816589,2.246586322784424,127.99993133544922,36.09,0
-0.3478724658489227,-1.0688813924789429,0.1534433513879776,-3.988171577453613,2.246206521987915,127.9999542236328,36.09,0
-0.3687866628170013,-1.150561809539795,0.1712421774864196,-8.646174430847168,2.245962858200073,127.99996948242188,36.09,0
-0.3766103982925415,-1.2197729349136353,0.1994577646255493,-11.972175598144531,2.250396966934204,121.90959930419922,36.07,0
-0.4152178764343261,-1.252993106842041,0.2623471021652221,-12.146942138671877,2.253242492675781,118.00115203857422,36.07,0
-0.412005066871643,-1.2015408277511597,0.3083036243915558,-9.489766120910645,2.255068778991699,115.49293518066406,36.07,0
-0.3539655208587646,-1.1125439405441284,0.2874159216880798,-6.075655460357666,2.2562406063079834,113.88330841064452,36.07,0
-0.2719368934631347,-1.0946153402328491,0.2796091735363006,-3.5765740871429443,2.2569925785064697,112.850341796875,36.07,0
-0.2304911911487579,-1.1055008172988892,0.2913925647735595,-2.1268582344055176,2.2574753761291504,112.18744659423828,36.07,0
-0.2598714530467987,-1.129279851913452,0.2429767251014709,-1.2359224557876587,2.2577850818634038,111.76203155517578,36.07,0
-0.2563349306583404,-1.133344292640686,0.1895151287317276,-0.5746067762374878,2.257983922958374,111.48902893066406,36.07,0
-0.2372720688581466,-1.079974889755249,0.1272176802158355,0.0038382972124964,2.2548980712890625,111.31382751464844,36.07,0
-0.2698208093643188,-0.9897477626800536,0.0872387588024139,0.3607207536697387,2.252917528152466,111.2013931274414,36.07,0
-0.3858709037303924,-0.987822949886322,0.0168003924190998,0.3891231417655945,2.2516465187072754,111.12924194335938,36.07,0
-0.1468697786331176,-0.8970233201980591,0.1115414574742317,0.7082865238189697,2.250830888748169,111.08293914794922,36.07,0
-0.010285953991115,-0.8555466532707214,0.2115252465009689,2.3103115558624268,2.250307559967041,111.05322265625,36.07,0
-0.0457853563129901,-0.8793092966079712,0.214113563299179,5.179842948913574,2.249971628189087,111.0341567993164,36.07,0
-0.1301423460245132,-0.8665699362754822,0.1486013084650039,7.967143058776855,2.249756097793579,111.02191925048828,36.07,0
-0.2066688984632492,-0.8416011929512024,0.0841682180762291,9.143251419067385,2.2496178150177,111.01406860351562,36.07,0
-0.2725725769996643,-0.8031865954399109,0.0540143176913261,8.013575553894043,2.260087251663208,111.00902557373048,36.07,0
-0.3092679679393768,-0.7785342931747437,0.0458588302135467,4.895453929901123,2.26680588722229,111.00579071044922,36.07,0
-0.3160236477851867,-0.7291272282600403,0.0518206544220447,0.8308594822883606,2.2711174488067627,111.00371551513672,36.07,0
-0.3091635107994079,-0.7142139673233032,0.0612443834543228,-3.0242998600006104,2.2738845348358154,111.00238800048828,36.07,0
-0.2879677414894104,-0.7326323390007019,0.0728897675871849,-5.971219062805176,2.275660276412964,111.00153350830078,36.07,0
-0.3023543953895569,-0.8340166211128235,0.0971564278006553,-7.754904747009277,2.2767999172210693,111.00098419189452,36.07,0
-0.3563691079616546,-0.9942413568496704,0.1351204663515091,-8.347854614257812,2.277531147003174,111.0006332397461,36.07,0
-0.4302170574665069,-1.292986512184143,0.2042658030986786,-8.001113891601562,2.2780003547668457,111.00040435791016,36.07,0
-0.4216306805610657,-1.299977421760559,0.237443745136261,-7.294947624206543,2.27646541595459,111.00025939941406,36.07,0
-0.3825337886810303,-1.1701171398162842,0.2587354481220245,-6.927752494812012,2.2754805088043213,111.00016784667967,36.07,0
-0.1783148795366287,-1.1259647607803345,0.3115836381912231,-7.559090614318848,2.274848461151123,111.00010681152344,36.07,0
-0.0472589395940303,-1.0808368921279907,0.311911940574646,-9.494007110595703,2.274442672729492,111.00006866455078,36.07,0
-0.0415236167609691,-1.012692093849182,0.2561448812484741,-12.193833351135254,2.2741823196411133,111.0000457763672,36.07,0
-0.1218096315860748,-0.946569561958313,0.1923679113388061,-13.833279609680176,2.274015188217163,111.00003051757812,36.07,0
-0.2181147634983062,-0.8929403424263,0.1402439773082733,-12.015738487243652,2.2739078998565674,111.0000228881836,36.07,0
-0.3247000575065613,-0.8361331224441528,0.0900005102157592,-5.962712287902832,2.273839235305786,111.00001525878906,36.07,0
-0.3763070404529571,-0.7884819507598877,0.0633549243211746,2.3570003509521484,2.270122528076172,110.06854248046876,36.07,0
-0.3702410161495209,-0.7634999752044678,0.0854397416114807,9.9674654006958,2.26773738861084,109.47077178955078,36.07,0
-0.3383593261241913,-0.7754568457603455,0.211567997932434,15.148777961730955,2.266206741333008,109.087158203125,36.07,0
-0.2507261931896209,-0.7663367390632629,0.2645209729671478,17.81106948852539,2.2652244567871094,108.84098052978516,36.07,0
-0.2000860571861267,-0.7492884397506714,0.192145437002182,18.79589462280273,2.264594078063965,108.68299865722656,36.07,0
-0.2739458382129669,-0.7607389092445374,0.1568945348262787,19.062477111816406,2.264189481735229,108.58161163330078,36.07,0
-0.5228646993637085,-0.8800426721572876,0.313401311635971,18.83946990966797,2.263929843902588,108.51654815673828,36.07,0
-0.6042376160621643,-0.9845938086509703,0.3298717439174652,17.399463653564453,2.263763189315796,108.47479248046876,36.07,0
-0.5892847776412964,-1.040493130683899,0.3012570738792419,14.0535306930542,2.2586066722869877,108.447998046875,36.07,0
-0.5069178342819214,-1.0819638967514038,0.2437094151973724,8.922017097473145,2.2552976608276367,108.43080139160156,36.07,0
-0.4484617114067077,-1.1141752004623413,0.2515608370304107,2.6123788356781006,2.253174066543579,108.41976928710938,36.07,0
-0.3381768763065338,-1.1572376489639282,0.3349682688713074,-4.09863805770874,2.2518112659454346,108.41268920898438,36.07,0
-0.3009890615940094,-1.1065038442611694,0.3549077212810516,-10.325641632080078,2.25093674659729,108.40814208984376,36.07,0
-0.2883196175098419,-1.0179680585861206,0.3397148251533508,-15.3858003616333,2.250375509262085,108.4052276611328,36.07,0
-0.2801890969276428,-0.9835419654846193,0.2571938335895538,-18.6581974029541,2.2500152587890625,108.40335845947266,36.07,0
-0.3085580468177795,-1.0118292570114136,0.1762477457523346,-19.30728912353516,2.249784231185913,108.40215301513672,36.07,0
-0.3939369022846222,-1.102753520011902,0.1131056547164917,-17.57429313659668,2.2459635734558105,108.40138244628906,36.07,0
-0.4263370335102081,-1.071539044380188,0.0110091799870133,-15.387384414672852,2.243511915206909,108.40088653564452,36.07,0
-0.4135429263114929,-1.0235185623168943,-0.0713037848472595,-13.826318740844728,2.241938591003418,108.40056610107422,36.07,0
-0.3437568843364715,-0.9815062284469604,-0.1129319593310356,-11.663762092590332,2.240928888320923,108.40036010742188,36.07,0
-0.2821789085865021,-0.9489473700523376,-0.1284509748220443,-8.266132354736328,2.240280866622925,108.40023040771484,36.07,0
-0.231466144323349,-0.9280529618263244,-0.1328124105930328,-5.408622741699219,2.239865064620972,108.400146484375,36.07,0
-0.2101171612739563,-0.92583966255188,-0.1244157776236534,-4.513472080230713,2.239598035812378,108.40009307861328,36.07,0
-0.2076121717691421,-0.9300170540809632,-0.1078317537903785,-4.540888786315918,2.239426851272583,108.40006256103516,36.07,0
-0.2172001600265503,-0.932697892189026,-0.0859935358166694,-3.927949905395508,2.238398790359497,108.40003967285156,36.07,0
-0.2065598517656326,-0.934418261051178,-0.0775768011808395,-2.5852184295654297,2.237738847732544,108.4000244140625,36.07,0
-0.1941337436437606,-0.9411200881004332,-0.0665776506066322,-1.0320936441421509,2.23731541633606,108.40001678466795,36.07,0
-0.1917571574449539,-0.956616461277008,-0.0427257046103477,1.0931237936019895,2.237043619155884,108.40000915527344,36.07,0
-0.1958297789096832,-0.9609633684158324,-0.0162233486771583,4.821465969085693,2.2368693351745605,108.40000915527344,36.07,0
-0.2264322191476822,-1.0141329765319824,0.0119798863306641,10.74652099609375,2.236757516860962,108.40000915527344,36.07,0
-0.268462210893631,-1.0538519620895386,0.0300791002810001,18.256845474243164,2.2366857528686523,108.40000915527344,36.07,0
-0.3514123857021332,-1.0961346626281738,0.0752807781100273,24.828418731689453,2.2366397380828857,108.40000915527344,36.07,0
-0.3934494853019714,-1.016911506652832,0.1490707993507385,26.996442794799805,2.233855724334717,105.63067626953124,36.05,0
-0.3924375772476196,-0.9604728817939758,0.2188161015510559,23.99193572998047,2.232069253921509,103.85347747802734,36.05,0
-0.3302126824855804,-0.980231523513794,0.2803679406642914,19.262243270874023,2.2309226989746094,102.71297454833984,36.05,0
-0.3462580740451813,-1.0488892793655396,0.3534550070762634,16.574508666992188,2.230186939239502,101.98106384277344,36.05,0
-0.3621528744697571,-1.0649609565734863,0.501118004322052,16.572893142700195,2.229714870452881,101.51136779785156,36.05,0
-0.3163754940032959,-1.0192971229553225,0.534304141998291,18.16251945495605,2.2294118404388428,101.2099380493164,36.05,0
-0.3149870634078979,-0.9564060568809508,0.4772322177886963,20.261005401611328,2.229217290878296,101.0165023803711,36.05,0
-0.3476827144622803,-0.8936550617218018,0.3398468196392059,21.47513771057129,2.229092597961426,100.89236450195312,36.05,0
-0.3686648905277252,-0.8645806312561035,0.246082991361618,20.660053253173828,2.232685089111328,100.8126983642578,36.05,0
-0.3989233672618866,-0.8515201210975647,0.1411285698413849,18.14864921569824,2.234990358352661,100.7615737915039,36.05,0
-0.4015481770038605,-0.8487364053726196,0.0569815449416637,15.31173324584961,2.2364697456359863,100.72876739501952,36.05,0
-0.3864393234252929,-0.8525477647781372,0.0197741501033306,13.247549057006836,2.2374191284179688,100.70771026611328,36.05,0
-0.3487544655799866,-0.8382003307342529,0.0014943624846637,11.435644149780272,2.2380285263061523,100.69419860839844,36.05,0
-0.3133749365806579,-0.8233951926231384,-0.0102365529164671,7.320825099945068,2.238419532775879,100.68553161621094,36.05,0
-0.2850726246833801,-0.825089693069458,0.0046263188123703,-1.2633216381072998,2.238670587539673,100.67996978759766,36.05,0
-0.2669098079204559,-0.8429704308509827,0.0309577770531177,-13.220768928527832,2.2388315200805664,100.67639923095705,36.05,0
-0.266449511051178,-0.8600430488586426,0.0534535683691501,-25.397668838500977,2.244443416595459,100.67410278320312,36.05,0
-0.3053385317325592,-0.904585897922516,0.0566945225000381,-35.23625564575195,2.248044967651367,100.6726303100586,36.05,0
-0.3470886051654815,-0.9891486763954164,0.0587743781507015,-40.625789642333984,2.2503561973571777,100.67168426513672,36.05,0
-0.3962724804878235,-1.0993939638137815,0.0769024342298507,-40.01826095581055,2.251839399337769,100.67108154296876,36.05,0
-0.4334336519241333,-1.0637853145599363,0.0941337496042251,-34.7775764465332,2.252791166305542,100.67069244384766,36.05,0
-0.4292926788330078,-1.0017492771148682,0.0883984938263893,-28.691648483276367,2.2534019947052,100.67044067382812,36.05,0
-0.4042441546916961,-1.0626981258392334,0.0735223889350891,-23.99071884155273,2.253793954849243,100.67028045654295,36.05,0
-0.3601805567741394,-1.140995979309082,0.1031601801514625,-20.13919258117676,2.2540454864501958,100.67018127441406,36.05,0
-0.3430986404418945,-1.15765643119812,0.1277777850627899,-16.58198356628418,2.248239278793335,100.67011260986328,36.05,0
-0.3209409117698669,-1.0787837505340576,0.1379781663417816,-14.163034439086914,2.244513273239136,100.67007446289062,36.05,0
-0.2955257892608642,-0.99458110332489,0.1333286464214325,-13.406023979187012,2.242122173309326,100.6700439453125,36.05,0
-0.262422502040863,-0.9125558733940125,0.1135515198111534,-13.285640716552734,2.2405877113342285,100.67002868652344,36.05,0
-0.2467764914035797,-0.8599168062210083,0.0952619239687919,-12.3951416015625,2.239603042602539,100.6700210571289,36.05,0
-0.2535291016101837,-0.8485271334648132,0.0723291710019111,-10.268832206726074,2.238970994949341,100.67001342773438,36.05,0
-0.2746558785438537,-0.8804023265838623,0.0632100254297256,-7.109418869018555,2.238565444946289,100.67000579833984,36.05,0
-0.2882138192653656,-0.9064557552337646,0.0573578774929046,-3.150880813598633,2.23830509185791,100.67000579833984,36.05,0
-0.2801212072372436,-0.9287731647491456,0.0536023080348968,1.1736035346984863,2.234006404876709,98.63868713378906,36.09,0
-0.2693300545215606,-0.9542906880378724,0.0455944240093231,5.098815441131592,2.231247663497925,97.33509826660156,36.09,0
-0.2512093782424927,-0.98186194896698,0.0460532009601593,8.420287132263184,2.2294771671295166,96.49853515625,36.09,0
-0.2395805567502975,-1.0051534175872805,0.0463476181030273,12.647623062133787,2.2283411026000977,95.961669921875,36.09,0
-0.2433134019374847,-1.014502763748169,0.0465365573763847,20.315185546875,2.227612018585205,95.6171417236328,36.09,0
-0.2457089275121688,-1.042893648147583,0.0634511336684227,32.56215286254883,2.2271440029144287,95.39604949951172,36.09,0
-0.2472462356090545,-1.1002976894378662,0.079903706908226,47.43623733520508,2.22684383392334,95.25415802001952,36.09,0
-0.2538305521011352,-1.1595274209976196,0.0848642438650131,60.1163215637207,2.226651191711426,95.16310119628906,36.09,0
-0.3196315169334411,-1.1023755073547363,0.0936454087495803,64.78215026855469,2.2334132194519043,95.10466766357422,36.09,0
-0.3730543553829193,-1.0265142917633057,0.1048784255981445,57.8705940246582,2.237752676010132,95.06716918945312,36.09,0
-0.3793491721153259,-0.9666354060173036,0.106489360332489,40.71701049804688,2.240537643432617,95.04310607910156,36.09,0
-0.3665955066680908,-0.9505996704101562,0.0963276103138923,18.996925354003903,2.2423248291015625,95.02766418457033,36.09,0
-0.2912376523017883,-0.979493260383606,0.1793707758188247,-0.8136160373687744,2.243471622467041,95.01775360107422,36.09,0
-0.2204862087965011,-0.9756444096565248,0.2662497460842132,-15.185613632202148,2.2442076206207275,95.01139068603516,36.09,0
-0.1638864576816558,-0.95638108253479,0.3220036625862121,-24.491134643554688,2.244679927825928,95.00730895996094,36.09,0
-0.1947372853755951,-0.9104323983192444,0.2850122451782226,-30.58469009399414,2.244982957839966,95.00469207763672,36.09,0
-0.2425244450569152,-0.875347375869751,0.2276866436004638,-34.41994857788086,2.244259595870972,95.00301361083984,36.09,0
-0.301180362701416,-0.8696251511573792,0.1461161822080612,-36.4620361328125,2.243795394897461,95.0019302368164,36.09,0
-0.3164312541484833,-0.8771485090255737,0.0825734063982963,-37.5611572265625,2.243497610092163,95.00123596191406,36.09,0
-0.3206206262111664,-0.8819765448570251,0.0417953096330165,-38.176944732666016,2.243306398391724,95.00079345703124,36.09,0
-0.3065158128738403,-0.8850749135017395,0.0268218237906694,-37.67289733886719,2.243183851242065,95.0005111694336,36.09,0
-0.2918663620948791,-0.8870632648468018,0.0228104777634143,-34.87744903564453,2.243105173110962,95.00032806396484,36.09,0
-0.2768674194812774,-0.8939370512962341,0.0258339997380971,-28.97427749633789,2.2430546283721924,95.00021362304688,36.09,0
-0.2504486441612243,-0.8983482718467712,0.0389698706567287,-20.42472076416016,2.2430222034454346,95.00013732910156,36.09,0
-0.2390923649072647,-0.9011791348457336,0.0473997183144092,-11.31970500946045,2.242083072662353,95.00009155273438,36.09,0
-0.2597934305667877,-0.9029958248138428,0.0584072843194007,-3.921792507171631,2.2414803504943848,95.00006103515624,36.09,0
-0.2954692840576172,-0.9097594618797302,0.0878624022006988,1.11236834526062,2.241093635559082,95.00003814697266,36.09,0
-0.3239617645740509,-0.9029043912887572,0.0955694541335105,4.063562393188477,2.2408454418182373,95.0000228881836,36.09,0
-0.3366488218307495,-0.9712762832641602,0.1005153954029083,4.825374603271484,2.240686178207397,95.00001525878906,36.09,0
-0.3559862077236175,-1.043142318725586,0.114884965121746,3.9063098430633545,2.240584135055542,95.00000762939452,36.09,0
-0.3963846862316131,-1.1116528511047363,0.1408998519182205,3.176786422729492,2.240518569946289,95.00000762939452,36.09,0
-0.4055167734622955,-1.09964120388031,0.1519969403743744,3.7762277126312256,2.240476369857788,95.00000762939452,36.09,0
-0.3442039489746094,-1.0807373523712158,0.1255317628383636,4.830856323242188,2.24182653427124,93.47740936279295,36.07,0
-0.3104546666145324,-1.152572512626648,0.114145703613758,5.217467784881592,2.2426929473876958,92.50029754638672,36.07,0
-0.3111874163150787,-1.1986721754074097,0.1236321106553077,4.680988788604736,2.24324893951416,91.87323760986328,36.07,0
-0.3396465182304382,-1.1890718936920166,0.135317713022232,2.8427734375,2.243605852127075,91.47083282470705,36.07,0
-0.3355188369750976,-1.1101399660110474,0.1092302203178405,-0.8805162906646729,2.2438347339630127,91.21258544921876,36.07,0
-0.2992832958698272,-1.0426926612854004,0.0812932178378105,-5.888772010803223,2.2439818382263184,91.04685974121094,36.07,0
-0.2648338675498962,-0.988213300704956,0.0577670820057392,-10.041417121887209,2.2440762519836426,90.94050598144533,36.07,0
-0.2427261918783188,-0.9532515406608582,0.0426693633198738,-10.943718910217283,2.2441368103027344,90.87225341796876,36.07,0
-0.2453320920467376,-0.9364128708839417,0.0161871928721666,-7.538939476013184,2.241421222686768,90.82845306396484,36.07,0
-0.2637977302074432,-0.9312045574188232,-0.0176008623093366,-0.7610862851142883,2.2396786212921143,90.80034637451172,36.07,0
-0.2812456786632538,-0.9334599375724792,-0.0448818653821945,7.210533142089844,2.238560199737549,90.78231048583984,36.07,0
-0.2812472283840179,-0.9237117767333984,-0.0623892433941364,14.343250274658203,2.237842559814453,90.77073669433594,36.07,0
-0.2756504416465759,-0.9174559712409972,-0.0792222470045089,19.59772491455078,2.237381935119629,90.7633056640625,36.07,0
-0.2776565253734588,-0.930234670639038,-0.084426924586296,23.227689743041992,2.237086296081543,90.75853729248048,36.07,0
-0.2901394665241241,-0.949630856513977,-0.0653758868575096,26.46000099182129,2.236896753311157,90.75547790527344,36.07,0
-0.2925525307655334,-0.9676759839057922,-0.0419544801115989,29.97450828552246,2.2367749214172363,90.7535171508789,36.07,0
-0.2549166679382324,-0.9792563319206238,0.0066626789048314,32.50218963623047,2.23715615272522,90.75225830078124,36.07,0
-0.2027752697467804,-0.9866878986358644,0.032264593988657,31.738317489624023,2.237400770187378,90.75144958496094,36.07,0
-0.1693139225244522,-1.0194458961486816,0.0374988839030265,26.66957664489746,2.2375576496124268,90.7509307861328,36.07,0
-0.1534381210803985,-1.0292725563049316,0.0520534962415695,18.601768493652344,2.2376585006713867,90.75059509277344,36.07,0
-0.165641039609909,-1.0579698085784912,0.1005782335996627,9.98145866394043,2.2377231121063232,90.75038146972656,36.07,0
-0.2518410086631775,-1.0539950132369995,0.1541097164154052,2.439614534378052,2.237764596939087,90.750244140625,36.07,0
-0.3295502960681915,-1.0346509218215942,0.1884631365537643,-4.044709205627441,2.2377912998199463,90.75016021728516,36.07,0
-0.3346374332904815,-1.022236943244934,0.1993136405944824,-10.133400917053224,2.2378084659576416,90.7500991821289,36.07,0
-0.2539354562759399,-1.025465965270996,0.2062768638134002,-15.448724746704102,2.239196300506592,90.75006103515624,36.07,0
-0.1573633849620819,-1.027538180351257,0.3003098368644714,-18.19701766967773,2.240086793899536,90.75003814697266,36.07,0
-0.1849533766508102,-0.9896835684776306,0.2822859585285187,-16.63249969482422,2.2406582832336426,90.7500228881836,36.07,0
-0.1522790789604187,-0.9374017715454102,0.2819148302078247,-10.75976276397705,2.241024971008301,90.75001525878906,36.07,0
-0.1481039226055145,-0.898252546787262,0.2760788798332214,-2.4016993045806885,2.241260290145874,90.75000762939452,36.07,0
-0.1678156405687332,-0.878726601600647,0.2667359113693237,6.286655426025391,2.2414114475250244,90.75000762939452,36.07,0
-0.1860632598400116,-0.8605982065200806,0.2607401311397552,13.832757949829102,2.2415084838867188,90.75000762939452,36.07,0
-0.2257623970508575,-0.8657577633857727,0.2400990724563598,19.09099006652832,2.2415707111358643,90.75000762939452,36.07,0
-0.2736301124095917,-0.8690688610076904,0.1988639533519745,20.94999313354492,2.249873399734497,89.60716247558594,36.07,0
-0.3043488562107086,-0.8599981665611267,0.1556083112955093,18.96883201599121,2.255201578140259,88.87374877929688,36.07,0
-0.3016712963581085,-0.8541771173477173,0.1334471106529235,13.903488159179688,2.2586209774017334,88.40308380126953,36.07,0
-0.2887574434280395,-0.85603928565979,0.1248230934143066,7.349708080291748,2.260815382003784,88.10104370117188,36.07,0
-0.2692745327949524,-0.8852232098579407,0.130484253168106,0.8438553810119629,2.262223482131958,87.90721130371094,36.07,0
-0.251173734664917,-0.915147304534912,0.1341172456741333,-4.83949089050293,2.263127088546753,87.78282165527344,36.07,0
-0.2451554536819458,-0.9735352993011476,0.1364486962556839,-9.77288055419922,2.263707160949707,87.70299530029297,36.07,0
-0.2580865919589996,-1.0277986526489258,0.1323471069335937,-14.239320755004885,2.264079332351685,87.65176391601562,36.07,0
-0.2831783890724182,-1.1074039936065674,0.1409105062484741,-18.241300582885746,2.2702860832214355,87.61888885498047,36.07,0
-0.3496608138084411,-1.1696856021881104,0.1687970906496048,-21.73384666442871,2.2742691040039062,87.59779357910156,36.07,0
-0.4091187417507171,-1.187263250350952,0.1922908723354339,-24.770492553710938,2.276825189590454,87.5842514038086,36.07,0
-0.4136887788772583,-1.114577054977417,0.1793789565563202,-26.76939392089844,2.278465509414673,87.5755615234375,36.07,0
-0.3382527232170105,-1.1015177965164185,0.1766906082630157,-26.400606155395508,2.2795183658599854,87.56998443603516,36.07,0
-0.2618533372879028,-1.115528225898743,0.1749653816223144,-23.176071166992188,2.28019380569458,87.56640625,36.07,0
-0.207226812839508,-1.174899339675903,0.1626626849174499,-18.391157150268555,2.280627489089966,87.5641098022461,36.07,0
-0.1889639794826507,-1.185011386871338,0.1491697430610656,-13.593673706054688,2.2809057235717773,87.56263732910156,36.07,0
-0.2052328139543533,-1.085142970085144,0.1405107527971267,-9.218032836914062,2.2847564220428467,87.56169128417969,36.07,0
-0.2548576295375824,-0.9706732630729676,0.1517472267150879,-5.320895195007324,2.2872276306152344,87.56108093261719,36.07,0
-0.3202906250953674,-0.8972131609916687,0.1533603817224502,-2.28255033493042,2.288813352584839,87.5606918334961,36.07,0
-0.233532965183258,-0.8612662553787231,0.1823844760656356,-0.0210313666611909,2.2898311614990234,87.56044006347656,36.07,0
-0.1386724710464477,-0.8214042782783508,0.2066082507371902,2.540879726409912,2.2904841899871826,87.5602798461914,36.07,0
-0.0721986889839172,-0.8014209270477295,0.177371472120285,6.187626838684082,2.290903329849243,87.5601806640625,36.07,0
-0.040735188871622,-0.7885967493057251,0.1474134474992752,9.788965225219728,2.2911722660064697,87.56011199951172,36.07,0
-0.0317392721772193,-0.797160267829895,0.1281881183385849,11.286852836608888,2.2913448810577397,87.56007385253906,36.07,0
-0.0875417366623878,-0.8586335778236389,0.0934593006968498,10.478318214416504,2.290078401565552,87.56004333496094,36.07,0
-0.1681347340345382,-0.9260724782943726,0.0599768012762069,9.307418823242188,2.2892658710479736,87.56002807617188,36.07,0
-0.281430184841156,-0.9525575637817384,0.0384896583855152,9.32625675201416,2.2887442111968994,87.56002044677734,36.07,0
-0.3373433649539947,-0.9527608752250672,0.0247004479169845,10.599411964416504,2.288409471511841,87.56001281738281,36.07,0
-0.3620297014713287,-0.992075741291046,0.0158513262867927,12.627360343933104,2.2881946563720703,87.56000518798828,36.07,0
-0.3498830795288086,-1.1012723445892334,0.0213680174201726,14.566479682922363,2.2880568504333496,87.56000518798828,36.07,0
-0.358881413936615,-1.1713484525680542,0.0249083116650581,15.363073348999023,2.287968397140503,87.56000518798828,36.07,0
-0.3478626906871795,-1.1099616289138794,0.0271802693605422,15.093278884887695,2.2879116535186768,87.56000518798828,36.07,0
-0.2904115319252014,-1.120947003364563,0.0510293804109096,15.303476333618164,2.288793563842773,86.6786880493164,36.07,0
-0.2255538254976272,-1.1391923427581787,0.0887254625558853,17.021867752075195,2.289359331130981,86.11311340332031,36.07,0
-0.1727363318204879,-1.1285099983215332,0.1241121888160705,19.274639129638672,2.289722442626953,85.75016021728516,36.07,0
-0.1612322032451629,-1.071274757385254,0.135625809431076,20.157873153686523,2.2899556159973145,85.5172348022461,36.07,0
-0.2042294889688491,-0.9561756253242492,0.1206234842538833,18.521398544311523,2.290105104446411,85.36775970458984,36.07,0
-0.2654093205928802,-0.8487250208854675,0.1053980812430381,14.37585735321045,2.290201187133789,85.27183532714844,36.07,0
-0.3102687895298004,-0.7797693610191345,0.1012250706553459,8.630889892578125,2.2902626991271973,85.21027374267578,36.07,0
-0.3278614580631256,-0.7523109316825867,0.1153403967618942,2.6297574043273926,2.290302276611328,85.17076873779297,36.07,0
-0.3335536420345306,-0.7570807933807373,0.1355943530797958,-2.704610586166382,2.283900737762451,85.14541625976562,36.07,0
-0.3092176914215088,-0.8105217814445496,0.1485921740531921,-7.317316055297852,2.2797927856445312,85.12914276123047,36.07,0
-0.2880024909973144,-0.861610472202301,0.1457378715276718,-11.402413368225098,2.277156352996826,85.11869812011719,36.07,0
-0.2911811470985412,-0.8999940156936646,0.1439061462879181,-14.744091987609863,2.275464534759521,85.11199951171875,36.07,0
-0.3268076479434967,-0.9358218908309937,0.1539261937141418,-16.913665771484375,2.274378776550293,85.10769653320312,36.07,0
-0.3664640188217163,-0.9532164335250854,0.1659542620182037,-17.682605743408203,2.273682117462158,85.10494232177734,36.07,0
-0.3975109755992889,-0.9699770212173462,0.1568798571825027,-17.137121200561523,2.2732350826263428,85.1031723022461,36.07,0
-0.4174351096153259,-1.064699649810791,0.1566542088985443,-15.565402030944824,2.2729480266571045,85.10203552246094,36.07,0
-0.4358190596103668,-1.1478781700134275,0.1621071696281433,-12.973264694213867,2.27551817893982,85.10130310058594,36.07,0
-0.475605696439743,-1.1732685565948486,0.1600087881088256,-8.977522850036621,2.277167558670044,85.10083770751953,36.07,0
-0.50113844871521,-1.1335848569869995,0.1642599552869796,-3.952056646347046,2.278226137161255,85.10054016113281,36.07,0
-0.4895350337028503,-1.0353471040725708,0.1893792003393173,0.3513537049293518,2.2789053916931152,85.10034942626953,36.07,0
-0.4373064339160919,-1.0058903694152832,0.2334881573915481,2.726116418838501,2.279341220855713,85.10022735595703,36.07,0
-0.3702024817466736,-1.03736674785614,0.2617947459220886,4.3038411140441895,2.279620885848999,85.10014343261719,36.07,0
-0.2767590582370758,-1.141533136367798,0.2407758682966232,7.053883075714111,2.2798004150390625,85.10009002685547,36.07,0
-0.2111946791410446,-1.2027833461761477,0.2104938328266143,11.419651985168455,2.279915571212769,85.10005950927734,36.07,0
-0.1635214537382125,-1.186112403869629,0.1462783813476562,16.07354164123535,2.2809078693389893,85.10003662109375,36.07,0
-0.2001008242368698,-1.1418273448944092,0.1106663718819618,18.79144859313965,2.2815444469451904,85.10002136230469,36.07,0
-0.1899887025356292,-1.1134077310562134,0.0934104025363922,17.45821189880371,2.2819530963897705,85.10001373291016,36.07,0
-0.1834993362426757,-1.0335941314697266,0.1159231662750244,11.715984344482422,2.2822153568267822,85.10000610351562,36.07,0
-0.1905303746461868,-0.9935699105262756,0.1359683275222778,3.685288190841675,2.282383680343628,85.10000610351562,36.07,0
-0.2118358165025711,-0.9790802001953124,0.1096477434039115,-3.696711778640747,2.282491683959961,85.10000610351562,36.07,0
-0.2143128812313079,-0.9305971264839172,0.0311811864376068,-8.742156982421875,2.2825610637664795,85.10000610351562,36.07,0
-0.1935114115476608,-0.8770923614501953,-0.0135763557627797,-11.388907432556152,2.2826054096221924,85.10000610351562,36.07,0
-0.1577711254358291,-0.8035717010498047,-0.0367013961076736,-12.43541145324707,2.2807979583740234,85.16090393066406,36.09,0
-0.1180417463183403,-0.7451947927474976,-0.0459439419209957,-12.935032844543455,2.2796380519866943,85.19998931884766,36.09,0
-0.1373279094696045,-0.6909385323524475,-0.0798641443252563,-13.660492897033691,2.27889347076416,85.22506713867188,36.09,0
-0.284051239490509,-0.6729133129119873,-0.1464143693447113,-14.072312355041504,2.2784156799316406,85.24116516113281,36.09,0
-0.4453831315040588,-0.6893346309661865,-0.1891224831342697,-12.086736679077148,2.278109073638916,85.25149536132812,36.09,0
-0.5601121783256531,-0.7334595322608948,-0.2277256399393081,-6.219647407531738,2.277912378311157,85.25812530517578,36.09,0
-0.6001520752906799,-0.7729719281196594,-0.2077167332172393,2.1634531021118164,2.2777860164642334,85.26237487792969,36.09,0
-0.625847339630127,-0.8431109189987183,-0.1165073215961456,10.097620010375977,2.277704954147339,85.26510620117188,36.09,0
-0.5975549221038818,-0.9832842350006104,-0.0243877228349447,16.092121124267578,2.278570890426636,85.26686096191406,36.09,0
-0.5514096021652222,-1.1628037691116333,0.0179360099136829,20.68780517578125,2.279126644134521,85.26798248291016,36.09,0
-0.5609806180000305,-1.3619756698608398,-0.0500652194023132,24.56493759155273,2.2794833183288574,85.26870727539062,36.09,0
-0.6119049191474915,-1.3890328407287598,-0.1216933652758598,27.475801467895508,2.279712200164795,85.26917266845703,36.09,0
-0.5998030304908752,-1.2944411039352417,-0.1172802150249481,28.716876983642575,2.279859066009521,85.26947021484375,36.09,0
-0.5024723410606384,-1.2225420475006104,-0.030481494963169,27.571571350097656,2.2799532413482666,85.26966094970703,36.09,0
-0.3840333521366119,-1.1764013767242432,0.0532097965478897,23.31490898132324,2.2800137996673584,85.26978302001953,36.09,0
-0.2688415944576263,-1.096410870552063,0.0957225039601326,15.922296524047852,2.280052661895752,85.26985931396484,36.09,0
-0.2061137109994888,-1.0114909410476685,0.0950158387422561,6.950704097747803,2.2708969116210938,85.26990509033203,36.09,0
-0.1322719156742096,-0.9010165333747864,0.1337467581033706,-1.2536461353302002,2.265021085739136,85.26993560791016,36.09,0
-0.0680911764502525,-0.8581092953681946,0.214579775929451,-7.511098861694336,2.2612504959106445,85.26995849609375,36.09,0
-0.0548925474286079,-0.8305738568305969,0.2216715663671493,-12.465407371520996,2.2588307857513428,85.26997375488281,36.09,0
-0.1079979464411735,-0.8129032254219055,0.1590493768453598,-17.479076385498047,2.2572779655456543,85.26998138427734,36.09,0
-0.1532734781503677,-0.8239543437957764,0.1132642850279808,-22.860435485839844,2.2562813758850098,85.26998901367188,36.09,0
-0.1991220414638519,-0.8422418236732483,0.1006753668189048,-26.729461669921875,2.2556416988372803,85.26998901367188,36.09,0
-0.2229472249746322,-0.8427821397781372,0.0981943011283874,-26.20301628112793,2.2552313804626465,85.26998901367188,36.09,0
-0.2326390892267227,-0.8375310897827148,0.0854065492749214,-20.487728118896484,2.2494592666625977,85.26998901367188,36.09,0
-0.2500543296337127,-0.845356822013855,0.0492112338542938,-12.10173225402832,2.245755195617676,85.26998901367188,36.09,0
-0.2724259495735168,-0.8671722412109375,0.0259831622242927,-5.129419326782227,2.243378162384033,85.26998901367188,36.09,0
-0.3203694224357605,-0.8979654908180237,0.0334678217768669,-2.9335083961486816,2.2418527603149414,85.26998901367188,36.09,0
-0.3679301142692566,-0.9233245849609376,0.0662599131464958,-6.611556529998779,2.2408738136291504,85.26998901367188,36.09,0
-0.3928540647029876,-0.939598560333252,0.0929017663002014,-13.693750381469728,2.2402455806732178,85.26998901367188,36.09,0
-0.392055481672287,-0.9500423073768616,0.1211945265531539,-19.31346702575684,2.239842414855957,85.26998901367188,36.09,0
-0.4083363115787506,-0.9847333431243896,0.1505467444658279,-20.2508602142334,2.2395834922790527,85.26998901367188,36.09,0
-0.4019910991191864,-1.0629738569259644,0.2141654938459396,-17.262683868408203,2.2550249099731445,85.26282501220703,36.07,0
-0.3531369268894195,-1.1243796348571775,0.288578987121582,-13.331636428833008,2.2649343013763428,85.25823211669922,36.07,0
-0.366567313671112,-1.1693841218948364,0.3475288450717926,-10.156888008117676,2.2712936401367188,85.25527954101562,36.07,0
-0.3583928346633911,-1.091907620429993,0.2845995128154754,-7.553470611572266,2.2753746509552,85.25338745117188,36.07,0
-0.3475491404533386,-1.0813721418380735,0.2106284499168396,-4.790061473846436,2.277993679046631,85.2521743774414,36.07,0
-0.3405902981758117,-1.0522199869155884,0.1407669931650161,-2.2034199237823486,2.2796742916107178,85.25139617919922,36.07,0
-0.1737890541553497,-1.0950872898101809,0.1127272546291351,-0.769164502620697,2.280752897262573,85.25089263916016,36.07,0
0.0228187628090381,-1.0778148174285889,0.2402750998735427,-0.4470320343971252,2.281445026397705,85.25057220458984,36.07,0
0.0762192904949188,-1.0891214609146118,0.288541316986084,0.8022235035896301,2.2777578830718994,85.2503662109375,36.07,0
0.0769020244479179,-1.1355618238449097,0.2635380625724792,6.447566032409668,2.2753915786743164,85.25023651123047,36.07,0
0.0101668694987893,-1.148571252822876,0.2083079814910888,17.626073837280273,2.2738730907440186,85.25015258789062,36.07,0
-0.0494532324373722,-1.112137794494629,0.1112889721989631,30.585657119750977,2.2728986740112305,85.2500991821289,36.07,0
-0.0765184313058853,-1.0663658380508425,0.0266366638243198,36.39815139770508,2.272273302078247,85.25006103515625,36.07,0
-0.1386695206165313,-0.992209792137146,-0.0108949933201074,29.437868118286133,2.271872043609619,85.25003814697266,36.07,0
-0.1729567348957061,-0.9446207284927368,-0.0237851031124591,15.656463623046877,2.2716143131256104,85.2500228881836,36.07,0
-0.1949602961540222,-0.914080798625946,-0.0264594592154026,2.0976810455322266,2.271449089050293,85.25001525878906,36.07,0
-0.2874497473239898,-0.8664931654930115,-0.000186835983186,-7.320079803466797,2.302558422088623,85.25000762939453,36.07,0
-0.3468041718006134,-0.8247585892677307,0.0334667451679706,-9.770532608032228,2.3225226402282715,85.25000762939453,36.07,0
-0.3681010901927948,-0.7364002466201782,0.0606614537537097,-6.664248943328857,2.335334300994873,85.25000762939453,36.07,0
-0.4041593372821808,-0.6629036068916321,0.1005045473575592,-4.595580577850342,2.3435561656951904,85.25000762939453,36.07,0
-0.4384949803352356,-0.621335506439209,0.154062420129776,-7.674596309661865,2.348832607269287,85.25000762939453,36.07,0
-0.3989540934562683,-0.6282461285591125,0.166041687130928,-13.44447898864746,2.3522186279296875,85.25000762939453,36.07,0
-0.3567857146263122,-0.6662675738334656,0.1569359600543975,-17.19741439819336,2.354391574859619,85.25000762939453,36.07,0
-0.307333379983902,-0.8026230335235596,0.1566902101039886,-17.71781349182129,2.355786085128784,85.25000762939453,36.07,0
-0.2867932617664337,-0.9628992080688475,0.1789235919713974,-16.862361907958984,2.3575987815856934,85.25000762939453,36.07,0
-0.3463828563690185,-1.2056995630264282,0.2659627795219421,-16.03752326965332,2.35876202583313,85.25000762939453,36.07,0
-0.3510373830795288,-1.3391238451004028,0.3442105948925018,-15.554762840270996,2.359508752822876,85.25000762939453,36.07,0
-0.3316332995891571,-1.3575745820999146,0.38882777094841,-15.27719783782959,2.359987735748291,85.25000762939453,36.07,0
-0.2743986845016479,-1.1678953170776367,0.3894716501235962,-14.346732139587402,2.360295295715332,85.25000762939453,36.07,0
-0.2320710271596908,-1.062963366508484,0.3618959784507751,-10.980281829833984,2.360492706298828,85.25000762939453,36.07,0
-0.1825164705514907,-1.0068196058273315,0.2994172871112823,-4.728586673736572,2.360619306564331,85.25000762939453,36.07,0
-0.2010951787233352,-0.9707897901535034,0.208942100405693,2.3930671215057373,2.3607006072998047,85.25000762939453,36.07,0
-0.2522023618221283,-0.925276815891266,0.1396847814321518,8.13483715057373,2.350653886795044,85.18910217285156,36.07,0
-0.3129888772964477,-0.856884777545929,0.0896416530013084,12.260231018066406,2.3442063331604004,85.15001678466797,36.07,0
-0.3519981503486633,-0.8017991781234741,0.0631246268749237,15.82839298248291,2.340068817138672,85.12493133544922,36.07,0
-0.3546409606933594,-0.7720462083816528,0.0573030747473239,19.253910064697266,2.3374135494232178,85.10883331298828,36.07,0
-0.3395436406135559,-0.7697457671165466,0.0703604593873024,22.15081214904785,2.335709571838379,85.09850311279297,36.07,0
-0.3466483652591705,-0.7794650197029114,0.0843377113342285,23.76984596252441,2.33461594581604,85.09187316894531,36.07,0
-0.3680011034011841,-0.8024955987930298,0.1212963834404945,22.784692764282227,2.333914279937744,85.0876235961914,36.07,0
-0.3873018324375152,-0.8284708261489868,0.1338187754154205,18.17940139770508,2.3334639072418213,85.08489227294922,36.07,0
-0.4612634479999542,-0.8619335889816284,0.141854926943779,11.225836753845217,2.3276662826538086,85.08313751220703,36.07,0
-0.5199233293533325,-0.9393857717514038,0.1861964911222458,4.685545444488525,2.3239457607269287,85.08201599121094,36.07,0
-0.4903945624828338,-1.0058834552764893,0.2146523594856262,-0.3857860267162323,2.3215579986572266,85.08129119873047,36.07,0
-0.1635670810937881,-1.0821444988250732,0.3952491581439972,-4.783115863800049,2.320025682449341,85.08082580566406,36.07,0
0.0181830935180187,-1.0751067399978638,0.4607658088207245,-8.52579116821289,2.319042444229126,85.08052825927734,36.07,0
-0.0555044300854206,-1.1097747087478638,0.3740618228912353,-10.97778034210205,2.318411350250244,85.08033752441406,36.07,0
-0.1027928441762924,-1.143218159675598,0.3464090526103973,-12.608647346496582,2.3180065155029297,85.08021545410156,36.07,0
-0.133139818906784,-1.1814736127853394,0.3566519618034363,-13.984841346740724,2.317746639251709,85.08013916015625,36.07,0
-0.1862014085054397,-1.1108615398406982,0.3576275110244751,-14.45242404937744,2.3106939792633057,85.08009338378906,36.07,0
-0.2146555036306381,-1.0151667594909668,0.3134713768959045,-13.65980625152588,2.3061680793762207,85.08006286621094,36.07,0
-0.2609045803546905,-0.992939829826355,0.1787767857313156,-12.431052207946776,2.303263664245605,85.08003997802734,36.07,0
-0.2681934833526611,-1.0290558338165283,0.1371197551488876,-11.1803560256958,2.301399707794189,85.08002471923828,36.07,0
-0.2896643877029419,-1.0746240615844729,0.1159844398498535,-9.306541442871094,2.300203561782837,85.08001708984375,36.07,0
-0.3762142658233642,-1.0143027305603027,0.0184543933719396,-6.373651027679443,2.29943585395813,85.08000946044922,36.07,0
-0.3981703519821167,-0.9587987065315248,-0.0553303249180316,-2.395684003829956,2.298943281173706,85.08000946044922,36.07,0
-0.412260502576828,-0.9007883071899414,-0.1082788854837417,2.829747438430786,2.2986271381378174,85.08000946044922,36.07,0
-0.3989116549491882,-0.8635605573654175,-0.1254649013280868,9.618818283081056,2.3020968437194824,85.08000946044922,36.07,0
-0.3903451263904571,-0.8508654832839966,-0.1141027957201004,17.339693069458008,2.304323434829712,85.08000946044922,36.07,0
-0.3736520707607269,-0.8763051629066467,-0.0676268339157104,23.584232330322266,2.305752277374268,85.08000946044922,36.07,0
-0.3517438769340515,-0.9150220155715942,-0.0210079122334718,25.262943267822266,2.306669235229492,85.08000946044922,36.07,0
-0.3320866823196411,-0.9622593522071838,0.0033116536214947,21.35329818725586,2.307257652282715,85.08000946044922,36.07,0
-0.3194718360900879,-0.9813780188560486,0.0133207775652408,14.061574935913086,2.307635307312012,85.08000946044922,36.07,0
-0.3169741332530975,-0.9880495071411132,0.0309396050870418,7.010501384735107,2.307877779006958,85.08000946044922,36.07,0
-0.3041757047176361,-0.9923308491706848,0.0422463566064834,2.689735651016236,2.308033227920532,85.08000946044922,36.07,0
-0.295962393283844,-0.9894806146621704,0.0439046025276184,1.1278274059295654,2.312723398208618,85.00119018554688,36.07,0
-0.2962893545627594,-0.9708581566810608,0.0393709950149059,0.4120906293392181,2.3157334327697754,84.95060729980469,36.07,0
-0.2741080820560455,-1.0092873573303225,0.053254909813404,-1.1578264236450195,2.317665100097656,84.91814422607422,36.07,0
-0.2654711902141571,-1.0339490175247192,0.0789581313729286,-3.501609563827514,2.3189046382904053,84.8973159790039,36.07,0
-0.30471071600914,-1.0329821109771729,0.1122463047504425,-5.564596652984619,2.319700002670288,84.88394927978516,36.07,0
-0.3466857075691223,-0.987579345703125,0.133608728647232,-6.7237043380737305,2.3202104568481445,84.8753662109375,36.07,0
-0.3736228346824646,-0.9416491985321044,0.1249268129467964,-6.901505947113037,2.32053804397583,84.86985778808594,36.07,0
-0.3853117525577545,-1.00173819065094,0.1025619357824325,-6.102052211761475,2.3207483291625977,84.86632537841797,36.07,0
-0.3424330651760101,-1.068288803100586,0.1833716034889221,-4.4604973793029785,2.326850652694702,84.86405944824219,36.07,0
-0.2981226742267608,-1.099801540374756,0.3359905481338501,-2.443329095840454,2.3307669162750244,84.86260223388672,36.07,0
-0.2305023968219757,-1.0864379405975342,0.4563236832618713,-0.5756144523620605,2.333280086517334,84.8616714477539,36.07,0
-0.1815098226070404,-1.0050909519195557,0.4383844137191772,1.214102268218994,2.334892988204956,84.86107635498047,36.07,0
-0.1948513984680175,-0.9304960370063782,0.3317098617553711,3.7061052322387695,2.335927963256836,84.86068725585938,36.07,0
-0.2425976693630218,-0.8826252818107605,0.2296656221151352,7.580265045166016,2.336592197418213,84.86044311523438,36.07,0
-0.2956295907497406,-0.8575023412704468,0.1249950751662254,12.28409194946289,2.3370184898376465,84.86028289794922,36.07,0
-0.3240646421909332,-0.8413799405097961,0.0466279946267604,15.241833686828612,2.337291955947876,84.86018371582031,36.07,0
-0.3255192935466766,-0.8478267788887024,-0.003663484705612,12.633061408996582,2.3296639919281006,84.86011505126953,36.07,0
-0.3040617108345032,-0.8575617671012878,-0.007948787882924,2.765551805496216,2.3247687816619877,84.86007690429688,36.07,0
-0.2846936881542206,-0.8638091683387756,0.0116922482848167,-11.204899787902832,2.321627378463745,84.86004638671875,36.07,0
-0.2610688507556915,-0.8678183555603027,0.0578833781182765,-23.55586624145508,2.3196113109588623,84.86003112792969,36.07,0
-0.251505583524704,-0.8703912496566772,0.0987217351794242,-30.58277702331543,2.318317413330078,84.86002349853516,36.07,0
-0.2565639615058899,-0.883237898349762,0.1305272132158279,-31.74970245361328,2.3174872398376465,84.86001586914062,36.07,0
-0.2877990305423736,-0.9082754850387572,0.1565359234809875,-28.242467880249023,2.3169543743133545,84.8600082397461,36.07,0
-0.3246372044086456,-0.929940938949585,0.1732268184423446,-22.473636627197266,2.316612482070923,84.8600082397461,36.07,0
-0.3482778370380401,-0.9494423270225524,0.1839380711317062,-17.356414794921875,2.3090479373931885,84.8600082397461,36.07,0
-0.3466556966304779,-1.0123372077941897,0.1852141618728637,-14.190702438354492,2.3041934967041016,84.8600082397461,36.07,0
-0.3512124717235565,-1.0638951063156128,0.186033084988594,-12.048070907592772,2.3010783195495605,84.8600082397461,36.07,0
-0.3653323054313659,-1.0577975511550903,0.1977541744709015,-9.902799606323242,2.299079179763794,84.8600082397461,36.07,0
-0.3631980419158935,-1.0147000551223757,0.1996783167123794,-8.18574333190918,2.2977962493896484,84.8600082397461,36.07,0
-0.367426186800003,-1.0598136186599731,0.1729242503643036,-7.707202911376953,2.296972751617432,84.8600082397461,36.07,0
-0.3645417988300323,-1.127949357032776,0.1557550281286239,-8.17393970489502,2.2964444160461426,84.8600082397461,36.07,0
-0.368288516998291,-1.1884682178497314,0.0999546125531196,-8.573777198791504,2.29610538482666,84.8600082397461,36.07,0
-0.3091174364089966,-1.1545346975326538,-0.0478103682398796,-8.303730964660645,2.306905031204224,84.72028350830078,36.07,0
-0.2431559711694717,-1.0655847787857056,-0.1650285273790359,-7.464071750640869,2.313835620880127,84.630615234375,36.07,0
-0.2288145720958709,-0.980513036251068,-0.1450902372598648,-6.355597019195557,2.3182830810546875,84.57307434082031,36.07,0
-0.2196110934019088,-0.9259188771247864,-0.0819150134921073,-5.099690437316895,2.3211374282836914,84.53614807128906,36.07,0
-0.2528892457485199,-0.9020790457725524,-0.0749594345688819,-3.8924734592437744,2.3229689598083496,84.512451171875,36.07,0
-0.2630496919155121,-0.9315621852874756,-0.0872890725731849,-3.268219232559204,2.3241443634033203,84.49724578857422,36.07,0
-0.2471789866685867,-0.9616783261299132,-0.0896037518978118,-3.179292917251587,2.3248987197875977,84.48748779296875,36.07,0
-0.1922118961811065,-0.9810051321983336,-0.0854914039373397,-1.9686356782913208,2.325382947921753,84.4812240600586,36.07,0
-0.1569371819496154,-0.9766146540641784,-0.0660590082406997,2.462521314620972,2.3256936073303223,84.47720336914062,36.07,0
-0.1398976743221283,-0.9793948531150818,-0.0479906424880027,10.50450038909912,2.325892925262451,84.47462463378906,36.07,0
-0.1457560211420059,-1.0035700798034668,-0.0363954044878482,20.8601131439209,2.3260209560394287,84.47296905517578,36.07,0
-0.1719066649675369,-1.0190844535827637,-0.0345520228147506,31.683032989501957,2.32610297203064,84.47190856933594,36.07,0
-0.2166775166988372,-1.0626273155212402,-0.0333690494298934,40.02218246459961,2.326155662536621,84.47122192382812,36.07,0
-0.2566044330596924,-1.0793750286102295,-0.0214143358170986,41.719539642333984,2.326189517974853,84.47078704833984,36.07,0
-0.2878249883651733,-1.0901226997375488,-0.0025469393003731,34.887733459472656,2.326211214065552,84.47050476074219,36.07,0
-0.347044974565506,-1.0690311193466189,0.0207566171884536,22.822429656982425,2.32622504234314,84.47032165527344,36.07,0
-0.3906467258930206,-1.038702368736267,0.0413092747330665,10.930991172790527,2.31154465675354,84.47020721435547,36.07,0
-0.3850411772727966,-1.0024458169937134,-0.0070767290890216,1.802233338356018,2.302123785018921,84.47013092041016,36.07,0
-0.2247061729431152,-1.0295584201812744,0.1913806647062301,-4.919477939605713,2.2960779666900635,84.47008514404297,36.07,0
-0.1498012542724609,-1.0301644802093506,0.2963480949401855,-9.888697624206545,2.292198181152344,84.47005462646484,36.07,0
-0.135318249464035,-0.9913689494132996,0.2797435522079468,-13.446661949157717,2.289708137512207,84.47003173828125,36.07,0
-0.1428172141313552,-0.9608744382858276,0.2410988211631775,-15.937747955322266,2.2881102561950684,84.47002410888672,36.07,0
-0.1868140250444412,-0.92451149225235,0.1491255760192871,-17.19245719909668,2.2870848178863525,84.47001647949219,36.07,0
-0.2262441962957382,-0.9123713970184326,0.0677113384008407,-16.919301986694336,2.286426782608032,84.47000885009766,36.07,0
-0.2515482306480407,-0.9045805931091307,-0.0013289558701217,-15.794623374938965,2.294267416000366,84.47000885009766,36.07,0
-0.2565913498401642,-0.8827875852584839,-0.0400372706353664,-14.61788272857666,2.2992990016937256,84.47000885009766,36.07,0
-0.2654255032539367,-0.8855953812599182,-0.0536824874579906,-12.458348274230955,2.302527904510498,84.47000885009766,36.07,0
-0.2766925096511841,-0.8929950594902039,-0.0400481037795543,-7.321526527404785,2.3046000003814697,84.47000885009766,36.07,0
-0.289520800113678,-0.8977437615394592,-0.0033094687387347,1.058664321899414,2.3059298992156982,84.47000885009766,36.07,0
-0.2921555042266845,-0.9007911682128906,0.0258650444447994,10.115894317626951,2.3067831993103027,84.47000885009766,36.07,0
-0.2714551985263824,-0.902746856212616,0.0669786632061004,16.329551696777344,2.307330846786499,84.47000885009766,36.07,0
-0.2469753921031952,-0.9095996618270874,0.0933630168437957,17.769906997680664,2.3076822757720947,84.47000885009766,36.07,0
-0.2368634343147277,-0.9251929521560668,0.1158927530050277,15.108086585998535,2.299644947052002,84.39118957519531,36.05,0
-0.2639608085155487,-0.9128087162971495,0.1639376878738403,10.695038795471191,2.294487237930298,84.34060668945312,36.05,0
-0.2869481146335602,-0.8992634415626526,0.2059657126665115,6.591184616088867,2.291177272796631,84.30814361572266,36.05,0
-0.3072978258132934,-0.9129619598388672,0.2273391038179397,3.3019556999206543,2.289052963256836,84.28731536865234,36.05,0
-0.3371504247188568,-0.9609373211860656,0.2354575395584106,0.3205521404743194,2.2876899242401123,84.2739486694336,36.05,0
-0.3842969536781311,-1.0588984489440918,0.2462652623653412,-2.6388533115386963,2.2868151664733887,84.26536560058594,36.05,0
-0.4145528972148895,-1.0377976894378662,0.2476032674312591,-5.104076385498047,2.2862536907196045,84.25985717773438,36.05,0
-0.4059805572032928,-0.9906697273254396,0.2260708212852478,-6.238292694091797,2.285893440246582,84.2563247680664,36.05,0
-0.3892837762832641,-1.0220012664794922,0.2066547572612762,-5.902142524719238,2.287957191467285,84.25405883789062,36.05,0
-0.3841665089130401,-1.0644991397857666,0.1997924149036407,-5.471465587615967,2.2892816066741943,84.25260162353516,36.05,0
-0.4032736420631408,-1.1197606325149536,0.2009863406419754,-7.147585868835449,2.2901315689086914,84.25167083740234,36.05,0
-0.381948858499527,-1.099246621131897,0.184959203004837,-11.752060890197754,2.290677070617676,84.2510757446289,36.05,0
-0.3458727300167084,-1.0468974113464355,0.1578805893659591,-17.125186920166016,2.291027069091797,84.25068664550781,36.05,0
-0.2947322726249695,-0.9741182923316956,0.1181119978427887,-19.40184593200684,2.2912516593933105,84.25044250488281,36.05,0
-0.2619132697582245,-0.9218150973320008,0.1037863567471504,-16.55661964416504,2.291395902633667,84.25028228759766,36.05,0
-0.2520474791526794,-0.8938477039337158,0.1113863065838813,-10.162933349609377,2.2914884090423584,84.25018310546875,36.05,0
-0.2681072652339935,-0.9150842428207396,0.0994701907038688,-3.283336877822876,2.297056198120117,84.25011444091797,36.05,0
-0.2840113043785095,-0.9455059766769408,0.0806275680661201,2.464309930801392,2.3006293773651123,84.25007629394531,36.05,0
-0.2774242758750915,-0.9426378011703492,0.0461443588137626,7.163105010986328,2.302922487258911,84.25004577636719,36.05,0
-0.2620015442371368,-0.924003839492798,0.0184172447770833,11.36077117919922,2.304394006729126,84.25003051757812,36.05,0
-0.2465063482522964,-0.9288389682769777,0.006221352610737,15.65600299835205,2.3053383827209477,84.2500228881836,36.05,0
-0.2421602010726928,-0.9487351775169371,0.0039925058372318,20.640796661376957,2.3059444427490234,84.25001525878906,36.05,0
-0.2505666315555572,-0.972698986530304,-0.0030356138013303,26.182756423950195,2.306333303451538,84.25000762939453,36.05,0
-0.2671569585800171,-1.0160664319992063,-0.0019480822375044,30.792543411254883,2.3065829277038574,84.25000762939453,36.05,0
-0.2722058892250061,-1.0606905221939087,0.0099453814327716,32.124351501464844,2.308579444885254,84.25000762939453,36.05,0
-0.2698482275009155,-1.1341098546981812,0.0343712456524372,28.461400985717773,2.3098607063293457,84.25000762939453,36.05,0
-0.2851285338401794,-1.097259521484375,0.083633005619049,20.07408905029297,2.310683012008667,84.25000762939453,36.05,0
-0.2949345707893371,-1.0288288593292236,0.1264419108629226,9.156516075134276,2.3112106323242188,84.25000762939453,36.05,0
-0.2564453184604645,-0.9457296133041382,0.1651097536087036,-1.5469712018966677,2.311549186706543,84.25000762939453,36.05,0
-0.2093540430068969,-0.9035968780517578,0.1899245530366897,-9.977856636047363,2.311766624450684,84.25000762939453,36.05,0
-0.1623402386903762,-0.9213407039642334,0.2058492600917816,-15.069464683532717,2.311906099319458,84.25000762939453,36.05,0
-0.076191745698452,-0.9551187753677368,0.3112309873104095,-16.466859817504883,2.311995506286621,84.25000762939453,36.05,0
-0.0321021527051925,-0.9879911541938782,0.4516299664974212,-13.970929145812988,2.310675859451294,84.13894653320312,36.09,0
0.0017897838260978,-1.0034890174865725,0.5977076888084412,-7.221024036407471,2.309828996658325,84.06767272949219,36.09,0
-0.1220024526119232,-0.9686524271965028,0.517920970916748,3.5700602531433105,2.3092854022979736,84.02193450927734,36.09,0
-0.3301939964294433,-0.8959163427352905,0.3211763203144073,16.395658493041992,2.308936595916748,83.99258422851562,36.09,0
-0.4470060169696808,-0.8436406850814819,0.1781236082315445,27.657249450683597,2.308712720870972,83.97374725341797,36.09,0
-0.4659915268421173,-0.8212887644767761,0.0919183790683746,34.497371673583984,2.3085691928863525,83.96165466308594,36.09,0
-0.4221975803375244,-0.8237379193305969,0.0365968272089958,36.69084930419922,2.30847692489624,83.95389556884766,36.09,0
-0.3828975856304168,-0.8197118639945984,-0.0101009123027324,35.61577224731445,2.308417797088623,83.94892120361328,36.09,0
-0.3296882510185241,-0.8115304112434387,-0.006482183933258,31.78393173217773,2.3088388442993164,83.94572448730469,36.09,0
-0.2843460142612457,-0.8230733275413513,0.0574156269431114,24.48481750488281,2.3091089725494385,83.94367218017578,36.09,0
-0.266443520784378,-0.8528720140457153,0.132008209824562,13.756860733032228,2.3092823028564453,83.9423599243164,36.09,0
-0.2941391468048095,-0.91677725315094,0.2078663110733032,1.81367826461792,2.3093936443328857,83.94151306152344,36.09,0
-0.3399014770984649,-0.9745813012123108,0.2565476596355438,-8.06838321685791,2.309465169906616,83.94097137451172,36.09,0
-0.391660213470459,-1.0508610010147097,0.2765929996967315,-14.191584587097168,2.309510946273804,83.94062805175781,36.09,0
-0.447267085313797,-1.127801775932312,0.2950547337532043,-17.820165634155273,2.309540271759033,83.9404067993164,36.09,0
-0.4549635052680969,-1.1547869443893433,0.3125001788139343,-21.71794891357422,2.3095591068267822,83.94026184082031,36.09,0
-0.3703382313251495,-1.09933340549469,0.3125001192092895,-27.196441650390625,2.293963670730591,83.94017028808594,36.09,0
-0.3048350512981415,-1.0749419927597046,0.3125000894069671,-32.621734619140625,2.2839555740356445,83.94010925292969,36.09,0
-0.2739944159984588,-1.092875599861145,0.3013045191764831,-34.94978713989258,2.2775328159332275,83.94007110595703,36.09,0
-0.3157781958580017,-1.1659599542617798,0.2885220646858215,-32.66059875488281,2.27341103553772,83.94004821777344,36.09,0
-0.3593859672546386,-1.2184590101242063,0.2803190052509308,-27.093061447143555,2.270766019821167,83.94003295898438,36.09,0
-0.3873709142208099,-1.179378867149353,0.263859212398529,-21.13772392272949,2.269068479537964,83.94002532958984,36.09,0
-0.3997322618961334,-1.1151150465011597,0.2588940560817718,-16.92184829711914,2.267979145050049,83.94001770019531,36.09,0
-0.3684806525707245,-1.051483154296875,0.2501099109649658,-14.699989318847656,2.267280101776123,83.94001007080078,36.09,0
-0.2756541073322296,-0.9770611524581908,0.2500705420970917,-13.49983024597168,2.2764716148376465,83.94001007080078,36.09,0
-0.2272789031267166,-0.923703670501709,0.2276541739702224,-12.432283401489258,2.282370090484619,83.94001007080078,36.09,0
-0.2074300348758697,-0.8726685643196106,0.1796819865703582,-11.17398166656494,2.286155462265014,83.94001007080078,36.09,0
-0.1834966242313385,-0.8231238722801208,0.1488962024450302,-9.700116157531738,2.2885847091674805,83.94001007080078,36.09,0
-0.1793330907821655,-0.7577422857284546,0.1179441064596176,-8.009099006652832,2.2901437282562256,83.94001007080078,36.09,0
-0.165465623140335,-0.6989908218383789,0.0980808362364769,-5.895701885223389,2.291144132614136,83.94001007080078,36.09,0
-0.1621640622615814,-0.666885256767273,0.0853337347507476,-2.730244874954224,2.291786193847656,83.94001007080078,36.09,0
-0.188034176826477,-0.6630750894546509,0.0715555995702743,2.120650291442871,2.292198181152344,83.94001007080078,36.09,0
-0.2102338969707489,-0.6886188387870789,0.062713585793972,8.461575508117676,2.292921543121338,83.82178497314453,36.09,0
-0.2524692714214325,-0.749793529510498,0.0570392943918705,15.346721649169922,2.2933857440948486,83.74591064453125,36.09,0
-0.2907690703868866,-0.9066051840782166,0.0478000864386558,21.87893295288086,2.2936835289001465,83.69721984863281,36.09,0
-0.3097499012947082,-1.1024000644683838,0.0306753441691398,27.16719627380371,2.293874740600586,83.66596984863281,36.09,0
-0.3723106682300567,-1.390385389328003,0.0196856707334518,30.188310623168945,2.293997287750244,83.64591979980469,36.09,0
-0.4684363007545471,-1.4912312030792236,0.0238286796957254,30.883935928344727,2.294075965881348,83.63304901123047,36.09,0
-0.5357219576835632,-1.287255048751831,0.0544762946665287,30.97567176818848,2.294126510620117,83.62479400634766,36.09,0
-0.3997732698917389,-1.1899415254592896,0.107730820775032,32.99421310424805,2.294158935546875,83.61949157714844,36.09,0
-0.2621492445468902,-1.1442846059799194,0.1531020551919937,38.499122619628906,2.3038196563720703,83.6160888671875,36.09,0
-0.1570367515087127,-1.0813980102539062,0.1710231602191925,46.187644958496094,2.310019493103028,83.61390686035156,36.09,0
-0.1063749194145202,-1.018649935722351,0.1657305657863617,50.698951721191406,2.313998222351074,83.61251068115234,36.09,0
-0.1466341465711593,-0.9503929615020752,0.1063563376665115,45.34695816040039,2.316551446914673,83.61161041259766,36.09,0
-0.2340457141399383,-0.9009917378425598,0.0402645021677017,28.80013084411621,2.318189859390259,83.61103057861328,36.09,0
-0.2957392036914825,-0.8636911511421204,-0.0077472068369388,8.142951965332031,2.319241523742676,83.61066436767578,36.09,0
-0.3465260863304138,-0.84535151720047,-0.0273628085851669,-6.958661079406738,2.319916248321533,83.61042785644531,36.09,0
-0.3903137147426605,-0.8391799926757812,-0.0399509742856025,-12.558706283569336,2.3203492164611816,83.61027526855469,36.09,0
-0.4128163456916809,-0.8464149832725525,-0.0480293333530426,-11.41632843017578,2.3091511726379395,83.61017608642578,36.09,0
-0.4328550100326538,-0.8790468573570251,-0.0252246875315904,-7.831485748291016,2.30196475982666,83.61011505126953,36.09,0
-0.4513124227523803,-0.9223792552947998,0.0062033445574343,-4.656791687011719,2.297353029251098,83.61007690429688,36.09,0
-0.4575595557689667,-0.9669808149337769,0.0543609224259853,-4.364170074462891,2.294393539428711,83.61004638671875,36.09,0
-0.4503730535507202,-1.0179946422576904,0.1020589992403984,-9.432021141052246,2.292494297027588,83.61003112792969,36.09,0
-0.4457611739635467,-1.0731234550476074,0.1774510741233825,-20.45846366882324,2.2912755012512207,83.61002349853516,36.09,0
-0.4204104542732239,-1.136490821838379,0.2538222372531891,-34.721248626708984,2.2904932498931885,83.61001586914062,36.09,0
-0.4097395837306976,-1.2163407802581787,0.3196261823177337,-47.381622314453125,2.28999137878418,83.6100082397461,36.09,0
-0.4476738274097442,-1.2339972257614136,0.3786486983299255,-54.41005325317383,2.296095609664917,83.6100082397461,36.09,0
-0.2816935181617737,-1.1781548261642456,0.4053303897380829,-54.571250915527344,2.300012826919556,83.6100082397461,36.09,0
0.0263429675251245,-1.164709448814392,0.3664754331111908,-49.05363464355469,2.3025267124176025,83.6100082397461,36.09,0
0.078480914235115,-1.1896677017211914,0.2575739324092865,-40.285770416259766,2.304140090942383,83.6100082397461,36.09,0
-1.5436400644830428e-05,-1.2000867128372192,0.2268716394901275,-31.241283416748047,2.305175304412842,83.6100082397461,36.09,0
0.1287389099597931,-1.1172086000442505,0.3471130430698395,-24.38019180297852,2.305839776992798,83.6100082397461,36.09,0
0.2393549084663391,-1.0920110940933228,0.4522659182548523,-20.21717071533203,2.3062660694122314,83.6100082397461,36.09,0
0.2095819413661956,-1.0926340818405151,0.3909981846809387,-17.384366989135742,2.30653977394104,83.6100082397461,36.09,0
0.1288998574018478,-1.0874360799789429,0.2789089977741241,-14.405681610107422,2.297534704208374,83.484619140625,36.07,0
0.0323405340313911,-1.084100365638733,0.1733899712562561,-11.014530181884766,2.2917556762695312,83.4041519165039,36.07,0
-0.1079945191740989,-1.0987529754638672,0.0664895102381706,-7.666781425476074,2.2880470752716064,83.35250854492188,36.07,0
-0.2204445749521255,-1.1137539148330688,-0.0356997027993202,-4.619162559509277,2.285667181015014,83.31936645507812,36.07,0
-0.2646196782588959,-1.1065874099731443,-0.062094435095787,-1.8859572410583496,2.28413987159729,83.298095703125,36.07,0
-0.2929687201976776,-1.057206153869629,-0.0566419586539268,0.3302087783813476,2.2831597328186035,83.2844467163086,36.07,0
-0.3055637180805206,-1.0031249523162842,-0.0363495498895645,1.5231317281723022,2.2825307846069336,83.27568817138672,36.07,0
-0.291255384683609,-0.9348320960998536,0.004661823157221,1.5040968656539917,2.282127141952514,83.27006530761719,36.07,0
-0.2764753401279449,-0.874212384223938,0.0309805627912282,1.4202299118041992,2.284622430801392,83.2664566040039,36.07,0
-0.250197023153305,-0.7905279397964478,0.0422726385295391,4.017514705657959,2.2862236499786377,83.26414489746094,36.07,0
-0.2221375703811645,-0.7312263250350952,0.0439214706420898,12.193842887878418,2.287251234054565,83.26265716552734,36.07,0
-0.204130619764328,-0.6931699514389038,0.0449795946478843,26.393796920776367,2.2879106998443604,83.26170349121094,36.07,0
-0.1925747990608215,-0.6911386251449585,0.0456586368381977,42.162933349609375,2.2883338928222656,83.26109313964844,36.07,0
-0.1795611679553985,-0.7346172332763672,0.0460944063961505,51.25804138183594,2.2886054515838623,83.26070404052734,36.07,0
-0.1824053078889846,-0.8800725936889648,0.0519718341529369,47.869625091552734,2.288779735565185,83.26045227050781,36.07,0
-0.2570015788078308,-1.0797752141952517,0.0669391751289367,33.84397506713867,2.288891553878784,83.26029205322266,36.07,0
-0.3440575897693634,-1.185541749000549,0.0933376774191856,16.43123435974121,2.2903404235839844,83.26018524169922,36.07,0
-0.4391095638275146,-1.2030366659164429,0.1326698213815689,2.086158514022827,2.2912702560424805,83.26011657714844,36.07,0
-0.483315110206604,-1.2366549968719482,0.1579109281301498,-6.51422929763794,2.291867017745972,83.26007843017578,36.07,0
-0.4165215194225311,-1.2638270854949951,0.1741092056035995,-10.027220726013184,2.292249917984009,83.26004791259766,36.07,0
-0.3232772648334503,-1.1972979307174685,0.173308789730072,-11.181805610656738,2.2924957275390625,83.2600326538086,36.07,0
-0.2522429227828979,-1.1210166215896606,0.161599576473236,-12.657179832458496,2.292653560638428,83.26002502441406,36.07,0
-0.20105941593647,-1.038477063179016,0.1484875082969665,-14.890134811401367,2.292754888534546,83.26001739501953,36.07,0
-0.185006096959114,-0.9687145948410034,0.1344751566648483,-16.520158767700195,2.292819738388061,83.260009765625,36.07,0
-0.2082906514406204,-0.9183472990989684,0.1142872869968414,-17.157800674438477,2.296074628829956,83.260009765625,36.07,0
-0.273613303899765,-0.8860244750976562,0.0845385491847992,-18.02557182312012,2.298163414001465,83.260009765625,36.07,0
-0.3379247188568115,-0.8596837520599365,0.0542519763112068,-18.750837326049805,2.299503803253174,83.260009765625,36.07,0
-0.3847938776016235,-0.8483775854110718,0.0348157957196235,-15.784164428710938,2.3003640174865723,83.260009765625,36.07,0
-0.409274011850357,-0.8411219716072083,0.0279405489563941,-6.4142374992370605,2.3009159564971924,83.260009765625,36.07,0
-0.436179518699646,-0.8588567972183228,0.0403217338025569,6.685176372528076,2.3012702465057373,83.260009765625,36.07,0
-0.4422503709793091,-0.9038246273994446,0.0762561336159706,16.044591903686523,2.3014976978302,83.260009765625,36.07,0
-0.4349507391452789,-0.943877935409546,0.1105123162269592,14.445117950439451,2.3016436100006104,83.260009765625,36.07,0
-0.4134729206562042,-0.9975707530975342,0.1436915099620819,1.7645490169525146,2.298524141311645,83.1489486694336,36.09,0
-0.3884941637516022,-1.043223261833191,0.1761795580387115,-12.55305290222168,2.2965221405029297,83.07767486572266,36.09,0
-0.389257550239563,-1.1340959072113037,0.2418107092380523,-17.882831573486328,2.295237302780152,83.03193664550781,36.09,0
-0.3729541301727295,-1.1980105638504028,0.3007223308086395,-13.564813613891602,2.294412851333618,83.00257873535156,36.09,0
-0.3289048969745636,-1.1998428106307983,0.3441261947154999,-7.375980854034424,2.293883800506592,82.9837417602539,36.09,0
-0.1774855852127075,-1.1674320697784424,0.4279580414295196,-5.020086288452148,2.293544292449951,82.97164916992188,36.09,0
0.5970172882080078,-1.1858171224594116,0.5265386700630188,-6.438755035400391,2.2933263778686523,82.9638900756836,36.09,0
0.1368292570114135,-1.2423977851867676,0.3826844096183777,-9.64560604095459,2.293186664581299,82.95891571044922,36.09,0
0.1773735284805297,-1.1835458278656006,0.4527024924755096,-12.986140251159668,2.2921786308288574,82.95571899414062,36.09,0
0.1754036396741867,-1.1177891492843628,0.4472560882568359,-15.226633071899414,2.291531801223755,82.95366668701172,36.09,0
0.1405528336763382,-1.1147747039794922,0.3709898293018341,-16.39575958251953,2.291116714477539,82.95235443115234,36.09,0
0.0846009403467178,-1.1016446352005005,0.28286212682724,-17.285757064819336,2.2908504009246826,82.95150756835938,36.09,0
-0.0520656928420066,-1.0932185649871826,0.1367424428462982,-17.097400665283203,2.290679454803467,82.95096588134766,36.09,0
-0.1901504397392273,-1.071017861366272,0.0317756831645965,-13.469182968139648,2.29056978225708,82.95062255859375,36.09,0
-0.2731675207614898,-1.0567706823349,-0.0243903901427984,-5.67737340927124,2.290499210357666,82.95040130615234,36.09,0
-0.298454225063324,-1.030834436416626,-0.0212501231580972,3.926570653915405,2.2904539108276367,82.95025634765625,36.09,0
-0.3090839982032776,-1.002994418144226,-0.0136371059343218,12.457911491394045,2.29914665222168,82.95016479492188,36.09,0
-0.3159055709838867,-0.9515416622161864,-0.0143492836505174,18.9431209564209,2.304725170135498,82.95010375976562,36.09,0
-0.3146854937076568,-0.896131157875061,-0.0148063190281391,23.87520980834961,2.308305263519287,82.95006561279297,36.09,0
-0.3027069866657257,-0.8493763208389282,-0.015099617652595,27.935983657836918,2.3106026649475098,82.95004272460938,36.09,0
-0.2894220948219299,-0.8025784492492676,-0.0096900658681988,31.960655212402344,2.312077045440674,82.95002746582031,36.09,0
-0.2752988338470459,-0.7669485211372375,-0.0062185265123844,37.28771209716797,2.313023090362549,82.95001983642578,36.09,0
-0.2662353217601776,-0.7552788257598877,0.0072048562578856,45.03764343261719,2.3136303424835205,82.95001220703125,36.09,0
-0.2828100025653839,-0.786974310874939,0.0326125361025333,54.36751556396485,2.3140199184417725,82.95000457763672,36.09,0
-0.2934466600418091,-0.8185101747512817,0.0601132698357105,61.35084533691406,2.309679746627808,82.95000457763672,36.09,0
-0.3114682137966156,-0.9059213995933532,0.0833594352006912,60.5623779296875,2.306894302368164,82.95000457763672,36.09,0
-0.3342289626598358,-1.0123968124389648,0.1038752570748329,48.735443115234375,2.30510687828064,82.95000457763672,36.09,0
-0.3768243789672851,-1.1646932363510132,0.1338344514369964,27.28461265563965,2.303959846496582,82.95000457763672,36.09,0
-0.4321485161781311,-1.178461670875549,0.1922449618577957,1.7105352878570557,2.3032236099243164,82.95000457763672,36.09,0
-0.4620546102523803,-1.114526391029358,0.2353272438049316,-20.98885726928711,2.302751064300537,82.95000457763672,36.09,0
-0.3860844373703003,-1.0623009204864502,0.2349860966205597,-35.24433517456055,2.302448034286499,82.95000457763672,36.09,0
-0.2869511842727661,-1.0567744970321655,0.2347671687602996,-39.3770751953125,2.302253484725952,82.95000457763672,36.09,0
-0.1673554331064224,-1.0364346504211426,0.2626155316829681,-36.046329498291016,2.3044240474700928,82.86402130126953,36.07,0
-0.129790186882019,-0.978599488735199,0.2748892307281494,-29.627668380737305,2.305816888809204,82.808837890625,36.07,0
-0.1224762946367263,-0.9302886128425598,0.2715702354907989,-22.986408233642575,2.306710720062256,82.77342987060547,36.07,0
-0.1625648587942123,-0.882492184638977,0.2526469826698303,-17.19108772277832,2.307284355163574,82.75070190429688,36.07,0
-0.2050847113132476,-0.8574169278144836,0.2516986727714538,-13.239116668701172,2.307652473449707,82.73612213134766,36.07,0
-0.2379692792892456,-0.835727334022522,0.2175034582614898,-11.97836685180664,2.3078887462615967,82.72676086425781,36.07,0
-0.3206482231616974,-0.8218082189559937,0.1731678396463394,-12.638145446777344,2.3080403804779053,82.72075653076172,36.07,0
-0.3905001282691955,-0.8184734582901001,0.1559113413095474,-13.462801933288574,2.3081376552581787,82.71690368652344,36.07,0
-0.4521203935146332,-0.8163334131240845,0.1784237623214721,-13.773482322692873,2.3026914596557617,82.71443176269531,36.07,0
-0.5028602480888367,-0.8261556029319763,0.2040664851665496,-14.366942405700684,2.299196481704712,82.71284484863281,36.07,0
-0.5242266654968262,-0.8604478240013123,0.2485113888978958,-16.306211471557617,2.2969536781311035,82.71182250976562,36.07,0
-0.4595695436000824,-0.9216389656066896,0.2770335674285888,-19.589208602905277,2.2955143451690674,82.71116638183594,36.07,0
-0.3900874555110931,-0.9777012467384338,0.2841418981552124,-22.330162048339844,2.294590711593628,82.71074676513672,36.07,0
-0.3175089657306671,-1.0528632402420044,0.2887036204338074,-22.090070724487305,2.293998003005981,82.71047973632812,36.07,0
-0.298921138048172,-1.1122934818267822,0.2860333025455475,-18.98395156860352,2.293617486953736,82.7103042602539,36.07,0
-0.292590320110321,-1.1840189695358276,0.3291018307209015,-15.77254867553711,2.293373346328736,82.71019744873047,36.07,0
-0.294125348329544,-1.190863847732544,0.334349662065506,-14.159476280212402,2.297806978225708,82.71012878417969,36.07,0
-0.3007082045078277,-1.156072020530701,0.3153263032436371,-13.099221229553224,2.300652265548706,82.7100830078125,36.07,0
-0.2825416028499603,-1.0777668952941897,0.2863248884677887,-10.978615760803224,2.302478075027466,82.71005249023438,36.07,0
-0.2484922260046005,-0.9939285516738892,0.2453223466873169,-7.321301937103271,2.30364990234375,82.71002960205078,36.07,0
-0.2490323930978775,-0.9681147933006288,0.1910204142332077,-2.5237667560577397,2.3044018745422363,82.71002197265625,36.07,0
-0.2773679196834564,-0.9683423638343812,0.1505747735500335,2.202999830245972,2.304884433746338,82.71001434326172,36.07,0
-0.3067475855350494,-0.9684883952140808,0.1134235486388206,5.153967380523682,2.305194139480591,82.71000671386719,36.07,0
-0.3200039863586426,-0.957386553287506,0.0839842557907104,5.722175598144531,2.305392980575561,82.71000671386719,36.07,0
-0.3453044891357422,-0.9446642994880676,0.0427007116377353,5.187592506408691,2.305979490280152,82.71000671386719,36.07,0
-0.3671386837959289,-0.936499834060669,-0.0005860119126737,5.120386123657227,2.3063557147979736,82.71000671386719,36.07,0
-0.3811506032943725,-0.931260347366333,-0.0395604893565177,5.890501499176025,2.3065972328186035,82.71000671386719,36.07,0
-0.3845448791980743,-0.9334957599639891,-0.0701698437333107,7.244535446166992,2.3067522048950195,82.71000671386719,36.07,0
-0.3643320202827453,-0.9405280947685242,-0.0786176100373268,9.557254791259766,2.306851625442505,82.71000671386719,36.07,0
-0.3401650190353393,-0.9338454604148864,-0.0672455802559852,13.667452812194824,2.306915521621704,82.71000671386719,36.07,0
-0.3190582692623138,-0.9239591956138612,-0.0543498918414115,19.540206909179688,2.3069565296173096,82.71000671386719,36.07,0
-0.3055131733417511,-0.9232125282287598,-0.0404764078557491,25.79172706604004,2.3069827556610107,82.71000671386719,36.07,0
-0.2968207001686096,-0.933928906917572,-0.0315732024610042,31.17930221557617,2.3056225776672363,82.63477325439453,36.07,0
-0.291242390871048,-0.9464038014411926,-0.0258596390485763,36.24889755249024,2.304749727249145,82.58648681640625,36.07,0
-0.2932603061199188,-0.9488117098808287,-0.0221930015832185,42.34683609008789,2.304189443588257,82.55550384521484,36.07,0
-0.2889575362205505,-0.967150330543518,-0.0086444169282913,48.531494140625,2.303829908370972,82.5356216430664,36.07,0
-0.3029895722866058,-0.9957122802734376,0.0392347052693367,50.5694465637207,2.3035991191864014,82.52285766601562,36.07,0
-0.3119945228099823,-1.0140416622161863,0.086754098534584,44.65122985839844,2.3034510612487797,82.5146713256836,36.07,0
-0.3233711719512939,-0.9810222387313844,0.1116515323519706,32.02937316894531,2.303356170654297,82.50941467285156,36.07,0
-0.3586609065532684,-0.9206478595733644,0.1276292651891708,18.16861343383789,2.303295135498047,82.50604248046875,36.07,0
-0.4484811127185821,-0.909891963005066,0.1546761840581894,7.385557651519775,2.2991247177124023,82.50387573242188,36.07,0
-0.5509047508239746,-1.0541293621063232,0.3399665653705597,0.1431814581155777,2.296448230743408,82.50248718261719,36.07,0
-0.4990811049938202,-1.1187037229537964,0.5092552304267883,-4.98820686340332,2.2947306632995605,82.50159454345703,36.07,0
-0.3762592673301697,-1.098568320274353,0.5507216453552246,-9.03715991973877,2.293628454208374,82.50102233886719,36.07,0
-0.2974392771720886,-1.0240710973739624,0.4541814029216766,-12.248165130615234,2.29292106628418,82.50065612792969,36.07,0
-0.280443787574768,-0.9762630462646484,0.3418474495410919,-14.42702865600586,2.2924671173095703,82.50041961669922,36.07,0
-0.3087214827537536,-0.9567781090736388,0.2305735647678375,-15.302242279052734,2.292175769805908,82.5002670288086,36.07,0
-0.32686847448349,-0.9610671401023864,0.1479688435792923,-15.111562728881836,2.2919888496398926,82.50016784667969,36.07,0
-0.2937319874763489,-0.9806129336357116,0.0613712407648563,-15.222063064575195,2.2927870750427246,82.50010681152344,36.07,0
-0.2332824766635894,-0.92598295211792,0.005797884427011,-17.693302154541016,2.293299436569214,82.50006866455078,36.07,0
-0.1944894641637802,-0.8741312623023987,-0.0130725754424929,-23.2666072845459,2.293628215789795,82.50004577636719,36.07,0
-0.1919854283332824,-0.8296602964401245,0.0028063226491212,-30.11054229736328,2.2938392162323,82.50003051757812,36.07,0
-0.2127695828676223,-0.806719183921814,0.0241920351982116,-35.35165786743164,2.293974637985229,82.5000228881836,36.07,0
-0.2596943080425262,-0.7919968962669373,0.0491117015480995,-37.22475051879883,2.2940614223480225,82.50001525878906,36.07,0
-0.3066012263298034,-0.7993422746658325,0.0651037096977233,-35.112911224365234,2.294117212295532,82.50000762939453,36.07,0
-0.347898930311203,-0.8152516484260559,0.0753664597868919,-28.964168548583984,2.294152975082397,82.50000762939453,36.07,0
-0.4023903012275696,-0.8758413791656494,0.0819525048136711,-19.848602294921875,2.294175863265991,82.50000762939453,36.07,0
-0.4485552608966827,-0.9427132606506348,0.091776818037033,-10.097332954406738,2.2941906452178955,82.50000762939453,36.07,0
-0.4669857323169708,-1.0304099321365356,0.1148748248815536,-2.0948143005371094,2.29420018196106,82.50000762939453,36.07,0
-0.4564222395420074,-1.12587308883667,0.1688822209835052,2.9332640171051025,2.294206142425537,82.50000762939453,36.07,0
-0.4216543436050415,-1.147951364517212,0.220334380865097,5.088805198669434,2.2942099571228027,82.50000762939453,36.07,0
-0.3433645665645599,-1.16211998462677,0.2869400680065155,5.325683116912842,2.294212579727173,82.50000762939453,36.07,0
-0.2819271385669708,-1.1208325624465942,0.3128904402256012,4.779095649719238,2.2942142486572266,82.50000762939453,36.07,0
-0.2648912370204925,-1.0383589267730713,0.2847616970539093,4.199042320251465,2.294215202331543,82.50000762939453,36.07,0
-0.3099363148212433,-1.0246165990829468,0.238721415400505,3.601095199584961,2.2960519790649414,82.42835235595703,36.09,0
-0.3780280649662018,-1.0437864065170288,0.2091754078865051,2.504434585571289,2.2972307205200195,82.38236999511719,36.09,0
-0.4609098434448242,-1.0952728986740112,0.1846166998147964,0.8620262742042542,2.2979869842529297,82.35285949707031,36.09,0
-0.4917075037956238,-1.1283138990402222,0.1632585674524307,-0.5968078970909119,2.2984724044799805,82.33392333984375,36.09,0
-0.4219072759151459,-1.1159311532974243,0.0991721749305725,-1.2822234630584717,2.298784017562866,82.32176971435547,36.09,0
-0.2987446784973144,-1.1191800832748413,-0.0147258481010794,-1.5501199960708618,2.2989838123321533,82.31397247314453,36.09,0
-0.1861193627119064,-1.1100695133209229,-0.1046123728156089,-2.123289108276367,2.29911208152771,82.30896759033203,36.09,0
-0.1082451418042182,-1.07063627243042,-0.1343074887990951,-2.763391733169556,2.2991943359375,82.30575561523438,36.09,0
-0.0750632733106613,-1.0341347455978394,-0.1309730112552642,-1.7662205696105957,2.29787015914917,82.30369567871094,36.09,0
-0.0929534807801246,-0.9939168691635132,-0.1288331300020218,2.7178099155426025,2.297020196914673,82.30237579345703,36.09,0
-0.1324232667684555,-0.9681073427200316,-0.1610465347766876,10.868953704833984,2.296474933624268,82.30152893066406,36.09,0
-0.1577526926994323,-0.9571420550346376,-0.1873170137405395,21.39493560791016,2.2961249351501465,82.30097961425781,36.09,0
-0.1516165733337402,-0.9668984413146972,-0.2209692150354385,32.92189407348633,2.295900344848633,82.30062866210938,36.09,0
-0.1476787626743316,-0.9899528622627258,-0.2425652593374252,43.68327331542969,2.2957561016082764,82.30040740966797,36.09,0
-0.1619450151920318,-1.0215412378311155,-0.2396310418844223,50.33494186401367,2.295663595199585,82.30026245117188,36.09,0
-0.1878935992717743,-1.0530083179473877,-0.2209547013044357,48.910888671875,2.2956042289733887,82.3001708984375,36.09,0
-0.2157414555549621,-1.073202133178711,-0.1977737545967102,37.743682861328125,2.2955660820007324,82.30010986328125,36.09,0
-0.2504059374332428,-1.0413790941238403,-0.1605064570903778,19.38166236877441,2.295541763305664,82.3000717163086,36.09,0
-0.3006404638290405,-0.9985658526420592,-0.1141993552446365,-0.5559673309326172,2.295526027679444,82.300048828125,36.09,0
-0.3776603043079376,-0.9654930233955384,-0.0508954748511314,-16.815139770507812,2.295516014099121,82.30003356933594,36.09,0
-0.4270871877670288,-1.033833146095276,0.0121204117313027,-27.17052459716797,2.2955095767974854,82.3000259399414,36.09,0
0.0785798132419586,-1.1728520393371582,0.6627178192138672,-32.14653396606445,2.295505285263061,82.30001831054688,36.09,0
-0.1119074448943138,-1.1613065004348757,0.7891494631767273,-33.20463562011719,2.2955026626586914,82.30001068115234,36.09,0
-0.1893690228462219,-1.1091150045394895,0.7191461324691772,-31.73053550720215,2.2955009937286377,82.30001068115234,36.09,0
-0.2558727264404297,-0.997252643108368,0.4838976860046386,-28.943099975585938,2.2881553173065186,82.30001068115234,36.09,0
-0.3321376144886017,-0.9646502733230592,0.2713532745838165,-25.7785758972168,2.2834413051605225,82.30001068115234,36.09,0
-0.3586889505386352,-0.9549235105514526,0.12935671210289,-22.339813232421875,2.2804160118103027,82.30001068115234,36.09,0
-0.3421414196491241,-0.9318881034851074,0.0214381739497184,-17.417421340942383,2.2784745693206787,82.30001068115234,36.09,0
-0.3035332858562469,-0.911507487297058,-0.0478177368640899,-9.3002290725708,2.277228593826294,82.30001068115234,36.09,0
-0.2619634866714477,-0.8872328400611877,-0.0698710903525352,2.432788133621216,2.2764291763305664,82.30001068115234,36.09,0
-0.2464819252490997,-0.8772525787353516,-0.0504370182752609,16.296356201171875,2.27591609954834,82.30001068115234,36.09,0
-0.2365467548370361,-0.8708478212356567,-0.0155742522329092,29.621261596679688,2.2755868434906006,82.30001068115234,36.09,0
-0.252562016248703,-0.8891286849975586,0.0459830835461616,39.03582000732422,2.264817237854004,82.1925277709961,36.09,0
-0.2460463792085647,-0.9176536202430724,0.1022803634405136,41.06505584716797,2.257905960083008,82.12355041503906,36.09,0
-0.2474627941846847,-0.9527525901794434,0.1272131651639938,33.99482345581055,2.253470659255981,82.07928466796875,36.09,0
-0.2875562012195587,-0.969679355621338,0.1208225041627883,19.6663761138916,2.250624418258667,82.0508804321289,36.09,0
-0.3356769382953644,-0.9693464040756226,0.111123576760292,2.972872495651245,2.24879789352417,82.03265380859375,36.09,0
-0.3889491558074951,-0.9747304916381836,0.0993015840649604,-11.165000915527344,2.247625827789306,82.02095794677734,36.09,0
-0.4231361746788025,-1.0061745643615725,0.1029104590415954,-20.864824295043945,2.246873617172241,82.0134506225586,36.09,0
-0.4450754523277282,-1.0655380487442017,0.12761752307415,-27.15051651000977,2.2463908195495605,82.00862884521484,36.09,0
-0.4479592740535736,-1.0924384593963623,0.1322775483131408,-31.25238037109375,2.2616889476776123,82.00553894042969,36.09,0
-0.4386143982410431,-1.0761150121688845,0.1240725368261337,-33.32942199707031,2.2715063095092773,82.00355529785156,36.09,0
-0.4102262854576111,-1.0040640830993652,0.1188070327043533,-33.888511657714844,2.277806520462036,82.00228118896484,36.09,0
-0.3528240025043487,-0.9522281289100648,0.1266234815120697,-34.44076156616211,2.2818496227264404,82.00146484375,36.09,0
-0.3327798545360565,-0.9917338490486144,0.137237399816513,-35.99532699584961,2.2844443321228027,82.00093841552734,36.09,0
-0.347905546426773,-1.022684097290039,0.1104621589183807,-37.83127975463867,2.286109447479248,82.00060272216797,36.09,0
-0.3464168012142181,-1.048143982887268,0.1100726723670959,-37.90247344970703,2.287178039550781,82.0003890991211,36.09,0
-0.3342658579349518,-1.0644826889038086,0.0986271798610687,-34.13629913330078,2.2878637313842773,82.00025177001953,36.09,0
-0.3320658504962921,-1.0469790697097778,0.0520976968109607,-25.976518630981445,2.2887628078460693,82.00016021728516,36.09,0
-0.3082629144191742,-0.9965618252754213,0.0054444321431219,-14.921937942504885,2.289339780807495,82.0000991821289,36.09,0
-0.281792014837265,-0.9642069339752196,-0.0132994009181857,-3.19189190864563,2.28971004486084,82.00006103515625,36.09,0
-0.2592067420482635,-0.949041187763214,-0.0197303388267755,7.538599967956543,2.289947509765625,82.00003814697266,36.09,0
-0.2503105700016022,-0.94490647315979,-0.0126617960631847,16.115787506103516,2.290099859237671,82.0000228881836,36.09,0
-0.2446015328168869,-0.9366552829742432,-0.0081256115809082,22.376056671142575,2.2901978492736816,82.00001525878906,36.09,0
-0.2353400290012359,-0.931360125541687,-0.0108123244717717,27.86239242553711,2.2902605533599854,82.00000762939453,36.09,0
-0.2182009816169738,-0.9727442264556884,-0.0125365015119314,34.57170104980469,2.290300846099853,82.00000762939453,36.09,0
-0.2072021216154098,-1.0048998594284058,-0.0136429797857999,42.735782623291016,2.2921626567840576,82.00000762939453,36.09,0
-0.2225347906351089,-1.014340043067932,-0.0199508275836706,50.15680694580078,2.293357610702514,82.00000762939453,36.09,0
-0.2267766296863556,-1.0371915102005005,-0.0184010677039623,53.26404571533203,2.2941243648529053,82.00000762939453,36.09,0
-0.22949880361557,-1.040660738945007,-0.0006131972186267,49.844818115234375,2.294616460800171,82.00000762939453,36.09,0
-0.259234607219696,-1.037289261817932,0.0387909077107906,41.46344757080078,2.2949321269989014,82.00000762939453,36.09,0
-0.295110672712326,-1.0127345323562622,0.0864692851901054,31.14439392089844,2.2951347827911377,82.00000762939453,36.09,0
-0.3013405203819275,-0.9465967416763306,0.1506531685590744,19.20209503173828,2.295264959335327,82.00000762939453,36.09,0
-0.2997407019138336,-0.9097511172294616,0.1918426901102066,4.813721179962158,2.2953484058380127,82.00000762939453,36.09,0
-0.2763229310512543,-0.942083477973938,0.1958846598863601,-10.048134803771973,2.296779155731201,81.88536071777344,36.07,0
-0.2500992119312286,-0.9740280508995056,0.1816852390766143,-22.14716148376465,2.2976973056793213,81.8117904663086,36.07,0
-0.2276725769042968,-0.9665393829345704,0.1613773256540298,-30.198225021362305,2.298286437988281,81.76457214355469,36.07,0
-0.218878224492073,-0.9673313498497008,0.2155181616544723,-33.724117279052734,2.2986645698547363,81.7342758178711,36.07,0
-0.2300278395414352,-0.9566440582275392,0.2614581882953644,-31.71640014648437,2.2989072799682617,81.71482849121094,36.07,0
-0.1196297481656074,-0.9161989092826844,0.4420797824859619,-24.531044006347656,2.299062967300415,81.70235443115234,36.07,0
-0.1495425552129745,-0.9014390707015992,0.4572323560714721,-14.829055786132812,2.2991628646850586,81.69434356689453,36.07,0
-0.2806943655014038,-0.8863692879676819,0.3605987131595611,-5.661582946777344,2.299226999282837,81.68920135498047,36.07,0
-0.4376311004161834,-0.87669837474823,0.2146181762218475,1.500552773475647,2.298809289932251,81.68590545654297,36.07,0
-0.5159529447555542,-0.8592966198921204,0.1097407191991806,6.702254772186279,2.2985410690307617,81.68379211425781,36.07,0
-0.4822488129138946,-0.8593246936798096,0.0480341799557209,9.990251541137695,2.2983689308166504,81.68243408203125,36.07,0
-0.3766528069972992,-0.8985271453857422,0.0644122213125228,10.55262565612793,2.2982585430145264,81.68156433105469,36.07,0
-0.2697029709815979,-0.9236850142478944,0.0973137989640235,7.871918201446533,2.298187732696533,81.6810073852539,36.07,0
-0.1674820631742477,-0.9230365753173828,0.129623681306839,3.1135706901550293,2.298142194747925,81.68064880371094,36.07,0
-0.1186758950352668,-0.9170226454734802,0.1503583043813705,-1.663281798362732,2.2981131076812744,81.680419921875,36.07,0
-0.1489304304122924,-0.9131632447242736,0.1636645942926406,-5.302002906799316,2.2980945110321045,81.68026733398438,36.07,0
-0.2075304687023162,-0.9274798631668092,0.1778015792369842,-7.816253185272217,2.305427074432373,81.68016815185547,36.07,0
-0.2899187803268432,-0.9814496040344238,0.1756783425807953,-9.590970993041992,2.3101327419281006,81.68010711669922,36.07,0
-0.4155619442462921,-1.105648636817932,0.1631202101707458,-11.080974578857422,2.313152551651001,81.68006896972656,36.07,0
-0.5073880553245544,-1.2133413553237915,0.15506112575531,-12.843252182006836,2.3150906562805176,81.68004608154297,36.07,0
-0.5327301025390625,-1.2040834426879885,0.1442915052175521,-15.106274604797363,2.3163342475891118,81.6800308227539,36.07,0
-0.4426354467868805,-1.0917845964431765,0.1597712785005569,-17.447031021118164,2.317132472991944,81.68002319335938,36.07,0
-0.3512312471866607,-1.0421087741851809,0.1864986270666122,-19.096078872680664,2.317644596099853,81.68001556396484,36.07,0
-0.2533888816833496,-1.043816328048706,0.2260417938232422,-19.273029327392575,2.3179733753204346,81.68000793457031,36.07,0
-0.2017948180437088,-1.0729010105133057,0.2514183223247528,-17.387510299682617,2.321856737136841,81.68000793457031,36.07,0
-0.2246624678373336,-1.0915658473968506,0.2565079629421234,-13.440403938293455,2.324348926544189,81.68000793457031,36.07,0
-0.2841198146343231,-1.0363706350326538,0.242980882525444,-8.234776496887207,2.3259482383728027,81.68000793457031,36.07,0
-0.3222761154174804,-0.9841561317443848,0.2398977577686309,-2.945183753967285,2.326974630355835,81.68000793457031,36.07,0
-0.3299692869186401,-0.9450501203536988,0.2267236411571502,1.5384753942489624,2.3276333808898926,81.68000793457031,36.07,0
-0.2957219183444977,-0.9143563508987428,0.2182692438364029,5.04278039932251,2.32805609703064,81.68000793457031,36.07,0
-0.2345595061779022,-0.8890610933303833,0.2128437012434005,8.198033332824707,2.328327178955078,81.68000793457031,36.07,0
-0.2177000790834427,-0.8672302961349487,0.1813730299472808,11.799226760864258,2.3285012245178223,81.68000793457031,36.07,0
-0.2012829035520553,-0.8476227521896362,0.1555791944265365,15.933795928955078,2.3258585929870605,81.57252502441406,36.07,0
-0.1963450759649276,-0.8182464241981506,0.1334284245967865,20.299596786499023,2.324162721633911,81.50354766845703,36.07,0
-0.1931762546300888,-0.8049921989440918,0.1192133277654647,25.322511672973636,2.3230743408203125,81.45928192138672,36.07,0
-0.1911426931619644,-0.8188774585723877,0.1044931262731552,31.716508865356445,2.322376012802124,81.43087768554688,36.07,0
-0.2178265452384948,-0.827788233757019,0.095046542584896,38.463748931884766,2.321927785873413,81.41265106201172,36.07,0
-0.2517440319061279,-0.8502999544143677,0.0889842733740806,42.57878494262695,2.3216402530670166,81.40095520019531,36.07,0
-0.2623147666454315,-0.9767022132873536,0.0850938558578491,41.80179977416992,2.321455717086792,81.39344787597656,36.07,0
-0.2914895415306091,-1.1026021242141724,0.0825972110033035,36.55268096923828,2.3213372230529785,81.38862609863281,36.07,0
-0.3437989056110382,-1.149810791015625,0.103386104106903,28.591238021850582,2.3258514404296875,81.38553619384766,36.07,0
-0.3941613435745239,-1.1073354482650757,0.1391183137893676,19.19011688232422,2.3287484645843506,81.38355255126953,36.07,0
-0.3928944170475006,-1.063283920288086,0.16764697432518,9.334409713745115,2.330607652664185,81.38227844238281,36.07,0
-0.3193103075027466,-1.046209692955017,0.1859550178050995,0.7203177809715271,2.331800699234009,81.38146209716797,36.07,0
-0.2440993934869766,-1.024056911468506,0.1977040618658065,-4.213002681732178,2.332566261291504,81.38093566894531,36.07,0
-0.2070289105176925,-0.9930472373962402,0.1940483748912811,-3.9396512508392334,2.333057641983032,81.38059997558594,36.07,0
-0.2056303024291992,-0.956353724002838,0.1805068254470825,-0.3858612477779388,2.333373069763184,81.38038635253906,36.07,0
-0.2271238565444946,-0.927208125591278,0.1718166321516037,1.4970908164978027,2.333575487136841,81.3802490234375,36.07,0
-0.2745038270950317,-0.8917108178138733,0.1718375384807586,-1.2031289339065552,2.3382956981658936,81.38015747070312,36.07,0
-0.3105073273181915,-0.8689306974411011,0.1718509644269943,-6.289265155792236,2.341324806213379,81.38009643554688,36.07,0
-0.3504056334495544,-0.8599095344543457,0.1606640219688415,-10.459647178649902,2.343268871307373,81.38005828857422,36.07,0
-0.3760100603103637,-0.870913565158844,0.1422893404960632,-13.48705005645752,2.3445162773132324,81.38003540039062,36.07,0
-0.386843740940094,-0.8891708850860596,0.1360953003168106,-16.18220329284668,2.3453168869018555,81.38002014160156,36.07,0
-0.3826006352901459,-0.9120829105377196,0.1433158665895462,-17.59653091430664,2.34583067893982,81.38001251220703,36.07,0
-0.3742798864841461,-0.9267865419387816,0.1479496210813522,-17.06755256652832,2.346160411834717,81.3800048828125,36.07,0
-0.3689400851726532,-0.9474180340766908,0.1789121627807617,-15.889761924743652,2.34637188911438,81.3800048828125,36.07,0
-0.359915554523468,-0.9718536734580994,0.2099776864051818,-14.664606094360352,2.3437538146972656,81.3800048828125,36.07,0
-0.3765152096748352,-1.015523910522461,0.2299137562513351,-11.872129440307615,2.342073678970337,81.3800048828125,36.07,0
-0.4151567816734314,-1.0883312225341797,0.2818920016288757,-6.97756814956665,2.3409953117370605,81.3800048828125,36.07,0
-0.4567480683326721,-1.118261456489563,0.2984553277492523,-2.6112794876098637,2.340303421020508,81.3800048828125,36.07,0
-0.5282211303710938,-1.0758934020996094,0.3146824836730957,-2.313467264175415,2.3398592472076416,81.3800048828125,36.07,0
-0.5181106925010681,-1.037508487701416,0.358682781457901,-7.471133708953857,2.3395743370056152,81.3800048828125,36.07,0
-0.4668402075767517,-1.0576574802398682,0.3869196474552154,-16.4343318939209,2.3393914699554443,81.3800048828125,36.07,0
-0.355568915605545,-1.12656569480896,0.3546604812145233,-25.1384391784668,2.3392741680145264,81.3800048828125,36.07,0
-0.2841614186763763,-1.1819825172424316,0.3171650767326355,-29.029674530029297,2.3369035720825195,81.297607421875,36.09,0
-0.2047495394945144,-1.1895569562911987,0.3210915625095367,-26.2532958984375,2.3353822231292725,81.2447280883789,36.09,0
-0.0754187330603599,-1.127244472503662,0.3236113488674164,-19.112041473388672,2.334405899047852,81.2107925415039,36.09,0
0.007578345015645,-1.081658124923706,0.3420217335224151,-11.666717529296877,2.3337793350219727,81.18901062011719,36.09,0
0.032852217555046,-1.0356101989746094,0.297858715057373,-6.272534370422363,2.3333773612976074,81.17503356933594,36.09,0
0.0602670833468437,-1.000461459159851,0.2695174217224121,-2.8001105785369877,2.3331193923950195,81.16606903076172,36.09,0
-0.0340951234102249,-1.0058939456939695,0.2177429646253585,-0.2206165641546249,2.332953691482544,81.16031646728516,36.09,0
-0.1450313329696655,-0.9925868511199952,0.1565282195806503,2.0402095317840576,2.3328473567962646,81.15662384033203,36.09,0
-0.2162237912416458,-0.967253804206848,0.1116463467478752,3.9711427688598633,2.331861019134521,81.15425109863281,36.09,0
-0.2339221537113189,-0.9118120670318604,0.0716481953859329,5.418094158172607,2.331228017807007,81.15272521972656,36.09,0
-0.2340843826532364,-0.8482438921928406,0.0459796860814094,6.504297256469727,2.3308217525482178,81.15174865722656,36.09,0
-0.2173951715230941,-0.7738628387451172,0.0351048894226551,7.882049560546875,2.33056116104126,81.151123046875,36.09,0
-0.1954894512891769,-0.7149338126182556,0.033723846077919,10.421361923217772,2.3303937911987305,81.15071868896484,36.09,0
-0.1870293915271759,-0.6827143430709839,0.0328375734388828,14.651895523071287,2.3302865028381348,81.15045928955078,36.09,0
-0.1983935385942459,-0.6844288110733032,0.0434643626213073,20.659194946289062,2.3302175998687744,81.15029907226562,36.09,0
-0.2168819457292556,-0.7079201936721802,0.0558817982673645,27.957189559936523,2.330173254013061,81.15019226074219,36.09,0
-0.2399422824382782,-0.8237555623054504,0.0694483667612075,34.55371856689453,2.331981420516968,81.1501235961914,36.09,0
-0.2883277237415313,-1.1220029592514038,0.0781546086072921,36.96345901489258,2.333141803741455,81.15007781982422,36.09,0
-0.341769814491272,-1.402965426445007,0.0781439989805221,32.820762634277344,2.3338863849639893,81.1500473022461,36.09,0
-0.4600324928760528,-1.4657176733016968,0.0837349668145179,23.25501251220703,2.334364175796509,81.15003204345703,36.09,0
-0.5695133209228516,-1.382837414741516,0.0985184758901596,11.964520454406738,2.3346707820892334,81.1500244140625,36.09,0
-0.4942296743392944,-1.2456830739974976,0.0912123620510101,2.8165857791900635,2.334867477416992,81.15001678466797,36.09,0
-0.3451570272445678,-1.2192407846450806,0.1145125851035118,-1.4275429248809814,2.334993839263916,81.15000915527344,36.09,0
-0.2438930124044418,-1.1798804998397827,0.1350630968809127,-0.1494436562061309,2.3350749015808105,81.15000915527344,36.09,0
-0.1789075881242752,-1.1042413711547852,0.1202623695135116,4.19602108001709,2.3374218940734863,81.15000915527344,36.09,0
-0.1875836551189422,-1.016516089439392,0.0715796947479248,7.50058126449585,2.338927984237671,81.15000915527344,36.09,0
-0.2267381101846695,-0.9490235447883606,0.023544630035758,7.29974889755249,2.3398945331573486,81.15000915527344,36.09,0
-0.2966473698616028,-0.883319616317749,-0.0184770580381155,4.211658477783203,2.340514898300171,81.15000915527344,36.09,0
-0.3415111005306244,-0.8355568647384644,-0.0398463830351829,0.1305105686187744,2.3409128189086914,81.15000915527344,36.09,0
-0.3703020811080932,-0.8105032444000244,-0.0423644371330738,-3.989634275436402,2.3411684036254883,81.15000915527344,36.09,0
-0.3831807076931,-0.8000230193138123,-0.0383826047182083,-8.109726905822754,2.341332197189331,81.15000915527344,36.09,0
-0.3858476877212524,-0.8044930100440979,-0.0302295200526714,-11.674487113952637,2.341437339782715,81.15000915527344,36.09,0
-0.398754745721817,-0.8353504538536072,0.0029915331397205,-13.270708084106444,2.330947160720825,81.08193969726562,36.09,0
-0.4238310754299164,-0.8719462752342224,0.0411042124032974,-11.912657737731934,2.324215173721313,81.03825378417969,36.09,0
-0.4343258440494537,-0.923420250415802,0.0935516133904457,-8.776951789855957,2.319894790649414,81.01021575927734,36.09,0
-0.4298652410507202,-0.9620510935783386,0.1328071057796478,-7.631619453430176,2.317122220993042,80.99222564697266,36.09,0
-0.39341601729393,-1.026026487350464,0.1747923493385315,-12.148667335510254,2.315342903137207,80.98068237304688,36.09,0
-0.3196450471878052,-1.08387553691864,0.2577137947082519,-21.65730094909668,2.3142011165618896,80.97327423095703,36.09,0
-0.2331186681985855,-1.120999813079834,0.3557102084159851,-31.11268424987793,2.3134684562683105,80.96852111816406,36.09,0
-0.2223732024431228,-1.1840084791183472,0.4633808732032776,-36.38885498046875,2.3129982948303223,80.96546936035156,36.09,0
-0.1874885112047195,-1.179661512374878,0.5380754470825195,-37.90827941894531,2.3182051181793213,80.96350860595703,36.09,0
-0.1483082026243209,-1.1600786447525024,0.4908479750156402,-38.09518814086914,2.3215465545654297,80.96224975585938,36.09,0
-0.2519133388996124,-1.141913652420044,0.3541823923587799,-37.14752960205078,2.323690891265869,80.96144104003906,36.09,0
-0.2568256556987762,-1.1190608739852903,0.3000649511814117,-33.12160110473633,2.325067043304444,80.96092224121094,36.09,0
-0.1480225920677185,-1.0876020193099976,0.3213132321834564,-25.23577880859375,2.3259501457214355,80.9605941772461,36.09,0
-0.0558079592883586,-1.14018452167511,0.3629380166530609,-15.145174980163574,2.32651686668396,80.96038055419922,36.09,0
0.00337008619681,-1.17392897605896,0.3840526342391968,-4.872076988220215,2.32688045501709,80.96024322509766,36.09,0
-0.003435046877712,-1.139606475830078,0.3136361539363861,4.500685691833496,2.3271138668060303,80.96015930175781,36.09,0
-0.0301932878792285,-1.0951892137527466,0.229262501001358,11.876962661743164,2.3249683380126958,80.96009826660156,36.09,0
-0.0865496098995208,-1.0498913526535034,0.1303341537714004,16.359851837158203,2.323591470718384,80.9600601196289,36.09,0
-0.1451069414615631,-1.0096262693405151,0.0612498596310615,18.821134567260746,2.3227078914642334,80.96003723144531,36.09,0
-0.2218700945377349,-0.9837864637374878,0.011317765340209,21.296287536621094,2.32214093208313,80.96002197265625,36.09,0
-0.282327800989151,-0.967203974723816,-0.0263235569000244,24.68673324584961,2.321776866912842,80.96001434326172,36.09,0
-0.3155283033847809,-0.9397689700126648,-0.0448818169534206,28.460355758666992,2.3215434551239014,80.96000671386719,36.09,0
-0.3144433796405792,-0.8717827796936035,-0.0399981141090393,32.43330383300781,2.3213934898376465,80.96000671386719,36.09,0
-0.2913560569286346,-0.8113598823547363,-0.0256684869527816,37.74149703979492,2.321297407150269,80.96000671386719,36.09,0
-0.2541488409042358,-0.7557905912399292,0.0003207658301107,45.70502853393555,2.31985855102539,80.96000671386719,36.09,0
-0.2190758436918258,-0.7257272005081177,0.0225969459861516,55.680702209472656,2.3189351558685303,80.96000671386719,36.09,0
-0.2077635526657104,-0.7232275605201721,0.0368925146758556,63.51912689208984,2.318342447280884,80.96000671386719,36.09,0
-0.222895085811615,-0.7664056420326233,0.051664363592863,62.3551025390625,2.317962169647217,80.96000671386719,36.09,0
-0.2438011765480041,-0.8556903600692749,0.0611440874636173,47.06283950805664,2.317718029022217,80.96000671386719,36.09,0
-0.2628152668476105,-0.952172577381134,0.0616298541426658,19.347017288208008,2.317561388015747,80.96000671386719,36.09,0
-0.2862129807472229,-1.126044750213623,0.0563438162207603,-12.37203884124756,2.3174610137939453,80.96000671386719,36.09,0
-0.3180215954780578,-1.2600170373916626,0.0585493147373199,-38.387969970703125,2.317396640777588,80.96000671386719,36.09,0
-0.3664233982563019,-1.222841739654541,0.0879535526037216,-52.53987121582031,2.320568561553955,80.88835144042969,36.07,0
-0.3638982474803924,-1.131811499595642,0.1180190443992614,-53.679176330566406,2.322603940963745,80.84236907958984,36.07,0
-0.3286911249160766,-1.1069800853729248,0.1485088914632797,-45.48253631591797,2.3239102363586426,80.81285858154297,36.07,0
-0.2669127881526947,-1.091044783592224,0.1848688423633575,-34.321903228759766,2.324748516082764,80.7939224243164,36.07,0
-0.2216692268848419,-1.0640250444412231,0.1970070302486419,-24.93845558166504,2.325286388397217,80.78176879882812,36.07,0
-0.1926345229148864,-1.0075008869171145,0.1768077462911605,-17.748779296875,2.325631618499756,80.77397155761719,36.07,0
-0.1963928192853927,-0.9488359093666076,0.1414539068937301,-10.677212715148926,2.325853109359741,80.76896667480469,36.07,0
-0.215598002076149,-0.905590295791626,0.1131680756807327,-2.972090721130371,2.3259952068328857,80.76575469970703,36.07,0
-0.2615094184875488,-0.889033317565918,0.1118091791868209,3.656423091888428,2.325627565383911,80.7636947631836,36.07,0
-0.3021682798862457,-0.8840057849884033,0.1109371185302734,7.448069095611572,2.3253915309906006,80.76237487792969,36.07,0
-0.3562496602535248,-0.891974925994873,0.1159752532839775,8.73848819732666,2.325240135192871,80.76152801513672,36.07,0
-0.3909559845924377,-0.9026868343353271,0.1415995359420776,9.154608726501465,2.3251430988311768,80.76097869873047,36.07,0
-0.4020329415798187,-0.9039633870124816,0.174837052822113,9.75124740600586,2.325080633163452,80.76062774658203,36.07,0
-0.4371303915977478,-0.8991848230361938,0.2185580730438232,9.962172508239746,2.325040578842163,80.76040649414062,36.07,0
-0.4596539139747619,-0.8961182236671448,0.2634090185165405,7.278045177459717,2.325015068054199,80.76026153564453,36.07,0
-0.4573148787021637,-0.8997480273246765,0.314582884311676,-0.5850082039833069,2.324998617172241,80.76016998291016,36.07,0
-0.444618284702301,-0.9860440492630004,0.3474233150482178,-12.015213012695312,2.323610782623291,80.7601089477539,36.07,0
-0.4476658701896667,-1.091803789138794,0.3740961849689483,-22.27384185791016,2.3227202892303467,80.76007080078125,36.07,0
-0.4888060688972473,-1.1428810358047483,0.3856155276298523,-28.649450302124023,2.32214879989624,80.76004791259766,36.07,0
-0.4928163886070251,-1.1476706266403198,0.3986057639122009,-32.23580551147461,2.321782112121582,80.7600326538086,36.07,0
-0.4338144659996032,-1.0723754167556765,0.4237354695796966,-34.80601501464844,2.321546792984009,80.76002502441406,36.07,0
-0.384754866361618,-0.9792730808258056,0.417471170425415,-36.66679763793945,2.3213956356048584,80.76001739501953,36.07,0
-0.3532712459564209,-0.9307209253311156,0.3910599946975708,-37.00470733642578,2.321298599243164,80.760009765625,36.07,0
-0.3666535019874573,-0.9611384272575378,0.323730856180191,-34.502384185791016,2.3212363719940186,80.760009765625,36.07,0
-0.3864370286464691,-1.0086475610733032,0.2637295722961426,-28.40040397644043,2.321655511856079,80.760009765625,36.07,0
-0.40473073720932,-1.0951138734817505,0.2308219820261001,-19.726844787597656,2.3219244480133057,80.760009765625,36.07,0
-0.3716883659362793,-1.1617985963821411,0.2153015583753585,-10.760788917541504,2.322097063064575,80.760009765625,36.07,0
-0.3336903750896454,-1.1877996921539309,0.1997436583042144,-3.2263498306274414,2.3222076892852783,80.760009765625,36.07,0
-0.2757188081741333,-1.142910122871399,0.167368397116661,2.468637704849243,2.3222787380218506,80.760009765625,36.07,0
-0.2329182028770446,-1.0917115211486816,0.140994057059288,6.542514324188232,2.322324275970459,80.760009765625,36.07,0
-0.2278423309326172,-1.0196707248687744,0.1128729656338691,9.22496223449707,2.3223536014556885,80.760009765625,36.07,0
-0.2525738179683685,-0.9510480165481568,0.0668376013636589,10.874752044677734,2.322372436523437,80.760009765625,36.07,0
-0.2740428149700165,-0.9014121294021606,0.0316969752311706,12.2093505859375,2.321925640106201,80.69194030761719,36.09,0
-0.276624858379364,-0.8527653813362122,0.0147435199469327,14.08685302734375,2.321638822555542,80.64825439453125,36.09,0
-0.2726840674877167,-0.8103511333465576,0.0094615425914525,16.986284255981445,2.321454763412476,80.6202163696289,36.09,0
-0.2533617913722992,-0.7551432251930237,0.0228651966899633,20.774396896362305,2.3213367462158203,80.60222625732422,36.09,0
-0.2409618496894836,-0.7253117561340332,0.0426624380052089,25.172224044799805,2.321260929107666,80.59068298339844,36.09,0
-0.2441998422145843,-0.7229609489440918,0.0721604898571968,30.33033561706543,2.3212122917175293,80.5832748413086,36.09,0
-0.2742666602134704,-0.7494412064552307,0.1302750706672668,36.34177780151367,2.321181058883667,80.57852172851562,36.09,0
-0.2991595864295959,-0.7832280397415161,0.1899607479572296,41.557373046875,2.3211610317230225,80.57546997070312,36.09,0
-0.2927433550357818,-0.8720837831497192,0.2226658165454864,42.24975204467773,2.318852663040161,80.5735092163086,36.09,0
-0.3334079682826996,-1.013072848320007,0.2492518126964569,35.539676666259766,2.317371368408203,80.57225036621094,36.09,0
-0.3595041632652282,-1.1035515069961548,0.3054975867271423,22.380992889404297,2.316420793533325,80.57144165039062,36.09,0
-0.3538601100444793,-1.049660086631775,0.4143639802932739,7.004222393035889,2.3158106803894043,80.5709228515625,36.09,0
-0.3782269656658172,-0.9758912324905396,0.4730325937271118,-5.68677282333374,2.3154191970825195,80.57059478759766,36.09,0
-0.3546797931194305,-0.9845283627510072,0.454704999923706,-12.218964576721191,2.3151679039001465,80.57038116455078,36.09,0
-0.1996242105960846,-1.0012667179107666,0.5325077772140503,-12.01154613494873,2.315006732940674,80.57024383544922,36.09,0
-0.2232694923877716,-1.0288017988204956,0.5320571660995483,-7.511277198791504,2.314903259277344,80.57015991210938,36.09,0
-0.3000192046165466,-0.9792988896369934,0.4086169600486755,-2.050974130630493,2.320345401763916,80.57009887695312,36.09,0
-0.3548705279827118,-0.936335265636444,0.3405956923961639,2.4956634044647217,2.323837995529175,80.57006072998047,36.09,0
-0.4124620258808136,-0.903165876865387,0.2857480049133301,6.040384292602539,2.3260793685913086,80.57003784179688,36.09,0
-0.4046387374401092,-0.8818796873092651,0.2617454528808594,9.031697273254396,2.3275177478790283,80.57002258300781,36.09,0
-0.3828248977661133,-0.8682194352149963,0.2575375437736511,11.087488174438477,2.3284406661987305,80.57001495361328,36.09,0
-0.3632282316684723,-0.8706486225128174,0.254837155342102,10.948667526245115,2.329033136367798,80.57000732421875,36.09,0
-0.3506522476673126,-0.8666097521781921,0.2475064396858215,7.850216865539551,2.3294131755828857,80.57000732421875,36.09,0
-0.370570570230484,-0.8696156144142151,0.2483997792005539,2.4655282497406006,2.329657077789306,80.57000732421875,36.09,0
-0.3945485353469848,-0.8659468293190002,0.2713641822338104,-3.7056477069854736,2.322927951812744,80.57000732421875,36.09,0
-0.4043384492397308,-0.8579946756362915,0.2693080902099609,-9.453658103942873,2.318609476089477,80.57000732421875,36.09,0
-0.4106210470199585,-0.8528913855552673,0.2288041710853576,-14.177764892578123,2.315838098526001,80.57000732421875,36.09,0
-0.4202506244182586,-0.8608119487762451,0.1972133219242096,-17.599925994873047,2.3140597343444824,80.57000732421875,36.09,0
-0.4432236552238464,-0.8770904541015625,0.1601468026638031,-19.753080368041992,2.3129184246063232,80.57000732421875,36.09,0
-0.4523686468601227,-0.9435148239135742,0.113968551158905,-21.16709518432617,2.3121860027313232,80.57000732421875,36.09,0
-0.4694329500198364,-0.9917399287223816,0.0843340083956718,-22.715808868408203,2.311716079711914,80.57000732421875,36.09,0
-0.4971771538257599,-1.056274652481079,0.0653162598609924,-25.146297454833984,2.3114144802093506,80.57000732421875,36.09,0
-0.5149818062782288,-1.1032871007919312,0.0475139915943145,-28.28954124450684,2.3130571842193604,80.46969604492188,36.09,0
-0.5096144676208496,-1.088674783706665,0.0248939711600542,-30.34252166748047,2.3141114711761475,80.40531921386719,36.09,0
-0.4725833535194397,-1.0177220106124878,-0.0120133534073829,-28.7831974029541,2.3147881031036377,80.36400604248047,36.09,0
-0.4432211518287658,-0.9945796728134156,-0.0468938983976841,-22.820646286010746,2.3152222633361816,80.33749389648438,36.09,0
-0.4411714971065521,-1.018912672996521,-0.0860715508460998,-14.250893592834473,2.315500974655152,80.32048034667969,36.09,0
-0.4678450226783752,-1.028930425643921,-0.1280068308115005,-5.344290733337402,2.315679788589477,80.30956268310547,36.09,0
-0.4961581230163574,-0.984979212284088,-0.1773095875978469,2.979569673538208,2.3157944679260254,80.30255126953125,36.09,0
-0.4639478623867035,-0.923187255859375,-0.2089492529630661,10.639270782470703,2.315868139266968,80.29805755615234,36.09,0
-0.4264838397502899,-0.8779349327087402,-0.2236559987068176,17.24580192565918,2.317751407623291,80.29517364501953,36.09,0
-0.3912460505962372,-0.8488945960998535,-0.2274961620569229,22.38113594055176,2.318959951400757,80.29331970214844,36.09,0
-0.3686324656009674,-0.8302581906318665,-0.2243627905845642,26.658323287963867,2.319735527038574,80.29212951660156,36.09,0
-0.3653159141540527,-0.8294939398765564,-0.2111564129590988,31.577800750732425,2.3202333450317383,80.29136657714844,36.09,0
-0.3687853217124939,-0.8290035128593445,-0.1970835477113723,37.86600875854492,2.3205528259277344,80.29087829589844,36.09,0
-0.3654139935970306,-0.8286888003349304,-0.1880524009466171,44.215763092041016,2.3207578659057617,80.29056549072266,36.09,0
-0.3520549237728119,-0.845280110836029,-0.1654634028673172,48.254844665527344,2.320889472961426,80.29035949707031,36.09,0
-0.3434818387031555,-0.8727208375930786,-0.1397715359926223,49.18099594116211,2.320973873138428,80.29022979736328,36.09,0
-0.3379801213741302,-0.918319582939148,-0.09529510140419,48.97643280029297,2.320109844207764,80.29014587402344,36.09,0
-0.3232538998126983,-0.9531799554824828,-0.0499593615531921,49.65840148925781,2.319555282592773,80.29009246826172,36.09,0
-0.2970101237297058,-0.9979424476623536,-0.0096699446439743,48.91738128662109,2.319199323654175,80.2900619506836,36.09,0
-0.2913639545440674,-1.0658528804779053,0.0441743545234203,40.96858215332031,2.3189709186553955,80.2900390625,36.09,0
-0.3101316392421722,-1.0870428085327148,0.106717400252819,23.53269386291504,2.318824529647827,80.29002380371094,36.09,0
-0.3837511837482452,-1.0166746377944946,0.1860383450984954,1.330507516860962,2.318730592727661,80.2900161743164,36.09,0
-0.3694204688072204,-0.9491252899169922,0.2201486378908157,-18.98287773132324,2.3186702728271484,80.29000854492188,36.09,0
-0.3378327190876007,-0.939362645149231,0.2364408820867538,-34.02149963378906,2.318631410598755,80.29000854492188,36.09,0
-0.2951704263687134,-0.977879762649536,0.1965163499116897,-42.59406661987305,2.323197364807129,80.29000854492188,36.09,0
-0.2454011291265487,-0.9970000386238098,0.2884483337402344,-44.01847457885742,2.326127529144287,80.29000854492188,36.09,0
-0.2806353569030761,-1.0036725997924805,0.3194561302661896,-39.61245346069336,2.328007936477661,80.29000854492188,36.09,0
-0.3648221790790558,-0.9687702059745787,0.2945729494094848,-32.707950592041016,2.329214572906494,80.29000854492188,36.09,0
-0.4244461953639984,-0.9239807724952698,0.2562132477760315,-25.78714942932129,2.329988956451416,80.29000854492188,36.09,0
-0.4403183758258819,-0.884041965007782,0.1980095654726028,-19.47925567626953,2.330485820770264,80.29000854492188,36.09,0
-0.4113197922706604,-0.852813720703125,0.1662555634975433,-14.377934455871582,2.3308048248291016,80.29000854492188,36.09,0
-0.3703190684318542,-0.8495665788650513,0.1570732146501541,-11.72398567199707,2.3310093879699707,80.29000854492188,36.09,0
-0.3440071642398834,-0.8586782813072205,0.1623760610818863,-11.890938758850098,2.3270092010498047,80.28642272949219,36.07,0
-0.3271217048168182,-0.8645256757736206,0.182572454214096,-13.757124900817873,2.324442148208618,80.28411865234375,36.07,0
-0.3050900399684906,-0.8682782053947449,0.1731422394514084,-16.072498321533203,2.322794914245605,80.28264617919922,36.07,0
-0.2909514009952545,-0.8706863522529602,0.1670904606580734,-18.39669418334961,2.321737766265869,80.28170013427734,36.07,0
-0.2818780243396759,-0.8610361814498901,0.1800001114606857,-20.511598587036133,2.321059226989746,80.28108978271484,36.07,0
-0.3040441274642944,-0.8716366291046143,0.1994803249835968,-21.929725646972656,2.320623874664306,80.28070068359375,36.07,0
-0.3406601548194885,-0.8952326774597168,0.2287749350070953,-22.420637130737305,2.3203444480896,80.28044891357422,36.07,0
-0.4033426344394684,-0.9327663779258728,0.2475745230913162,-22.509973526000977,2.3201651573181152,80.28028869628906,36.07,0
-0.4435686469078064,-0.9624511003494264,0.2428456991910934,-23.15484619140625,2.316377639770508,80.28018188476562,36.07,0
-0.4637856185436249,-1.0150877237319946,0.2286154627799987,-25.00888442993164,2.3139469623565674,80.28011322021484,36.07,0
-0.4823574721813202,-1.0768557786941528,0.2306788563728332,-27.72129440307617,2.312387228012085,80.28007507324219,36.07,0
-0.4942758083343506,-1.0885059833526611,0.2376008033752441,-29.870376586914062,2.311386108398437,80.28004455566406,36.07,0
-0.4571421146392822,-1.0064181089401243,0.2196518182754516,-29.752016067504883,2.310743808746338,80.280029296875,36.07,0
-0.4109207689762115,-0.9257499575614928,0.1913398653268814,-26.38725471496582,2.3103315830230717,80.28002166748047,36.07,0
-0.3588674664497375,-0.952350616455078,0.1451820135116577,-20.04707908630371,2.310066938400269,80.28001403808594,36.07,0
-0.3758426308631897,-1.0477901697158811,0.1267561018466949,-11.940756797790527,2.309897184371948,80.2800064086914,36.07,0
-0.4259207248687744,-1.120233416557312,0.1149314194917678,-3.2563223838806152,2.315755844116211,80.2800064086914,36.07,0
-0.430069088935852,-1.1667232513427734,0.1129407882690429,5.340541839599609,2.3195154666900635,80.2800064086914,36.07,0
-0.3823513090610504,-1.1685688495635986,0.1060655415058136,13.164692878723145,2.3219282627105717,80.2800064086914,36.07,0
-0.3125443458557129,-1.09698224067688,0.0848600789904594,19.14233016967773,2.323476552963257,80.2800064086914,36.07,0
-0.2677462697029114,-1.0454442501068115,0.0656538605690002,22.652420043945312,2.324470281600952,80.2800064086914,36.07,0
-0.2333996593952179,-1.017967939376831,0.0533284172415733,24.113243103027344,2.3251078128814697,80.2800064086914,36.07,0
-0.2337490767240524,-0.9891396760940552,0.0398208834230899,24.355697631835938,2.325516939163208,80.2800064086914,36.07,0
-0.2395710945129394,-0.9594438076019288,0.0199569761753082,24.22468376159668,2.325779676437378,80.2800064086914,36.07,0
-0.2377095520496368,-0.9235934019088744,-0.0095838587731122,24.9860954284668,2.3241121768951416,80.2800064086914,36.07,0
