acc_x,acc_y,acc_z,bvp,eda,hr,temp,label
0.0,0.0,0.0,0.0,0.0,0.0,25.61,0
-0.0156249990686774,-0.1614583283662796,0.0520833283662796,-0.2399999946355819,0.810754120349884,9.249999046325684,25.61,0
-0.0282012186944484,-0.3738567233085632,0.1177591457962989,-0.8087804913520813,1.8983511924743648,21.658536911010746,25.61,0
-0.054090529680252,-0.5336897969245911,0.1748857945203781,-1.6766778230667114,2.8443734645843506,32.45182800292969,25.61,0
-0.0729781836271286,-0.6716494560241699,0.2219009697437286,-2.555840015411377,3.5345475673675537,40.326114654541016,25.61,0
-0.0802761986851692,-0.765053927898407,0.2537322342395782,-3.277553081512451,4.001824855804443,45.65734100341797,25.61,0
-0.079511672258377,-0.8096814751625061,0.2746181190013885,-3.8683815002441406,4.3084259033203125,49.155391693115234,25.61,0
-0.106913186609745,-0.8162672519683838,0.2881448864936828,-4.236749172210693,4.506996154785156,51.42090606689453,25.61,0
-0.1581055223941803,-0.8093292713165283,0.3136289715766907,-4.334510326385498,4.573939323425293,52.88028717041016,25.61,0
-0.1406572163105011,-0.866411030292511,0.313224732875824,-4.594276905059815,4.616966724395752,53.81829452514648,25.61,0
-0.1798210740089416,-0.936645209789276,0.245807334780693,-5.692342281341553,4.644596576690674,54.42063903808594,25.61,0
-0.199363574385643,-0.9817293882369996,0.2305175215005874,-7.876667022705078,4.662332534790039,54.80729293823242,25.61,0
-0.1671257466077804,-0.9770796298980712,0.2207043319940567,-10.63991928100586,4.673716068267822,55.055450439453125,25.61,0
-0.1408387571573257,-0.962900161743164,0.2088088244199752,-12.889769554138184,4.681021690368652,55.2147102355957,25.61,0
-0.1239689663052558,-0.9370071887969972,0.2123703062534332,-13.8499755859375,4.6857099533081055,55.3169174194336,25.61,0
-0.1243383437395095,-0.9483792781829834,0.2090581208467483,-14.004034996032717,4.688718795776367,55.38250732421875,25.61,0
-0.1245753839612007,-0.9612749814987184,0.2013347744941711,-14.522062301635742,4.68238639831543,55.424598693847656,25.61,0
-0.1247275024652481,-0.9527574181556702,0.2019761353731155,-15.818215370178224,4.678322792053223,55.45161056518555,25.61,0
-0.1472162157297134,-0.9584868550300598,0.19678995013237,-17.77852439880371,4.67571496963501,55.46894454956055,25.61,0
-0.1504526436328888,-0.9565659165382384,0.1934617608785629,-21.114431381225582,4.674041748046875,55.480072021484375,25.61,0
-0.1637251377105713,-0.9497354030609132,0.1913259178400039,-26.848546981811523,4.672967910766602,55.487213134765625,25.61,0
-0.1722426563501358,-0.9453519582748412,0.1843574792146682,-34.38680648803711,4.67227840423584,55.49179458618164,25.61,0
-0.1777087152004242,-0.936941146850586,0.185483306646347,-42.0045051574707,4.671835899353027,55.49473571777344,25.61,0
-0.1756187379360199,-0.920348048210144,0.1862058043479919,-49.791412353515625,4.6715521812438965,55.496620178222656,25.61,0
-0.1686797440052032,-0.9600794911384584,0.1754739135503769,-60.07648086547852,4.755834579467773,55.49782943725586,25.61,0
-0.1586289256811142,-0.9575880169868468,0.174184575676918,-73.82050323486328,4.809922218322754,55.49860763549805,25.61,0
-0.1689722090959549,-0.9503913521766664,0.1677593737840652,-88.91371154785156,4.844632625579834,55.49910736083984,25.61,0
-0.1700121611356735,-0.9569684863090516,0.1636360585689544,-103.5687026977539,4.866907596588135,55.49942779541016,25.61,0
-0.1706795394420623,-0.9555914998054504,0.1609899401664734,-119.31816864013672,4.881202697753906,55.4996337890625,25.61,0
-0.1655100435018539,-0.9547078609466552,0.1536940485239029,-139.46365356445312,4.890376091003418,55.49976348876953,25.61,0
-0.1621925681829452,-0.9541407823562622,0.1490119695663452,-164.88787841796875,4.896263122558594,55.499847412109375,25.61,0
-0.1600635945796966,-0.9537768959999084,0.1460072696208953,-189.5260162353516,4.900041103363037,55.49990081787109,25.61,0
-0.1586973518133163,-0.9591411352157592,0.1440790295600891,-200.72657775878903,4.887317180633545,56.155548095703125,25.61,0
-0.1578205674886703,-0.962583601474762,0.1428415924310684,-188.32135009765625,4.879151821136475,56.5763053894043,25.61,0
-0.1628556698560714,-0.9535971879959106,0.1476452499628067,-152.1726837158203,4.873911380767822,56.84632110595703,25.61,0
-0.1716846823692321,-0.9478302597999572,0.1507279723882675,-97.6055145263672,4.870548725128174,57.01960372924805,25.61,0
-0.177350640296936,-0.9385315775871276,0.1527062803506851,-27.5964298248291,4.8683905601501465,57.13080596923828,25.61,0
-0.1865845024585724,-0.9213686585426332,0.1483780741691589,54.27130889892578,4.867005825042725,57.20216751098633,25.61,0
-0.1925102621316909,-0.8991589546203613,0.1456004828214645,136.72024536132812,4.866117000579834,57.24796676635742,25.61,0
-0.1907152980566024,-0.8569172024726868,0.1438179761171341,205.1115264892578,4.865546703338623,57.2773551940918,25.61,0
-0.1895633935928344,-0.824211061000824,0.1258807480335235,252.87745666503903,4.855540752410889,57.29621505737305,25.61,0
-0.2000197172164917,-0.8424065709114075,0.1031741127371788,282.8860168457031,4.849119186401367,57.30831909179688,25.61,0
-0.2123277634382248,-0.9324522614479064,0.0830045267939567,299.1630859375,4.844998359680176,57.31608581542969,25.61,0
-0.2146285772323608,-0.9734450578689576,0.0756586268544197,305.126953125,4.842353820800781,57.32107162475586,25.61,0
-0.2273006588220596,-1.0053496360778809,0.0709444507956504,307.9654541015625,4.840656757354736,57.32427215576172,25.61,0
-0.2298350930213928,-1.053813099861145,0.0791147127747535,315.1107482910156,4.8395676612854,57.32632446289063,25.61,0
-0.2258637696504593,-1.0681208372116089,0.0899556875228881,325.4390563964844,4.838868618011475,57.32764053344727,25.61,0
-0.2009241133928299,-1.015727162361145,0.1137061268091201,328.9288330078125,4.838420391082764,57.32848739624024,25.61,0
-0.1849192678928375,-0.9709083437919616,0.1345455646514892,315.3620300292969,4.834001064300537,57.32902908325195,25.59,0
-0.191441610455513,-0.9477440118789672,0.1367235630750656,281.5059509277344,4.831165313720703,57.329376220703125,25.59,0
-0.1956272721290588,-0.9328784942626952,0.1325235068798065,230.0293731689453,4.829345226287842,57.3296012878418,25.59,0
-0.1871178448200225,-0.9289364218711852,0.1298281550407409,163.55490112304688,4.828177452087402,57.32974624633789,25.59,0
-0.1872547566890716,-0.9431999325752258,0.1169028803706169,83.22105407714844,4.827427864074707,57.329837799072266,25.59,0
-0.1873426139354705,-0.9635489583015442,0.1030104085803031,-4.369716167449951,4.82694673538208,57.32989501953125,25.59,0
-0.1873989999294281,-0.98220556974411,0.0884972512722015,-83.37277221679688,4.826638221740723,57.32993316650391,25.59,0
-0.1874351799488067,-0.9997761249542236,0.0679879933595657,-138.67958068847656,4.82643985748291,57.3299560546875,25.59,0
-0.1874583959579467,-1.011051893234253,0.0492285564541816,-167.77383422851562,4.822181224822998,57.32997131347656,25.59,0
-0.176277756690979,-1.0294835567474363,0.0259942803531885,-177.88607788085938,4.819448471069336,57.32998275756836,25.59,0
-0.169102668762207,-1.074898600578308,0.005486084613949,-175.7916717529297,4.817694664001465,57.32999038696289,25.59,0
-0.1589003354310989,-1.1264344453811646,-0.0244682189077138,-166.0464630126953,4.816568851470947,57.32999420166016,25.59,0
-0.1523530632257461,-1.1483116149902344,-0.0548867136240005,-153.44064331054688,4.8158464431762695,57.32999801635742,25.59,0
-0.1537491679191589,-1.145557880401611,-0.0744075551629066,-140.6147918701172,4.815382957458496,57.32999801635742,25.59,0
-0.1210584640502929,-1.1158018112182615,-0.0813371315598487,-126.4833984375,4.815085411071777,57.32999801635742,25.59,0
-0.0776883512735366,-1.0575215816497805,-0.0801863595843315,-110.22803497314452,4.814894676208496,57.32999801635742,25.59,0
-0.0106714908033609,-0.9753385186195374,-0.079447865486145,-94.05341339111328,4.812936305999756,56.94308090209961,25.59,0
0.0435316227376461,-0.9841736555099488,-0.0901694893836975,-80.38824462890625,4.811679363250732,56.69477844238281,25.59,0
0.0951093807816505,-1.0066368579864502,-0.1082455590367317,-68.89238739013672,4.810873031616211,56.53543472290039,25.59,0
0.1394045650959015,-1.015454649925232,-0.1142479628324508,-57.93243408203125,4.810355186462402,56.43317413330078,25.59,0
0.1734284460544586,-0.9931246042251588,-0.1069044098258018,-47.3916244506836,4.810023307800293,56.36754989624024,25.59,0
0.1504808217287063,-0.9396100044250488,-0.0853984206914901,-38.36653518676758,4.809810161590576,56.32543563842773,25.59,0
0.1077654808759689,-0.8996696472167969,-0.0604015663266181,-31.084400177001957,4.809673309326172,56.29840850830078,25.59,0
0.091548778116703,-0.8796359896659851,-0.0387622490525245,-24.72733497619629,4.809585571289063,56.28106689453125,25.59,0
0.0531529635190963,-0.8611817955970764,-0.0248753800988197,-18.860031127929688,4.8095293045043945,56.26993560791016,25.59,0
0.0173171889036893,-0.8437411785125732,-0.0047680381685495,-13.883822441101074,4.809493064880371,56.262794494628906,25.59,0
-0.0280712470412254,-0.8437443375587463,0.019331244751811,-10.188817024230955,4.809469699859619,56.258209228515625,25.59,0
-0.0460033826529979,-0.8717352151870728,0.040394552052021,-7.545300006866455,4.809454917907715,56.25526809692383,25.59,0
-0.0743045136332511,-0.878502607345581,0.0483139976859092,-5.418933868408203,4.809445381164551,56.253379821777344,25.59,0
-0.1260531991720199,-0.8996388912200928,0.0757873356342315,-3.653105974197388,4.809439182281494,56.25217056274414,25.59,0
-0.1816536337137222,-0.9020073413848876,0.0990159213542938,-2.469743251800537,4.8094353675842285,56.25139236450195,25.59,0
-0.2341281026601791,-0.9427117109298706,0.0859338194131851,-1.9073708057403564,4.8094329833984375,56.25089263916016,25.59,0
-0.2510098814964294,-0.9632356762886048,0.0551473796367645,-1.589463472366333,4.812644481658936,56.25057220458984,25.61,0
-0.2674414217472076,-0.99879789352417,0.0241948645561933,-1.1060079336166382,4.8147053718566895,56.2503662109375,25.61,0
-0.2891817688941955,-1.08879292011261,-0.0068642268888652,-0.4410790503025055,4.816028118133545,56.25023651123047,25.61,0
-0.3143290281295776,-1.1689376831054688,-0.037991713732481,0.0608681179583072,4.8168768882751465,56.25015258789063,25.61,0
-0.324869304895401,-1.125207781791687,-0.0523697659373283,0.2361033260822296,4.817421436309815,56.250099182128906,25.61,0
-0.292449027299881,-1.0411667823791504,-0.0615967735648155,0.3055682778358459,4.817770957946777,56.25006484985352,25.61,0
-0.2492524683475494,-1.0152229070663452,-0.0675181373953819,0.4468764066696167,4.817995071411133,56.25004196166992,25.61,0
-0.22153140604496,-1.0433558225631714,-0.0825136750936508,0.5662204623222351,4.81813907623291,56.25002670288086,25.61,0
-0.1981438547372818,-1.0614099502563477,-0.0921369493007659,0.6248957514762878,4.817771911621094,56.25001525878906,25.61,0
-0.1775372922420501,-1.011420488357544,-0.0759215131402015,0.6912107467651367,4.817536354064941,56.2500114440918,25.61,0
-0.1867042779922485,-0.9457535147666932,-0.0431242808699607,0.7122724652290344,4.817385196685791,56.25000762939453,25.61,0
-0.2037826776504516,-0.9148077368736268,-0.0164791326969862,0.5645727515220642,4.817288398742676,56.25000381469727,25.61,0
-0.2203403860330581,-0.9173396229743958,-0.0049775838851928,0.3515625894069671,4.817226409912109,56.25000381469727,25.61,0
-0.2309661656618118,-0.9189644455909728,0.0024034476373344,0.304429292678833,4.81718635559082,56.25000381469727,25.61,0
-0.226589635014534,-0.9144093990325928,0.0127379428595304,0.3458333611488342,4.817160606384277,56.25000381469727,25.61,0
-0.2069877088069915,-0.9114862084388732,0.0305655747652053,0.1896927654743194,4.817144393920898,56.25000381469727,25.61,0
-0.1832127720117569,-0.9040125012397766,0.0420063249766826,-0.0717252045869827,4.826314926147461,56.08878707885742,25.61,0
-0.1623576134443283,-0.8936185240745544,0.0493483394384384,0.0077095287851989,4.832200050354004,55.98532485961914,25.61,0
-0.1489739716053009,-0.88694828748703,0.0484622456133365,0.4527694880962372,4.835976600646973,55.91893005371094,25.61,0
-0.1571784317493438,-0.899461030960083,0.0478936024010181,0.8064522743225098,4.838400363922119,55.87632369995117,25.61,0
-0.1736391335725784,-0.9130887985229492,0.0531264543533325,0.908035397529602,4.839955806732178,55.84897994995117,25.61,0
-0.1898004412651062,-0.9442253708839417,0.0620823726058006,0.9373998641967772,4.840953826904297,55.8314323425293,25.61,0
-0.1889762878417968,-1.0425758361816406,0.0454386658966541,0.8344366550445557,4.841594219207764,55.82017135620117,25.61,0
-0.1828496158123016,-1.1728649139404297,0.0179643724113702,0.3886078298091888,4.842005252838135,55.81294631958008,25.61,0
-0.1957111954689026,-1.2788679599761963,0.0171262752264738,-0.2020183950662613,4.846859931945801,55.80830764770508,25.61,0
-0.237551674246788,-1.1677658557891846,0.0781639516353607,-0.4484930038452148,4.8499755859375,55.80533218383789,25.61,0
-0.2588047087192535,-1.0516847372055054,0.1117366403341293,-0.2770692706108093,4.851974964141846,55.80342102050781,25.61,0
-0.2332592606544494,-0.9715927839279176,0.0940972417593002,-0.0989904478192329,4.85325813293457,55.80219650268555,25.61,0
-0.1776812374591827,-0.925792157649994,0.0827772915363311,-0.2139945477247238,4.854081153869629,55.80141067504883,25.61,0
-0.1252211332321167,-0.8908021450042725,0.0811105743050575,-0.5529081225395203,4.854609489440918,55.8009033203125,25.61,0
-0.1139463633298873,-0.8627498149871826,0.0856387466192245,-0.974610149860382,4.8549485206604,55.80057907104492,25.61,0
-0.1402975171804428,-0.8447474241256714,0.0829468891024589,-1.35271155834198,4.855165958404541,55.80037307739258,25.61,0
-0.1740014851093292,-0.8331945538520813,0.0588283129036426,-1.5487817525863647,4.846583366394043,55.80023956298828,25.59,0
-0.1956307590007782,-0.8313783407211304,0.0265570767223835,-1.542052984237671,4.841075897216797,55.80015182495117,25.59,0
-0.2207067310810089,-0.8358106017112732,0.011445028707385,-1.3980144262313845,4.837541580200195,55.80009841918945,25.59,0
-0.2200057208538055,-0.8498504757881165,0.0129425348713994,-1.101372003555298,4.835273265838623,55.80006408691406,25.59,0
-0.2139580696821212,-0.853262722492218,0.0195013228803873,-0.6279804706573486,4.833817481994629,55.80004119873047,25.59,0
-0.2044792622327804,-0.8610502481460571,0.0405036993324756,-0.0877350643277168,4.832883358001709,55.800025939941406,25.59,0
-0.1927985399961471,-0.8548523187637329,0.0595795884728431,0.3127019703388214,4.832283973693848,55.80001449584961,25.59,0
-0.1909002959728241,-0.8564726114273071,0.0774191692471504,0.4622021615505218,4.831899166107178,55.80001068115234,25.59,0
-0.2008776664733886,-0.907892405986786,0.0888675898313522,0.4757435321807861,4.8399152755737305,55.80000686645508,25.59,0
-0.2072805613279342,-0.963281750679016,0.0962145254015922,0.6492320895195007,4.845059394836426,55.80000305175781,25.59,0
-0.2001940310001373,-1.0604029893875122,0.0785382688045501,1.104494333267212,4.848360538482666,55.80000305175781,25.59,0
-0.2012440711259842,-1.1955008506774902,0.0559991151094436,1.5578712224960327,4.8504791259765625,55.80000305175781,25.59,0
-0.218711256980896,-1.2430144548416138,0.0695236548781395,1.6374505758285522,4.8518385887146,55.80000305175781,25.59,0
-0.2411162406206131,-1.1055727005004885,0.0726051554083824,1.387583613395691,4.852711200714111,55.80000305175781,25.59,0
-0.249896690249443,-1.006174921989441,0.057789359241724,1.2129031419754028,4.853271007537842,55.80000305175781,25.59,0
-0.2611292600631714,-1.0487449169158936,0.0258903373032808,1.3300880193710327,4.853630065917969,55.80000305175781,25.59,0
-0.262739896774292,-1.0648683309555054,0.005419380031526,1.5091853141784668,4.852024555206299,55.69252395629883,25.59,0
-0.2469801902770996,-1.0136399269104004,-0.0189132522791624,1.3625916242599487,4.85099458694458,55.62355041503906,25.59,0
-0.2368665039539337,-0.9527755975723268,-0.0513218566775321,0.7705382108688354,4.850333690643311,55.579288482666016,25.59,0
-0.2415716797113418,-0.9249119162559508,-0.0777176097035408,0.0108393533155322,4.84990930557251,55.55088424682617,25.59,0
-0.2725800573825836,-0.923823893070221,-0.1058524325489997,-0.4838567972183227,4.849637031555176,55.53265380859375,25.59,0
-0.2924794554710388,-0.923125684261322,-0.1295055150985717,-0.5254659652709961,4.849462509155273,55.52095413208008,25.59,0
-0.2828586399555206,-0.9170798659324646,-0.1390869319438934,-0.3085532188415527,4.849350452423096,55.51344680786133,25.59,0
-0.2766845524311065,-0.9243955612182616,-0.1452357321977615,-0.1872639656066894,4.849278450012207,55.50862884521485,25.59,0
-0.278320163488388,-0.9346880912780762,-0.1491816788911819,-0.3494600653648376,4.84464168548584,55.50553894042969,25.59,0
-0.2905653417110443,-0.9580865502357484,-0.157311737537384,-0.7079110741615295,4.841666221618652,55.50355529785156,25.59,0
-0.2984235882759094,-0.9898957014083862,-0.1793224662542343,-0.9952654838562012,4.839756488800049,55.50228118896485,25.59,0
-0.2810754776000976,-1.043895602226257,-0.1990454494953155,-0.979048788547516,4.838531017303467,55.50146484375,25.59,0
-0.2419535815715789,-1.1121362447738647,-0.2284958511590957,-0.6712880730628967,4.83774471282959,55.500938415527344,25.59,0
-0.2168474048376083,-1.2287002801895142,-0.258590966463089,-0.2158394753932953,4.837240219116211,55.50060272216797,25.59,0
-0.2791045308113098,-1.1523644924163818,-0.1659487932920456,0.4311161935329437,4.836916446685791,55.50038528442383,25.59,0
-0.3470464646816253,-1.0418009757995603,-0.0897030606865882,1.2475435733795166,4.836708545684815,55.500247955322266,25.59,0
-0.2954855263233185,-1.0100321769714355,-0.0855551362037658,1.771479606628418,4.838870048522949,55.50016021728516,25.61,0
-0.2400055676698684,-1.0232313871383667,-0.0996865555644035,1.6240639686584473,4.840257167816162,55.50010299682617,25.61,0
-0.154021754860878,-1.0932774543762207,-0.1199508383870124,1.1102997064590454,4.841147422790527,55.50006484985352,25.61,0
-0.0484623312950134,-1.0934467315673828,-0.1161619648337364,0.6946135759353638,4.841718673706055,55.50004196166992,25.61,0
0.013681860640645,-1.048773169517517,-0.0969371572136879,0.3561986088752746,4.842085361480713,55.50002670288086,25.61,0
-0.0304041896015405,-0.9921153783798218,-0.0845997855067253,-0.0687660053372383,4.842320442199707,55.50001525878906,25.61,0
-0.0754894018173217,-0.9445601105690002,-0.1214645653963089,-0.4453785419464111,4.842471599578857,55.5000114440918,25.61,0
-0.1492046862840652,-0.9140418767929076,-0.1731111258268356,-0.6476584672927856,4.842568397521973,55.50000762939453,25.61,0
-0.202108696103096,-0.8944570422172546,-0.2174504697322845,-0.8204609751701355,4.837121963500977,55.50000381469727,25.61,0
-0.2248638868331909,-0.8930841684341431,-0.2459049075841903,-1.0818238258361816,4.833626747131348,55.50000381469727,25.61,0
-0.2282713204622268,-0.9033986926078796,-0.2529697716236114,-1.2889597415924072,4.83138370513916,55.50000381469727,25.61,0
-0.2248602360486984,-0.9100179672241212,-0.2463080585002899,-1.2499240636825562,4.829944133758545,55.50000381469727,25.61,0
-0.2058778703212738,-0.908668041229248,-0.2364351749420166,-1.0314141511917114,4.8290205001831055,55.50000381469727,25.61,0
-0.1657072156667709,-0.9078017473220824,-0.2077082246541977,-0.9126825332641602,4.828427791595459,55.50000381469727,25.61,0
-0.1455257683992386,-0.9128435850143432,-0.1780773848295211,-0.9762078523635864,4.828047275543213,55.50000381469727,25.61,0
-0.1269767135381698,-0.932872474193573,-0.1534642428159713,-0.9847315549850464,4.827803134918213,55.50000381469727,25.61,0
-0.137464091181755,-0.9625191688537598,-0.1712555885314941,-0.750169038772583,4.82030200958252,55.47492599487305,25.61,0
-0.1441942900419235,-1.0935002565383911,-0.2050641477108001,-0.3201994001865387,4.815488338470459,55.458831787109375,25.61,0
-0.1765022128820419,-1.1327741146087646,-0.2099672108888626,0.2387538254261016,4.812398910522461,55.44850158691406,25.61,0
-0.202833354473114,-1.0348267555236816,-0.1851248443126678,0.8195775151252747,4.810416221618652,55.441871643066406,25.61,0
-0.208535611629486,-0.9663720726966858,-0.1859757602214813,1.167238712310791,4.809144020080566,55.437618255615234,25.61,0
-0.2289883196353912,-0.9672240018844604,-0.2201084792613983,1.2506271600723269,4.808327674865723,55.43489074707031,25.61,0
-0.2365159094333648,-0.978966236114502,-0.2532084286212921,1.339966893196106,4.807803630828857,55.43313980102539,25.61,0
-0.2301511317491531,-0.9697084426879884,-0.2576567530632019,1.429543137550354,4.807467460632324,55.43201446533203,25.61,0
-0.2204688191413879,-0.9693650603294371,-0.2493158876895904,1.2577431201934814,4.811383247375488,55.43129348754883,25.61,0
-0.2030597180128097,-0.9803402423858644,-0.2327676564455032,0.88238126039505,4.813896179199219,55.43083190917969,25.61,0
-0.1862897872924804,-0.9817857146263124,-0.2221479564905166,0.609252393245697,4.815508842468262,55.43053436279297,25.61,0
-0.175527811050415,-0.9659200310707092,-0.2153328359127044,0.4554694890975952,4.8165435791015625,55.43034362792969,25.61,0
-0.1686213910579681,-0.933347225189209,-0.1997637301683426,0.1597387939691543,4.81720781326294,55.43022155761719,25.61,0
-0.1697870194911956,-0.9124438762664796,-0.1785768270492553,-0.4205448925495147,4.817633628845215,55.43014144897461,25.61,0
-0.1817305982112884,-0.9158226251602172,-0.1593825221061706,-1.011474609375,4.817907333374023,55.43009185791016,25.61,0
-0.1949930787086486,-0.9179909229278564,-0.1414669454097747,-1.2259008884429932,4.818082809448242,55.430057525634766,25.61,0
-0.2091019451618194,-0.9137846231460572,-0.1187742128968238,-1.1664656400680542,4.808555603027344,55.43003845214844,25.59,0
-0.2293517589569091,-0.967063009738922,-0.0986135527491569,-1.1820621490478516,4.802441596984863,55.430023193359375,25.59,0
-0.2423469275236129,-1.0068517923355105,-0.0856755971908569,-1.1813234090805054,4.79851770401001,55.43001556396485,25.59,0
-0.2506864666938782,-1.1107548475265503,-0.0997638627886772,-0.7939311265945435,4.795999526977539,55.43001174926758,25.59,0
-0.2560383081436157,-1.2390092611312866,-0.1200004518032074,0.0493824370205402,4.794383525848389,55.43000793457031,25.59,0
-0.2930594682693481,-1.2261534929275513,-0.077009379863739,1.027646780014038,4.793346405029297,55.43000411987305,25.59,0
-0.322415292263031,-1.0555678606033323,-0.0550179630517959,1.5300503969192505,4.792681217193604,55.43000411987305,25.59,0
-0.3076675236225128,-0.946095883846283,-0.0632962360978126,1.118036150932312,4.7922539710998535,55.43000411987305,25.59,0
-0.2478232830762863,-0.9542118906974792,-0.090999849140644,0.2051829546689987,4.791061878204346,55.43000411987305,25.59,0
-0.203820914030075,-0.9762135744094848,-0.1143762096762657,-0.3053995966911316,4.79029655456543,55.43000411987305,25.59,0
-0.1587893962860107,-0.9735397100448608,-0.1293778121471405,-0.124336376786232,4.7898054122924805,55.43000411987305,25.59,0
-0.1746729612350464,-0.9494326710700988,-0.15020053088665,0.3107088208198547,4.789490222930908,55.43000411987305,25.59,0
-0.184866115450859,-0.9171688556671144,-0.1635633409023285,0.5791480541229248,4.78928804397583,55.43000411987305,25.59,0
-0.2082008272409439,-0.9020615220069884,-0.1833343803882599,0.5902010202407837,4.789158344268799,55.43000411987305,25.59,0
-0.2287734746932983,-0.8979642987251282,-0.2016200721263885,0.4468259811401367,4.789075374603272,55.43000411987305,25.59,0
-0.2363780438899994,-0.8953349590301514,-0.2077569961547851,0.2795820534229278,4.789021968841553,55.43000411987305,25.59,0
-0.2132693380117416,-0.9048431515693665,-0.2004997730255127,0.1292636096477508,4.786692142486572,55.41209030151367,25.59,0
-0.1872439533472061,-0.9053471684455872,-0.1902447342872619,-0.0567665100097656,4.7851972579956055,55.40059280395508,25.59,0
-0.1593468189239502,-0.911268413066864,-0.1724680960178375,-0.3122878074645996,4.784237861633301,55.39321517944336,25.59,0
-0.130248486995697,-0.909470558166504,-0.1554622948169708,-0.6016567945480347,4.783621788024902,55.38848114013672,25.59,0
-0.0891837552189827,-0.902719020843506,-0.1277556270360946,-0.8375132083892822,4.783226490020752,55.38544464111328,25.59,0
-0.062830775976181,-0.9207773208618164,-0.104377306997776,-0.9100556373596193,4.782972812652588,55.38349533081055,25.59,0
-0.0571144968271255,-0.9491594433784484,-0.0893744453787803,-0.8276364803314209,4.782810211181641,55.38224411010742,25.59,0
-0.0646416693925857,-0.9897645711898804,-0.0741486996412277,-0.6171112656593323,4.782705783843994,55.381439208984375,25.59,0
-0.0638744011521339,-1.004626989364624,-0.0587799176573753,-0.1273333430290222,4.775294303894043,55.38092422485352,25.59,0
-0.0745775625109672,-1.0365560054779053,-0.0489171147346496,0.6240522265434265,4.770537853240967,55.380592346191406,25.59,0
-0.1318262070417404,-1.1801972389221191,-0.0537832863628864,1.0883352756500244,4.767485618591309,55.38037872314453,25.59,0
-0.1741628646850586,-1.2219979763031006,-0.0457105673849582,0.8453165292739868,4.76552677154541,55.38024520874024,25.59,0
-0.173343226313591,-1.0529011487960815,-0.0293344110250473,0.2773648798465729,4.764269828796387,55.380157470703125,25.59,0
-0.1672194451093673,-0.944384515285492,-0.0188251361250877,-0.0405402928590774,4.763463020324707,55.38010025024414,25.59,0
-0.1800828874111175,-1.0034935474395752,-0.0344719849526882,-0.0905027911067009,4.762945175170898,55.38006591796875,25.59,0
-0.1603490263223648,-1.0358285903930664,-0.0613065548241138,-0.068827211856842,4.762613296508789,55.38004302978516,25.59,0
-0.1252938657999038,-1.0117971897125244,-0.0841252133250236,0.0525602027773857,4.762400150299072,55.380027770996094,25.61,0
-0.1083952635526657,-0.9515930414199828,-0.0819755941629409,0.2379369139671325,4.762263298034668,55.3800163269043,25.61,0
-0.0975507125258445,-0.9241530299186708,-0.0805960893630981,0.2135979980230331,4.762175559997559,55.38001251220703,25.61,0
-0.1017868518829345,-0.8953480124473572,-0.0909063518047332,-0.1316182762384414,4.762119293212891,55.380008697509766,25.61,0
-0.0989075899124145,-0.876862645149231,-0.1087184324860572,-0.5179566740989685,4.762083053588867,55.3800048828125,25.61,0
-0.091462068259716,-0.8649997711181641,-0.1145514249801635,-0.6870697736740112,4.762059688568115,55.3800048828125,25.61,0
-0.0754884108901023,-0.8685824275016785,-0.1070991605520248,-0.7669362425804138,4.762044906616211,55.3800048828125,25.61,0
-0.0708352178335189,-0.8708815574645996,-0.0967189520597457,-0.9077543020248412,4.762035369873047,55.3800048828125,25.61,0
-0.0846423879265785,-0.8947480916976929,-0.0956552997231483,-0.9587149024009703,4.756520748138428,55.3800048828125,25.61,0
-0.0767097100615501,-0.926857590675354,-0.0893749371170997,-0.6510738134384155,4.752981662750244,55.3800048828125,25.61,0
-0.0716189742088317,-0.9362680912017822,-0.0797467902302742,0.0801563113927841,4.750710487365723,55.3800048828125,25.61,0
-0.068352036178112,-1.054262638092041,-0.1015568673610687,1.01873517036438,4.749252796173096,55.3800048828125,25.61,0
-0.0718532726168632,-1.2027559280395508,-0.1323466449975967,1.7070428133010864,4.748317718505859,55.3800048828125,25.61,0
-0.1020890399813652,-1.3036481142044067,-0.1129213273525238,1.6543636322021484,4.747717380523682,55.3800048828125,25.61,0
-0.1158948391675949,-1.1836683750152588,-0.0444775372743606,0.8431382179260254,4.7473320960998535,55.3800048828125,25.61,0
-0.0967657342553138,-1.050694465637207,0.0106412973254919,-0.1002034470438957,4.747085094451904,55.3800048828125,25.61,0
-0.000523162423633,-1.0101417303085327,0.0124267460778355,-0.540787398815155,4.7441725730896,55.362091064453125,25.61,0
0.0948264226317405,-1.0065083503723145,-0.0032207781914621,-0.4688538014888763,4.742303371429443,55.35059356689453,25.61,0
0.1000385582447052,-0.9929811358451844,-0.0300557799637317,-0.2328144609928131,4.741103649139404,55.34321594238281,25.61,0
0.0586012154817581,-0.9283223748207092,-0.0136902946978807,0.0082264170050621,4.7403340339660645,55.33848190307617,25.61,0
0.0096180150285363,-0.8868281245231628,0.0024099049624055,0.2166512012481689,4.739840030670166,55.335445404052734,25.61,0
-0.0274143572896718,-0.8490039706230164,0.0183398611843585,0.2930850386619568,4.739522933959961,55.33349609375,25.61,0
-0.0399840548634529,-0.8135350346565247,0.0285627897828817,0.2919797897338867,4.739319324493408,55.33224487304688,25.61,0
-0.0592461116611957,-0.7963709235191345,0.023927729576826,0.3056008219718933,4.7391886711120605,55.33143997192383,25.61,0
-0.0884007140994072,-0.7853559851646423,0.0265509877353906,0.1889518648386001,4.737268447875977,55.33092498779297,25.61,0
-0.1183060109615325,-0.7894827723503113,0.0338322184979915,-0.186843067407608,4.73603630065918,55.33059310913086,25.61,0
-0.1486930549144745,-0.8089244365692139,0.044102668762207,-0.6501263380050659,4.735245704650879,55.330379486083984,25.61,0
-0.1793892532587051,-0.8493898510932922,0.056291427463293,-0.9868431687355042,4.734738349914551,55.33024597167969,25.61,0
-0.1934905350208282,-0.9481292963027954,0.0753090158104896,-1.1706855297088623,4.734412670135498,55.33015823364258,25.61,0
-0.1633555144071579,-1.0170923471450806,0.0763178616762161,-1.191935420036316,4.734203338623047,55.3301010131836,25.61,0
-0.1776032298803329,-1.0669466257095337,0.037780862301588,-1.0228610038757324,4.734069347381592,55.3300666809082,25.61,0
-0.1587577313184738,-1.2052979469299316,-0.0261343885213136,-0.7065693736076355,4.733983039855957,55.33004379272461,25.61,0
-0.1466637700796127,-1.3276704549789429,-0.0783470645546913,-0.227733314037323,4.733469009399414,55.33002853393555,25.59,0
-0.1500981152057647,-1.2662577629089355,-0.0670719593763351,0.5130477547645569,4.7331390380859375,55.33001708984375,25.59,0
-0.1019221022725105,-1.047717809677124,-0.0374451465904712,1.2499665021896362,4.732927322387695,55.33001327514648,25.59,0
-0.0542121939361095,-0.9242648482322692,-0.0352256894111633,1.3968640565872192,4.732791423797607,55.33000946044922,25.59,0
-0.0403880402445793,-0.9234086871147156,-0.0841813385486602,0.9000095129013062,4.732704162597656,55.33000564575195,25.59,0
-0.0483098179101944,-0.9732391834259032,-0.143587127327919,0.4486015737056732,4.7326483726501465,55.33000564575195,25.59,0
-0.0701868832111358,-1.0108152627944946,-0.2041014432907104,0.434772253036499,4.732612609863281,55.33000564575195,25.59,0
-0.1010196432471275,-0.9789517521858216,-0.18695829808712,0.4903837442398071,4.732589721679688,55.33000564575195,25.59,0
-0.1152085587382316,-0.9696991443634032,-0.1591634899377823,0.3147000670433044,4.726606845855713,55.33000564575195,25.59,0
-0.1187164187431335,-0.9693590998649596,-0.1301308423280716,0.0729836598038673,4.722767353057861,55.33000564575195,25.59,0
-0.1265653371810913,-0.9635431170463562,-0.1114993542432785,-0.1287095099687576,4.720303535461426,55.33000564575195,25.59,0
-0.1427978724241256,-0.9486151933670044,-0.0995427370071411,-0.3620392382144928,4.718722343444824,55.33000564575195,25.59,0
-0.1532149761915207,-0.9278397560119628,-0.0806741192936897,-0.5619329214096069,4.717707633972168,55.33000564575195,25.59,0
-0.1487045288085937,-0.9089094996452332,-0.0573697797954082,-0.6221442222595215,4.717056274414063,55.33000564575195,25.59,0
-0.140212208032608,-0.8911634087562561,-0.0312188472598791,-0.6536192297935486,4.716638565063477,55.33000564575195,25.59,0
-0.1403600871562957,-0.8797749876976013,-0.0144366836175322,-0.7920430302619934,4.716370582580566,55.33000564575195,25.59,0
-0.1628460884094238,-0.8780643343925476,-0.0036668577231466,-0.9310315251350404,4.712526321411133,55.35508346557617,25.59,0
-0.1940696388483047,-0.8993576169013977,-0.0135487271472811,-0.8482627272605896,4.71005916595459,55.37117385864258,25.59,0
-0.2085093408823013,-0.9130223989486694,-0.0254881158471107,-0.4046457707881927,4.708476066589356,55.38150024414063,25.59,0
-0.2121781408786773,-0.9385849833488464,-0.0443456768989563,0.392350435256958,4.707459926605225,55.38813018798828,25.59,0
-0.203337013721466,-0.971782922744751,-0.0620451495051384,1.2943174839019775,4.706808090209961,55.39238357543945,25.59,0
-0.1472833156585693,-1.1330318450927734,-0.1013925224542617,1.7943313121795654,4.706389427185059,55.395111083984375,25.59,0
-0.1728867888450622,-1.2085232734680176,-0.1210456266999244,1.570659875869751,4.70612096786499,55.3968620300293,25.59,0
-0.2005131840705871,-1.0946338176727295,-0.0944734364748001,0.8539083003997803,4.705948829650879,55.397987365722656,25.59,0
-0.1790577918291092,-0.976763904094696,-0.0550298392772674,0.1109149605035781,4.705379486083984,55.39870834350586,25.59,0
-0.1428978592157364,-0.9962839484214784,-0.0577060803771019,-0.4196340143680572,4.705013751983643,55.399169921875,25.59,0
-0.0525192059576511,-1.0032130479812622,-0.0762168616056442,-0.7027886509895325,4.704779148101807,55.39946746826172,25.59,0
-0.0113127073273062,-0.9572797417640686,-0.0433138199150562,-0.691041886806488,4.704628467559815,55.399658203125,25.59,0
-0.029650941491127,-0.9166068434715272,-0.0110029941424727,-0.4183928668498993,4.704532146453857,55.3997802734375,25.59,0
-0.0694082379341125,-0.8737120032310486,0.0209277849644422,-0.1502754539251327,4.704470157623291,55.39986038208008,25.59,0
-0.0949221849441528,-0.84058678150177,0.041419118642807,-0.2074979841709137,4.70443058013916,55.39990997314453,25.59,0
-0.1168933361768722,-0.8249267339706421,0.0545692779123783,-0.5845648050308228,4.704404830932617,55.39994430541992,25.59,0
-0.1141998320817947,-0.8148769736289978,0.0686060711741447,-0.9734301567077636,4.704388618469238,55.39996337890625,25.59,0
-0.1236668452620506,-0.8140254020690918,0.0776140764355659,-1.162077784538269,4.704378128051758,55.39997863769531,25.59,0
-0.135340005159378,-0.8414677977561951,0.0889926701784133,-1.114759922027588,4.704371452331543,55.39998626708984,25.59,0
-0.1540267169475555,-0.8534809350967407,0.1074903458356857,-0.8049531579017639,4.704367160797119,55.39999008178711,25.59,0
-0.1548232287168502,-0.9115702509880066,0.1193610876798629,-0.3087832331657409,4.70436429977417,55.399993896484375,25.59,0
-0.1161499619483947,-0.9824352860450744,0.110185720026493,0.263992965221405,4.704362392425537,55.39999771118164,25.59,0
-0.0801361352205276,-1.0335102081298828,0.0931019484996795,1.0256510972976685,4.704360961914063,55.39999771118164,25.59,0
-0.0850134044885635,-1.1110693216323853,0.0709430202841758,1.9479310512542725,4.704360485076904,55.39999771118164,25.59,0
-0.1217299997806549,-1.2280155420303345,0.0511249229311943,2.536214590072632,4.705277919769287,55.39999771118164,25.59,0
-0.1676836907863617,-1.230293869972229,0.0663956776261329,2.3226163387298584,4.705866813659668,55.39999771118164,25.59,0
-0.1467941552400589,-1.0134427547454834,0.0817933455109596,1.46544349193573,4.706244468688965,55.39999771118164,25.59,0
-0.1221929118037223,-0.8966712951660156,0.0748813599348068,0.5356062650680542,4.706486701965332,55.39999771118164,25.59,0
-0.0952097028493881,-0.9784717559814452,0.0368589982390403,-0.1112658232450485,4.706642150878906,55.39999771118164,25.59,0
-0.0890889763832092,-1.08134663105011,-0.0155304400250315,-0.5192259550094604,4.706742286682129,55.39999771118164,25.59,0
-0.0683677271008491,-1.1025835275650024,-0.0491509661078453,-0.7487881183624268,4.706806182861328,55.39999771118164,25.59,0
-0.0718633458018302,-1.021049976348877,-0.0371400341391563,-0.6919010877609253,4.706847190856934,55.39999771118164,25.59,0
-0.0853021815419197,-0.9743242263793944,-0.0182365607470273,-0.4655177593231201,4.700906276702881,55.417911529541016,25.59,0
-0.1219153255224227,-0.9611316919326782,-0.0117031745612621,-0.4062197804450989,4.697093486785889,55.42940902709961,25.59,0
-0.1566070765256881,-0.9526654481887816,-0.0187059734016656,-0.5150513052940369,4.694646835327148,55.43678665161133,25.59,0
-0.1452836096286773,-0.9192434549331664,-0.0176021922379732,-0.5920583009719849,4.6930766105651855,55.44152069091797,25.59,0
-0.1212235316634178,-0.8810018301010132,-0.0001005256199277,-0.7238761782646179,4.692069053649902,55.444557189941406,25.59,0
-0.111380934715271,-0.8564605116844177,0.01672881282866,-0.9732677936553956,4.691422462463379,55.44650650024414,25.59,0
-0.1330533921718597,-0.8463091254234314,0.0219311378896236,-1.0043402910232544,4.691007614135742,55.44775772094727,25.59,0
-0.1693526208400726,-0.8453922867774963,0.0196719169616699,-0.6481103301048279,4.690741062164307,55.44856262207031,25.59,0
-0.2150384783744812,-0.8783905506134033,0.0238198526203632,-0.2976949214935303,4.689192771911621,55.44907760620117,25.59,0
-0.249954804778099,-0.9107624888420104,0.0376773066818714,-0.3200162053108215,4.688199520111084,55.44940948486328,25.59,0
-0.27236208319664,-0.9427325129508972,0.0465702228248119,-0.5313823819160461,4.687561988830566,55.44962310791016,25.59,0
-0.2811440229415893,-0.9968356490135192,0.0242883134633302,-0.5237219929695129,4.687152862548828,55.44975662231445,25.59,0
-0.2755842208862304,-1.0651426315307615,-0.0068042553029954,-0.0924794822931289,4.686890125274658,55.44984436035156,25.59,0
-0.2720162570476532,-1.1817491054534912,-0.0435509979724884,0.6177587509155273,4.6867218017578125,55.44990158081055,25.59,0
-0.3033131957054138,-1.1838093996047974,-0.0447418466210365,1.069966197013855,4.6866135597229,55.44993591308594,25.59,0
-0.3233977556228637,-1.1179583072662354,-0.0287127420306205,0.8586063385009766,4.686544418334961,55.44995880126953,25.59,0
-0.2915046811103821,-1.0029277801513672,-0.0072306361980736,0.3360495865345001,4.682827472686768,55.449974060058594,25.59,0
-0.237450897693634,-0.968292236328125,0.000957568117883,0.1762489527463913,4.680441856384277,55.44998550415039,25.59,0
-0.135588988661766,-0.99084734916687,0.0006145120714791,0.492859423160553,4.678911209106445,55.449989318847656,25.59,0
-0.0590243376791477,-0.960539698600769,0.0171876810491085,0.975482702255249,4.677928924560547,55.44999313354492,25.59,0
-0.0322806499898433,-0.9186989068984984,0.0390189364552497,1.414175271987915,4.677298545837402,55.44999694824219,25.59,0
-0.0319114103913307,-0.858261227607727,0.0642245262861251,1.609721064567566,4.676893711090088,55.44999694824219,25.59,0
-0.0484677776694297,-0.8194758296012878,0.0804000273346901,1.330380082130432,4.676633834838867,55.44999694824219,25.59,0
-0.0814837962388992,-0.7945855855941772,0.0851827561855316,0.6352242231369019,4.676467418670654,55.44999694824219,25.59,0
-0.097073808312416,-0.7898080348968506,0.0938498079776763,-0.111823096871376,4.673606395721436,55.44999694824219,25.59,0
-0.1070785745978355,-0.7923398017883301,0.1050096005201339,-0.5984002351760864,4.671770095825195,55.44999694824219,25.59,0
-0.1302923858165741,-0.8219534158706665,0.1121713146567344,-0.8210930824279785,4.670591831207275,55.44999694824219,25.59,0
-0.1507874429225921,-0.8577510714530945,0.1279628425836563,-0.9245961904525756,4.669835567474365,55.44999694824219,25.59,0
-0.180733323097229,-0.8975172638893127,0.1436946988105774,-0.969523012638092,4.6693501472473145,55.44999694824219,25.59,0
-0.2111464142799377,-0.9790146946907043,0.1649860590696334,-0.8944597840309143,4.669038772583008,55.44999694824219,25.59,0
-0.2362615466117859,-1.0369127988815308,0.1898451745510101,-0.5525173544883728,4.668838977813721,55.44999694824219,25.59,0
-0.2411834448575973,-1.0964596271514893,0.2113960981369018,0.0395094715058803,4.668710708618164,55.44999694824219,25.59,0
-0.2275487184524536,-1.1738576889038086,0.2196284681558609,0.4731768667697906,4.670923709869385,55.76526641845703,25.59,0
-0.2020054161548614,-1.31309175491333,0.2193137556314468,0.2857448160648346,4.672344207763672,55.967586517333984,25.59,0
-0.1912109702825546,-1.3016842603683472,0.235905110836029,-0.3289337158203125,4.673255443572998,56.0974235534668,25.59,0
-0.1842837184667587,-1.1992013454437256,0.2353569418191909,-0.6589126586914062,4.673840522766113,56.18074798583984,25.59,0
-0.1686426550149917,-1.0662604570388794,0.2014185041189193,-0.447930246591568,4.674215793609619,56.23421859741211,25.59,0
-0.1642028987407684,-1.0033377408981323,0.1572476774454116,-0.1549005657434463,4.674456596374512,56.268531799316406,25.59,0
-0.2005381286144256,-1.007739782333374,0.1009125113487243,-0.0779108107089996,4.6746110916137695,56.29055404663086,25.59,0
-0.2462470829486847,-0.976978063583374,0.0591620653867721,0.0682263299822807,4.674710273742676,56.3046875,25.59,0
-0.2699826955795288,-0.9068570137023926,0.0267712585628032,0.4521973431110382,4.6711015701293945,56.31375503540039,25.59,0
-0.2628237307071686,-0.8786506652832031,-0.0331997200846672,0.7810071110725403,4.668785572052002,56.31957626342773,25.59,0
-0.258229523897171,-0.8773427605628967,-0.088478960096836,0.8379675149917603,4.667299270629883,56.32331085205078,25.59,0
-0.2664767801761627,-0.8821012377738953,-0.1407473236322403,0.706140398979187,4.666345596313477,56.3257064819336,25.59,0
-0.2661716341972351,-0.879557192325592,-0.1798879206180572,0.4030041992664337,4.665733337402344,56.32724380493164,25.59,0
-0.2547802627086639,-0.8835223317146301,-0.1994083225727081,-0.0745546519756317,4.665340423583984,56.32823181152344,25.59,0
-0.2474699169397354,-0.897262454032898,-0.1951420754194259,-0.5852312445640564,4.665088653564453,56.32886505126953,25.59,0
-0.2427785694599151,-0.9060800671577454,-0.1756109148263931,-0.93803209066391,4.664927005767822,56.32927322387695,25.59,0
-0.239767923951149,-0.928532063961029,-0.1518813967704773,-1.0426318645477295,4.666200160980225,56.329532623291016,25.59,0
-0.2378358691930771,-0.9765270948410034,-0.1310553848743438,-0.9592897295951844,4.667017459869385,56.3297004699707,25.59,0
-0.2309982180595398,-1.0073275566101074,-0.1064948961138725,-0.8234063386917114,4.66754150390625,56.32980728149414,25.59,0
-0.2210124284029007,-1.0382890701293943,-0.0851356163620948,-0.5929011702537537,4.667878150939941,56.32987594604492,25.59,0
-0.2202018946409225,-1.0861471891403198,-0.0770262330770492,-0.158370167016983,4.668094158172607,56.32992172241211,25.59,0
-0.2756594717502594,-1.167239785194397,-0.0438332296907901,0.2602072656154632,4.6682329177856445,56.32995223999024,25.59,0
-0.3000534176826477,-1.045749306678772,0.0278480984270572,0.3389496803283691,4.66832160949707,56.32997131347656,25.59,0
-0.2933169603347778,-0.967783749103546,0.0570557303726673,0.2605093121528625,4.668378829956055,56.32998275756836,25.59,0
-0.2106250375509262,-1.018509864807129,0.0086262123659253,0.3964647054672241,4.661529541015625,56.32999038696289,25.59,0
-0.1295692473649978,-1.0734541416168213,-0.0392463877797126,0.6377638578414917,4.657134056091309,56.32999420166016,25.59,0
-0.0607589855790138,-1.0695297718048096,-0.041979394853115,0.6887210011482239,4.654313564300537,56.32999801635742,25.59,0
-0.03339384496212,-0.9942402243614196,-0.0325377322733402,0.5960322618484497,4.652503490447998,56.32999801635742,25.59,0
-0.043821346014738,-0.93472820520401,-0.0376741662621498,0.4792287349700928,4.651341915130615,56.32999801635742,25.59,0
-0.0729042142629623,-0.907732367515564,-0.0689593032002449,0.3147065639495849,4.650596618652344,56.32999801635742,25.59,0
-0.1083612442016601,-0.9016035199165344,-0.111427403986454,0.151804506778717,4.650118350982666,56.32999801635742,25.59,0
-0.1591044068336486,-0.9144636988639832,-0.155474305152893,-0.0100578786805272,4.649811267852783,56.32999801635742,25.59,0
-0.1916684359312057,-0.93391215801239,-0.1725455224514007,-0.3253037929534912,4.645023822784424,56.76349258422852,25.59,0
-0.2069683820009231,-0.9463930726051332,-0.1779030710458755,-0.6601657867431641,4.641951560974121,57.04168319702149,25.59,0
-0.2111892402172088,-0.9488048553466796,-0.1589501500129699,-0.6923495531082153,4.639979839324951,57.220211029052734,25.59,0
-0.2250934839248657,-0.939157009124756,-0.1355917006731033,-0.5302919149398804,4.63871431350708,57.33477783203125,25.59,0
-0.206027552485466,-0.9273678064346312,-0.0982104986906051,-0.4979441463947296,4.63790225982666,57.408302307128906,25.59,0
-0.1714010387659073,-0.9365954995155334,-0.0518302954733371,-0.4771852195262909,4.637381076812744,57.45548248291016,25.59,0
-0.1379841864109039,-0.9593106508255004,-0.0164683777838945,-0.2059178948402404,4.637046813964844,57.48576354980469,25.59,0
-0.0941480845212936,-0.9514968395233154,0.0174204148352146,0.2511893808841705,4.636832237243652,57.50519561767578,25.59,0
-0.0660165920853614,-0.9408845901489258,0.0447660684585571,0.7917321920394897,4.63256311416626,57.51766586303711,25.59,0
-0.1151367202401161,-1.102007508277893,0.0455216094851493,1.4395577907562256,4.629823684692383,57.52566909790039,25.59,0
-0.1802458316087722,-1.2725801467895508,0.029213149100542,1.962772250175476,4.628065586090088,57.53080368041992,25.59,0
-0.2388224303722381,-1.1861218214035034,0.0243450924754142,1.9904396533966064,4.626937389373779,57.53409957885742,25.59,0
-0.270815759897232,-1.125040054321289,-0.0179633665829896,1.5926162004470823,4.626213073730469,57.53621292114258,25.59,0
-0.2689561247825622,-1.1362212896347046,-0.0731033757328987,1.1832653284072876,4.625748634338379,57.53757095336914,25.59,0
-0.2565671801567077,-1.1154078245162964,-0.142075702548027,0.8632462620735168,4.625450134277344,57.5384407043457,25.59,0
-0.2486166656017303,-0.9900954961776732,-0.1695448458194732,0.42500901222229,4.625258922576904,57.53900146484375,25.59,0
-0.2323189377784729,-0.8984816670417786,-0.1983685195446014,-0.0783460959792137,4.63156270980835,57.53936004638672,25.59,0
-0.2218599915504455,-0.873275876045227,-0.2392569780349731,-0.4049530029296875,4.635608196258545,57.539588928222656,25.59,0
-0.231941357254982,-0.8738935589790344,-0.2710946202278137,-0.5321512818336487,4.638204574584961,57.539737701416016,25.59,0
-0.2496065497398376,-0.8798877000808716,-0.2859283983707428,-0.5922843217849731,4.639870643615723,57.539833068847656,25.59,0
-0.2553452849388122,-0.8949299454689026,-0.2954478859901428,-0.6774477362632751,4.640939712524414,57.53989410400391,25.59,0
-0.2590280771255493,-0.9101809859275818,-0.2903613746166229,-0.8754037618637085,4.641625881195068,57.53993225097656,25.59,0
-0.2501959204673767,-0.9311637878417968,-0.2647060453891754,-1.1672390699386597,4.642066478729248,57.53995513916016,25.59,0
-0.23333241045475,-0.9614226818084716,-0.2370463907718658,-1.3616873025894165,4.642349243164063,57.53997039794922,25.59,0
-0.1777281761169433,-0.9864388704299928,-0.1969049274921417,-1.3216744661331177,4.634726524353027,57.539981842041016,25.59,0
-0.1364468038082122,-1.0192861557006836,-0.1655466705560684,-1.1347806453704834,4.6298346519470215,57.53998947143555,25.59,0
-0.1099548041820526,-1.0459634065628052,-0.1510205119848251,-0.9324436783790588,4.626695156097412,57.53999328613281,25.59,0
-0.1041493117809295,-1.1526477336883545,-0.1808828860521316,-0.6628750562667847,4.624680519104004,57.53999710083008,25.59,0
-0.1340103298425674,-1.265893816947937,-0.2000468373298645,-0.1638670265674591,4.623387813568115,57.53999710083008,25.59,0
-0.2147489339113235,-1.181830883026123,-0.1507696360349655,0.3999827206134796,4.622558116912842,57.53999710083008,25.59,0
-0.1825957000255584,-1.0495152473449707,-0.1527330130338668,0.6041957139968872,4.622025489807129,57.53999710083008,25.59,0
-0.1227771863341331,-1.0149827003479004,-0.1707863211631775,0.448641836643219,4.621683597564697,57.53999710083008,25.59,0
-0.0675957798957824,-1.0543972253799438,-0.1991652250289917,0.4025549292564392,4.621923446655273,57.95915985107422,25.59,0
-0.0377813056111335,-1.0628979206085205,-0.217377170920372,0.6703327894210815,4.622077465057373,58.228153228759766,25.59,0
-0.0578325130045414,-1.0067776441574097,-0.2178689986467361,0.8959158062934875,4.622176170349121,58.40077972412109,25.59,0
-0.1042868718504905,-0.9595673084259032,-0.2405757158994674,0.686007022857666,4.622239589691162,58.51155853271485,25.59,0
-0.1396963745355606,-0.9348682165145874,-0.2663431465625763,0.103477694094181,4.622280120849609,58.5826530456543,25.59,0
-0.1624201536178589,-0.919017732143402,-0.2940747439861297,-0.4387371242046356,4.622306346893311,58.62827682495117,25.59,0
-0.1602096557617187,-0.9144436120986938,-0.3118712902069092,-0.6075706481933594,4.622323036193848,58.65755462646485,25.59,0
-0.1363999843597412,-0.9283015131950378,-0.3120965361595154,-0.4113993346691131,4.622334003448486,58.67634201049805,25.59,0
-0.098729208111763,-0.920401394367218,-0.2954477667808532,-0.1278745234012603,4.618209362030029,58.68840026855469,25.59,0
-0.063358724117279,-0.909733772277832,-0.2847635447978973,-0.0104109896346926,4.615562438964844,58.696136474609375,25.59,0
-0.0462577566504478,-0.8972901105880737,-0.2667114734649658,-0.0998281314969062,4.613863468170166,58.70110321044922,25.59,0
-0.029685566201806,-0.889304518699646,-0.2495289146900177,-0.3184268176555633,4.612773418426514,58.704288482666016,25.59,0
-0.0358438119292259,-0.8841798305511475,-0.2217088192701339,-0.616344153881073,4.61207389831543,58.70633316040039,25.59,0
-0.0509913675487041,-0.8920866250991821,-0.1926599293947219,-0.9723289012908936,4.611624717712402,58.707645416259766,25.59,0
-0.0719077438116073,-0.9363451600074768,-0.1628224700689315,-1.261683225631714,4.611336708068848,58.70848846435547,25.59,0
-0.0853306725621223,-0.9983344078063964,-0.1324789673089981,-1.167933225631714,4.611151695251465,58.70903015136719,25.59,0
-0.0995425060391426,-1.077299952507019,-0.1074084714055061,-0.3912547528743744,4.608279228210449,58.70937728881836,25.57,0
-0.1198583915829658,-1.2063443660736084,-0.0969174429774284,0.8416007161140442,4.606435775756836,58.709598541259766,25.57,0
-0.1384937316179275,-1.2387776374816897,-0.0845871344208717,1.7438362836837769,4.605252742767334,58.70974349975586,25.57,0
-0.1224639490246772,-1.153233766555786,-0.0654787048697471,1.9036778211593628,4.604493618011475,58.70983505249024,25.57,0
-0.0953836366534233,-1.0311633348464966,-0.0532160140573978,1.6551624536514282,4.604006290435791,58.70989227294922,25.57,0
-0.1059939190745353,-0.9808143973350524,-0.0565420724451541,1.3093856573104858,4.60369348526001,58.70993041992188,25.57,0
-0.123998537659645,-1.021274447441101,-0.0922631919384002,0.8617838025093079,4.603492736816406,58.70995330810547,25.57,0
-0.1411506384611129,-1.0472393035888672,-0.1263824999332428,0.4813917279243469,4.603363990783691,58.70996856689453,25.57,0
-0.1353645473718643,-0.9855332970619202,-0.1482783108949661,0.3017643690109253,4.606035232543945,58.70998001098633,25.57,0
-0.1148580461740493,-0.9347383379936218,-0.1623297780752182,0.0001959107758011,4.6077494621276855,58.70998764038086,25.57,0
-0.1016981527209281,-0.9077388644218444,-0.1769449710845947,-0.6411553025245667,4.608850002288818,58.709991455078125,25.57,0
-0.0932528898119926,-0.8904121518135071,-0.1919219344854354,-1.210371017456055,4.609556198120117,58.70999526977539,25.57,0
-0.0822354331612587,-0.8736950755119324,-0.1959355175495147,-1.2603942155838013,4.61000919342041,58.70999526977539,25.57,0
-0.0695672929286956,-0.868564784526825,-0.1817178875207901,-0.959316611289978,4.610300064086914,58.70999526977539,25.57,0
-0.0670353844761848,-0.8820657730102539,-0.1669960469007492,-0.7983455061912537,4.610486507415772,58.70999526977539,25.57,0
-0.0654105469584465,-0.8963277339935303,-0.1519506424665451,-0.9709018468856812,4.6106061935424805,58.70999526977539,25.57,0
-0.0587700456380844,-0.9334691166877748,-0.1422953754663467,-1.2428544759750366,4.60792875289917,58.98227310180664,25.57,0
-0.0545085556805133,-0.9684998393058776,-0.1305014044046402,-1.1988409757614136,4.606210708618164,59.157005310058594,25.57,0
-0.0573715493083,-0.9853827953338624,-0.1117371618747711,-0.6081312298774719,4.605108261108398,59.26913833618164,25.57,0
-0.0480133071541786,-1.0857816934585571,-0.1276842206716537,0.3405817747116089,4.604400634765625,59.34109878540039,25.57,0
-0.0532032735645771,-1.19499409198761,-0.1379181295633316,1.1177922487258911,4.603946685791016,59.38727951049805,25.57,0
-0.1013160943984985,-1.2035048007965088,-0.0829101428389549,1.2905467748641968,4.6036553382873535,59.41691589355469,25.57,0
-0.1377899050712585,-1.1417932510375977,-0.0252180825918912,0.8891023993492126,4.603468418121338,59.43593597412109,25.57,0
-0.0884256288409233,-1.0853970050811768,0.0062075844034552,0.3412899374961853,4.603348255157471,59.44813919067383,25.57,0
0.0664045587182045,-1.08838951587677,-0.0184074267745018,0.011230856180191,4.603730201721191,59.45597076416016,25.57,0
0.1881567537784576,-1.073516607284546,-0.0286061502993106,-0.0501138903200626,4.603975296020508,59.46099853515625,25.57,0
0.1935192346572876,-1.0135921239852903,-0.0183577798306942,0.0753170624375343,4.604132652282715,59.4642219543457,25.57,0
0.1633739322423935,-0.9415493607521056,-0.0005854175542481,0.2955318689346313,4.604233264923096,59.46629333496094,25.57,0
0.0880506634712219,-0.8673275709152222,0.010819861665368,0.4117750227451324,4.604298114776611,59.467620849609375,25.57,0
0.006125877611339,-0.8252940773963928,0.0125413388013839,0.3394875824451446,4.604339599609375,59.46847534179688,25.57,0
-0.0408509597182273,-0.798319399356842,0.0136460838839411,0.2608545124530792,4.604366302490234,59.46902084350586,25.57,0
-0.0654002130031585,-0.7866063714027405,0.0255505945533514,0.2354703396558761,4.60438346862793,59.4693717956543,25.57,0
-0.0643611922860145,-0.7958829402923584,0.0499835461378097,0.0185560043901205,4.605772018432617,59.46959686279297,25.59,0
-0.0916832759976387,-0.8018361330032349,0.099249854683876,-0.4144183397293091,4.606663227081299,59.46974182128906,25.59,0
-0.1819880902767181,-0.844840943813324,0.0916817188262939,-0.6886937618255615,4.607234954833984,59.46983337402344,25.59,0
-0.2735271751880646,-0.8836345076560974,0.0756293758749961,-0.6569185853004456,4.607602119445801,59.46989440917969,25.59,0
-0.3546627759933471,-0.9365188479423524,0.0653279051184654,-0.60428386926651,4.607837677001953,59.46993255615234,25.59,0
-0.3787420690059662,-0.9704570174217224,0.0699125602841377,-0.692313551902771,4.607988834381104,59.46995544433594,25.59,0
-0.3326192498207092,-1.0090298652648926,0.0672569572925567,-0.634163498878479,4.608085632324219,59.469970703125,25.59,0
-0.3086180388927459,-1.1121525764465332,0.0431616455316543,-0.0666249692440033,4.608147621154785,59.4699821472168,25.59,0
-0.3156065642833709,-1.217515230178833,0.0165031105279922,0.8600529432296753,4.605433464050293,59.46998977661133,25.59,0
-0.3144936263561249,-1.1955665349960327,0.0049929721280932,1.4654892683029177,4.603691577911377,59.469993591308594,25.59,0
-0.2913883030414581,-1.1255033016204834,-0.0079913474619388,1.3166370391845703,4.602573871612549,59.46999740600586,25.59,0
-0.2429739832878112,-1.0133675336837769,-0.0219217091798782,0.741047203540802,4.601856231689453,59.46999740600586,25.59,0
-0.1615244895219802,-0.9693940877914428,-0.0420569628477096,0.3358409702777862,4.601395606994629,59.46999740600586,25.59,0
-0.0924615710973739,-0.9579678177833556,-0.0773697048425674,0.2334362864494323,4.601100444793701,59.46999740600586,25.59,0
-0.0817276090383529,-1.0122106075286863,-0.1448135823011398,0.1462233960628509,4.600910663604736,59.46999740600586,25.59,0
-0.09163249284029,-1.0246293544769287,-0.1824974119663238,-0.1103690415620803,4.6007890701293945,59.46999740600586,25.59,0
-0.1203799769282341,-0.9766212701797484,-0.1786918491125106,-0.439833790063858,4.597956657409668,59.817508697509766,25.59,0
-0.1500240117311477,-0.9570080041885376,-0.1482607871294021,-0.7085865139961243,4.596138954162598,60.04051971435547,25.59,0
-0.1690478473901748,-0.9444213509559632,-0.1231341138482093,-0.931212604045868,4.594972610473633,60.18363571166992,25.59,0
-0.1812562495470047,-0.941941738128662,-0.0958137065172195,-1.0991592407226562,4.594223976135254,60.27547836303711,25.59,0
-0.1890908926725387,-0.9459482431411744,-0.0726832672953605,-1.0887126922607422,4.593743801116943,60.33441925048828,25.59,0
-0.1885209381580352,-0.9429215788841248,-0.0634372606873512,-0.8921322226524353,4.593435287475586,60.37224197387695,25.59,0
-0.2105462700128555,-0.918588161468506,-0.0575037039816379,-0.654918372631073,4.593237400054932,60.396514892578125,25.59,0
-0.2302786409854889,-0.902972400188446,-0.0592936649918556,-0.4382017850875854,4.59311056137085,60.41209411621094,25.59,0
-0.2541372776031494,-0.8985488414764404,-0.0716379061341285,-0.1988134384155273,4.594405651092529,60.42209243774414,25.59,0
-0.2638506293296814,-0.9013078212738036,-0.0851575061678886,0.0873675271868705,4.595236778259277,60.42850875854492,25.59,0
-0.2700840830802917,-0.9142739176750184,-0.0994313806295394,0.4501507878303528,4.595770359039307,60.43262481689453,25.59,0
-0.2628888189792633,-0.933790385723114,-0.102993756532669,0.9409096240997314,4.5961127281188965,60.43526840209961,25.59,0
-0.2470757514238357,-1.0022926330566406,-0.1164754331111908,1.4349792003631592,4.596332550048828,60.43696212768555,25.59,0
-0.2201345115900039,-1.1861978769302368,-0.1699093878269195,1.6409847736358645,4.596473693847656,60.43804931640625,25.59,0
-0.2364318221807479,-1.231446623802185,-0.187406912446022,1.429260015487671,4.596564292907715,60.43874740600586,25.59,0
-0.2748793661594391,-1.0533668994903564,-0.142658069729805,0.974538028240204,4.596621990203857,60.4391975402832,25.59,0
-0.2883572280406952,-1.0510411262512207,-0.108343057334423,0.5179251432418823,4.592987060546875,60.439483642578125,25.59,0
-0.2802132368087768,-1.0663418769836426,-0.0919194370508194,0.1532457619905471,4.590654373168945,60.43966674804688,25.59,0
-0.224606916308403,-1.0313788652420044,-0.0701841488480568,-0.123775377869606,4.589157581329346,60.43978500366211,25.59,0
-0.1833242177963256,-0.9809527397155762,-0.0394423715770244,-0.3409599363803863,4.588196754455566,60.43986129760742,25.59,0
-0.1624291241168975,-0.9262010455131532,0.0026770296972244,-0.6057266592979431,4.58758020401001,60.43991088867188,25.59,0
-0.1322265267372131,-0.8686734437942505,0.0297068357467651,-0.9655151963233948,4.587184429168701,60.43994140625,25.59,0
-0.1016486957669258,-0.8317555785179138,0.0414552353322505,-1.2107369899749756,4.586930751800537,60.43996047973633,25.59,0
-0.0932211503386497,-0.8024660348892212,0.0433969087898731,-1.1603169441223145,4.586767673492432,60.43997573852539,25.59,0
-0.0990083888173103,-0.7892674803733826,0.0502407364547252,-1.006152629852295,4.580695152282715,60.43998336791992,25.59,0
-0.1419067233800888,-0.7919929027557373,0.0602304860949516,-0.9609574675559998,4.576798439025879,60.43998718261719,25.59,0
-0.2030230611562729,-0.8161330223083496,0.061043556779623,-0.9068757891654968,4.574297428131104,60.43999099731445,25.59,0
-0.2534395456314087,-0.848418116569519,0.0559675656259059,-0.7646920084953308,4.57269287109375,60.43999481201172,25.59,0
-0.3081850409507751,-0.8971257209777832,0.0583078600466251,-0.7594285011291504,4.571662902832031,60.43999481201172,25.59,0
-0.3321219980716705,-0.9227856397628784,0.0654074996709823,-0.9280142784118652,4.571002006530762,60.43999481201172,25.59,0
-0.347483366727829,-0.9616438150405884,0.0699636414647102,-0.7531794905662537,4.570577621459961,60.43999481201172,25.59,0
-0.3293525278568268,-1.0481562614440918,0.0448986366391181,0.1722640842199325,4.570305347442627,60.43999481201172,25.59,0
-0.3289127647876739,-1.0980771780014038,0.0176178123801946,1.357285499572754,4.573803424835205,60.68361282348633,25.59,0
-0.3510216474533081,-1.1637002229690552,-0.0110850008204579,1.9207223653793333,4.576048374176025,60.83995056152344,25.59,0
-0.3876009583473205,-1.1666289567947388,-0.0239070393145084,1.734169602394104,4.577488899230957,60.94028091430664,25.59,0
-0.399879902601242,-1.0565528869628906,-0.0097443871200084,1.413826584815979,4.578413486480713,61.00466537475586,25.59,0
-0.3461842834949493,-0.9691190719604492,0.0049421619623899,1.362299561500549,4.579006671905518,61.04598617553711,25.59,0
-0.2837366759777069,-0.9409979581832886,0.0031715950462967,1.483283281326294,4.579387187957764,61.07250213623047,25.59,0
-0.2212702929973602,-0.990124762058258,-0.0259535238146781,1.5537585020065308,4.579631328582764,61.08951950073242,25.59,0
-0.1867807358503341,-1.0608359575271606,-0.0614376738667488,1.3876135349273682,4.5797882080078125,61.10043716430664,25.59,0
-0.1646473258733749,-1.0726276636123655,-0.073013812303543,0.8797428011894226,4.577593803405762,61.1074447631836,25.59,0
-0.1728344708681106,-1.052206039428711,-0.069247156381607,0.2206410318613052,4.576185703277588,61.111942291259766,25.59,0
-0.1668929606676101,-1.0391006469726562,-0.0668299347162246,-0.2059151232242584,4.575282096862793,61.11483001708984,25.59,0
-0.1462867110967636,-1.0194947719573977,-0.0540831536054611,-0.2718649208545685,4.574702262878418,61.11668014526367,25.59,0
-0.144258365035057,-0.956532895565033,-0.0291096810251474,-0.1529718041419983,4.574329853057861,61.11787033081055,25.59,0
-0.1429566890001297,-0.8993342518806458,-0.0130831440910696,-0.069507896900177,4.574090957641602,61.11863327026367,25.59,0
-0.1477191150188446,-0.8570296764373779,-0.0027982341125607,-0.2022394984960556,4.573937892913818,61.11912155151367,25.59,0
-0.1563731431961059,-0.8354787826538086,0.0038020284846425,-0.5955204963684082,4.5738396644592285,61.11943435668945,25.59,0
-0.1731223464012146,-0.8384420275688171,0.0024399231187999,-1.0091215372085571,4.572398662567139,61.11963653564453,25.59,0
-0.1838710308074951,-0.8515391945838928,-0.0040319724939763,-1.1599043607711792,4.571474075317383,61.11976623535156,25.59,0
-0.2019644528627395,-0.8935308456420898,-0.0249785855412483,-1.0811219215393066,4.570880889892578,61.119850158691406,25.59,0
-0.2247713208198547,-0.9316742420196532,-0.0384209156036376,-0.8621828556060791,4.570499897003174,61.119903564453125,25.59,0
-0.2394074648618698,-0.94495689868927,-0.0526452027261257,-0.4350743293762207,4.570255756378174,61.11993789672852,25.59,0
-0.2488000988960266,-1.0038609504699707,-0.0953601747751236,0.0503913238644599,4.570098876953125,61.11996078491211,25.59,0
-0.2492299675941467,-1.1200309991836548,-0.145163282752037,0.2078844606876373,4.569998264312744,61.11997604370117,25.59,0
-0.2886902689933777,-1.2393643856048584,-0.1547329574823379,-0.0206424836069345,4.569933891296387,61.1199836730957,25.59,0
-0.3196113705635071,-1.0752414464950562,-0.0881031602621078,-0.2926880419254303,4.567138195037842,61.11998748779297,25.59,0
-0.3282592296600342,-0.9811123609542848,-0.0453439876437187,-0.4027848839759826,4.565343856811523,61.11999130249024,25.59,0
-0.2554400861263275,-1.015867829322815,-0.0346969366073608,-0.4304477870464325,4.564192295074463,61.1199951171875,25.59,0
-0.163926750421524,-0.9989874958992004,-0.033462043851614,-0.4696957170963287,4.563453674316406,61.1199951171875,25.59,0
-0.0828076526522636,-0.9377747178077698,-0.0102784633636474,-0.5522039532661438,4.562979221343994,61.1199951171875,25.59,0
-0.0867278277873992,-0.8761007785797119,0.0213927458971738,-0.7806992530822754,4.5626749992370605,61.1199951171875,25.59,0
-0.1116346716880798,-0.8253264427185059,0.0361197292804718,-1.1351237297058103,4.562479972839356,61.1199951171875,25.59,0
-0.1556073278188705,-0.7871446013450623,0.0399728864431381,-1.35182523727417,4.562354564666748,61.1199951171875,25.59,0
-0.1782286614179611,-0.7682394981384277,0.0480433963239192,-1.326093316078186,4.557683944702148,61.3564453125,25.59,0
-0.1871479600667953,-0.7729005813598633,0.0644181296229362,-1.3310755491256714,4.554686546325684,61.50818634033203,25.59,0
-0.18727408349514,-0.7982829213142395,0.0805242657661438,-1.463245511054993,4.552762985229492,61.60556411743164,25.59,0
-0.1929527968168258,-0.8201696276664734,0.0908602625131607,-1.4262570142745972,4.551528453826904,61.66805648803711,25.59,0
-0.2021948397159576,-0.8622041344642639,0.1086888536810875,-1.083670735359192,4.550735950469971,61.70816040039063,25.59,0
-0.2193213999271392,-0.9003750085830688,0.1257279962301254,-0.559299647808075,4.550227642059326,61.7338981628418,25.59,0
-0.2527033388614654,-0.9640552997589112,0.1366627365350723,0.1390516608953476,4.549901485443115,61.75041580200195,25.59,0
-0.2853215038776397,-1.0441060066223145,0.1436800211668014,0.9992095232009888,4.549692153930664,61.76101303100586,25.59,0
-0.3062539398670196,-1.0898802280426023,0.1481833159923553,1.791242003440857,4.557820796966553,61.76781463623047,25.59,0
-0.3028938770294189,-1.1528421640396118,0.1398777216672897,2.274444818496704,4.563036918640137,61.77217864990234,25.59,0
-0.2951397895812988,-1.1988452672958374,0.1345476657152176,2.2728524208068848,4.566384315490723,61.77497863769531,25.59,0
-0.3013592064380646,-1.2283673286437988,0.142322689294815,1.7165312767028809,4.568532466888428,61.77677536010742,25.59,0
-0.2885571420192718,-1.1465530395507812,0.1417144834995269,0.915277063846588,4.569911003112793,61.777931213378906,25.59,0
-0.263548195362091,-1.0604627132415771,0.1245308443903923,0.4727297127246856,4.570796012878418,61.77867126464844,25.59,0
-0.2474988996982574,-1.0164103507995603,0.0911122784018516,0.6472979784011841,4.571363925933838,61.77914810180664,25.59,0
-0.2539927065372467,-1.0161290168762207,0.064068391919136,1.0602622032165527,4.571728229522705,61.77945327758789,25.59,0
-0.2749533951282501,-1.0215462446212769,0.0467131808400154,1.1712281703948977,4.571043968200684,61.77964782714844,25.59,0
-0.2772091925144195,-0.9746426939964294,0.0187822822481393,0.8841820955276489,4.5706048011779785,61.7797737121582,25.59,0
-0.2618635296821594,-0.9333471655845642,-0.0047399350441992,0.4921830594539642,4.5703229904174805,61.77985382080078,25.59,0
-0.2520155608654022,-0.9124438762664796,-0.019835140556097,0.1582214385271072,4.5701422691345215,61.7799072265625,25.59,0
-0.2400979250669479,-0.893431544303894,-0.0295223742723464,-0.2101466804742813,4.57002592086792,61.77994155883789,25.59,0
-0.238047644495964,-0.8700349926948547,-0.0413368567824363,-0.629255473613739,4.56995153427124,61.77996063232422,25.59,0
-0.2423296719789505,-0.8494226336479187,-0.0433209389448165,-0.9053805470466614,4.56990385055542,61.77997589111328,25.59,0
-0.2450776249170303,-0.8361948132514954,-0.0389964319765567,-0.932113528251648,4.569873332977295,61.77998352050781,25.59,0
-0.2468411028385162,-0.827705979347229,-0.0306234396994113,-0.8274616599082947,4.573525905609131,61.77998733520508,25.59,0
-0.2479728013277053,-0.8390516638755798,-0.0252501349896192,-0.692233145236969,4.575870037078857,61.77999114990234,25.59,0
-0.2431012839078903,-0.8631259799003601,-0.0218018572777509,-0.5373823642730713,4.577374458312988,61.77999496459961,25.59,0
-0.245572805404663,-0.8953688144683838,-0.0139911770820617,-0.4272603094577789,4.57834005355835,61.77999496459961,25.59,0
-0.252756655216217,-0.927255928516388,-0.0033809577580541,-0.252695620059967,4.578959465026856,61.77999496459961,25.59,0
-0.27975794672966,-0.9533170461654664,0.0146236196160316,0.3143170773983001,4.579357147216797,61.77999496459961,25.59,0
-0.2970858216285705,-0.9812371134757996,0.0261779204010963,1.143928050994873,4.579612255096436,61.77999496459961,25.59,0
-0.2970103025436401,-1.0775234699249268,0.022397257387638,1.511526107788086,4.579775810241699,61.77999496459961,25.59,0
-0.3249506950378418,-1.1001300811767578,0.0759487897157669,1.1276438236236572,4.577585697174072,62.00928115844727,25.59,0
-0.3428812325000763,-1.0362688302993774,0.1327061802148819,0.5445281267166138,4.576180458068848,62.15642547607422,25.59,0
-0.3152036070823669,-0.9561019539833068,0.1523364782333374,0.2240566462278366,4.5752787590026855,62.25085067749024,25.59,0
-0.2806483805179596,-0.9550354480743408,0.1313474327325821,-0.0317595563828945,4.574699878692627,62.31144714355469,25.59,0
-0.2360817193984985,-0.9935354590415956,0.1066823229193687,-0.4932814836502075,4.574328422546387,62.35033798217773,25.59,0
-0.1962858587503433,-0.9846558570861816,0.107646994292736,-1.0724830627441406,4.574090003967285,62.37529373168945,25.59,0
-0.17074716091156,-0.9509685635566713,0.1026682928204536,-1.5086677074432373,4.573936939239502,62.39130783081055,25.59,0
-0.1711512207984924,-0.91815447807312,0.0602888278663158,-1.6058745384216309,4.573838710784912,62.40158462524414,25.59,0
-0.1770083010196685,-0.902694046497345,0.0107010258361697,-1.403145670890808,4.569185256958008,62.408180236816406,25.59,0
-0.2031581252813339,-0.8983702063560486,-0.0379148945212364,-1.1942293643951416,4.566198825836182,62.41241455078125,25.59,0
-0.2311351299285888,-0.9011932015419006,-0.0747115686535835,-1.2034618854522705,4.564282417297363,62.415130615234375,25.59,0
-0.249089166522026,-0.897407054901123,-0.0983255505561828,-1.2917860746383667,4.563052654266357,62.416873931884766,25.59,0
-0.2326221615076065,-0.8837817907333374,-0.1246751993894577,-1.165756106376648,4.562263011932373,62.4179916381836,25.59,0
-0.2108590304851532,-0.8750378489494324,-0.141584888100624,-0.7516977190971375,4.561756610870361,62.41870880126953,25.59,0
-0.1689038276672363,-0.88621985912323,-0.1356432288885116,-0.1671296954154968,4.561431407928467,62.41917037963867,25.59,0
-0.1419793963432312,-0.8933957815170288,-0.1094391122460365,0.4659578800201416,4.561223030090332,62.41946792602539,25.59,0
-0.1414941698312759,-0.909196436405182,-0.0870250463485717,1.0728613138198853,4.567056655883789,62.41965866088867,25.61,0
-0.1691716611385345,-0.9417275190353394,-0.0558476671576499,1.66296124458313,4.57080078125,62.41978073120117,25.61,0
-0.1869334727525711,-0.9737996459007264,-0.0358398184180259,2.263772964477539,4.5732035636901855,62.41985702514648,25.61,0
-0.1759408861398697,-1.0111750364303589,-0.0174021571874618,2.7138257026672363,4.574745178222656,62.41990661621094,25.61,0
-0.1744842529296875,-1.1191270351409912,0.0056256204843521,2.766193628311157,4.575734615325928,62.41994094848633,25.61,0
-0.1959405690431594,-1.2555776834487915,0.0260012969374656,2.3878042697906494,4.576369762420654,62.419960021972656,25.61,0
-0.2544921934604645,-1.2479816675186155,0.0502727814018726,1.8762825727462769,4.57677698135376,62.41997528076172,25.61,0
-0.2808716893196106,-1.1647381782531738,0.054653275758028,1.587425708770752,4.577038288116455,62.41998291015625,25.61,0
-0.2586161196231842,-1.0721328258514404,0.018280005082488,1.5417745113372805,4.572156429290772,62.41998672485352,25.61,0
-0.233138233423233,-1.0630840063095093,-0.0106600429862737,1.344097137451172,4.569023609161377,62.41999053955078,25.61,0
-0.2223857641220092,-1.057276964187622,-0.0292320996522903,0.6619399785995483,4.567013263702393,62.41999435424805,25.61,0
-0.2434743195772171,-1.003170371055603,-0.0523461252450943,-0.284555047750473,4.565722942352295,62.41999435424805,25.61,0
-0.2738010585308075,-0.951654613018036,-0.089570477604866,-0.970777690410614,4.564895153045654,62.41999435424805,25.61,0
-0.3100563585758209,-0.9297903180122375,-0.1470455676317215,-1.2069491147994995,4.564363956451416,62.41999435424805,25.61,0
-0.3277251422405243,-0.9325523972511292,-0.189527541399002,-1.351345181465149,4.564023017883301,62.41999435424805,25.61,0
-0.3278684020042419,-0.9287271499633788,-0.2055944800376892,-1.7449465990066528,4.5638041496276855,62.41999435424805,25.61,0
-0.327960342168808,-0.937467873096466,-0.2159053236246109,-2.1909964084625244,4.562745571136475,62.64569854736328,25.61,0
-0.3168237805366516,-0.959870457649231,-0.2281199991703033,-2.298116683959961,4.562066078186035,62.79054260253906,25.61,0
-0.3152747452259063,-0.9854426980018616,-0.2191653549671173,-2.04084587097168,4.5616302490234375,62.88349533081055,25.61,0
-0.2918895781040191,-0.9962557554244996,-0.2022232264280319,-1.6285465955734253,4.561350345611572,62.943145751953125,25.61,0
-0.2600890100002289,-1.008792757987976,-0.1857529729604721,-1.191992998123169,4.56117057800293,62.98142623901367,25.61,0
-0.245278999209404,-1.02803373336792,-0.1807810813188552,-0.7255441546440125,4.561055660247803,63.0059928894043,25.61,0
-0.2357747852802276,-1.0459792613983154,-0.183188185095787,-0.1718412786722183,4.560981750488281,63.021759033203125,25.61,0
-0.2296755313873291,-1.0407023429870603,-0.1735373735427856,0.3447092473506927,4.560934066772461,63.03187561035156,25.61,0
-0.2257613837718963,-1.02612042427063,-0.1561484932899475,0.4684122800827026,4.564116954803467,63.038368225097656,25.61,0
-0.2232495099306106,-1.050349235534668,-0.1561848521232605,0.1680447459220886,4.566159248352051,63.04253387451172,25.61,0
-0.2552241683006286,-1.1498645544052124,-0.15620818734169,-0.013966117054224,4.567470073699951,63.04520797729492,25.61,0
-0.264548122882843,-1.152152180671692,-0.1282342970371246,0.234652504324913,4.5683112144470215,63.04692459106445,25.61,0
-0.2089561820030212,-1.0808491706848145,-0.0990867167711258,0.5876607298851013,4.568850994110107,63.04802703857422,25.61,0
-0.1117049530148506,-1.0910687446594238,-0.1083703488111496,0.7174714803695679,4.569197654724121,63.04873275756836,25.61,0
-0.0325013920664787,-1.1032248735427856,-0.1143280491232872,0.6718038320541382,4.569419860839844,63.04918670654297,25.61,0
-0.004064199514687,-1.043852686882019,-0.1013580337166786,0.4884462356567383,4.5695624351501465,63.04947662353516,25.61,0
-0.013803718611598,-0.9721643924713136,-0.0874368473887443,0.1880665272474289,4.570113182067871,63.04966354370117,25.61,0
-0.0704339519143104,-0.9373545050621032,-0.1232852265238761,0.0382910296320915,4.570466995239258,63.04978561401367,25.61,0
-0.1291670799255371,-0.9430044293403624,-0.179877296090126,0.2001191824674606,4.5706939697265625,63.04986190795898,25.61,0
-0.1668586134910583,-0.9466301798820496,-0.2161948382854461,0.3648749589920044,4.570839405059815,63.04991149902344,25.61,0
-0.1798513233661651,-0.9433591961860656,-0.2339035719633102,0.205495148897171,4.570932865142822,63.04994201660156,25.61,0
-0.182591512799263,-0.9468578696250916,-0.2452680170536041,-0.1654788255691528,4.570992946624756,63.04996109008789,25.61,0
-0.1563611477613449,-0.9491031169891356,-0.2413655072450637,-0.4357917606830597,4.57103157043457,63.04997634887695,25.61,0
-0.1115391328930854,-0.9617395401000975,-0.2220677882432937,-0.4301342368125915,4.571056365966797,63.04998397827149,25.61,0
-0.0603838488459587,-0.9642511010169984,-0.2040858417749405,-0.2581225037574768,4.57703971862793,63.04998779296875,25.61,0
-0.0163597799837589,-0.9714606404304504,-0.1981438398361206,-0.2767080068588257,4.580879211425781,63.049991607666016,25.61,0
0.017490105703473,-0.992880642414093,-0.2111239284276962,-0.5429979562759399,4.583343505859375,63.04999542236328,25.61,0
0.0672018900513649,-0.9730401039123536,-0.1914649307727813,-0.409368634223938,4.584924697875977,63.04999542236328,25.61,0
0.0655174031853675,-0.9435142874717712,-0.1452622711658477,0.6365172863006592,4.585939407348633,63.04999542236328,25.61,0
0.036447525024414,-0.9357618689537048,-0.104416511952877,1.95973539352417,4.586590766906738,63.04999542236328,25.61,0
-0.0157944969832897,-0.9531778693199158,-0.0558129549026489,2.4721386432647705,4.587008476257324,63.04999542236328,25.61,0
-0.0717115178704261,-1.0035388469696045,-0.03021976724267,2.0307157039642334,4.587276458740234,63.04999542236328,25.61,0
-0.1691713631153106,-1.1478132009506226,0.0029977890662848,1.3139442205429075,4.592039585113525,63.272117614746094,25.61,0
-0.214922159910202,-1.1284446716308594,0.0467060059309005,0.7679796814918518,4.595096111297607,63.4146614074707,25.61,0
-0.2162935137748718,-1.065635085105896,0.074755422770977,0.3495421111583709,4.597057819366455,63.50613784790039,25.61,0
-0.189184695482254,-1.053316354751587,0.0423759520053863,-0.0336294583976268,4.598316669464111,63.56484222412109,25.61,0
-0.1829833686351776,-1.0789976119995115,-0.0007944252574816,-0.3583435416221618,4.599124431610107,63.602516174316406,25.61,0
-0.1790037155151367,-1.0954782962799072,-0.067683108150959,-0.5989695191383362,4.599642753601074,63.62669372558594,25.61,0
-0.1652542501688003,-1.0444791316986084,-0.1106084138154983,-0.7318940162658691,4.5999755859375,63.642208099365234,25.61,0
-0.1620284020900726,-0.9613708257675172,-0.1605464965105056,-0.7992843985557556,4.600188732147217,63.65216445922852,25.61,0
-0.1487627029418945,-0.9248300790786744,-0.2317783087491989,-0.9249309301376344,4.606293201446533,63.65855407714844,25.61,0
-0.1458473056554794,-0.9069780707359314,-0.2942841053009033,-1.084380269050598,4.61021089553833,63.66265487670898,25.61,0
-0.1439763754606247,-0.8787283897399902,-0.3399945199489593,-1.0684807300567627,4.612724781036377,63.665287017822266,25.61,0
-0.1371779441833496,-0.8494037985801697,-0.3525354862213135,-0.8003318309783936,4.614337921142578,63.66697311401367,25.61,0
-0.1328151077032089,-0.8417804837226868,-0.3325946927070617,-0.4562857151031494,4.615373134613037,63.66805648803711,25.61,0
-0.1300152838230133,-0.8536816239356995,-0.2918089628219604,-0.2068360894918441,4.616037845611572,63.66875076293945,25.61,0
-0.1226207464933395,-0.8781124353408813,-0.2600372731685638,-0.0216756463050842,4.616464138031006,63.66919708251953,25.61,0
-0.129070907831192,-0.8937907218933105,-0.2116591483354568,0.1938792020082473,4.616737842559815,63.66948318481445,25.61,0
-0.1276124715805053,-0.9150477051734924,-0.1862106323242187,0.5005909204483032,4.620585918426514,63.6696662902832,25.61,0
-0.1210787594318389,-0.9734714031219482,-0.1754770129919052,0.9267057180404664,4.623055458068848,63.66978454589844,25.61,0
-0.1336791217327118,-1.0501487255096436,-0.168588787317276,1.3434646129608154,4.624640464782715,63.66986083984375,25.61,0
-0.1249719858169555,-1.1217468976974487,-0.1753638684749603,1.438952922821045,4.625657558441162,63.6699104309082,25.61,0
-0.1249820217490196,-1.1788901090621948,-0.1685161739587783,1.08823561668396,4.626310348510742,63.66994094848633,25.61,0
-0.1361840069293975,-1.1819746494293213,-0.1473284065723419,0.558646559715271,4.6267290115356445,63.669960021972656,25.61,0
-0.1097861528396606,-1.1615630388259888,-0.1113402172923088,0.125639796257019,4.626997947692871,63.66997528076172,25.61,0
-0.0256722383201122,-1.0980840921401978,-0.0882450640201568,-0.166569322347641,4.627170085906982,63.66998291015625,25.61,0
0.0618938766419887,-1.0461513996124268,-0.0846194773912429,-0.2860233783721924,4.625903129577637,63.66998672485352,25.61,0
0.1516754180192947,-1.0296173095703125,-0.0990861058235168,-0.2337093949317932,4.6250901222229,63.66999053955078,25.61,0
0.2092920392751693,-1.0246044397354126,-0.1139677315950393,-0.2216327488422393,4.624568462371826,63.66999435424805,25.61,0
0.1958871036767959,-0.9822030663490297,-0.1235179007053375,-0.4145068824291229,4.624233722686768,63.66999435424805,25.61,0
0.13130684196949,-0.9214056730270386,-0.1240488737821579,-0.6385945081710815,4.624018669128418,63.66999435424805,25.61,0
0.0730696246027946,-0.8711938261985779,-0.1131940707564354,-0.6820889115333557,4.623880863189697,63.66999435424805,25.61,0
0.0021096810232847,-0.8221774697303772,-0.0950325354933738,-0.6347670555114746,4.623792171478272,63.66999435424805,25.61,0
-0.0490260943770408,-0.790721595287323,-0.0721819624304771,-0.6079812049865723,4.623735427856445,63.66999435424805,25.61,0
-0.0762443169951438,-0.7985239028930664,-0.0463222302496433,-0.4295756816864013,4.624158382415772,63.83837890625,25.61,0
-0.0545269884169101,-0.8427153825759888,-0.0241291671991348,0.0073465150780975,4.624429702758789,63.94643783569336,25.61,0
-0.0349922813475132,-0.871074914932251,-0.0098869362846016,0.3414766788482666,4.624603748321533,64.01578521728516,25.61,0
-0.0392493568360805,-0.9116654992103576,0.0048506818711757,0.1761491745710373,4.624715805053711,64.06028747558594,25.61,0
-0.0531768500804901,-0.9377142190933228,0.0143084367737174,-0.3347795307636261,4.624787330627441,64.0888442993164,25.61,0
-0.073310263454914,-0.9656263589859008,0.0259756539016962,-0.7558111548423767,4.624833583831787,64.10717010498047,25.61,0
-0.1030240505933761,-1.0003321170806885,0.0110719054937362,-0.8074678778648376,4.624863147735596,64.11893463134766,25.61,0
-0.1164948716759681,-1.0282020568847656,-0.0040902369655668,-0.4716129302978515,4.624882221221924,64.12648010253906,25.61,0
-0.1195418983697891,-1.102065086364746,-0.0250159762799739,-0.0518737211823463,4.620304107666016,64.1313247680664,25.61,0
-0.149486169219017,-1.2334327697753906,-0.0552382320165634,0.0562748201191425,4.617365837097168,64.13442993164062,25.61,0
-0.2190826535224914,-1.2897480726242063,-0.0746331363916397,-0.085693635046482,4.615480422973633,64.13642883300781,25.61,0
-0.179779052734375,-1.0739881992340088,-0.0758841261267662,-0.0514106675982475,4.614270210266113,64.13771057128906,25.61,0
-0.126567393541336,-0.9579169750213624,-0.0878824815154075,0.2500310838222503,4.613493919372559,64.1385269165039,25.61,0
-0.070028118789196,-0.9617980122566224,-0.1235712096095085,0.4757221937179565,4.612995624542236,64.13905334472656,25.61,0
-0.0337444655597209,-0.9978752732276917,-0.1744630485773086,0.4808373153209686,4.612675666809082,64.13938903808594,25.61,0
-0.0272530298680067,-1.0042341947555542,-0.2295136004686355,0.4733721911907196,4.612470626831055,64.13961029052734,25.61,0
-0.039880521595478,-0.957935094833374,-0.2368530035018921,0.5008246898651123,4.612339019775391,64.1397476196289,25.59,0
-0.0591796711087226,-0.9338207244873048,-0.2359652370214462,0.2712444067001343,4.612254619598389,64.13983917236328,25.59,0
-0.0827603042125701,-0.9351388812065125,-0.2409932911396026,-0.2916657626628876,4.6122002601623535,64.13990020751953,25.59,0
-0.1034907698631286,-0.930387020111084,-0.2274266928434372,-0.7962121367454529,4.612165451049805,64.13993835449219,25.59,0
-0.1335877180099487,-0.910544216632843,-0.1907315552234649,-0.8978813290596008,4.612143039703369,64.13996124267578,25.59,0
-0.1640977561473846,-0.892212450504303,-0.1559871733188629,-0.633529782295227,4.612128734588623,64.13997650146484,25.59,0
-0.1892751157283783,-0.869252622127533,-0.1336902379989624,-0.274007648229599,4.612119674682617,64.13998413085938,25.59,0
-0.2390191406011581,-0.8489205837249756,-0.1081857979297638,-0.0468695983290672,4.6121134757995605,64.1399917602539,25.59,0
-0.2765397727489471,-0.8358726501464844,-0.091818518936634,0.084564208984375,4.610732555389404,64.1399917602539,25.59,0
-0.3118138909339905,-0.8442925214767456,-0.0813149362802505,0.3981956839561462,4.609846591949463,64.1399917602539,25.59,0
-0.3344507813453674,-0.8832826018333435,-0.0745743438601493,1.0114624500274658,4.609277725219727,64.1399917602539,25.59,0
-0.3433800637722015,-0.9027063846588136,-0.0646508410573005,1.7417839765548706,4.608912944793701,64.1399917602539,25.59,0
-0.3267192840576172,-0.943160355091095,-0.0806736126542091,2.371678113937378,4.608678817749023,64.1399917602539,25.59,0
-0.3048318028450012,-0.96352356672287,-0.1021516472101211,2.6935086250305176,4.6085286140441895,64.1399917602539,25.59,0
-0.2571990191936493,-1.0325692892074585,-0.1719127595424652,2.484462261199951,4.608432292938232,64.1399917602539,25.59,0
-0.2546199262142181,-1.1440521478652954,-0.2558658421039581,1.787843942642212,4.608370304107666,64.1399917602539,25.59,0
-0.2641603648662567,-1.1596176624298096,-0.2817532420158386,1.0004496574401855,4.602821826934815,64.3083724975586,25.59,0
-0.2758806347846985,-1.1192266941070557,-0.2759751677513122,0.4557370841503143,4.599261283874512,64.41643524169922,25.59,0
-0.255413144826889,-1.0989038944244385,-0.2722671329975128,0.099006749689579,4.596976280212402,64.48577880859375,25.59,0
-0.163909450173378,-1.0858619213104248,-0.2530942261219024,-0.3627896904945373,4.595510005950928,64.53028106689453,25.59,0
-0.0380143634974956,-1.027112364768982,-0.2128012776374817,-1.0138190984725952,4.594568729400635,64.558837890625,25.59,0
0.0371800884604454,-0.9670192003250122,-0.1757480353116989,-1.6859750747680664,4.59396505355835,64.57716369628906,25.59,0
0.0294578149914741,-0.9172592759132384,-0.1463716179132461,-2.2749593257904053,4.5935773849487305,64.58892822265625,25.59,0
0.0077087813988327,-0.8909240365028381,-0.1275195181369781,-2.8141515254974365,4.593328475952148,64.59648132324219,25.59,0
-0.0454329214990139,-0.8516324758529663,-0.12101911008358,-3.2855641841888428,4.583528995513916,64.60132598876953,25.59,0
-0.0795361995697021,-0.8096240758895874,-0.1112497448921203,-3.534351110458374,4.577239990234375,64.60443115234375,25.59,0
-0.0902261734008789,-0.7882633209228516,-0.0993825569748878,-3.407402276992798,4.573204517364502,64.60643005371094,25.59,0
-0.102684162557125,-0.7913485169410706,-0.0861691012978553,-2.9031896591186523,4.570614337921143,64.60771179199219,25.59,0
-0.121874526143074,-0.7989261746406555,-0.0776894688606262,-2.271513700485229,4.568952560424805,64.60852813720703,25.59,0
-0.1397875696420669,-0.8093868494033813,-0.0666499510407447,-1.8124017715454104,4.567885875701904,64.60905456542969,25.59,0
-0.1512831300497055,-0.8552843332290649,-0.0651632025837898,-1.5034397840499878,4.567201137542725,64.60939025878906,25.59,0
-0.1530625522136688,-0.9015320539474488,-0.0642090886831283,-0.8215181231498718,4.56676197052002,64.60961151123047,25.59,0
-0.1598022580146789,-0.9759933352470398,-0.0859878957271575,0.7696892023086548,4.561889171600342,64.60974884033203,25.59,0
-0.1697251796722412,-1.040571689605713,-0.1055620536208152,2.733052015304565,4.558762073516846,64.6098403930664,25.59,0
-0.1816909164190292,-1.0596232414245603,-0.1293191611766815,3.5595335960388184,4.556755542755127,64.60990142822266,25.59,0
-0.2173587083816528,-1.1502182483673096,-0.1501628905534744,2.7464559078216557,4.55546760559082,64.60993957519531,25.59,0
-0.2794326543807983,-1.2811279296875,-0.1579414159059524,1.5511454343795776,4.554641246795654,64.6099624633789,25.59,0
-0.3192681670188904,-1.1580206155776978,-0.1181510314345359,1.0133486986160278,4.554111003875732,64.60997772216797,25.59,0
-0.3000501096248626,-0.995050847530365,-0.092615857720375,0.7076300382614136,4.553770542144775,64.6099853515625,25.59,0
-0.214945986866951,-0.9576395153999328,-0.0930221751332283,0.0421200394630432,4.553552150726318,64.60999298095703,25.59,0
-0.1267444193363189,-0.9952065944671632,-0.1212717965245246,-0.8542833924293518,4.553411960601807,64.60999298095703,25.59,0
-0.0701417252421379,-1.0193150043487549,-0.1617918759584427,-1.8594526052474976,4.5533223152160645,64.60999298095703,25.59,0
-0.0338173732161521,-0.9956019520759584,-0.2101864218711853,-3.056228876113892,4.553264617919922,64.60999298095703,25.59,0
-0.0049087204970419,-0.9691886901855468,-0.2356454879045486,-4.168178081512451,4.553227424621582,64.60999298095703,25.59,0
0.0304365120828151,-0.9578359723091124,-0.2463858723640442,-4.813694477081299,4.553203582763672,64.60999298095703,25.59,0
-0.0028586974367499,-0.967343807220459,-0.2476806640625,-5.227949619293213,4.553188323974609,64.60999298095703,25.59,0
-0.0354211926460266,-0.956652045249939,-0.2261204868555069,-5.916538715362549,4.553178787231445,64.60999298095703,25.59,0
-0.0619157031178474,-0.9441928863525392,-0.1786977648735046,-6.791926860809326,4.553172588348389,64.60999298095703,25.59,0
-0.0901139006018638,-0.9361973404884338,-0.1426668167114257,-7.274884223937988,4.5435285568237305,64.76404571533203,25.59,0
-0.1361987590789795,-0.9254685044288636,-0.1139464452862739,-7.201482772827148,4.537339687347412,64.86290740966797,25.59,0
-0.1713711470365524,-0.918583333492279,-0.0843198150396347,-7.025405406951904,4.533368110656738,64.92635345458984,25.59,0
-0.1939427554607391,-0.9085670709609984,-0.0597093775868415,-6.991225719451904,4.530818939208984,64.96707153320312,25.59,0
-0.2028301358222961,-0.8909436464309692,-0.0495135895907878,-6.525051593780518,4.529183387756348,64.99320220947266,25.59,0
-0.2141313254833221,-0.8740361928939819,-0.0429705195128917,-4.688962936401367,4.528133869171143,65.00997161865234,25.59,0
-0.243774875998497,-0.8799792528152466,-0.0387715548276901,-1.2070707082748413,4.527460098266602,65.0207290649414,25.59,0
-0.2683961689472198,-0.9061842560768129,-0.052870225161314,3.0730574131011963,4.527027606964111,65.02763366699219,25.59,0
-0.2730011641979217,-0.934196710586548,-0.0731134861707687,6.815753936767578,4.528586387634277,65.03206634521484,25.59,0
-0.2535652816295624,-0.9857600927352904,-0.1196910962462425,9.292834281921388,4.529586791992188,65.034912109375,25.59,0
-0.2187013477087021,-1.0636327266693115,-0.1775707900524139,10.599458694458008,4.530229091644287,65.03673553466797,25.59,0
-0.2131209969520568,-1.2031712532043457,-0.2315079718828201,10.972240447998049,4.530641078948975,65.03790283203125,25.59,0
-0.2487242817878723,-1.1191880702972412,-0.193350687623024,10.46629524230957,4.530905723571777,65.03865814208984,25.59,0
-0.2547791004180908,-1.014912486076355,-0.1632657647132873,9.202973365783691,4.531075477600098,65.03913879394531,25.59,0
-0.197089210152626,-1.0375587940216064,-0.1327634453773498,7.432116031646728,4.531184196472168,65.03944396972656,25.59,0
-0.09849164634943,-1.0520919561386108,-0.0963954851031303,5.400037288665772,4.531254291534424,65.03964233398438,25.59,0
0.0151625694707036,-0.9886474013328552,-0.0506655238568782,3.404529333114624,4.5326762199401855,65.0397720336914,25.61,0
0.0209260135889053,-0.9199435114860536,-0.0325142182409763,1.837321162223816,4.533588409423828,65.03985595703125,25.61,0
-0.0089619867503643,-0.8702555298805237,-0.0264635272324085,0.8996461033821106,4.534173965454102,65.03990936279297,25.61,0
-0.0841201245784759,-0.8271730542182922,-0.0225805435329675,0.3337259292602539,4.534549713134766,65.0399398803711,25.61,0
-0.1211567446589469,-0.7995252013206482,-0.0144908931106328,-0.2264907211065292,4.534790992736816,65.03996276855469,25.61,0
-0.1281313896179199,-0.798575758934021,-0.0092994207516312,-0.6899001598358154,4.534945964813232,65.03997802734375,25.61,0
-0.1549984216690063,-0.8035642504692078,-0.00037005887134,-0.7150139808654785,4.535045146942139,65.03998565673828,25.61,0
-0.1778379082679748,-0.81236332654953,0.0109580662101507,-0.2797260284423828,4.535109043121338,65.03999328613281,25.61,0
-0.2036905288696289,-0.8124122619628906,0.0350211262702941,0.3578742742538452,4.533313274383545,65.03999328613281,25.61,0
-0.2202812433242797,-0.8236392140388489,0.061658963561058,1.0536555051803589,4.532161235809326,65.03999328613281,25.61,0
-0.2141348868608474,-0.853235125541687,0.0843513682484626,1.8655905723571775,4.531421661376953,65.03999328613281,25.61,0
-0.2101905047893524,-0.9114125370979308,0.098914049565792,2.787892341613769,4.530947208404541,65.03999328613281,25.61,0
-0.2132570147514343,-0.9823340773582458,0.1026617661118507,3.444258689880371,4.530642509460449,65.03999328613281,25.61,0
-0.2432137876749038,-1.078227400779724,0.1050668358802795,3.313760280609131,4.530447006225586,65.03999328613281,25.61,0
-0.2736338675022125,-1.1509617567062378,0.1066102683544159,2.5206639766693115,4.5303215980529785,65.03999328613281,25.61,0
-0.2931557297706604,-1.2256274223327637,0.1131985262036323,1.8325716257095337,4.530241012573242,65.03999328613281,25.61,0
-0.2888904213905334,-1.2847390174865725,0.1230242699384689,1.6131131649017334,4.534780025482178,65.18329620361328,25.61,0
-0.28055539727211,-1.3058801889419556,0.1293298602104187,1.4866076707839966,4.537693023681641,65.27526092529297,25.61,0
-0.2752064764499664,-1.2298829555511477,0.1221808791160583,1.1833040714263916,4.539562225341797,65.33428192138672,25.61,0
-0.2661760747432709,-1.1363301277160645,0.1063975244760513,0.8632711172103882,4.540761947631836,65.37215423583984,25.61,0
-0.2491853237152099,-1.0371088981628418,0.0738775804638862,0.5468325614929199,4.541532039642334,65.3964614868164,25.61,0
-0.2550749480724334,-1.018216609954834,0.0362148284912109,0.0034158159978687,4.542026042938232,65.41206359863281,25.61,0
-0.2700501382350921,-1.011690378189087,0.006447269115597,-0.7931397557258606,4.5423431396484375,65.42207336425781,25.61,0
-0.2964536845684051,-0.957122266292572,-0.0350469350814819,-1.633920192718506,4.54254674911499,65.42849731445312,25.61,0
-0.3078001737594604,-0.910908043384552,-0.0728710740804672,-2.417099714279175,4.534414291381836,65.4326171875,25.61,0
-0.2926906049251556,-0.8924459218978882,-0.0915466547012329,-3.1418190002441406,4.529195308685303,65.43526458740234,25.61,0
-0.2773963809013366,-0.8917935490608215,-0.1035315692424774,-3.6678059101104736,4.525846004486084,65.43695831298828,25.61,0
-0.267581433057785,-0.8913748860359192,-0.1112227961421012,-3.8799641132354736,4.523696899414063,65.43804931640625,25.61,0
-0.2556849718093872,-0.8855084776878357,-0.1217563599348068,-3.905055046081543,4.522317409515381,65.43875122070312,25.61,0
-0.2424527406692505,-0.8873414993286133,-0.1229184195399284,-3.8710007667541504,4.521432399749756,65.43920135498047,25.61,0
-0.2283632755279541,-0.8829200863838196,-0.1124686151742935,-3.680765628814697,4.520864486694336,65.43949127197266,25.61,0
-0.2193214744329452,-0.8744848966598511,-0.0889692083001136,-3.161017894744873,4.520499706268311,65.4396743774414,25.61,0
-0.2191167324781417,-0.8690716624259949,-0.0738886371254921,-2.15036678314209,4.523478984832764,65.43978881835938,25.59,0
-0.2245831191539764,-0.882391095161438,-0.0586130246520042,-0.541658878326416,4.525391101837158,65.43986511230469,25.59,0
-0.2280911356210708,-0.8853409290313721,-0.0376144647598266,1.2753013372421265,4.526618003845215,65.43991088867188,25.59,0
-0.2527334690093994,-0.8928317427635193,-0.007345475256443,2.4198262691497803,4.527405738830566,65.43994140625,25.59,0
-0.2741452753543854,-0.931225597858429,0.0176771935075521,2.5309484004974365,4.527911186218262,65.4399642944336,25.59,0
-0.2766906023025512,-0.9894511699676514,0.0337353013455867,2.150855541229248,4.52823543548584,65.43997955322266,25.59,0
-0.250335156917572,-1.110783576965332,0.0328449234366416,1.7851263284683228,4.528443336486816,65.43998718261719,25.59,0
-0.2334217578172683,-1.1942455768585205,0.0546646267175674,1.4035367965698242,4.528576850891113,65.43999481201172,25.59,0
-0.2449588179588318,-1.0798734426498413,0.1022539064288139,0.9078742861747742,4.5309576988220215,65.43999481201172,25.59,0
-0.2299715429544448,-1.051258206367493,0.104805089533329,0.328258603811264,4.532485961914063,65.43999481201172,25.59,0
-0.2259513437747955,-1.0496878623962402,0.0896489694714546,-0.4055455029010772,4.533466339111328,65.43999481201172,25.59,0
-0.2177736312150955,-1.059875726699829,0.0743248686194419,-1.2848724126815796,4.534095764160156,65.43999481201172,25.59,0
-0.1901345551013946,-1.0384248495101929,0.0700885206460952,-1.927990436553955,4.534499645233154,65.43999481201172,25.59,0
-0.1556040644645691,-0.9798766374588012,0.0617721006274223,-1.9143800735473635,4.534758567810059,65.43999481201172,25.59,0
-0.1558354794979095,-0.9534993171691896,0.022848455235362,-1.3145207166671753,4.534924983978272,65.43999481201172,25.59,0
-0.1671795397996902,-0.9533652067184448,-0.0189238246530294,-0.6357943415641785,4.535031795501709,65.43999481201172,25.59,0
-0.1856550425291061,-0.9420835971832277,-0.0513286404311656,-0.2288874089717865,4.5295915603637695,65.64061737060547,25.59,0
-0.2031093388795852,-0.9236481785774232,-0.0721241906285286,0.0465723164379596,4.5261006355285645,65.76937103271484,25.59,0
-0.2087127268314361,-0.9118173718452454,-0.0854695737361908,0.4597965180873871,4.523859977722168,65.85199737548828,25.59,0
-0.1899175643920898,-0.8986272811889648,-0.0940338745713234,1.0509943962097168,4.5224223136901855,65.90502166748047,25.59,0
-0.1610625833272934,-0.8901626467704773,-0.0939321741461753,1.691919207572937,4.521499633789063,65.93904876708984,25.59,0
-0.1313495635986328,-0.8903282880783081,-0.0826713591814041,2.307434558868408,4.520907402038574,65.96088409423828,25.59,0
-0.1122814640402793,-0.901630163192749,-0.0754448175430297,2.8457400798797607,4.520527362823486,65.97489929199219,25.59,0
-0.1112402006983757,-0.9200785756111144,-0.0652094632387161,3.1087942123413086,4.5202836990356445,65.98389434814453,25.59,0
-0.1217675283551216,-0.9431132674217224,-0.0530432276427745,2.944427728652954,4.518750190734863,65.98966217041016,25.59,0
-0.1229255869984626,-0.9690911173820496,-0.0452356375753879,2.505767345428467,4.517765998840332,65.99336242675781,25.59,0
-0.1124732121825218,-0.9745666980743408,-0.0234318543225526,2.030801057815552,4.517134666442871,65.99574279785156,25.59,0
-0.1113632544875145,-0.9724828004837036,-0.0038416672032326,1.5683618783950806,4.516729354858398,65.99726867675781,25.59,0
-0.1498353630304336,-1.038318753242493,-0.0024653607979416,1.1211267709732056,4.51646900177002,65.99824523925781,25.59,0
-0.2249045222997665,-1.1589373350143433,0.015211196616292,0.7588829398155212,4.516302108764648,65.99887084960938,25.59,0
-0.2842751443386078,-1.1747678518295288,0.0377505421638488,0.4189384579658508,4.516194820404053,65.99927520751953,25.59,0
-0.2719958126544952,-1.0617759227752686,0.0410194471478462,0.0001574373309267,4.516126155853272,65.9995346069336,25.59,0
-0.2361267805099487,-1.011655330657959,0.0263239201158285,-0.3939822912216186,4.514245986938477,65.99970245361328,25.61,0
-0.1851192265748977,-1.063457489013672,0.0112954014912247,-0.6218404173851013,4.513039588928223,65.99980926513672,25.61,0
-0.1859721541404724,-1.0687122344970703,-0.003946810029447,-0.6605893969535828,4.512265205383301,65.9998779296875,25.61,0
-0.1977150589227676,-1.038497805595398,-0.0361194834113121,-0.5278229117393494,4.511768341064453,65.99992370605469,25.61,0
-0.2220443040132522,-0.9799234867095948,-0.0791571512818336,-0.3638043999671936,4.511449337005615,65.99995422363281,25.61,0
-0.2432551980018615,-0.931138277053833,-0.1067762449383735,-0.3875194787979126,4.511244773864746,65.99996948242188,25.61,0
-0.2624649107456207,-0.8998307585716248,-0.135696142911911,-0.5818672180175781,4.511113166809082,65.9999771118164,25.61,0
-0.2691948115825653,-0.9021304845809937,-0.1542552709579467,-0.763909637928009,4.51102876663208,65.99998474121094,25.61,0
-0.2735136747360229,-0.9036063551902772,-0.1661654412746429,-1.03120219707489,4.508220672607422,65.99999237060547,25.61,0
-0.2818830609321594,-0.9101512432098388,-0.1570153832435608,-1.5789055824279783,4.506418228149414,65.99999237060547,25.61,0
-0.2872540354728699,-0.925546944141388,-0.1511434018611908,-2.1131014823913574,4.505261898040772,65.99999237060547,25.61,0
-0.2683097124099731,-0.9410247802734376,-0.1417773365974426,-2.0976600646972656,4.504519462585449,65.99999237060547,25.61,0
-0.2393590211868286,-0.9453597664833068,-0.1301689594984054,-1.5073734521865845,4.504043102264404,65.99999237060547,25.61,0
-0.215182363986969,-0.9593372941017152,-0.1283171474933624,-0.7953819036483765,4.503737449645996,65.99999237060547,25.61,0
-0.1940694004297256,-0.9906983375549316,-0.1327265352010727,-0.2596500515937805,4.503541469573975,65.99999237060547,25.61,0
-0.1805203109979629,-1.0164217948913574,-0.1355562210083007,0.1271427422761917,4.503415584564209,65.99999237060547,25.61,0
-0.1886186152696609,-1.0217341184616089,-0.1317743808031082,0.368198961019516,4.503334999084473,66.11821746826172,25.61,0
-0.2162067294120788,-1.0979143381118774,-0.1517385095357895,0.4010873734951019,4.5032830238342285,66.194091796875,25.61,0
-0.2507045269012451,-1.185986876487732,-0.1533547788858413,0.3254637122154236,4.503249645233154,66.24278259277344,25.61,0
-0.2784409821033478,-1.15854012966156,-0.1096098199486732,0.345001757144928,4.503228187561035,66.27403259277344,25.61,0
-0.2570562362670898,-1.0849486589431765,-0.0647435039281845,0.4900954365730285,4.503214359283447,66.29408264160156,25.61,0
-0.1593661159276962,-1.0265263319015503,-0.0527442023158073,0.5688778758049011,4.5032057762146,66.30695343017578,25.61,0
-0.0518920235335826,-1.0170230865478516,-0.0674348399043083,0.400898814201355,4.503200054168701,66.3152084350586,25.61,0
-0.0109102148562669,-1.0109244585037231,-0.076862446963787,0.0602321177721023,4.503196239471436,66.32051086425781,25.61,0
-0.0517837442457675,-0.9734240174293518,-0.0941080898046493,-0.2157093435525894,4.499980449676514,66.32391357421875,25.61,0
-0.1004051193594932,-0.9493584036827089,-0.1387619972229004,-0.3569669723510742,4.4979166984558105,66.32609558105469,25.61,0
-0.1539986133575439,-0.9283167123794556,-0.2066027224063873,-0.5192694664001465,4.496592044830322,66.3274917602539,25.61,0
-0.1771962940692901,-0.9204111695289612,-0.2613345384597778,-0.7989720702171326,4.495742321014404,66.3283920288086,25.61,0
-0.175289899110794,-0.9097400307655334,-0.2852627336978912,-1.0966941118240356,4.49519681930542,66.32897186279297,25.61,0
-0.1628709435462951,-0.9252830147743224,-0.2950206995010376,-1.201773166656494,4.494846820831299,66.32933807373047,25.61,0
-0.1549011617898941,-0.935257613658905,-0.2956850230693817,-0.979018211364746,4.494622230529785,66.32957458496094,25.61,0
-0.1385910660028457,-0.9416587352752686,-0.2793180048465729,-0.55662602186203,4.494478225708008,66.32972717285156,25.61,0
-0.094537541270256,-0.9401688575744628,-0.2520212829113006,-0.2712287306785583,4.492090225219727,66.32982635498047,25.61,0
-0.0662665292620658,-0.9392127394676208,-0.223308265209198,-0.2779536843299866,4.490557670593262,66.32988739013672,25.61,0
-0.0425260439515113,-0.9330013394355774,-0.1824908107519149,-0.3718337714672088,4.489574432373047,66.32992553710938,25.61,0
-0.021692993119359,-0.9346129894256592,-0.1395031958818435,-0.235038936138153,4.488943576812744,66.3299560546875,25.61,0
-0.0251168627291917,-0.9468428492546082,-0.0951228961348533,0.243248850107193,4.48853874206543,66.32997131347656,25.61,0
-0.0497052036225795,-0.9658867716789246,-0.0666421726346015,0.7185674905776978,4.488278865814209,66.3299789428711,25.61,0
-0.0654845833778381,-0.9893036484718324,-0.0483648851513862,0.7083329558372498,4.488111972808838,66.32998657226562,25.61,0
-0.098001979291439,-1.099493384361267,-0.0478311218321323,0.3076817095279693,4.488004684448242,66.32999420166016,25.61,0
-0.135663092136383,-1.2205867767333984,-0.047488585114479,0.0613145492970943,4.486099720001221,66.32999420166016,25.61,0
-0.1598318368196487,-1.2087332010269165,-0.064062088727951,0.1217473894357681,4.484877586364746,66.32999420166016,25.61,0
-0.1753419339656829,-1.1003663539886477,-0.0970891043543815,0.1390342563390731,4.484093189239502,66.32999420166016,25.61,0
-0.1740998774766922,-1.0588115453720093,-0.1238817200064659,-0.0397485494613647,4.48358964920044,66.32999420166016,25.61,0
-0.1789005696773529,-1.0601329803466797,-0.1690645515918731,-0.2547931671142578,4.483266830444336,66.32999420166016,25.61,0
-0.1987747102975845,-1.0497853755950928,-0.2092558294534683,-0.4608653485774994,4.483059406280518,66.32999420166016,25.61,0
-0.2227243334054947,-0.9815694093704224,-0.26863494515419,-0.7471613883972168,4.482926368713379,66.32999420166016,25.61,0
-0.2324960529804229,-0.9154012203216552,-0.3123387992382049,-1.0312018394470217,4.4828410148620605,66.32999420166016,25.61,0
-0.2051803320646286,-0.8841338753700256,-0.3403854370117187,-1.1454137563705444,4.481409072875977,66.44105529785156,25.61,0
-0.1540640294551849,-0.8752638101577759,-0.3527863621711731,-1.0897356271743774,4.480490207672119,66.5123291015625,25.61,0
-0.1268582940101623,-0.8583759665489197,-0.3551467955112457,-0.9501098990440368,4.479900360107422,66.55806732177734,25.61,0
-0.1038014516234397,-0.8531361222267151,-0.3398682475090027,-0.6419690251350403,4.479521751403809,66.58741760253906,25.61,0
-0.0834071189165115,-0.8609690070152283,-0.3188678026199341,-0.1146249994635582,4.479279041290283,66.60625457763672,25.61,0
-0.0703192129731178,-0.8939846158027649,-0.2829998433589935,0.3420190215110779,4.479123115539551,66.61834716796875,25.61,0
-0.0675179213285446,-0.9151721000671388,-0.2431885302066803,0.4165297746658325,4.479022979736328,66.62610626220703,25.61,0
-0.060122437775135,-0.9399645328521729,-0.2176399230957031,0.3532866537570953,4.478959083557129,66.6310806274414,25.61,0
-0.0497786700725555,-0.967070460319519,-0.2012442946434021,0.742609977722168,4.478918075561523,66.63427734375,25.61,0
-0.0375428609549999,-0.984465479850769,-0.1907225251197815,1.5799976587295532,4.478891372680664,66.6363296508789,25.61,0
-0.029690621420741,-1.0012264251708984,-0.1783724874258041,2.19978404045105,4.478874683380127,66.63764190673828,25.61,0
-0.0190537311136722,-1.062362551689148,-0.18724025785923,2.2607650756835938,4.478863716125488,66.63848876953125,25.61,0
-0.0234231371432542,-1.129585027694702,-0.2041266411542892,1.9989629983901975,4.478856563568115,66.63903045654297,25.61,0
-0.0430204942822456,-1.1503335237503052,-0.1981700211763382,1.5443474054336548,4.478852272033691,66.63937377929688,25.61,0
-0.0499991737306118,-1.1244642734527588,-0.1831518560647964,0.9337520599365234,4.478849411010742,66.63959503173828,25.61,0
-0.0040977182798087,-1.0686784982681274,-0.151122972369194,0.513246476650238,4.478847503662109,66.63973999023438,25.61,0
0.0925324857234954,-1.055269479751587,-0.13616643846035,0.454762190580368,4.479305267333984,66.63983154296875,25.59,0
0.1657397300004959,-1.0466643571853638,-0.1321659833192825,0.3814045786857605,4.4795989990234375,66.639892578125,25.59,0
0.1847310662269592,-1.0131531953811646,-0.1184031665325164,0.0083135040476918,4.479787349700928,66.63993072509766,25.59,0
0.1633319556713104,-0.9636587500572203,-0.1095709800720214,-0.4603996872901916,4.479908466339111,66.63995361328125,25.59,0
0.1104148253798484,-0.909505009651184,-0.092707447707653,-0.829261839389801,4.479986190795898,66.63996887207031,25.59,0
0.0428690053522586,-0.8747522234916687,-0.0650920793414115,-1.119714856147766,4.480035781860352,66.63997650146484,25.59,0
-0.0004780106828548,-0.852449893951416,-0.036174576729536,-1.309693455696106,4.480067729949951,66.63998413085938,25.59,0
-0.0171000827103853,-0.8381375670433044,-0.0008236620924435,-1.3420464992523191,4.480088233947754,66.6399917602539,25.59,0
-0.0165716223418712,-0.8401482701301575,0.0274602938443422,-1.2589141130447388,4.476888179779053,66.6399917602539,25.59,0
-0.0218302626162767,-0.8414385914802551,0.0456113070249557,-1.1160001754760742,4.474834442138672,66.6399917602539,25.59,0
-0.0643893778324127,-0.8478644490242004,0.0460640341043472,-0.9848778247833252,4.473516464233398,66.6399917602539,25.59,0
-0.0972991436719894,-0.8575859665870667,0.0407567955553531,-0.9401394128799438,4.472671031951904,66.6399917602539,25.59,0
-0.1240165084600448,-0.9086068868637084,0.0373509153723716,-0.986662983894348,4.472128391265869,66.6399917602539,25.59,0
-0.1355644017457962,-0.9525446891784668,0.0351652167737484,-0.9341198801994324,4.471780300140381,66.6399917602539,25.59,0
-0.14297516644001,-0.9807414412498474,0.0169692374765872,-0.5206477046012878,4.471556663513184,66.6399917602539,25.59,0
-0.1701220721006393,-1.0268254280090332,-0.0059034419246017,0.3035767376422882,4.4714131355285645,66.6399917602539,25.59,0
-0.1875433921813964,-1.0899860858917236,-0.0317773595452308,1.165696144104004,4.4681077003479,66.77971649169922,25.59,0
-0.2155167162418365,-1.208887815475464,-0.0763706266880035,1.5541561841964722,4.465986728668213,66.869384765625,25.59,0
-0.2446639388799667,-1.2851921319961548,-0.0937924683094024,1.434442162513733,4.464625358581543,66.92692565917969,25.59,0
-0.229782298207283,-1.138237714767456,-0.0713861584663391,1.2895476818084717,4.463751792907715,66.96385192871094,25.59,0
-0.1978410184383392,-1.0215396881103516,-0.0682026222348213,1.3506134748458862,4.463191032409668,66.987548828125,25.59,0
-0.171745166182518,-0.9914318323135376,-0.0717573910951614,1.2536641359329224,4.462831497192383,67.00275421142578,25.59,0
-0.1549983620643615,-0.9945014715194702,-0.0852341875433921,0.747208297252655,4.4626007080078125,67.01251220703125,25.59,0
-0.1442512273788452,-1.0132646560668943,-0.1050783619284629,0.1463357359170913,4.462452411651611,67.0187759399414,25.59,0
-0.1597454249858856,-1.0085124969482422,-0.1290087699890136,-0.2034439146518707,4.461898326873779,67.02279663085938,25.59,0
-0.158493161201477,-0.9718762040138244,-0.1219748258590698,-0.4279123544692993,4.46154260635376,67.02537536621094,25.59,0
-0.14649398624897,-0.9595606923103333,-0.1118630692362785,-0.7439268827438354,4.461314678192139,67.02703094482422,25.59,0
-0.1443913727998733,-0.94605952501297,-0.0997761487960815,-1.0040481090545654,4.46116828918457,67.02809143066406,25.59,0
-0.1654331386089325,-0.9206019043922424,-0.0864216834306716,-0.9775198101997375,4.461074352264404,67.02877807617188,25.59,0
-0.1901320815086364,-0.8986669182777405,-0.0778515562415123,-0.7168803215026855,4.461014270782471,67.02921295166016,25.59,0
-0.211580216884613,-0.8901880383491516,-0.0611561946570873,-0.4313919246196747,4.460975646972656,67.02949523925781,25.59,0
-0.2253443896770477,-0.884746789932251,-0.0448442995548248,-0.2266864478588104,4.46095085144043,67.02967834472656,25.59,0
-0.2285796701908111,-0.8924504518508911,-0.023180715739727,-0.1060659885406494,4.4572625160217285,67.02979278564453,25.59,0
-0.2250581234693527,-0.9029920101165771,-0.0092782750725746,0.0250799171626567,4.454895496368408,67.02986907958984,25.59,0
-0.1948093175888061,-0.9321480989456176,-0.0003564884536899,0.4280910193920135,4.453376293182373,67.02991485595703,25.59,0
-0.1642018258571624,-0.945261001586914,-0.000228773773415,1.259932518005371,4.452401161193848,67.02994537353516,25.59,0
-0.150157481431961,-0.9480783343315125,-0.0057445880956947,2.198591470718384,4.451775550842285,67.02996826171875,25.59,0
-0.1467424035072326,-0.9666796922683716,-0.0204798690974712,2.686326265335083,4.451374053955078,67.02997589111328,25.59,0
-0.1445508003234863,-1.0178014039993286,-0.0467294454574584,2.5837478637695312,4.451116561889648,67.02998352050781,25.59,0
-0.1543398946523666,-1.1961504220962524,-0.0859660133719444,2.2026522159576416,4.450951099395752,67.02999114990234,25.59,0
-0.1774152964353561,-1.1482691764831543,-0.0607658140361309,1.800453543663025,4.44946813583374,67.02999114990234,25.59,0
-0.186625987291336,-1.0279773473739624,-0.0222026780247688,1.3632168769836426,4.448516368865967,67.02999114990234,25.59,0
-0.1421569138765335,-1.0235520601272583,-0.0142484009265899,0.8246780633926392,4.447905540466309,67.02999114990234,25.59,0
-0.0800325721502304,-1.0431032180786133,-0.0203393530100584,0.1602256298065185,4.447513580322266,67.02999114990234,25.59,0
-0.0177736524492502,-0.9996722936630248,-0.0410414971411228,-0.6316043734550476,4.447261810302734,67.02999114990234,25.59,0
-0.0114061068743467,-0.9270186424255372,-0.0375336185097694,-1.4335265159606934,4.447100162506104,67.02999114990234,25.59,0
-0.0353086553514003,-0.8691981434822083,-0.0296846907585859,-2.0627963542938232,4.446996688842773,67.02999114990234,25.59,0
-0.0786368027329444,-0.8208967447280884,-0.0190499257296323,-2.4487128257751465,4.446930408477783,67.02999114990234,25.59,0
-0.0952467694878578,-0.795497477054596,-0.0122251454740762,-2.667711019515991,4.439083576202393,67.17329406738281,25.59,0
-0.1226994097232818,-0.8071865439414978,-0.0022476201411336,-2.8154165744781494,4.434048175811768,67.2652587890625,25.59,0
-0.1347191631793975,-0.8258834481239319,0.0321442522108554,-2.8600494861602783,4.430816650390625,67.32427978515625,25.59,0
-0.136834979057312,-0.8378820419311523,0.0542149767279624,-2.6343295574188232,4.4287428855896,67.36215209960938,25.59,0
-0.1437905579805374,-0.8455820679664612,0.0739764720201492,-2.098974704742432,4.427412033081055,67.38645935058594,25.59,0
-0.1594498008489608,-0.8729146122932434,0.0866582617163658,-1.45447838306427,4.426558017730713,67.40206146240234,25.59,0
-0.1750967651605606,-0.9352372288703918,0.0836011543869972,-0.7829323410987854,4.426009654998779,67.41207122802734,25.59,0
-0.1795403212308883,-0.9976233839988708,0.076041504740715,0.1280923783779144,4.425657749176025,67.41849517822266,25.59,0
-0.1823919415473938,-1.0376592874526978,0.065592385828495,1.2501219511032104,4.429563522338867,67.42261505126953,25.59,0
-0.1786241680383682,-1.0801453590393066,0.0364956445991992,2.0884010791778564,4.432070255279541,67.42526245117188,25.59,0
-0.1985973268747329,-1.140997052192688,-0.0045680669136345,2.321841239929199,4.43367862701416,67.42695617675781,25.59,0
-0.2841860055923462,-1.2416237592697144,-0.0309203937649726,2.1563830375671387,4.43471097946167,67.42804718017578,25.59,0
-0.3223185837268829,-1.054300308227539,-0.0142451543360948,1.896150827407837,4.435373306274414,67.42874908447266,25.59,0
-0.3020076751708984,-0.8781091570854187,-0.0091417199000716,1.6861578226089478,4.435798645019531,67.42919921875,25.59,0
-0.2218000143766403,-0.8993863463401794,-0.0282577276229858,1.6337956190109253,4.436071395874023,67.42948913574219,25.59,0
-0.1535340249538421,-0.969018578529358,-0.0461230538785457,1.722000241279602,4.436246395111084,67.42967224121094,25.59,0
-0.1041270717978477,-1.0584867000579834,-0.0855768620967865,1.6962056159973145,4.43635892868042,67.4297866821289,25.59,0
-0.0836160853505134,-1.0151423215866089,-0.0941027253866195,1.4037938117980957,4.436430931091309,67.42986297607422,25.59,0
-0.0928444117307663,-0.964935302734375,-0.0827808082103729,0.976108193397522,4.436477184295654,67.4299087524414,25.59,0
-0.1323532611131668,-0.9607041478157043,-0.0811128318309784,0.5905842781066895,4.436506748199463,67.42993927001953,25.59,0
-0.1745010912418365,-0.9579888582229614,-0.0856401920318603,0.3503423929214477,4.436525821685791,67.42996215820312,25.59,0
-0.1903536021709442,-0.9338552355766296,-0.0773500427603721,0.2463250309228897,4.436538219451904,67.42997741699219,25.59,0
-0.1781357228755951,-0.9127699136734008,-0.0552365779876709,0.0291045047342777,4.436545848846436,67.42998504638672,25.59,0
-0.1590994447469711,-0.8992385268211365,-0.0298498813062906,-0.468552678823471,4.436551094055176,67.42999267578125,25.59,0
-0.1580786108970642,-0.9073482155799866,-0.0023626131005585,-0.9168931245803832,4.432422637939453,67.42999267578125,25.59,0
-0.1630212664604187,-0.9069547653198242,0.009679359383881,-0.9215887784957886,4.429773330688477,67.42999267578125,25.59,0
-0.1941820532083511,-0.9067022800445556,0.0062116556800901,-0.65590900182724,4.428073406219482,67.42999267578125,25.59,0
-0.2197770327329635,-0.9233335852622986,-0.0016114911995828,-0.5642276406288147,4.426982402801514,67.42999267578125,25.59,0
-0.2362024188041687,-0.9340065717697144,-0.0010341622401028,-0.7346766591072083,4.426282405853272,67.42999267578125,25.59,0
-0.2411455065011978,-0.9464536905288696,-0.0118592139333486,-0.8512262105941772,4.425832748413086,67.42999267578125,25.59,0
-0.2331221401691436,-0.9656370878219604,-0.0300016570836305,-0.675240695476532,4.425544261932373,67.42999267578125,25.59,0
-0.2167776674032211,-1.0563167333602903,-0.0976221784949302,-0.3616791069507599,4.42535924911499,67.42999267578125,25.59,0
-0.228679820895195,-1.170487403869629,-0.1522126793861389,-0.1425404548645019,4.423863410949707,67.56613159179688,25.59,0
-0.2643068134784698,-1.1709845066070557,-0.1536590754985809,-0.034153051674366,4.422903537750244,67.65349578857422,25.59,0
-0.2927679419517517,-1.0593479871749878,-0.1210006475448608,-0.068490944802761,4.422287464141846,67.70956420898438,25.59,0
-0.3054348826408386,-0.9709128141403198,-0.0944445729255676,-0.3628027737140655,4.421892166137695,67.74554443359375,25.59,0
-0.2743793725967407,-0.9869312644004822,-0.0662068650126457,-0.7702122926712036,4.421638488769531,67.76863861083984,25.59,0
-0.1872764378786087,-0.9916132092475892,-0.0480855293571949,-0.9886733293533324,4.421475887298584,67.78345489501953,25.59,0
-0.1089876890182495,-0.9778245091438292,-0.0196629781275987,-1.0536350011825562,4.4213714599609375,67.79296112060547,25.59,0
-0.0643442496657371,-0.9297913312911988,0.0153703037649393,-1.209966063499451,4.421304225921631,67.79906463623047,25.59,0
-0.0580857582390308,-0.8877708315849304,0.0378526486456394,-1.5109145641326904,4.417588710784912,67.802978515625,25.59,0
-0.0876560658216476,-0.8440111875534058,0.0522805228829383,-1.843766450881958,4.415204048156738,67.80549621582031,25.59,0
-0.1178281381726265,-0.8159287571907043,0.0671372786164283,-2.043041467666626,4.4136738777160645,67.8071060180664,25.59,0
-0.1259952932596206,-0.7979070544242859,0.0766714885830879,-1.9129791259765625,4.412692070007324,67.80814361572266,25.59,0
-0.1368342638015747,-0.803135097026825,0.0883877724409103,-1.4676724672317505,4.41206169128418,67.80880737304688,25.59,0
-0.1549856513738632,-0.8232834935188293,0.0959066078066825,-0.9705283045768738,4.411657333374023,67.80923461914062,25.59,0
-0.1778297126293182,-0.853006899356842,0.1063295379281044,-0.5368474125862122,4.411397933959961,67.80950927734375,25.59,0
-0.1924897134304046,-0.8944727182388306,0.1242139190435409,-0.0722420439124107,4.411231517791748,67.80968475341797,25.59,0
-0.1962998807430267,-0.9378764629364014,0.1300933063030243,0.4229565858840942,4.41158390045166,67.80979919433594,25.59,0
-0.1819517016410827,-1.0217082500457764,0.11707304418087,0.9664489030838012,4.411809921264648,67.80986785888672,25.59,0
-0.172743871808052,-1.075506567955017,0.1031196117401123,1.5588459968566897,4.4119553565979,67.8099136352539,25.59,0
-0.1836281418800354,-1.1156290769577026,0.0829695537686348,1.813622236251831,4.41204833984375,67.80994415283203,25.59,0
-0.2130041420459747,-1.186159610748291,0.0756361782550811,1.360919952392578,4.412107944488525,67.80996704101562,25.59,0
-0.2486492842435836,-1.2426176071166992,0.0821255892515182,0.6297449469566345,4.41214656829834,67.80997467041016,25.59,0
-0.2883176207542419,-1.217273473739624,0.1030834466218948,0.3898037374019623,4.412171363830566,67.80998229980469,25.59,0
-0.3025789260864258,-1.1674225330352783,0.1333263218402862,0.6370717883110046,4.412187099456787,67.80998992919922,25.59,0
-0.278144359588623,-1.0570621490478516,0.1527344584465026,0.7241026759147644,4.41173791885376,67.80998992919922,25.59,0
-0.2456703335046768,-1.0254236459732056,0.1260050535202026,0.410948783159256,4.411449432373047,67.80998992919922,25.59,0
-0.2360259145498275,-1.0387065410614014,0.0920583382248878,0.077429361641407,4.411264419555664,67.80998992919922,25.59,0
-0.2466300129890442,-1.0416330099105835,0.0758710652589798,-0.0362921096384525,4.411145687103272,67.80998992919922,25.59,0
-0.2534351050853729,-1.0155221223831177,0.071080781519413,-0.0913591235876083,4.411069393157959,67.80998992919922,25.59,0
-0.2522044479846954,-0.981972336769104,0.0680066496133804,-0.2270100861787796,4.411020755767822,67.80998992919922,25.59,0
-0.2458169162273407,-0.9492464661598206,0.054838303476572,-0.4179577529430389,4.410989284515381,67.80998992919922,25.59,0
-0.2473155409097671,-0.9226471185684204,0.0463876165449619,-0.7339560389518738,4.410969257354736,67.80998992919922,25.59,0
-0.2426794916391372,-0.888783872127533,0.04096445068717,-1.123039484024048,4.410497188568115,67.8995590209961,25.59,0
-0.234106570482254,-0.8614546060562134,0.0430819503962993,-1.2007672786712646,4.410194396972656,67.95703887939453,25.59,0
-0.2286049574613571,-0.8327206969261169,0.0612341612577438,-0.7992439270019531,4.410000324249268,67.99392700195312,25.59,0
-0.2250743508338928,-0.8086831569671631,0.0784809812903404,-0.3624405860900879,4.409875392913818,68.0176010131836,25.59,0
-0.2228085994720459,-0.8044527769088745,0.0895489975810051,-0.408139705657959,4.40979528427124,68.03279113769531,25.59,0
-0.2325501292943954,-0.8241291046142578,0.0966518148779869,-0.7957243323326111,4.4097442626953125,68.04254150390625,25.59,0
-0.2443994581699371,-0.8479517698287964,0.0956122204661369,-0.8509947657585144,4.4097113609313965,68.04879760742188,25.59,0
-0.2576014399528503,-0.874435305595398,0.0949450656771659,-0.252348244190216,4.409690380096436,68.05281066894531,25.59,0
-0.2604759335517883,-0.9250175952911376,0.0889191478490829,0.4614255726337433,4.409676551818848,68.05538177490234,25.59,0
-0.2623206377029419,-1.0022605657577517,0.0794542878866195,0.6149656176567078,4.40966796875,68.05703735351562,25.59,0
-0.2746999859809875,-1.1357972621917725,0.0733802840113639,0.2477639317512512,4.409662246704102,68.05809783935547,25.59,0
-0.3106332123279571,-1.1879068613052368,0.1030689850449562,-0.1491008996963501,4.409658432006836,68.05877685546875,25.59,0
-0.3280953168869018,-1.1429789066314695,0.1445125788450241,-0.3643775582313537,4.409656047821045,68.05921173095703,25.59,0
-0.2609326541423797,-1.1085489988327026,0.1375220566987991,-0.5025297403335571,4.40965461730957,68.05949401855469,25.59,0
-0.1954404264688491,-1.0808560848236084,0.1162426099181175,-0.6485090255737305,4.409653663635254,68.05967712402344,25.59,0
-0.1142268702387809,-1.040693283081055,0.1025866866111755,-0.8604151606559753,4.409653186798096,68.0597915649414,25.59,0
-0.0677064508199691,-1.0037235021591189,0.0994208753108978,-1.1898633241653442,4.407816886901856,68.05986785888672,25.61,0
-0.0658411979675293,-0.9408140182495116,0.0861936956644058,-1.5625001192092896,4.406638145446777,68.0599136352539,25.61,0
-0.0982308313250541,-0.8892467617988586,0.0441186018288135,-1.8052195310592647,4.405881881713867,68.05994415283203,25.61,0
-0.1302121877670288,-0.8673494458198547,0.0059216828085482,-1.803349614143372,4.405396461486816,68.05996704101562,25.61,0
-0.1563337594270706,-0.8644925355911255,-0.0353842265903949,-1.580029845237732,4.40508508682251,68.05997467041016,25.61,0
