acc_x,acc_y,acc_z,bvp,eda,hr,temp,label
0.0,0.0,0.0,0.0,0.0,0.0,24.53,1
-0.0390624962747097,-0.1484374850988388,0.0390624962747097,-0.4050000011920929,0.231566309928894,11.416666030883787,24.53,1
-0.0956554859876632,-0.3475609719753265,0.091463416814804,-1.1039024591445925,0.5422040820121765,26.731708526611328,24.53,1
-0.1448816508054733,-0.5257474780082703,0.1470099687576294,-2.018006563186645,0.8124054670333862,40.05315780639648,24.53,1
-0.1754565834999084,-0.66108238697052,0.208886981010437,-2.8830490112304688,1.0095319747924805,49.77187347412109,24.53,1
-0.2126262634992599,-0.7472200989723206,0.2233317196369171,-3.528447151184082,1.1429948806762695,56.35185241699219,24.53,1
-0.2259087711572647,-0.8148449659347534,0.2383626252412796,-4.012338638305664,1.2305657863616943,60.66926574707031,24.53,1
-0.2177731990814209,-0.8307456374168396,0.2480974048376083,-4.557831764221191,1.287281155586243,63.4654426574707,24.53,1
-0.2852047681808471,-0.9080705046653748,0.1425647884607315,-5.528167247772217,1.298143744468689,65.26666259765625,24.53,1
-0.272599458694458,-0.9018239974975586,0.1530595272779464,-7.021921634674072,1.3051255941390991,66.42438507080078,24.53,1
-0.2701013684272766,-0.8810233473777771,0.1597987562417984,-8.582876205444336,1.309609055519104,67.16781616210938,24.53,1
-0.2684978246688843,-0.9012545943260192,0.1585275083780288,-9.961007118225098,1.312487006187439,67.64503479003906,24.53,1
-0.2506759762763977,-0.9310319423675536,0.1465164870023727,-11.884414672851562,1.3143341541290283,67.9513168334961,24.53,1
-0.2448361217975616,-0.9501422047615052,0.1388081610202789,-15.236069679260254,1.3155195713043213,68.14788055419922,24.53,1
-0.2466861009597778,-0.9568085670471193,0.1338613182306289,-19.866134643554688,1.3162803649902344,68.27403259277344,24.53,1
-0.2534710764884949,-0.9442933797836304,0.1418822109699249,-25.191211700439453,1.3167685270309448,68.35498809814453,24.53,1
-0.2634230852127075,-0.9250662922859192,0.1470295786857605,-31.431617736816406,1.352887511253357,68.40693664550781,24.53,1
-0.2530163824558258,-0.9407163262367249,0.1559306383132934,-38.83980178833008,1.3760665655136108,68.44027709960938,24.53,1
-0.2575335204601288,-0.967552900314331,0.150447279214859,-46.255802154541016,1.3909416198730469,68.461669921875,24.53,1
-0.2716279029846191,-0.9567862153053284,0.1469283699989318,-52.39425659179688,1.4004875421524048,68.47540283203125,24.53,1
-0.2750750780105591,-0.9442790150642396,0.1614634692668914,-58.53326416015625,1.40661358833313,68.48421478271484,24.53,1
-0.2772873044013977,-0.9306548237800598,0.1707912534475326,-67.66766357421875,1.4105448722839355,68.4898681640625,24.53,1
-0.2731091976165771,-0.9163138270378112,0.1767772883176803,-80.58368682861328,1.4130678176879885,68.49349975585938,24.53,1
-0.2704279124736786,-0.9239039421081544,0.1750210076570511,-95.18136596679688,1.414686918258667,68.4958267211914,24.53,1
-0.2687072455883026,-0.9287748336791992,0.173893928527832,-110.13096618652344,1.4221526384353638,68.49732208251953,24.53,1
-0.2732007801532745,-0.931900680065155,0.1675728559494018,-126.70719146728516,1.4269437789916992,68.49828338623047,24.53,1
-0.2816822528839111,-0.9227111339569092,0.1635163575410843,-146.7921142578125,1.430018424987793,68.4989013671875,24.53,1
-0.2871251702308655,-0.9112160205841064,0.1609131246805191,-169.99569702148438,1.4319915771484375,68.49929809570312,24.53,1
-0.2962158918380737,-0.903839111328125,0.1536447554826736,-190.26028442382807,1.433257818222046,68.49954986572266,24.53,1
-0.3020497858524322,-0.9047028422355652,0.1489803344011306,-196.0066375732422,1.4340704679489136,68.49971008300781,24.53,1
-0.3057936429977417,-0.8996593356132507,0.1403892040252685,-178.4281463623047,1.4345918893814087,68.49981689453125,24.53,1
-0.3081962466239929,-0.8908249139785767,0.1348759084939956,-138.4365234375,1.4349265098571775,68.49988555908203,24.53,1
-0.3153358697891235,-0.8739599585533142,0.1313377916812896,-81.01625061035156,1.4374366998672483,69.5137939453125,24.51,1
-0.3255154490470886,-0.8463436961174011,0.1290672272443771,-8.101434707641602,1.4390475749969482,70.16446685791016,24.51,1
-0.343243658542633,-0.7894367575645447,0.1332078874111175,74.87153625488281,1.4400813579559326,70.58203125,24.51,1
-0.382609486579895,-0.8088948726654053,0.124669574201107,151.97158813476562,1.4407447576522827,70.8499984741211,24.51,1
-0.4190677404403686,-0.8661642074584961,0.1135924011468887,207.66574096679688,1.4411704540252686,71.02196502685547,24.51,1
-0.4312690198421478,-0.9253074526786804,0.1176792606711387,241.37213134765625,1.441443681716919,71.13232421875,24.51,1
-0.4446968734264374,-0.9464688301086426,0.1258997470140457,262.94921875,1.441619038581848,71.20314025878906,24.51,1
-0.4421185255050659,-1.0048311948776243,0.1199796348810195,278.5301208496094,1.441731572151184,71.24858856201172,24.51,1
-0.4292683601379394,-1.0366870164871216,0.1217782199382782,288.8872985839844,1.442721605300903,71.27775573730469,24.51,1
-0.4098263084888458,-1.0347391366958618,0.1285302191972732,296.3543701171875,1.4433568716049194,71.29647064208984,24.51,1
-0.3525673151016235,-0.983109176158905,0.1552543640136718,304.524658203125,1.443764567375183,71.30848693847656,24.51,1
-0.3102240264415741,-0.9387804865837096,0.1724043786525726,313.1892395019531,1.444026231765747,71.31619262695312,24.51,1
-0.2942460775375366,-0.8711484670639038,0.1834102720022201,318.0223999023437,1.444194197654724,71.32113647460938,24.51,1
-0.3063834607601166,-0.8501372337341309,0.1568865776062011,313.29254150390625,1.444301962852478,71.32431030273438,24.51,1
-0.3141725361347198,-0.842251181602478,0.1286696493625641,293.55523681640625,1.4443711042404177,71.32634735107422,24.51,1
-0.3023777902126312,-0.8539837002754211,0.10496386885643,255.6927032470703,1.4444154500961304,71.3276596069336,24.51,1
-0.2780152857303619,-0.8895018100738525,0.0953486412763595,200.6347045898437,1.4430668354034424,71.32849884033203,24.51,1
-0.2343919575214386,-0.9570775032043456,0.0891781449317932,131.33168029785156,1.4422013759613037,71.32904052734375,24.51,1
-0.2007992416620254,-1.006041407585144,0.0908160433173179,50.53325271606445,1.4416459798812866,71.32938385009766,24.51,1
-0.1624480485916137,-1.0430614948272705,0.0862693786621093,-34.54691696166992,1.4412895441055298,71.32960510253906,24.51,1
-0.1042498052120208,-1.1619809865951538,0.0441671721637249,-108.66075897216795,1.4410607814788818,71.32975006103516,24.51,1
-0.0613037496805191,-1.2047100067138672,0.0171483978629112,-157.82058715820312,1.4409140348434448,71.32984161376953,24.51,1
-0.1233078315854072,-1.2881088256835938,-0.0281795691698789,-180.7130279541016,1.4408198595046997,71.32990264892578,24.51,1
-0.1910873651504516,-1.3864115476608276,-0.0572684444487094,-185.38720703125,1.4407594203948977,71.32994079589844,24.51,1
-0.2345843613147735,-1.2591722011566162,-0.0479471385478973,-179.12586975097656,1.440720558166504,71.32996368408203,24.51,1
-0.2065204828977584,-1.099148511886597,-0.0139763904735445,-166.9071807861328,1.4406956434249878,71.3299789428711,24.51,1
-0.1269351840019226,-1.013247847557068,0.0190196279436349,-153.38038635253906,1.440679669380188,71.32998657226562,24.51,1
-0.0478730462491512,-1.0252950191497805,0.0401945747435092,-140.30743408203125,1.4406694173812866,71.32999420166016,24.51,1
-0.0083310669288039,-1.027428388595581,0.0481856614351272,-125.84549713134766,1.440662860870361,71.32999420166016,24.51,1
-0.0165419485419988,-0.9728197455406188,0.0421183332800865,-109.16664123535156,1.440658688545227,71.32999420166016,24.51,1
-0.0777889639139175,-0.9041884541511536,0.0214313473552465,-92.82054901123048,1.4406559467315674,71.32999420166016,24.51,1
-0.1338870972394943,-0.8545470237731934,0.0025578555651009,-79.24955749511719,1.440654158592224,71.32999420166016,24.51,1
-0.1698876470327377,-0.8506789207458496,-0.0207496136426925,-67.74964904785156,1.4401941299438477,69.8683090209961,24.51,1
-0.1929907351732254,-0.8593921065330505,-0.0413047783076763,-56.428836822509766,1.4398988485336304,68.93028259277344,24.51,1
-0.2078169584274292,-0.8761792778968811,-0.0544959008693695,-45.41999816894531,1.4397094249725342,68.32830810546875,24.51,1
-0.2229293584823608,-0.8533657193183899,-0.0573634281754493,-36.30592727661133,1.4395878314971924,67.9419937133789,24.51,1
-0.2438231706619262,-0.8219319581985474,-0.048008095473051,-29.446754455566406,1.4395097494125366,67.69408416748047,24.51,1
-0.2740249335765838,-0.8129551410675049,-0.0364066064357757,-23.61190223693848,1.4394596815109253,67.53498840332031,24.51,1
-0.299004465341568,-0.8519765138626099,-0.0289614386856555,-17.982994079589844,1.439427614212036,67.43289184570312,24.51,1
-0.3262304365634918,-0.9609847664833068,-0.0017924624262377,-13.052297592163086,1.4394069910049438,67.36737060546875,24.51,1
-0.3325069546699524,-1.1484932899475098,0.0100452490150928,-9.397247314453123,1.4357212781906128,67.32532501220703,24.51,1
-0.3197415471076965,-1.285618782043457,0.0288375597447156,-6.743545055389404,1.4333559274673462,67.29833984375,24.51,1
-0.3171471953392029,-1.2168803215026855,0.1136684492230415,-4.524660587310791,1.431838035583496,67.28102111816406,24.51,1
-0.3210800886154175,-1.0832035541534424,0.2016946822404861,-2.59198260307312,1.4308639764785769,67.26990509033203,24.51,1
-0.3459950685501098,-0.9638308882713318,0.2693803906440735,-1.0077738761901855,1.4302388429641724,67.26277160644531,24.51,1
-0.3619840741157532,-1.1615153551101685,0.2960238754749298,0.2023391127586364,1.429837703704834,67.25819396972656,24.51,1
-0.333060473203659,-1.2268023490905762,0.3243176639080047,0.8893555402755737,1.4295802116394043,67.25525665283203,24.51,1
-0.3089011907577514,-1.1063642501831057,0.3536705374717712,0.886003851890564,1.429414987564087,67.25337219238281,24.51,1
-0.2989949285984039,-0.9898896217346193,0.3725075423717499,0.3500491678714752,1.4302271604537964,67.25216674804688,24.51,1
-0.3038332164287567,-0.8759585022926331,0.3566071689128876,-0.2088502496480941,1.4307483434677124,67.25138854980469,24.51,1
-0.3125359416007995,-0.8028440475463867,0.3296099007129669,-0.2809136807918548,1.431082844734192,67.25089263916016,24.51,1
-0.3181208372116089,-0.7671189308166504,0.3010890483856201,0.1744007766246795,1.4312975406646729,67.25057220458984,24.51,1
-0.2993138134479522,-0.7609859704971313,0.277188241481781,0.6278112530708313,1.431435227394104,67.2503662109375,24.51,1
-0.2648534476757049,-0.7514523863792419,0.2618500888347626,0.6178476810455322,1.431523680686951,67.25023651123047,24.51,1
-0.2259454429149627,-0.7509320378303528,0.2464091628789901,0.274691492319107,1.4315804243087769,67.25015258789062,24.51,1
-0.2009765207767486,-0.7897825241088867,0.2365000545978546,-0.0530036352574825,1.4316167831420898,67.2500991821289,24.51,1
-0.1737573593854904,-0.8259100914001465,0.2357387393712997,-0.1629874110221862,1.4298040866851809,67.25006103515625,24.51,1
-0.1394963413476944,-0.8938769102096558,0.229652389883995,0.0673676803708076,1.4286407232284546,67.25003814697266,24.51,1
-0.1175095960497856,-0.9654829502105712,0.2089532017707824,0.6236099600791931,1.4278942346572876,67.2500228881836,24.51,1
-0.1201930865645408,-1.0562177896499634,0.162083014845848,1.224189281463623,1.427415132522583,67.25001525878906,24.51,1
-0.1443063020706176,-1.1368372440338137,0.1152110993862152,1.6525975465774536,1.4271076917648315,67.25000762939453,24.51,1
-0.1933674216270446,-1.1269986629486084,0.1019247248768806,1.909612417221069,1.426910400390625,67.25000762939453,24.51,1
-0.2864275276660919,-1.0703048706054688,0.1717671304941177,1.884673237800598,1.426783800125122,67.25000762939453,24.51,1
-0.3461481630802154,-1.056313157081604,0.2669679522514343,1.3527778387069702,1.4267024993896484,67.25000762939453,24.51,1
-0.3564845621585846,-1.0753229856491089,0.2944757044315338,0.4382258951663971,1.4280271530151367,68.66512298583984,24.53,1
-0.2679556906223297,-1.0987179279327393,0.2281619757413864,-0.2991490960121155,1.4288772344589231,69.57325744628906,24.53,1
-0.1719585359096527,-1.0913403034210205,0.1800078749656677,-0.4140963554382324,1.4294227361679075,70.15605163574219,24.53,1
-0.1271464079618454,-1.0026391744613647,0.1658986657857895,-0.1009447127580642,1.4297728538513184,70.5300521850586,24.53,1
-0.1319752186536789,-0.9289225935935974,0.1568441838026046,0.0247838795185089,1.4299975633621216,70.77006530761719,24.53,1
-0.2078451365232467,-0.8816155195236206,0.1398379951715469,-0.4534125030040741,1.4301416873931885,70.9240951538086,24.53,1
-0.2957184910774231,-0.8568543791770935,0.1345221698284149,-1.4553110599517822,1.43023419380188,71.02294158935547,24.53,1
-0.3745016753673553,-0.8297685384750366,0.1311107873916626,-2.6177453994750977,1.4302935600280762,71.08637237548828,24.53,1
-0.4306579530239105,-0.7955930829048157,0.1457148790359497,-3.52852725982666,1.4307910203933716,71.12708282470703,24.53,1
-0.4610980451107025,-0.7736612558364868,0.1550869345664978,-3.869399547576904,1.4311102628707886,71.15320587158203,24.53,1
-0.4750349521636963,-0.8323577046394348,0.1443080604076385,-3.7621374130249023,1.4313150644302368,71.16996765136719,24.53,1
-0.4895766377449035,-0.9483945965766908,0.1149997040629386,-3.725545883178711,1.431446552276611,71.18072509765625,24.53,1
-0.498908668756485,-1.0340559482574463,0.0905935168266296,-3.985086917877197,1.4315309524536133,71.18762969970703,24.53,1
-0.4992996454238891,-1.066637396812439,0.0805288031697273,-4.191053867340088,1.4315850734710691,71.19206237792969,24.53,1
-0.4995505511760711,-1.0987417697906494,0.0740698501467704,-3.9936347007751465,1.4316197633743286,71.19490814208984,24.53,1
-0.4997115731239319,-1.1137467622756958,0.0475337654352188,-3.401207447052002,1.4316420555114746,71.19673156738281,24.53,1
-0.5222060084342957,-1.173756122589111,-0.0030822118278592,-2.490800619125366,1.4298202991485596,71.1978988647461,24.53,1
-0.5478371977806091,-1.1506911516189575,-0.0523579530417919,-1.447984218597412,1.428651213645935,71.19865417480469,24.53,1
-0.5418947339057922,-1.1974648237228394,-0.162349134683609,-0.6175488829612732,1.4279009103775024,71.19913482666016,24.53,1
-0.5044945478439331,-1.2498725652694702,-0.2665217816829681,0.0765926539897918,1.4274194240570068,71.1994400024414,24.53,1
-0.4133199453353882,-1.317091464996338,-0.3445693552494049,1.1490033864974976,1.4271104335784912,71.19963836669922,24.53,1
-0.2708427309989929,-1.253870964050293,-0.3722646832466125,2.603886127471924,1.4269121885299685,71.19976806640625,24.53,1
-0.1514201760292053,-1.2132997512817385,-0.3900379538536072,3.773996114730835,1.426784873008728,71.1998519897461,24.53,1
-0.0579883307218551,-1.1760679483413696,-0.3846504986286163,4.25979471206665,1.4267032146453855,71.19990539550781,24.53,1
-0.0148224746808409,-1.1353813409805298,-0.375595360994339,4.181051731109619,1.4261915683746338,71.19993591308594,24.53,1
-0.0263055339455604,-1.09807550907135,-0.3697842955589294,3.6074628829956055,1.4258631467819214,71.19995880126953,24.53,1
-0.050468023866415,-1.0965259075164795,-0.3716528713703155,2.63032865524292,1.4256523847579956,71.1999740600586,24.53,1
-0.0715718939900398,-1.1067270040512085,-0.3784497678279876,1.6844109296798706,1.425517201423645,71.19998168945312,24.53,1
-0.0795173645019531,-1.1076756715774536,-0.3716160953044891,1.0093064308166504,1.425430417060852,71.19998931884766,24.53,1
-0.0846163108944892,-1.0970889329910278,-0.3504373133182525,0.271544337272644,1.4253747463226318,71.19998931884766,24.53,1
-0.1102796196937561,-1.0679038763046265,-0.3032593429088592,-0.7213824391365051,1.4253389835357666,71.19998931884766,24.53,1
-0.1659332811832428,-0.9820013046264648,-0.2561899125576019,-1.4445674419403076,1.4253160953521729,71.19998931884766,24.53,1
-0.224039688706398,-0.8597006797790527,-0.192396804690361,-1.3820273876190186,1.4220881462097168,72.1422119140625,24.55,1
-0.3117090165615082,-0.7084441184997559,-0.0730892196297645,-0.8439146876335144,1.4200166463851929,72.74687194824219,24.55,1
-0.4183501005172729,-0.6785496473312378,0.0090732872486114,-0.5702364444732666,1.418687343597412,73.1349105834961,24.55,1
-0.5091773271560669,-0.9392538070678712,0.0394093580543994,-0.7743585705757141,1.4178341627120972,73.3839340209961,24.55,1
-0.4779005944728851,-1.0897654294967651,0.0364862047135829,-0.9196826815605164,1.4172866344451904,73.54373931884766,24.55,1
-0.3626668453216553,-1.1583662033081057,0.0290125198662281,-0.2964282035827636,1.4169353246688845,73.64629364013672,24.55,1
-0.1431743204593658,-1.1576080322265625,0.0689985379576683,1.3287813663482666,1.4167098999023438,73.71210479736328,24.55,1
-0.0135121960192918,-1.1347304582595823,0.111452579498291,3.4214422702789307,1.416565179824829,73.75434112548828,24.55,1
-0.0030735752079635,-1.1144511699676514,0.1554904729127884,5.040249824523926,1.4118820428848269,73.78144836425781,24.55,1
-0.0915368348360061,-1.1070348024368286,0.1837514489889145,5.602624893188477,1.408876657485962,73.79884338378906,24.55,1
-0.1874918937683105,-1.091079831123352,0.213083267211914,5.182523250579834,1.4069479703903198,73.81000518798828,24.55,1
-0.2938525080680847,-1.0248631238937378,0.2487000674009323,4.07460355758667,1.405710220336914,73.81716918945312,24.55,1
-0.3621086180210113,-0.9599779844284058,0.2659591138362884,2.53244686126709,1.4049159288406372,73.82176971435547,24.55,1
-0.3891181647777557,-0.8903495669364929,0.237850546836853,0.9874802827835084,1.404406189918518,73.82472229003906,24.55,1
-0.3728646636009216,-0.8848504424095154,0.1806276589632034,-0.1186328008770942,1.4040790796279907,73.82661437988281,24.55,1
-0.3568363487720489,-0.9149081110954284,0.1271119862794876,-0.7174127101898193,1.4038691520690918,73.82782745361328,24.55,1
-0.3521480560302734,-1.018164038658142,0.0647798329591751,-0.944041907787323,1.409701943397522,73.82860565185547,24.55,1
-0.349139392375946,-1.1124166250228882,0.0135830957442522,-0.8064559698104858,1.413444995880127,73.82910919189453,24.55,1
-0.3584041595458984,-1.200891375541687,-0.0304675716906785,-0.3169127702713012,1.4158471822738647,73.82942962646484,24.55,1
-0.353154182434082,-1.2352782487869265,-0.0475412048399448,0.3196796774864197,1.417388677597046,73.82963562011719,24.55,1
-0.3385895192623138,-1.145390272140503,-0.052900306880474,0.9216670989990234,1.4183779954910278,73.82976531982422,24.55,1
-0.3460360765457153,-1.0261298418045044,-0.1179149821400642,1.4692039489746094,1.4190127849578855,73.82984924316406,24.55,1
-0.3676081597805023,-1.0223664045333862,-0.1932243108749389,1.8886505365371704,1.4194202423095703,73.82990264892578,24.55,1
-0.4430274069309234,-1.087124586105347,-0.2863357067108154,2.010941505432129,1.4196816682815552,73.82994079589844,24.55,1
-0.4578405022621155,-1.1062915325164795,-0.3684803247451782,1.8422231674194336,1.4193905591964722,73.82996368408203,24.55,1
-0.4281622767448425,-1.1073962450027466,-0.4155982434749603,1.558403253555298,1.419203758239746,73.8299789428711,24.55,1
-0.3643342852592468,-1.0745185613632202,-0.4178469479084015,1.2544564008712769,1.419083833694458,73.82998657226562,24.55,1
-0.3009820580482483,-1.036626219749451,-0.3968989253044128,0.8157856464385986,1.4190068244934082,73.82999420166016,24.55,1
-0.2491307109594345,-0.973124623298645,-0.349869042634964,-0.0210272166877985,1.4189574718475342,73.82999420166016,24.55,1
-0.2214532643556594,-0.915579617023468,-0.302894651889801,-1.4178637266159058,1.4189257621765137,73.82999420166016,24.55,1
-0.2092892527580261,-0.8954439163208008,-0.2727491855621338,-3.080944061279297,1.4189053773880005,73.82999420166016,24.55,1
-0.2238741815090179,-0.932901918888092,-0.2422080188989639,-4.452732086181641,1.4188923835754397,73.82999420166016,24.55,1
-0.2332339584827423,-0.951342523097992,-0.2170106768608093,-5.379640579223633,1.4147526025772097,74.5035171508789,24.51,1
-0.2280449718236923,-0.9743722081184388,-0.195242702960968,-6.193014144897461,1.4120959043502808,74.93574523925781,24.51,1
-0.2023238837718963,-1.022737979888916,-0.1644799560308456,-7.098326206207275,1.4103909730911257,75.21312713623047,24.51,1
-0.1858175694942474,-1.0817651748657229,-0.1391404122114181,-7.90142297744751,1.4092968702316284,75.3911361694336,24.51,1
-0.1864203065633773,-1.1308410167694092,-0.0948900803923606,-8.363065719604492,1.4085947275161743,75.50537109375,24.51,1
-0.2147959917783737,-1.0839662551879885,-0.0329061150550842,-8.5088529586792,1.4081441164016724,75.57868194580078,24.51,1
-0.3169724643230438,-0.9083425998687744,0.0852404609322547,-8.588080406188965,1.4078549146652222,75.62572479248047,24.51,1
-0.4161300957202911,-0.9411795735359192,0.1106801629066467,-8.925530433654785,1.4076693058013916,75.65591430664062,24.51,1
-0.4573726654052734,-1.0854034423828125,0.0766259282827377,-9.482430458068848,1.4080091714859009,75.67529296875,24.51,1
-0.4558508992195129,-1.0939913988113403,0.0547718852758407,-9.327508926391602,1.4082273244857788,75.68772888183594,24.51,1
-0.4044943451881408,-1.0827093124389648,0.051942765712738,-7.164525508880615,1.4083672761917114,75.69570922851562,24.51,1
-0.2763745188713074,-1.069871425628662,0.0837138444185257,-2.8888914585113525,1.4084570407867432,75.7008285522461,24.51,1
-0.1997523605823516,-1.0000572204589844,0.1432871222496032,2.1155693531036377,1.4085147380828855,75.70411682128906,24.51,1
-0.1953628659248352,-0.960852324962616,0.1703222692012787,6.4413251876831055,1.4085516929626465,75.70622253417969,24.51,1
-0.2429258972406387,-0.9524861574172974,0.1652807742357254,9.622177124023438,1.408575415611267,75.70757293701172,24.51,1
-0.3014380037784576,-0.947117269039154,0.1508498787879943,11.627639770507812,1.4085906744003296,75.70844268798828,24.51,1
-0.3669765591621399,-0.9156829118728638,0.1247956380248069,12.355748176574709,1.4095183610916138,75.70899963378906,24.51,1
-0.3978399038314819,-0.8619235157966614,0.0968799814581871,11.927362442016602,1.4101136922836304,75.70935821533203,24.51,1
-0.4064506590366363,-0.8330216407775879,0.0733675435185432,10.84995174407959,1.4104957580566406,75.70958709716797,24.51,1
-0.3951832354068756,-0.8256695866584778,0.0526808388531208,9.624728202819824,1.410740852355957,75.70973205566406,24.51,1
-0.3823546767234802,-0.8433426022529602,0.0282097570598125,8.383462905883789,1.410898208618164,75.70983123779297,24.51,1
-0.3685242533683777,-1.0002262592315674,-0.0098854750394821,7.164146423339844,1.4109991788864136,75.70989227294922,24.51,1
-0.3428553640842438,-1.100905179977417,-0.0175394769757986,6.181035041809082,1.4110639095306396,75.70993041992188,24.51,1
-0.315187007188797,-1.0143752098083496,-0.0168536007404327,5.532217979431152,1.4111055135726929,75.70995330810547,24.51,1
-0.3254199028015136,-0.891671895980835,-0.0555978678166866,5.13017463684082,1.4070011377334597,75.70996856689453,24.51,1
-0.3543778955936432,-0.9976545572280884,-0.1196461245417594,5.08712100982666,1.404367208480835,75.70997619628906,24.51,1
-0.367363691329956,-1.2503947019577026,-0.2111285775899887,5.2959418296813965,1.4026769399642944,75.7099838256836,24.51,1
-0.3980883359909057,-1.1942754983901978,-0.2474456578493118,4.788670063018799,1.4015921354293823,75.70999145507812,24.51,1
-0.3562301099300384,-1.135870337486267,-0.2371652275323867,2.7148351669311523,1.4008959531784058,75.70999145507812,24.51,1
-0.2845857143402099,-1.0592049360275269,-0.1689923107624054,-0.3392516374588012,1.400449275970459,75.70999145507812,24.51,1
-0.2442062497138977,-0.9820165634155272,-0.1140473112463951,-3.105268239974976,1.4001625776290894,75.70999145507812,24.51,1
-0.2630752325057983,-0.8932970762252808,-0.0843845456838607,-5.127535820007324,1.3999786376953125,75.70999145507812,24.51,1
-0.29197758436203,-0.8251664638519287,-0.076544240117073,-6.511292934417725,1.401237726211548,76.17214965820312,24.51,1
-0.316123217344284,-0.8038352727890015,-0.0771105587482452,-7.109119892120361,1.402045726776123,76.46873474121094,24.51,1
-0.3092274069786072,-0.8461238741874695,-0.0774739906191825,-6.933888912200928,1.402564287185669,76.65906524658203,24.51,1
-0.282410979270935,-0.8900555968284607,-0.0721094459295272,-6.481091022491455,1.4028970003128052,76.78120422363281,24.51,1
-0.2372128516435623,-0.974226176738739,-0.0462756901979446,-6.129607677459717,1.4031105041503906,76.85958862304688,24.51,1
-0.1858161985874176,-1.0898175239562988,0.0038895721081644,-5.810898780822754,1.403247594833374,76.9098892211914,24.51,1
-0.1472350060939788,-1.1807907819747925,0.0360827483236789,-5.391415596008301,1.4033355712890625,76.94216918945312,24.51,1
-0.133671373128891,-1.2279765605926514,0.0679380297660827,-4.892930507659912,1.40339195728302,76.962890625,24.51,1
-0.1753469854593277,-1.2750509977340698,0.110772006213665,-4.4046502113342285,1.399296760559082,76.97618865966797,24.51,1
-0.2860586047172546,-1.2212940454483032,0.2446181029081344,-3.9229190349578857,1.3966686725616455,76.9847183227539,24.51,1
-0.36270472407341,-1.1084271669387815,0.2913284003734588,-3.405982494354248,1.394982099533081,76.99019622802734,24.51,1
-0.3447185158729553,-1.0919734239578247,0.2821199595928192,-2.920191526412964,1.3938997983932495,76.99370574951172,24.51,1
-0.2268182784318924,-1.1094032526016235,0.2482216507196426,-2.515291929244995,1.393205165863037,76.99596405029297,24.51,1
-0.1231678202748298,-1.126186490058899,0.2432609796524047,-1.990339994430542,1.3927594423294067,76.9974136352539,24.51,1
-0.0902375653386116,-1.0641858577728271,0.2624686062335968,-1.2092167139053345,1.3924733400344849,76.99833679199219,24.51,1
-0.175462543964386,-0.9404308199882508,0.2468060851097107,-0.4213306605815887,1.3922897577285769,76.99893188476562,24.51,1
-0.2749372124671936,-0.8442186713218689,0.2143636792898178,0.2311748266220092,1.3953852653503418,76.99931335449219,24.51,1
-0.3667632043361664,-0.7712796926498413,0.1207729429006576,1.1407281160354614,1.397371768951416,76.99955749511719,24.51,1
-0.4312896132469177,-0.7244716882705688,0.0327229276299476,2.641566514968872,1.398646593093872,76.99971771240234,24.51,1
-0.4726989567279815,-0.6888352036476135,-0.0293802749365568,4.335563659667969,1.3994646072387695,76.99981689453125,24.51,1
-0.4880775511264801,-0.6491724252700806,-0.063636764883995,5.4334211349487305,1.3999896049499512,76.99988555908203,24.51,1
-0.4979466199874878,-0.6237191557884216,-0.085620604455471,5.518177509307861,1.4003264904022217,76.99992370605469,24.51,1
-0.5154755711555481,-0.6689602136611938,-0.0997285693883895,4.809480667114258,1.4005427360534668,76.99995422363281,24.51,1
-0.5379201769828796,-0.7315799593925476,-0.1143800243735313,3.8710319995880127,1.400681495666504,76.99996948242188,24.51,1
-0.5579216480255127,-0.8781234622001648,-0.1461735814809799,3.179225206375122,1.399852275848389,76.9999771118164,24.51,1
-0.5931485295295715,-1.0057532787322998,-0.1385879814624786,2.8606536388397217,1.399320125579834,76.99998474121094,24.51,1
-0.6269506812095642,-1.0092898607254028,-0.1001333370804786,2.763689994812012,1.3989787101745603,76.99999237060547,24.51,1
-0.5870674252510071,-0.9219951033592224,-0.0530642643570899,2.8196892738342285,1.3987596035003662,76.99999237060547,24.51,1
-0.5334837436676025,-0.961136519908905,-0.0340535901486873,3.081328630447388,1.3986189365386963,76.99999237060547,24.51,1
-0.5046946406364441,-1.170981764793396,0.022928562015295,3.2169904708862305,1.3985286951065063,76.99999237060547,24.51,1
-0.4302416741847992,-1.1713017225265503,0.1098763942718505,2.6197783946990967,1.398470759391785,76.99999237060547,24.51,1
-0.3320820927619934,-1.1267249584197998,0.1712722778320312,1.3014699220657349,1.3984335660934448,76.99999237060547,24.51,1
-0.2131111770868301,-1.0701292753219604,0.2218681722879409,-0.1714951992034912,1.3933604955673218,77.3582534790039,24.51,1
-0.1255669444799423,-1.0338094234466553,0.248739942908287,-1.7007194757461548,1.39010488986969,77.58816528320312,24.51,1
-0.1253638267517089,-0.9713169932365416,0.2547891438007355,-3.452341318130493,1.388015627861023,77.73571014404297,24.51,1
-0.181211233139038,-0.9032240509986876,0.230682298541069,-4.906028270721436,1.386674880981445,77.83039093017578,24.51,1
-0.2282464206218719,-0.8707214593887329,0.2040163576602935,-5.430507183074951,1.3858144283294678,77.89115142822266,24.51,1
-0.2304420322179794,-0.8498631715774536,0.181305930018425,-5.355091094970703,1.3852622509002686,77.93014526367188,24.51,1
-0.2206555008888244,-0.8252819776535034,0.1723294556140899,-5.478657245635986,1.384907841682434,77.95516967773438,24.51,1
-0.2031795233488083,-0.8151049613952637,0.1553733199834823,-5.987864017486572,1.3846803903579712,77.97122955322266,24.51,1
-0.1975622177124023,-0.8309650421142578,0.1221007481217384,-6.547511100769043,1.3886659145355225,77.98153686523438,24.51,1
-0.1883595734834671,-0.8747297525405884,0.0839550048112869,-6.996224880218506,1.3912235498428345,77.98815155029297,24.51,1
-0.1768560707569122,-0.9531953930854796,0.0202908422797918,-7.448981761932373,1.3928649425506592,77.99239349365234,24.51,1
-0.1750715672969818,-1.031538963317871,-0.0429562479257583,-7.735952377319336,1.39391827583313,77.9951171875,24.51,1
-0.1963174641132354,-1.1489887237548828,-0.1059356853365898,-7.379144668579102,1.3945941925048828,77.99686431884766,24.51,1
-0.2267451882362365,-1.2187634706497192,-0.1463522613048553,-6.150627613067627,1.395027995109558,77.99798583984375,24.51,1
-0.3078474700450897,-1.207563042640686,-0.1610937565565109,-4.011605262756348,1.3953063488006592,77.99871063232422,24.51,1
-0.3431009352207184,-1.0772242546081543,-0.1257717907428741,-0.704312801361084,1.3954850435256958,77.99917602539062,24.51,1
-0.3265401422977447,-1.0383625030517578,-0.0975064188241958,3.6464788913726807,1.3942224979400637,77.99947357177734,24.51,1
-0.2543368637561798,-1.091792106628418,-0.1017584279179573,7.975491523742676,1.3934122323989868,77.99966430664062,24.51,1
-0.2191964983940124,-1.1036890745162964,-0.1100848987698555,11.233667373657228,1.392892360687256,77.99978637695312,24.51,1
-0.2078409940004348,-1.0329550504684448,-0.1154283434152603,13.360403060913086,1.3925586938858032,77.99986267089844,24.51,1
-0.2117492258548736,-0.9259864687919616,-0.1132596880197525,14.721637725830078,1.39234459400177,77.99990844726562,24.51,1
-0.2254528552293777,-0.8405469059944153,-0.1174657419323921,15.305010795593262,1.392207145690918,77.99993896484375,24.51,1
-0.251040369272232,-0.8025100231170654,-0.1425560414791107,14.661934852600098,1.3921189308166504,77.99996185302734,24.51,1
-0.2674609720706939,-0.7781001329421997,-0.1698531061410904,12.3182373046875,1.3920623064041138,77.9999771118164,24.51,1
-0.2835965454578399,-0.7736307978630066,-0.1929685622453689,8.39594841003418,1.3869763612747192,77.99998474121094,24.51,1
-0.2883536517620086,-0.7595670819282532,-0.2022049576044082,3.897685050964356,1.3837125301361084,77.99999237060547,24.51,1
-0.2858087122440338,-0.7785307168960571,-0.2025345712900161,-0.0817271247506141,1.3816180229187012,77.99999237060547,24.51,1
-0.2897732853889465,-0.8746671080589294,-0.1915505528450012,-3.2373576164245605,1.3802738189697266,77.99999237060547,24.51,1
-0.3091108500957489,-0.9643507599830629,-0.1789038628339767,-5.721029281616211,1.379411220550537,77.99999237060547,24.51,1
-0.360705018043518,-1.066686749458313,-0.1651901751756668,-7.483287811279297,1.3788576126098633,77.99999237060547,24.51,1
-0.4218040406703949,-1.2275222539901731,-0.1228028684854507,-8.506726264953613,1.378502368927002,77.99999237060547,24.51,1
-0.4722094237804413,-1.2803572416305542,-0.0564167164266109,-9.084693908691406,1.3782744407653809,77.99999237060547,24.51,1
-0.4597745239734649,-1.0903527736663818,0.0421638414263725,-9.35887050628662,1.3799641132354736,78.21495056152344,24.51,1
-0.4126100838184356,-0.918038845062256,0.1278182566165924,-9.140738487243652,1.381048560142517,78.35289764404297,24.51,1
-0.3767448961734772,-1.0089775323867798,0.2275685369968414,-8.341559410095215,1.381744384765625,78.44142150878906,24.51,1
-0.3817175626754761,-1.162498950958252,0.2468003332614898,-6.965291500091553,1.3821909427642822,78.49822998046875,24.51,1
-0.3793109357357025,-1.2554223537445068,0.2367510944604873,-4.939240455627441,1.3824775218963623,78.5346908569336,24.51,1
-0.3329843282699585,-1.281468629837036,0.2247042953968048,-2.4675354957580566,1.3826614618301392,78.55809020996094,24.51,1
-0.2864612340927124,-1.2813903093338013,0.2169733494520187,0.0501322150230407,1.3827794790267944,78.57310485839844,24.51,1
-0.2174209803342819,-1.2645467519760132,0.2120120674371719,2.550722599029541,1.3828552961349487,78.5827407836914,24.51,1
-0.0443660989403724,-1.2089552879333496,0.3095881640911102,4.954371929168701,1.3806089162826538,78.58892059326172,24.51,1
0.0219083577394485,-1.1508888006210327,0.355413556098938,6.568547248840332,1.3791673183441162,78.59288787841797,24.51,1
0.0588417164981365,-1.0016695261001587,0.3624305427074432,6.844925880432129,1.3782421350479126,78.5954360961914,24.51,1
0.0881411954760551,-0.8947136998176575,0.3333469927310943,6.173219203948975,1.3776484727859497,78.5970687866211,24.51,1
0.0509661696851253,-0.8316733837127686,0.2307162284851074,5.2835869789123535,1.3772674798965454,78.5981216430664,24.51,1
-0.0120750423520803,-0.8192065954208374,0.1200715228915214,4.451144218444824,1.3770229816436768,78.59879302978516,24.51,1
-0.0693245902657508,-0.8335972428321838,0.037870567291975,3.680480480194092,1.376866102218628,78.59922790527344,24.51,1
-0.1228573769330978,-0.8708211779594421,-0.0260768216103315,3.096348524093628,1.3767653703689575,78.59950256347656,24.51,1
-0.1516138613224029,-0.8947093486785889,-0.0671145692467689,2.757312059402466,1.3762414455413818,78.59967803955078,24.51,1
-0.1476770192384719,-0.9660171866416932,-0.0934502333402633,2.371356964111328,1.3759052753448486,78.59979248046875,24.51,1
-0.1787372231483459,-1.1349294185638428,-0.1327420473098755,1.5755391120910645,1.3756895065307615,78.59986877441406,24.51,1
-0.2378543019294738,-1.2041431665420532,-0.141163945198059,0.4092176556587219,1.3755511045455933,78.59991455078125,24.51,1
-0.2813900113105774,-1.175789475440979,-0.1185797676444053,-0.7978300452232361,1.3754621744155884,78.59994506835938,24.51,1
-0.2925353944301605,-1.1799848079681396,-0.0984887704253196,-1.7838157415390017,1.375405192375183,78.59996795654297,24.51,1
-0.2381123453378677,-1.22745943069458,-0.0576066486537456,-2.387903928756714,1.375368595123291,78.5999755859375,24.51,1
-0.2311756312847137,-1.27471923828125,-0.0425664037466049,-2.600026845932007,1.3753451108932495,78.59998321533203,24.51,1
-0.2323218286037445,-1.2266789674758911,-0.0497077666223049,-2.7397377490997314,1.375330090522766,78.59999084472656,24.51,1
-0.2274596244096756,-1.078296184539795,-0.082279548048973,-3.101671934127808,1.3753204345703125,78.59999084472656,24.51,1
-0.2131437808275222,-0.9606816172599792,-0.1255733519792556,-3.5273995399475098,1.375314235687256,78.59999084472656,24.51,1
-0.220750018954277,-0.9019966721534728,-0.1421612650156021,-3.818519830703736,1.3753101825714111,78.59999084472656,24.51,1
-0.2536201477050781,-0.9035204648971558,-0.1472086608409881,-4.256124496459961,1.3753076791763306,78.59999084472656,24.51,1
-0.2971054017543793,-0.8933027982711792,-0.1560455560684204,-4.984775543212891,1.3753060102462769,78.59999084472656,24.51,1
-0.3250117301940918,-0.8867456912994385,-0.1729121208190918,-5.513285636901856,1.375304937362671,78.59999084472656,24.51,1
-0.3485181927680969,-0.9049288034439088,-0.1725405603647232,-5.504943370819092,1.3753042221069336,78.59999084472656,24.51,1
-0.374798834323883,-0.9221954345703124,-0.1555088013410568,-5.395695209503174,1.3734676837921145,78.7755355834961,24.53,1
-0.3972620069980621,-0.9500694870948792,-0.1221876963973045,-5.519044876098633,1.3722891807556152,78.88819122314453,24.53,1
-0.4228731095790863,-1.0295330286026,-0.0896085798740387,-5.419075012207031,1.3715327978134155,78.96048736572266,24.53,1
-0.4952865839004516,-1.114114761352539,-0.0127234328538179,-4.598996639251709,1.3710473775863647,79.00688171386719,24.53,1
-0.5249640941619873,-1.1124167442321775,0.0590081252157688,-3.166325807571411,1.3707358837127686,79.03665924072266,24.53,1
-0.4992271959781647,-1.0553492307662964,0.1386279612779617,-1.666542887687683,1.370535969734192,79.05577087402344,24.53,1
-0.4379285275936126,-1.1474754810333252,0.1953211575746536,-0.8652844429016113,1.3704077005386353,79.06803131103516,24.53,1
-0.3538084030151367,-1.2401833534240725,0.2317035943269729,-0.9744510650634766,1.3703254461288452,79.07589721679688,24.53,1
-0.2438471913337707,-1.2660913467407229,0.2774428427219391,-0.5680254101753235,1.3661412000656128,79.08094787597656,24.53,1
-0.1844759583473205,-1.2435331344604492,0.3123934268951416,2.2650845050811768,1.3634560108184814,79.08419036865234,24.53,1
-0.151972696185112,-1.2066655158996582,0.3404204845428467,7.103322982788086,1.361732840538025,79.08627319335938,24.53,1
-0.0975273251533508,-1.121430516242981,0.3640044033527374,11.293745994567873,1.3606269359588623,79.08760833740234,24.53,1
0.021379193291068,-1.016351580619812,0.4463124871253967,13.00845718383789,1.3599172830581665,79.08846282958984,24.53,1
0.013719935901463,-0.92652690410614,0.4319598078727722,12.450127601623535,1.3594619035720823,79.0890121459961,24.53,1
0.0367935374379158,-0.8241003751754761,0.4171513020992279,10.522656440734863,1.359169602394104,79.08936309814453,24.53,1
0.0180142000317573,-0.7471733689308167,0.3516702950000763,8.357829093933105,1.3589820861816406,79.08959197998047,24.53,1
-0.0500150397419929,-0.7369905114173889,0.2592684030532837,7.359068393707275,1.363911271095276,79.08973693847656,24.53,1
-0.1216611638665199,-0.7416512370109558,0.1887746304273605,7.782145977020264,1.3670746088027954,79.08982849121094,24.53,1
-0.1732372939586639,-0.7726311087608337,0.1323402374982834,7.967671394348144,1.3691046237945557,79.08988952636719,24.53,1
-0.2063358873128891,-0.8260988593101501,0.0905261188745498,6.223791122436523,1.3704073429107666,79.08992767333984,24.53,1
-0.2219788879156112,-0.9331824779510498,0.0580944530665874,2.8118209838867188,1.3712433576583862,79.08995056152344,24.53,1
-0.2264198958873748,-1.113857984542847,0.0148905767127871,-0.7284160256385803,1.3717799186706543,79.0899658203125,24.53,1
-0.2404654175043106,-1.241000771522522,-0.0240307301282882,-3.4051673412323,1.372124195098877,79.08997344970703,24.53,1
-0.3110545575618744,-1.2442247867584229,-0.0098237646743655,-5.162360668182373,1.372345209121704,79.08998107910156,24.53,1
-0.3955390155315399,-1.1567294597625732,0.0664667412638664,-6.139557838439941,1.3697327375411987,79.0899887084961,24.53,1
-0.4721473753452301,-1.1005799770355225,0.1993922144174575,-6.437069892883301,1.3680561780929563,79.0899887084961,24.53,1
-0.4037569463253021,-1.0645464658737185,0.2175228297710418,-6.319894790649414,1.3669803142547607,79.0899887084961,24.53,1
-0.3262812495231628,-1.0526177883148191,0.1843758225440979,-5.818371772766113,1.3662898540496826,79.0899887084961,24.53,1
-0.2093885242938995,-0.9889848828315736,0.1407128870487213,-4.582966327667236,1.3658467531204224,79.0899887084961,24.53,1
-0.1455690562725067,-0.9089645147323608,0.123888075351715,-2.708216428756714,1.3655624389648438,79.0899887084961,24.53,1
-0.1549933552742004,-0.8464164733886719,0.113090880215168,-1.0322099924087524,1.3653799295425415,79.0899887084961,24.53,1
-0.2170190811157226,-0.8174723386764526,0.1061618626117706,-0.2862424850463867,1.3652628660202026,79.0899887084961,24.53,1
-0.2736169397830963,-0.7988976240158081,0.1185085400938987,-0.520456075668335,1.364728331565857,78.93952178955078,24.51,1
-0.3099381923675537,-0.7589885592460632,0.1488230228424072,-1.3657805919647217,1.3643853664398191,78.84296417236328,24.51,1
-0.3332470655441284,-0.7221816778182983,0.1738748848438263,-2.41698694229126,1.3641653060913086,78.78099822998047,24.51,1
-0.3538031578063965,-0.7041589021682739,0.1955495029687881,-3.4892563819885254,1.364024043083191,78.7412338256836,24.51,1
-0.4005815088748932,-0.7429729104042053,0.2038612514734268,-4.700433254241943,1.3639333248138428,78.71571350097656,24.51,1
-0.4473944902420044,-0.7958703637123108,0.2035974860191345,-6.15122127532959,1.363875150680542,78.69933319091797,24.51,1
-0.4886319041252136,-0.8690013289451599,0.1754393428564071,-7.547988414764404,1.3638378381729126,78.6888198852539,24.51,1
-0.5094979405403137,-0.9383236765861512,0.1293801963329315,-8.519587516784668,1.363813877105713,78.68207550048828,24.51,1
-0.511693000793457,-1.05558180809021,0.0774309858679771,-9.12519073486328,1.3619624376296997,78.67774963378906,24.51,1
-0.507503867149353,-1.1532224416732788,0.0272996500134468,-9.7216215133667,1.360774278640747,78.67497253417969,24.51,1
-0.4992177784442901,-1.2382737398147583,0.006323795299977,-10.32291316986084,1.3600118160247805,78.67318725585938,24.51,1
-0.4771069288253784,-1.1529103517532349,0.0040582478977739,-10.031681060791016,1.3595224618911743,78.67204284667969,24.51,1
-0.4573196768760681,-1.1429113149642944,-0.0085911992937326,-7.190096378326416,1.3592084646224976,78.67131042480469,24.51,1
-0.4278280436992645,-1.2204610109329224,-0.033502209931612,-0.9635453820228576,1.3590070009231567,78.67083740234375,24.51,1
-0.3865109086036682,-1.3485968112945557,-0.0606842115521431,7.080606937408447,1.358877658843994,78.67053985595703,24.51,1
-0.3264092803001404,-1.397240400314331,-0.0781280547380447,13.883700370788574,1.3587946891784668,78.67034912109375,24.51,1
-0.2374595552682876,-1.394870400428772,-0.1005180552601814,17.368221282958984,1.357364296913147,78.67022705078125,24.51,1
-0.1747789680957794,-1.3877516984939575,-0.1316799968481063,17.18256378173828,1.356446385383606,78.6701431274414,24.51,1
-0.1345541775226593,-1.349596619606018,-0.1628734767436981,14.082716941833496,1.355857253074646,78.67008972167969,24.51,1
-0.1255335509777069,-1.2803287506103516,-0.1772938966751098,9.97611141204834,1.3554792404174805,78.67005920410156,24.51,1
-0.1309401839971542,-1.22468101978302,-0.1921458542346954,7.215338706970215,1.3552366495132446,78.67003631591797,24.51,1
-0.1344098448753357,-1.1721762418746948,-0.2072747647762298,6.4754157066345215,1.3550809621810913,78.6700210571289,24.51,1
-0.1366364657878875,-1.127286076545715,-0.2057880759239196,6.100887775421143,1.3549810647964478,78.67001342773438,24.51,1
-0.1436631679534912,-1.0816848278045654,-0.1824429184198379,4.330777168273926,1.3549169301986694,78.67000579833984,24.51,1
-0.1537702679634094,-1.0412250757217407,-0.1394724547863006,1.3892041444778442,1.3521214723587036,78.67000579833984,24.51,1
-0.165854200720787,-1.0096625089645386,-0.1007009446620941,-1.1863826513290403,1.350327491760254,78.67000579833984,24.51,1
-0.173608973622322,-0.9782119989395142,-0.0870151668787002,-2.5454747676849365,1.3491761684417725,78.67000579833984,24.51,1
-0.1785855442285537,-0.8908555507659912,-0.0670368745923042,-3.077317237854004,1.3484374284744265,78.67000579833984,24.51,1
-0.1985725313425064,-0.7452307939529419,0.0073595596477389,-3.458031415939331,1.3479633331298828,78.67000579833984,24.51,1
-0.2729745507240295,-0.6853638887405396,0.0942873284220695,-3.985375165939331,1.3476589918136597,78.67000579833984,24.51,1
-0.3375148177146911,-0.7421069145202637,0.1444747895002365,-4.431271553039551,1.3474637269973757,78.67000579833984,24.51,1
-0.3845308125019073,-0.90167236328125,0.1934755444526672,-4.0618109703063965,1.3473384380340576,78.67000579833984,24.51,1
-0.4091052114963531,-0.9984744787216188,0.2305191755294799,-2.35227370262146,1.343126654624939,78.31890869140625,24.53,1
-0.3521045744419098,-1.0494009256362915,0.2486938834190368,0.1384308040142059,1.3404237031936646,78.09359741210938,24.53,1
-0.2651448547840118,-1.0988759994506836,0.2659551203250885,2.1058270931243896,1.3386890888214111,77.94900512695312,24.53,1
-0.2093391269445419,-1.1362240314483645,0.2938257157802582,2.691281795501709,1.337575912475586,77.85621643066406,24.53,1
-0.1903195530176162,-1.1322029829025269,0.3452981114387512,2.002968072891236,1.3368616104125977,77.79666900634766,24.53,1
-0.1949072033166885,-1.107231378555298,0.3895256817340851,0.7300904393196106,1.3364031314849854,77.75845336914062,24.53,1
-0.2258401662111282,-1.0744127035140991,0.4235061705112457,-0.4557744562625885,1.336108922958374,77.73393249511719,24.53,1
-0.2568867206573486,-1.0421559810638428,0.4341173470020294,-1.33860182762146,1.3359202146530151,77.71819305419922,24.53,1
-0.2768105864524841,-1.0158576965332031,0.4241336584091186,-2.0592002868652344,1.340389370918274,77.70809173583984,24.53,1
-0.2728032767772674,-0.9933832287788392,0.3729445040225982,-2.6864376068115234,1.3432574272155762,77.70161437988281,24.53,1
-0.2702316045761108,-0.9733626246452332,0.3177031576633453,-3.0065629482269287,1.3450980186462402,77.69745635986328,24.53,1
-0.2797768115997314,-0.954916775226593,0.2542635798454284,-2.792839765548706,1.3462791442871094,77.69478607177734,24.53,1
-0.2915001511573791,-0.9710682034492492,0.1743672788143158,-2.17203688621521,1.3470371961593628,77.69306945800781,24.53,1
-0.2990235090255737,-1.0318132638931274,0.1007033362984657,-1.4404616355895996,1.3475236892700195,77.69197082519531,24.53,1
-0.2982537746429443,-1.1211758852005005,0.0198434125632047,-0.5983909368515015,1.347835898399353,77.69126892089844,24.53,1
-0.3089553713798523,-1.2345013618469238,-0.0432433858513832,0.5832825303077698,1.3480361700057983,77.6908187866211,24.53,1
-0.3326163589954376,-1.1840760707855225,-0.0669355392456054,2.086788415908813,1.3486239910125732,77.6905288696289,24.53,1
-0.3757894933223724,-1.106933832168579,-0.1493130922317505,3.4887261390686035,1.349001169204712,77.69033813476562,24.53,1
-0.4034955203533172,-1.1022106409072876,-0.2357649058103561,4.302427291870117,1.3492432832717896,77.69021606445312,24.53,1
-0.432471215724945,-1.1663528680801392,-0.3472224473953247,4.308722972869873,1.3493986129760742,77.69013977050781,24.53,1
-0.434272825717926,-1.2075155973434448,-0.4299450218677521,3.599830389022827,1.3494983911514282,77.69009399414062,24.53,1
-0.3570601344108581,-1.189149260520935,-0.4662382900714874,2.496457815170288,1.349562406539917,77.6900634765625,24.53,1
-0.2515317499637604,-1.205351710319519,-0.4951269924640655,1.4408669471740725,1.3496034145355225,77.6900405883789,24.53,1
-0.1726141422986984,-1.2045539617538452,-0.4912750124931335,0.7276238203048706,1.3496297597885132,77.69002532958984,24.53,1
-0.1275671422481537,-1.176053166389465,-0.4496186077594757,0.2269145399332046,1.3427609205245972,77.69001770019531,24.53,1
-0.1042563468217849,-1.1409696340560913,-0.4060926139354706,-0.5064080953598022,1.338352918624878,77.69001007080078,24.53,1
-0.0948945954442024,-1.1072595119476318,-0.36696457862854,-1.7723441123962402,1.335524082183838,77.69001007080078,24.53,1
-0.1000823080539703,-1.096821904182434,-0.3250611424446106,-3.426654100418091,1.3337087631225586,77.69001007080078,24.53,1
-0.114607036113739,-1.106916904449463,-0.2869743704795837,-5.07225513458252,1.3325437307357788,77.69001007080078,24.53,1
-0.1295259445905685,-1.146981954574585,-0.2401413768529892,-6.47223424911499,1.331796169281006,77.69001007080078,24.53,1
-0.139100044965744,-1.16709566116333,-0.2044888883829116,-7.621440887451172,1.331316351890564,77.69001007080078,24.53,1
-0.1284508258104324,-1.2079923152923584,-0.209598034620285,-8.444916725158691,1.3310084342956543,77.69001007080078,24.53,1
-0.1384100914001464,-1.2062485218048096,-0.1792901456356048,-8.808577537536621,1.3326469659805298,77.54670715332031,24.53,1
-0.1895835697650909,-1.1547495126724243,-0.1206558719277381,-8.891486167907715,1.3336985111236572,77.45474243164062,24.53,1
-0.3119881451129913,-0.9985494017601012,0.0233299434185028,-9.113073348999023,1.3343732357025146,77.39572143554688,24.53,1
-0.3961381316184997,-0.887113630771637,0.1213295310735702,-9.584872245788574,1.3348063230514526,77.35784912109375,24.53,1
-0.4221518933773041,-0.9723381996154784,0.1226445063948631,-9.887645721435549,1.3350841999053955,77.33354187011719,24.53,1
-0.3828682601451874,-1.015834927558899,0.1178906038403511,-9.422754287719728,1.3352625370025637,77.31793975830078,24.53,1
-0.3296694159507751,-1.0045641660690308,0.1316331475973129,-7.737957000732422,1.3353769779205322,77.30792999267578,24.53,1
-0.2395517230033874,-0.9805379509925842,0.1572456508874893,-4.686334609985352,1.3354504108428955,77.30150604248047,24.53,1
-0.1873171478509903,-0.9595215320587158,0.1792800426483154,-0.5282774567604065,1.3354976177215576,77.2973861694336,24.53,1
-0.2153715342283249,-0.9516321420669556,0.1934204548597335,4.20727014541626,1.3355278968811035,77.29473876953125,24.53,1
-0.2837551832199096,-0.9465692043304444,0.1912994086742401,8.92650032043457,1.3355473279953003,77.29304504394531,24.53,1
-0.3388354182243347,-0.9265267848968506,0.1843404620885849,13.04055118560791,1.3355597257614136,77.29195404052734,24.53,1
-0.3853783011436462,-0.8912736177444458,0.1686790734529495,16.042552947998047,1.3355677127838137,77.29125213623047,24.53,1
-0.4208446145057678,-0.8630523681640625,0.1530307084321975,17.732614517211914,1.3355728387832642,77.29080200195312,24.53,1
-0.4436048567295074,-0.833746075630188,0.1317929476499557,18.351463317871094,1.3355761766433716,77.29051208496094,24.53,1
-0.4470155239105224,-0.8373300433158875,0.0957726761698722,18.2291316986084,1.3355783224105835,77.29032897949219,24.53,1
-0.4436065256595611,-0.8564233779907227,0.0670591667294502,17.290807723999023,1.336038589477539,77.29021453857422,24.53,1
-0.4302232563495636,-0.9246541261672974,0.0318391658365726,15.198293685913086,1.336333990097046,77.2901382446289,24.53,1
-0.4216346442699432,-0.9964295625686646,-0.0019585522823035,12.074898719787598,1.3365235328674316,77.29009246826172,24.53,1
-0.3937318921089172,-1.1040663719177246,-0.0180502086877822,8.648201942443848,1.3366451263427734,77.2900619506836,24.53,1
-0.3478366434574127,-0.9492305517196656,-0.0115835852921009,5.5857439041137695,1.3367232084274292,77.2900390625,24.53,1
-0.3183836936950683,-0.8218769431114197,-0.0186292268335819,3.1582822799682617,1.3367732763290403,77.29002380371094,24.53,1
-0.3218735754489898,-0.9640597105026244,-0.073530688881874,1.3604446649551392,1.3368054628372192,77.2900161743164,24.53,1
-0.3353087306022644,-1.172857642173767,-0.1255566030740738,-0.2124653756618499,1.3368260860443115,77.29000854492188,24.53,1
-0.4167017340660095,-1.1725056171417236,-0.1701393872499466,-2.18558120727539,1.3372986316680908,77.29000854492188,24.53,1
-0.3961640000343323,-1.1498886346817017,-0.1875545084476471,-4.548081398010254,1.337601900100708,77.29000854492188,24.53,1
-0.3493974208831787,-1.112983226776123,-0.1819372028112411,-6.56934118270874,1.3377964496612549,77.29000854492188,24.53,1
-0.302592009305954,-1.0445172786712646,-0.1615390181541443,-7.837809085845947,1.337921380996704,77.29000854492188,24.53,1
-0.2725549638271332,-0.983786404132843,-0.142850860953331,-8.623177528381348,1.3380014896392822,77.29000854492188,24.53,1
-0.2756700217723846,-0.911226212978363,-0.1308578848838806,-9.170172691345217,1.3380528688430786,77.29000854492188,24.53,1
-0.2664735317230224,-0.915041208267212,-0.1287592500448227,-9.438803672790527,1.3380858898162842,77.29000854492188,24.53,1
-0.2549739778041839,-0.9398805499076844,-0.1274124681949615,-9.406989097595217,1.3381071090698242,77.29000854492188,24.53,1
-0.2252031415700912,-0.967016577720642,-0.1097548604011535,-9.071306228637695,1.333070993423462,77.13954162597656,24.49,1
-0.1949023753404617,-0.9732353687286376,-0.0816299021244049,-8.404479026794434,1.329839110374451,77.04297637939453,24.49,1
-0.1586637645959854,-1.005215048789978,-0.0523853711783885,-7.582464694976807,1.3277651071548462,76.98101043701172,24.49,1
-0.1354079246520996,-1.048128962516785,-0.0280201397836208,-6.854319095611572,1.3264341354370115,76.94123840332031,24.49,1
-0.1372769773006439,-1.058875322341919,-0.0123839387670159,-6.207908153533936,1.3255800008773804,76.91571807861328,24.49,1
-0.200051948428154,-1.132944941520691,-0.0023495249915868,-5.431238651275635,1.325031876564026,76.89933776855469,24.49,1
-0.2851195037364959,-1.1580874919891355,0.0152855338528752,-4.481412410736084,1.3246800899505615,76.88882446289062,24.49,1
-0.3956887125968933,-1.21900475025177,0.0713848918676376,-3.674826860427856,1.3244543075561523,76.882080078125,24.49,1
-0.5002323389053345,-1.1741312742233276,0.1521684229373932,-3.3363354206085205,1.3238505125045776,76.87775421142578,24.49,1
-0.47775799036026,-1.106149673461914,0.170423999428749,-3.287492275238037,1.3234630823135376,76.8749771118164,24.49,1
-0.3177931308746338,-1.1408917903900146,0.1429549604654312,-2.969541549682617,1.323214411735535,76.8731918334961,24.49,1
-0.1815502345561981,-1.1631872653961182,0.1645113378763198,-2.038236141204834,1.3230549097061155,76.8720474243164,24.49,1
-0.1165084913372993,-1.0879309177398682,0.2679093778133392,-0.5915074944496155,1.3229525089263916,76.8713150024414,24.49,1
-0.1027573123574256,-0.9892557263374328,0.3286665081977844,1.146581768989563,1.3228868246078491,76.87084197998047,24.49,1
-0.1611059010028839,-0.8699539303779602,0.2892880737781524,3.1038928031921387,1.322844624519348,76.87054443359375,24.49,1
-0.2489306330680847,-0.7821973562240601,0.1968439817428589,5.2198004722595215,1.32281756401062,76.87035369873047,24.49,1
-0.3332803547382355,-0.7258802056312561,0.1207253634929657,7.0899763107299805,1.327849507331848,76.87023162841797,24.49,1
-0.4209977984428406,-0.700934648513794,0.060681264847517,8.03936767578125,1.3310786485671997,76.87014770507812,24.49,1
-0.4772897958755493,-0.6793282628059387,0.0165506433695554,7.813891887664795,1.3331509828567505,76.8700942993164,24.49,1
-0.4966214597225189,-0.6430714130401611,-0.0005742992507293,6.974174976348877,1.334480881690979,76.87006378173828,24.49,1
-0.503429651260376,-0.6701838374137878,-0.000368552195141,6.198843002319336,1.335334300994873,76.87004089355469,24.49,1
-0.5077987313270569,-0.7099741101264954,-0.0058342898264527,5.543646335601807,1.3358819484710691,76.87002563476562,24.49,1
-0.5162003040313721,-0.8306714296340942,-0.0429285317659378,4.8329901695251465,1.336233377456665,76.8700180053711,24.49,1
-0.5159941911697388,-0.9473124146461488,-0.0779290273785591,4.244376659393311,1.3364589214324951,76.87001037597656,24.49,1
-0.5270574688911438,-1.0109703540802002,-0.0947925597429275,4.056514739990234,1.3320133686065674,76.87001037597656,24.49,1
-0.5453528165817261,-0.96785569190979,-0.0552346333861351,4.2440571784973145,1.329160451889038,76.87001037597656,24.49,1
-0.5570936799049377,-0.8898072242736816,-0.0130553105846047,4.532792568206787,1.3273295164108276,76.87001037597656,24.49,1
-0.5366394519805908,-0.9684690237045288,-0.036367017775774,4.356245994567871,1.3261545896530151,76.87001037597656,24.49,1
-0.5067197680473328,-1.1868828535079956,-0.0793160051107406,3.146680355072021,1.3254005908966064,76.87001037597656,24.49,1
-0.4875190258026123,-1.2598750591278076,-0.0676937699317932,1.105801701545715,1.3249167203903198,76.87001037597656,24.49,1
-0.38563272356987,-1.155577301979065,0.0013402302283793,-1.0028313398361206,1.32460618019104,76.87001037597656,24.49,1
-0.2754657566547394,-1.0382649898529053,0.0680333748459816,-2.8038525581359863,1.3244068622589111,76.87001037597656,24.49,1
-0.2103647142648697,-0.946187436580658,0.1276265233755111,-4.246250152587891,1.3238201141357422,76.7374496459961,24.49,1
-0.2021732628345489,-0.9318795204162598,0.1602721959352493,-5.171897888183594,1.3234435319900513,76.65238189697266,24.49,1
-0.2528941929340362,-0.9282953143119812,0.1364401131868362,-5.669196128845215,1.3232018947601318,76.59779357910156,24.49,1
-0.3022373020648956,-0.86441969871521,0.0875594094395637,-6.131636619567871,1.3230468034744265,76.56275939941406,24.49,1
-0.3059139847755432,-0.8178302049636841,0.0617883615195751,-6.582454681396484,1.3229472637176514,76.54027557373047,24.49,1
-0.2634912729263305,-0.7935295104980469,0.0620433129370212,-6.721295833587647,1.322883367538452,76.52584838867188,24.49,1
-0.2250712811946869,-0.7723369598388672,0.0734024718403816,-6.645597457885742,1.322842359542847,76.51658630371094,24.49,1
-0.194817766547203,-0.7755300998687744,0.0806921273469924,-6.657922267913818,1.3228161334991455,76.5106430053711,24.49,1
-0.1977939009666443,-0.8223614692687988,0.0517835617065429,-6.622840881347656,1.3227992057800293,76.50682830810547,24.49,1
-0.2053015828132629,-0.8860018253326416,0.0108406115323305,-6.277895927429199,1.3227883577346802,76.50437927246094,24.49,1
-0.2157173603773117,-1.0108091831207275,-0.060216411948204,-5.834410190582275,1.3227814435958862,76.5028076171875,24.49,1
-0.2335971444845199,-1.1356855630874634,-0.1170122697949409,-5.564136981964111,1.3227770328521729,76.50180053710938,24.49,1
-0.2954513430595398,-1.1878350973129272,-0.1478628069162368,-5.186484336853027,1.3227741718292236,76.50115203857422,24.49,1
-0.3631346821784973,-1.1541284322738647,-0.1452698111534118,-4.209700584411621,1.3227723836898804,76.50074005126953,24.49,1
-0.4121677279472351,-1.059726357460022,-0.121214672923088,-2.389859437942505,1.3227711915969849,76.50047302246094,24.49,1
-0.3988521099090576,-1.0159378051757812,-0.0945819243788719,0.3722561597824096,1.3227704763412476,76.50030517578125,24.49,1
-0.3567202687263489,-1.0326191186904907,-0.0830883309245109,3.8572940826416016,1.3200156688690186,76.50019836425781,24.49,1
-0.3184869289398193,-1.0713130235671997,-0.0925057306885719,7.272458076477051,1.3182477951049805,76.50012969970703,24.49,1
-0.2883532047271728,-1.006580114364624,-0.087353728711605,9.890439987182615,1.3171132802963257,76.50008392333984,24.49,1
-0.2746128737926483,-0.9202561378479004,-0.0784496888518333,11.588422775268556,1.3163851499557495,76.50005340576172,24.49,1
-0.276990681886673,-0.8256739377975464,-0.0727355927228927,12.273260116577148,1.31591796875,76.50003051757812,24.49,1
-0.2841143906116485,-0.7761721014976501,-0.0746663883328437,11.52691650390625,1.3156181573867798,76.5000228881836,24.49,1
-0.2942837476730346,-0.772393524646759,-0.087101012468338,9.28532886505127,1.3154257535934448,76.50001525878906,24.49,1
-0.3008098602294922,-0.7923597693443298,-0.0950808376073837,6.231065273284912,1.3153022527694702,76.50000762939453,24.49,1
-0.3049979507923126,-0.8051729202270508,-0.1002018302679061,3.178329467773437,1.3156819343566897,76.50000762939453,24.49,1
-0.3076856136322021,-0.8022001385688782,-0.1034881845116615,0.6317165493965149,1.3159255981445312,76.50000762939453,24.49,1
-0.3150081932544708,-0.8226834535598755,-0.0999994054436683,-1.1028650999069214,1.316082000732422,76.50000762939453,24.49,1
-0.3532940447330475,-0.8806106448173523,-0.0809671878814697,-2.001065254211426,1.3161823749542236,76.50000762939453,24.49,1
-0.4002547860145569,-0.9457738995552064,-0.0687534064054489,-2.4879138469696045,1.316246747970581,76.50000762939453,24.49,1
-0.4303914904594421,-1.0267763137817385,-0.0665130764245987,-3.0188825130462646,1.3162879943847656,76.50000762939453,24.49,1
-0.4441337287425995,-1.1459323167800903,-0.0370864905416965,-3.5638344287872314,1.316314458847046,76.50000762939453,24.49,1
-0.4361593723297119,-1.0824553966522217,0.0321777686476707,-3.78458023071289,1.3163315057754517,76.50000762939453,24.49,1
-0.4086507856845855,-0.968948483467102,0.0878231301903724,-3.6073930263519287,1.3168014287948608,76.32087707519531,24.51,1
-0.3630084991455078,-1.024855136871338,0.1403264552354812,-3.199913501739502,1.3171029090881348,76.20591735839844,24.51,1
-0.3449134528636932,-1.1446994543075562,0.1740200519561767,-2.537168025970459,1.3172963857650757,76.13214874267578,24.51,1
-0.3277033269405365,-1.2216086387634275,0.1676537990570068,-1.5314788818359375,1.3174206018447876,76.08480834960938,24.51,1
-0.3166588544845581,-1.2485734224319458,0.1579705327749252,-0.4848370254039764,1.317500352859497,76.05442810058594,24.51,1
-0.3207666873931885,-1.198704481124878,0.1629519164562225,0.3373056948184967,1.3175514936447144,76.03492736816406,24.51,1
-0.3010117709636688,-1.1611037254333496,0.160550907254219,1.2661579847335815,1.3175842761993408,76.02241516113281,24.51,1
-0.1819764822721481,-1.1369737386703491,0.2149878144264221,2.482027530670166,1.3176053762435913,76.0143814086914,24.51,1
-0.1559664458036422,-1.07110857963562,0.2443245202302932,3.2802155017852783,1.3157827854156494,76.00923156738281,24.51,1
-0.0888947397470474,-1.0064489841461182,0.2743466794490814,2.968454360961914,1.3146131038665771,76.00592803955078,24.51,1
-0.0234608799219131,-0.8977808952331543,0.2712220847606659,1.8512444496154783,1.3138625621795654,76.0038070678711,24.51,1
-0.0430447161197662,-0.8392394781112671,0.2076413631439209,0.6649660468101501,1.3133808374404907,76.00244140625,24.51,1
-0.0780035927891731,-0.7848776578903198,0.1556433737277984,-0.2073789685964584,1.3130717277526855,76.0015640258789,24.51,1
-0.1284270584583282,-0.7331980466842651,0.099882960319519,-0.6955482959747314,1.312873363494873,76.00100708007812,24.51,1
-0.1663837134838104,-0.7224241495132446,0.0585013590753078,-0.851193904876709,1.3127460479736328,76.00064849853516,24.51,1
-0.1739487797021865,-0.7826833724975586,0.0207494795322418,-0.8901745080947876,1.3126643896102903,76.00041961669922,24.51,1
-0.1732058376073837,-0.882929801940918,-0.0258685983717441,-0.9975892901420592,1.3126119375228882,76.0002670288086,24.51,1
-0.1671312749385833,-1.03122878074646,-0.0669809505343437,-1.1095128059387207,1.3125783205032349,76.00016784667969,24.51,1
-0.1744285225868225,-1.3111251592636108,-0.1269511282444,-1.073861598968506,1.3125567436218262,76.00010681152344,24.51,1
-0.2182959020137787,-1.4795509576797483,-0.1654365360736847,-0.9076796770095824,1.3125429153442385,76.00006866455078,24.51,1
-0.30242520570755,-1.425301432609558,-0.1621453911066055,-0.725799560546875,1.312533974647522,76.00004577636719,24.51,1
-0.311632364988327,-1.278531789779663,-0.1040555760264396,-0.569671094417572,1.3125282526016235,76.00003051757812,24.51,1
-0.2671610116958618,-1.1787456274032593,-0.0555813275277614,-0.4551465213298797,1.3125245571136477,76.0000228881836,24.51,1
-0.2106329798698425,-1.148295283317566,-0.0524622201919555,-0.4855459332466125,1.3125221729278564,76.00001525878906,24.51,1
-0.1967476457357406,-1.123156189918518,-0.0784494280815124,-0.7809128165245056,1.3093074560165403,76.00000762939453,24.51,1
-0.1990323811769485,-1.0286545753479004,-0.1175176203250885,-1.196164608001709,1.3072444200515747,76.00000762939453,24.51,1
-0.1949008256196975,-0.9288244843482972,-0.1425893306732177,-1.4411537647247314,1.3059204816818235,76.00000762939453,24.51,1
-0.1922494173049926,-0.8647592663764954,-0.1586789190769195,-1.55180025100708,1.305070877075195,76.00000762939453,24.51,1
-0.2017434537410736,-0.8292436599731445,-0.1690042912960052,-1.7911878824234009,1.30452561378479,76.00000762939453,24.51,1
-0.21343395113945,-0.8008540272712708,-0.1756305247545242,-2.1311070919036865,1.3041757345199585,76.00000762939453,24.51,1
-0.2377295643091201,-0.8050262928009033,-0.1854806244373321,-2.3635778427124023,1.3039512634277344,76.00000762939453,24.51,1
-0.2701144218444824,-0.796508252620697,-0.1862040758132934,-2.4554429054260254,1.3038071393966677,76.00000762939453,24.51,1
-0.2964949309825897,-0.7742485404014587,-0.1698750257492065,-2.457075595855713,1.304632544517517,75.88178253173828,24.51,1
-0.3358155190944671,-0.7991479635238647,-0.1202115640044212,-2.425879955291748,1.3051621913909912,75.805908203125,24.51,1
-0.3666469752788543,-0.8655069470405579,-0.0827426388859748,-2.5133378505706787,1.3055020570755005,75.75721740722656,24.51,1
-0.4592038989067077,-1.059232234954834,-0.0307083670049905,-2.680523157119751,1.3057202100753784,75.72596740722656,24.51,1
-0.5018082857131958,-1.2451294660568235,-0.0253046359866857,-2.590771436691284,1.305860161781311,75.70591735839844,24.51,1
-0.5067582130432129,-1.3084498643875122,-0.0274346079677343,-2.1677510738372803,1.3059500455856323,75.69304656982422,24.51,1
-0.4763481616973877,-1.2203364372253418,0.0607628859579563,-1.6705787181854248,1.306007742881775,75.6847915649414,24.51,1
-0.4288438558578491,-1.074225902557373,0.1677429378032684,-0.8750396370887756,1.3060446977615356,75.67948913574219,24.51,1
-0.3871628046035766,-1.0308406352996826,0.2531898915767669,1.061356782913208,1.301478147506714,75.67608642578125,24.51,1
-0.3548165261745453,-1.0701717138290403,0.2968292832374573,4.2457804679870605,1.2985475063323977,75.67390441894531,24.51,1
-0.3284607529640198,-1.1122055053710938,0.3080412149429321,7.392793655395508,1.2966668605804443,75.6725082397461,24.51,1
-0.3003515899181366,-1.083202600479126,0.3152363896369934,9.132925033569336,1.2954599857330322,75.6716079711914,24.51,1
-0.2823127508163452,-1.0421991348266602,0.3198538422584533,9.096051216125488,1.2946854829788208,75.67102813720703,24.51,1
-0.2707364559173584,-0.9822987914085388,0.3284148275852203,7.513967514038086,1.294188380241394,75.67066192626953,24.51,1
-0.2465141415596008,-0.9438582062721252,0.3227132260799408,5.044151306152344,1.2938693761825562,75.67042541503906,24.51,1
-0.2197741121053695,-0.9079936742782592,0.3078587055206299,3.036421775817871,1.2936646938323977,75.67027282714844,24.51,1
-0.1802227944135666,-0.8569890260696411,0.2703370749950409,2.5146477222442627,1.2953693866729736,75.67017364501953,24.51,1
-0.1548410356044769,-0.8242571949958801,0.2406600713729858,2.97155237197876,1.2964633703231812,75.67011260986328,24.51,1
-0.1385524868965149,-0.8088495135307312,0.2104195207357406,3.0713083744049072,1.2971653938293457,75.67007446289062,24.51,1
-0.1280994266271591,-0.8157551288604736,0.179817333817482,2.1751956939697266,1.2976160049438477,75.6700439453125,24.51,1
-0.1269890367984771,-0.8425778150558472,0.1489830613136291,0.607748806476593,1.2979050874710083,75.67002868652344,24.51,1
-0.1262764483690261,-0.8933777213096619,0.1068043038249015,-1.0430121421813965,1.2980906963348389,75.6700210571289,24.51,1
-0.1258191466331482,-0.9371737241744996,0.0685408562421798,-2.31374740600586,1.2982097864151,75.67001342773438,24.51,1
-0.1591123342514038,-1.0380505323410034,0.0271922536194324,-2.9393556118011475,1.298286199569702,75.67000579833984,24.51,1
-0.2420534938573837,-1.1363741159439087,0.0174504239112138,-2.8786826133728027,1.298794507980347,75.67000579833984,24.51,1
-0.3400625586509704,-1.2162659168243408,0.0279920008033514,-2.288029670715332,1.2991206645965576,75.67000579833984,24.51,1
-0.4981212913990021,-1.0996025800704956,0.152310237288475,-1.4468302726745603,1.2993299961090088,75.67000579833984,24.51,1
-0.644336462020874,-0.9631592631340028,0.2712749540805816,-0.6168083548545837,1.2994643449783323,75.67000579833984,24.51,1
-0.6374090313911438,-0.85880446434021,0.2972396910190582,0.0591550208628177,1.2995505332946775,75.67000579833984,24.51,1
-0.4818235039710998,-0.9205843806266784,0.2243379652500152,0.4965319633483886,1.2996058464050293,75.67000579833984,24.51,1
-0.2700221836566925,-1.021806716918945,0.1999449431896209,0.6016691327095032,1.2996413707733154,75.67000579833984,24.51,1
-0.111709177494049,-1.0139943361282349,0.2178775519132614,0.2858044803142547,1.2996641397476196,75.67000579833984,24.51,1
-0.049297422170639,-0.947405219078064,0.2293856590986251,-0.5581802725791931,1.2996788024902344,75.54461669921875,24.51,1
-0.1267984062433242,-0.8766832947731018,0.242368683218956,-1.884385228157044,1.2996882200241089,75.46414947509766,24.51,1
-0.2493051588535308,-0.8872758150100708,0.2395048886537552,-3.308679342269897,1.299694299697876,75.41250610351562,24.51,1
-0.3335207104682922,-0.8884756565093994,0.2320692986249923,-4.469907283782959,1.2996981143951416,75.37936401367188,24.51,1
-0.3651742935180664,-0.8500612378120422,0.2105042338371276,-5.440818309783936,1.2997006177902222,75.35809326171875,24.51,1
-0.3686944246292114,-0.8198113441467285,0.1910672485828399,-6.42931604385376,1.2997021675109863,75.34444427490234,24.51,1
-0.3709534406661987,-0.8003986477851868,0.172995924949646,-7.393273830413818,1.2997032403945925,75.33568572998047,24.51,1
-0.3891964852809906,-0.8383206725120544,0.1446054726839065,-8.216093063354492,1.29970383644104,75.33006286621094,24.51,1
-0.4009038209915161,-0.885047972202301,0.11519056558609,-8.855191230773926,1.297408938407898,75.32645416259766,24.51,1
-0.4084168970584869,-0.9038392901420592,0.1019115447998046,-9.200840950012209,1.295936107635498,75.32414245605469,24.51,1
-0.413238376379013,-0.8991051912307739,0.0933898389339447,-9.128888130187988,1.2949910163879397,75.3226547241211,24.51,1
-0.42752805352211,-0.9520448446273804,0.0711277723312377,-8.520248413085938,1.294384479522705,75.32170104980469,24.51,1
-0.4534916877746582,-1.0475939512252808,0.0120590636506676,-6.9689040184021,1.2939952611923218,75.32109069824219,24.51,1
-0.4981425106525421,-1.2152695655822754,-0.0314456075429916,-3.752143859863281,1.293745517730713,75.3207015991211,24.51,1
-0.549187958240509,-1.0541809797286987,-0.0201799813657999,1.257064700126648,1.293585181236267,75.32044982910156,24.51,1
-0.593141496181488,-0.9004236459732056,-0.0297436732798814,6.700048923492432,1.2934823036193848,75.3202896118164,24.51,1
-0.6101528406143188,-0.952890932559967,-0.0918588489294052,10.594290733337402,1.295711636543274,75.32018280029297,24.51,1
-0.6098741888999939,-1.1265058517456057,-0.1876985281705856,12.15117359161377,1.2971422672271729,75.32011413574219,24.51,1
-0.5593153834342957,-1.2771062850952148,-0.243605151772499,12.025362968444824,1.298060417175293,75.32007598876953,24.51,1
-0.3925230503082275,-1.2729929685592651,-0.2347006052732467,11.07405948638916,1.2986496686935425,75.3200454711914,24.51,1
-0.246300920844078,-1.2647556066513062,-0.2177906334400177,9.628827095031738,1.2990278005599976,75.32003021240234,24.51,1
-0.1300728768110275,-1.242676019668579,-0.1789499074220657,7.773473262786865,1.2992703914642334,75.32002258300781,24.51,1
-0.1002666056156158,-1.2173110246658323,-0.1484263986349105,5.658509254455566,1.2994260787963867,75.32001495361328,24.51,1
-0.1035297587513923,-1.1898376941680908,-0.1288381665945053,3.5023326873779297,1.2995259761810305,75.32000732421875,24.51,1
-0.1336127370595932,-1.1890002489089966,-0.138658657670021,1.4737592935562134,1.294999361038208,75.32000732421875,24.51,1
-0.1529182493686676,-1.188462734222412,-0.1449608951807022,-0.225728303194046,1.2920944690704346,75.32000732421875,24.51,1
-0.16530741751194,-1.1601289510726929,-0.1490053087472915,-1.330691933631897,1.2902302742004397,75.32000732421875,24.51,1
-0.1844536215066909,-1.0971637964248655,-0.1348074525594711,-1.8570826053619385,1.2890338897705078,75.32000732421875,24.51,1
-0.1967405527830124,-1.0399630069732666,-0.1200983077287674,-2.1877248287200928,1.2882661819458008,75.32000732421875,24.51,1
-0.210223376750946,-1.0144504308700562,-0.1162566021084785,-2.507389068603516,1.2877734899520874,75.32000732421875,24.51,1
-0.2300714254379272,-1.0092734098434448,-0.1081934422254562,-2.748357057571411,1.2874573469161987,75.32000732421875,24.51,1
-0.2484065294265747,-0.8772023320198059,-0.0302479024976491,-3.0677950382232666,1.2872544527053833,75.32000732421875,24.51,1
-0.2881618142127991,-0.7308712005615234,0.0589574761688709,-3.6167190074920654,1.2857470512390137,75.3665771484375,24.51,1
-0.3416633605957031,-0.7489197850227356,0.0994110330939292,-3.81851863861084,1.284779667854309,75.3964614868164,24.51,1
-0.3480086922645569,-0.94522887468338,0.1197740212082862,-2.780102491378784,1.2841589450836182,75.41564178466797,24.51,1
-0.3688740730285644,-1.0208288431167605,0.1496351361274719,-0.2328544557094574,1.2837605476379397,75.42794799804688,24.51,1
-0.3318843245506286,-1.0301600694656372,0.1743960529565811,3.2719273567199707,1.283504843711853,75.43584442138672,24.51,1
-0.2633642256259918,-1.0417461395263672,0.201481744647026,6.603032112121582,1.2833408117294312,75.44091796875,24.51,1
-0.2137942016124725,-1.043583631515503,0.2300593256950378,8.454137802124023,1.2832355499267578,75.44416809082031,24.51,1
-0.1987763345241546,-1.0559583902359009,0.2819854319095611,8.291439056396484,1.2831679582595823,75.44625854492188,24.51,1
-0.2059320509433746,-1.0583019256591797,0.3321019411087036,6.77549409866333,1.2867971658706665,75.44760131835938,24.51,1
-0.2441108226776123,-1.037414789199829,0.3698616027832031,4.799526691436768,1.28912615776062,75.44845581054688,24.51,1
-0.3077961802482605,-1.001619577407837,0.3773002326488495,2.682394027709961,1.2906208038330078,75.44900512695312,24.51,1
-0.3542635440826416,-0.956257164478302,0.3764761686325073,0.582146942615509,1.2915799617767334,75.4493637084961,24.51,1
-0.3728880882263183,-0.9271461963653564,0.3423606753349304,-1.123928189277649,1.292195439338684,75.44959259033203,24.51,1
-0.379242479801178,-0.9252577424049376,0.2980762124061584,-2.1256420612335205,1.2925904989242554,75.44973754882812,24.51,1
-0.3721247911453247,-0.9576324820518494,0.2416681200265884,-2.449635028839112,1.2928439378738403,75.4498291015625,24.51,1
-0.3563615381717682,-1.023190975189209,0.1662842333316803,-2.3458712100982666,1.2930066585540771,75.44989013671875,24.51,1
-0.3462455868721008,-1.1100448369979858,0.1123094260692596,-2.089404821395874,1.2908157110214231,75.4499282836914,24.51,1
-0.3397537469863891,-1.143391489982605,0.0664759501814842,-1.8101770877838133,1.289409637451172,75.449951171875,24.51,1
-0.3411854207515716,-1.2095736265182495,0.0314648896455764,-1.4446909427642822,1.288507342338562,75.44996643066406,24.51,1
-0.3477019667625427,-1.1121011972427368,0.0201923549175262,-0.9342846274375916,1.2879282236099243,75.4499740600586,24.51,1
-0.3854705691337585,-1.0159623622894287,-0.043019451200962,-0.4920928180217743,1.2875566482543943,75.44998168945312,24.51,1
-0.4097082912921905,-0.9990481734275818,-0.1115740239620208,-0.4770127534866333,1.2873181104660034,75.44998931884766,24.51,1
-0.4364582002162933,-1.0329757928848269,-0.1947528272867202,-0.9008268713951112,1.2871650457382202,75.44998931884766,24.51,1
-0.4424292147159576,-1.049150824546814,-0.2593277394771576,-1.4200040102005005,1.2870668172836304,75.44998931884766,24.51,1
-0.3958810865879059,-1.00355327129364,-0.2895726561546325,-1.799755573272705,1.2860859632492063,75.44998931884766,24.51,1
-0.3268247544765472,-0.9742913842201232,-0.2977865636348724,-1.971806764602661,1.2854565382003784,75.44998931884766,24.51,1
-0.2657150626182556,-0.9555128216743468,-0.2862644493579864,-1.8027784824371336,1.2850526571273804,75.44998931884766,24.51,1
-0.21530282497406,-0.9322662949562072,-0.2620768845081329,-1.282309651374817,1.2847933769226074,75.44998931884766,24.51,1
-0.1773533821105957,-0.9117501974105836,-0.2353591471910476,-0.7548435926437378,1.284627079963684,75.44998931884766,24.51,1
-0.1641951650381088,-0.9433663487434388,-0.1958221495151519,-0.6707090735435486,1.2845202684402466,75.44998931884766,24.51,1
-0.16134874522686,-1.008437991142273,-0.1648517996072769,-1.2150065898895264,1.2844517230987549,75.44998931884766,24.51,1
-0.1595220863819122,-1.0613927841186523,-0.1449768096208572,-2.191256046295166,1.2844077348709106,75.44998931884766,24.51,1
-0.1303609609603881,-1.1233649253845217,-0.1266244202852249,-3.2154228687286377,1.283461332321167,75.52880859375,24.49,1
-0.0948537066578865,-1.1407439708709717,-0.1036513596773147,-4.091210842132568,1.2828539609909058,75.57939147949219,24.49,1
-0.0720672011375427,-1.1407012939453125,-0.1168974488973617,-4.911186695098877,1.2824642658233645,75.61185455322266,24.49,1
-0.0742374509572982,-1.1798583269119265,-0.1198002472519874,-5.702510833740234,1.2822141647338867,75.63268280029297,24.49,1
-0.2211723178625106,-1.143411636352539,-0.0097076129168272,-6.3393096923828125,1.2820535898208618,75.64604949951172,24.49,1
-0.4442154765129089,-0.9408934116363524,0.1113234683871269,-6.83036994934082,1.28195059299469,75.65463256835938,24.49,1
-0.54816734790802,-0.8053311109542847,0.1554076075553894,-7.299554824829102,1.2818844318389893,75.66014099121094,24.49,1
-0.5029221773147583,-0.8470838665962219,0.1053294315934181,-7.5540771484375,1.2818419933319092,75.6636734008789,24.49,1
-0.429104208946228,-0.9242583513259888,0.0787899121642112,-7.090464115142822,1.27951979637146,75.66593933105469,24.49,1
-0.2977654933929443,-0.9346000552177428,0.112138345837593,-5.689510822296143,1.2780295610427856,75.66739654541016,24.49,1
-0.1686976552009582,-0.907650113105774,0.1615283191204071,-3.62612247467041,1.2770731449127195,75.66832733154297,24.49,1
-0.1138582155108451,-0.8959529399871826,0.1932239681482315,-1.1877775192260742,1.2764593362808228,75.6689224243164,24.49,1
-0.173827588558197,-0.9052397012710572,0.1967710852622985,1.530601143836975,1.276065468788147,75.6693115234375,24.49,1
-0.2514969110488891,-0.9167972207069396,0.1878518760204315,4.288969039916992,1.275812745094299,75.6695556640625,24.49,1
-0.3405250310897827,-0.9130185842514038,0.1541391611099243,6.718324661254883,1.2756505012512207,75.66971588134766,24.49,1
-0.3920603692531585,-0.8826048374176025,0.1269065141677856,8.728750228881836,1.2755464315414429,75.66981506347656,24.49,1
-0.4251327812671661,-0.863086998462677,0.1094301715493202,10.520485877990724,1.277774691581726,75.66988372802734,24.49,1
-0.4519545137882232,-0.8337682485580444,0.1038126349449157,12.136053085327148,1.2792046070098877,75.669921875,24.49,1
-0.4747649431228637,-0.7981598377227783,0.1058053970336914,13.273143768310549,1.2801222801208496,75.66995239257812,24.49,1
-0.4838055968284607,-0.8088951110839844,0.1070842370390892,13.501302719116213,1.2807111740112305,75.66996765136719,24.49,1
-0.4616184830665588,-0.8885554075241089,0.0911116003990173,12.705504417419434,1.2810890674591064,75.66997528076172,24.49,1
-0.4305867552757263,-0.9844590425491332,0.0640679523348808,11.320658683776855,1.2813316583633425,75.66998291015625,24.49,1
-0.371487945318222,-1.1859488487243652,0.0187240242958068,10.045025825500488,1.281487226486206,75.66999053955078,24.49,1
-0.3167684078216553,-1.326448917388916,-0.0103750964626669,9.233563423156738,1.2815871238708496,75.66999053955078,24.49,1
-0.281652569770813,-1.203898310661316,0.0101351840421557,8.483528137207031,1.2798151969909668,75.66999053955078,24.49,1
-0.2647150158882141,-0.9965035915374756,0.0288952756673097,6.9560866355896,1.278678059577942,75.66999053955078,24.49,1
-0.2706387937068939,-0.9361807107925416,0.0185433253645896,4.1917405128479,1.277948260307312,75.66999053955078,24.49,1
-0.2968314290046692,-1.048608899116516,-0.0384799316525459,0.5548025369644165,1.277479887008667,75.66999053955078,24.49,1
-0.3752158880233764,-1.0255966186523438,-0.0918674990534782,-3.1083104610443115,1.2771793603897097,75.66999053955078,24.49,1
-0.4199207425117492,-0.9716442227363586,-0.1261285692453384,-6.103949069976807,1.2769864797592163,75.66999053955078,24.49,1
-0.3590453565120697,-0.9034340381622314,-0.1201264783740043,-8.209088325500488,1.2768627405166626,75.66999053955078,24.49,1
-0.3143812716007232,-0.8484651446342468,-0.1106769070029258,-9.513472557067873,1.2767833471298218,75.66999053955078,24.49,1
-0.2689251005649566,-0.8243848085403442,-0.0934171676635742,-10.117683410644531,1.276732325553894,75.8204574584961,24.49,1
-0.250949501991272,-0.8145292401313782,-0.0767430812120437,-10.154338836669922,1.2766996622085571,75.91702270507812,24.49,1
-0.2618048787117004,-0.8249977827072144,-0.0660426169633865,-9.8840913772583,1.2766786813735962,75.97898864746094,24.49,1
-0.2631734609603882,-0.8988891839981079,-0.0647734478116035,-9.452716827392578,1.276665210723877,76.01876068115234,24.49,1
-0.2528561949729919,-0.9575039744377136,-0.063958965241909,-8.79613208770752,1.2766565084457395,76.04428100585938,24.49,1
-0.2238440662622451,-0.9615329504013062,-0.0466429553925991,-7.934116840362549,1.2766509056091309,76.06066131591797,24.49,1
-0.1996279805898666,-0.9865096211433412,-0.0299327634274959,-6.839956283569336,1.2766473293304443,76.07117462158203,24.49,1
-0.1840874850749969,-1.069711446762085,-0.0024158000014722,-5.220647811889648,1.2766450643539429,76.07791900634766,24.49,1
-0.2188966870307922,-1.1846811771392822,0.0152430012822151,-3.088783264160156,1.2734299898147583,76.08224487304688,24.49,1
-0.2636263370513916,-1.2248754501342771,0.0433687269687652,-1.0865594148635864,1.271366834640503,76.08502197265625,24.49,1
-0.325917899608612,-1.2618653774261477,0.0614181980490684,0.3738988637924194,1.2700427770614624,76.08680725097656,24.49,1
-0.3714908063411712,-1.2576144933700562,0.1177835017442703,1.447274684906006,1.2691930532455444,76.08795166015625,24.49,1
-0.4119324088096618,-1.1317355632781982,0.209933266043663,1.9892200231552124,1.2686477899551392,76.08868408203125,24.49,1
-0.2867456078529358,-1.129322528839111,0.201896384358406,1.5954161882400513,1.268297791481018,76.08915710449219,24.49,1
-0.1448324024677276,-1.155762791633606,0.1743476688861847,0.6906667351722717,1.2680732011795044,76.0894546508789,24.49,1
-0.0201740320771932,-1.16713285446167,0.1790595948696136,0.332170307636261,1.2679290771484375,76.08964538574219,24.49,1
0.0318356603384017,-1.1296473741531372,0.204474538564682,0.990586757659912,1.2673777341842651,76.08976745605469,24.49,1
0.0036369711160659,-1.0104291439056396,0.2263821512460708,2.326677083969116,1.2670238018035889,76.08985137939453,24.49,1
-0.0704370662569999,-0.8891395330429077,0.2124523222446441,3.728654623031616,1.2667967081069946,76.08990478515625,24.49,1
-0.1403646171092987,-0.8057050704956055,0.1755240857601165,4.567459583282471,1.2666510343551636,76.08993530273438,24.49,1
-0.2132289707660675,-0.7633572220802307,0.123836800456047,4.468057632446289,1.2665574550628662,76.08995819091797,24.49,1
-0.2823802232742309,-0.741778552532196,0.0850691050291061,3.634013414382935,1.2664974927902222,76.08997344970703,24.49,1
-0.3603441417217254,-0.7223328351974487,0.0489946790039539,2.697523355484009,1.2664589881896973,76.08998107910156,24.49,1
-0.3879858255386352,-0.6650714874267578,0.0314419642090797,2.1180334091186523,1.2664343118667605,76.0899887084961,24.49,1
-0.4057246446609497,-0.6507155895233154,0.0313731916248798,1.864375114440918,1.2677955627441406,76.0899887084961,24.49,1
-0.4115106463432312,-0.7478604912757874,0.0257312823086977,1.658600926399231,1.2686691284179688,76.0899887084961,24.49,1
-0.4208215177059173,-0.8661802411079407,-0.0002804667165037,1.5193816423416138,1.269229769706726,76.0899887084961,24.49,1
-0.4267967045307159,-1.0316754579544067,-0.0505599565804004,1.8348698616027832,1.2695895433425903,76.0899887084961,24.49,1
-0.4474245607852936,-1.1042940616607666,-0.0660331174731254,2.825498580932617,1.2698204517364502,76.0899887084961,24.49,1
-0.471857875585556,-1.106114387512207,-0.0479740276932716,4.156246662139893,1.2699686288833618,76.0899887084961,24.49,1
-0.4987333416938782,-0.9337515234947203,-0.0195914208889007,5.020992279052734,1.2700636386871338,76.0899887084961,24.49,1
-0.5103826522827148,-1.0022677183151243,-0.0461592935025692,4.734030723571777,1.2701246738433838,76.0899887084961,24.49,1
-0.5066629648208618,-1.191779613494873,-0.0744045749306678,3.349712371826172,1.2697049379348757,76.19747161865234,24.53,1
-0.4986781179904938,-1.1958441734313965,-0.0533463470637798,1.4940413236618042,1.2694355249404907,76.26644897460938,24.53,1
-0.4599672853946686,-1.1312793493270874,-0.017441289499402,-0.3452678024768829,1.269262671470642,76.31071472167969,24.53,1
-0.3567560315132141,-1.033867597579956,0.0559804774820804,-2.0486865043640137,1.2691516876220703,76.33911895751953,24.53,1
-0.273727685213089,-0.9545609951019288,0.1254894435405731,-3.5502562522888184,1.2690805196762085,76.35734558105469,24.53,1
-0.2596292793750763,-0.9428510069847108,0.1868896186351776,-4.71808385848999,1.2690348625183103,76.3690414428711,24.53,1
-0.284168392419815,-0.9297384023666382,0.1927060633897781,-5.481858730316162,1.269005537033081,76.37654876708984,24.53,1
-0.3055139482021332,-0.9045301675796508,0.1796454042196273,-5.893188953399658,1.268986701965332,76.3813705444336,24.53,1
-0.2856256663799286,-0.8659619092941284,0.1768615990877151,-5.995941162109375,1.264843225479126,76.38446044921875,24.53,1
-0.2560691833496094,-0.8356132507324219,0.1806728839874267,-5.857675075531006,1.2621841430664062,76.38644409179688,24.53,1
-0.2091126590967178,-0.8105394244194031,0.1943143010139465,-5.758195877075195,1.2604776620864868,76.3877182006836,24.53,1
-0.1733808815479278,-0.8112418055534363,0.1918730288743972,-5.923640727996826,1.2593826055526731,76.38853454589844,24.53,1
-0.1504502892494201,-0.8228881359100342,0.1735130399465561,-6.108630180358887,1.2586798667907717,76.3890609741211,24.53,1
-0.1525280773639679,-0.8639487028121948,0.1393395513296127,-5.8905839920043945,1.2582288980484009,76.38939666748047,24.53,1
-0.1594592630863189,-0.9070923328399658,0.1062134280800819,-5.267006874084473,1.2579394578933716,76.38961029052734,24.53,1
-0.1751028448343277,-1.0467349290847778,0.0457705706357955,-4.487077713012695,1.2577537298202517,76.3897476196289,24.53,1
-0.2355219572782516,-1.1475450992584229,-0.0098115028813481,-3.628306388854981,1.2590116262435913,76.38983917236328,24.53,1
-0.3078821301460266,-1.2682169675827026,-0.0566764250397682,-2.489654064178467,1.2598189115524292,76.38990020751953,24.53,1
-0.3991008996963501,-1.205712914466858,-0.064360536634922,-0.6554992198944092,1.260336995124817,76.38993835449219,24.53,1
-0.4408465325832367,-1.0928303003311155,-0.0748895332217216,2.062062978744507,1.260669469833374,76.38996124267578,24.53,1
-0.3668765425682068,-1.037182092666626,-0.0760486647486686,5.0921831130981445,1.26088285446167,76.38997650146484,24.53,1
-0.3250046372413635,-1.079839110374451,-0.0879880785942077,7.574126243591309,1.2610198259353638,76.38998413085938,24.53,1
-0.3205247521400451,-1.0960183143615725,-0.0900523290038108,9.30303192138672,1.2611076831817627,76.3899917602539,24.53,1
-0.3344431519508362,-1.0224345922470093,-0.0745837241411209,10.441205024719238,1.2611640691757202,76.3899917602539,24.53,1
-0.3433751761913299,-0.9416261911392212,-0.0702546387910842,10.691554069519045,1.2584459781646729,76.3899917602539,24.53,1
-0.3435094654560089,-0.8449857831001282,-0.0730742588639259,9.46217441558838,1.2567015886306765,76.3899917602539,24.53,1
-0.377182275056839,-0.7717719674110413,-0.0692859515547752,6.7565507888793945,1.2555822134017944,76.3899917602539,24.53,1
-0.4155848920345306,-0.7247875928878784,-0.0724526047706604,3.4510691165924072,1.2548638582229614,76.3899917602539,24.53,1
-0.4570227861404419,-0.6946356892585754,-0.0688870102167129,0.6240338087081909,1.2544028759002686,76.3899917602539,24.53,1
-0.4892130196094513,-0.6640903949737549,-0.0610010400414466,-1.2725938558578491,1.2541069984436035,76.3899917602539,24.53,1
-0.5098708868026733,-0.627694845199585,-0.0447447299957275,-2.4037582874298096,1.2539170980453491,76.3899917602539,24.53,1
-0.5343234539031982,-0.6659138202667236,-0.03431236743927,-2.972041368484497,1.2537952661514282,76.3899917602539,24.53,1
-0.5500156879425049,-0.7240272164344788,-0.0332152508199214,-3.1217782497406006,1.2532577514648438,76.504638671875,24.51,1
-0.5600860714912415,-0.8396898508071899,-0.0381089597940444,-3.0996456146240234,1.2529128789901731,76.57820892333984,24.51,1
-0.5553531050682068,-0.9810888171195984,-0.0468472354114055,-3.038868904113769,1.2526915073394775,76.62542724609375,24.51,1
-0.5467180013656616,-1.116612672805786,-0.0300638582557439,-2.9031362533569336,1.252549409866333,76.65572357177734,24.51,1
-0.5523720383644104,-1.0412486791610718,0.04228226095438,-2.7981178760528564,1.2524582147598269,76.6751708984375,24.51,1
-0.5392071604728699,-0.9313088655471802,0.1446875929832458,-2.7665491104125977,1.2523998022079468,76.6876449584961,24.51,1
-0.5307586789131165,-1.0286890268325806,0.2216009795665741,-2.4740142822265625,1.2523622512817385,76.6956558227539,24.51,1
-0.5253369212150574,-1.1471598148345947,0.2317751497030258,-1.7703913450241089,1.252338171005249,76.70079803466797,24.51,1
-0.4714775681495666,-1.1896008253097534,0.1655332744121551,-1.0644837617874146,1.2537002563476562,76.70409393310547,24.51,1
-0.3361538052558899,-1.1776525974273682,0.1342186033725738,-0.6222206354141235,1.2545742988586426,76.70620727539062,24.51,1
-0.2045286148786544,-1.1419960260391235,0.136513739824295,-0.0983690246939659,1.255135178565979,76.70756530761719,24.51,1
-0.0864724889397621,-1.023951530456543,0.1995621472597122,0.8146035075187683,1.2554951906204224,76.70843505859375,24.51,1
-0.0331019721925258,-0.9425996541976928,0.2456207573413849,1.8662314414978027,1.2557262182235718,76.70899200439453,24.51,1
-0.0660251379013061,-0.9071860313415528,0.2303963303565979,2.54468846321106,1.255874514579773,76.7093505859375,24.51,1
-0.1375332921743393,-0.8676662445068359,0.1646484285593032,2.603912591934204,1.2559696435928345,76.70957946777344,24.51,1
-0.18902088701725,-0.8367069959640503,0.1112596616148948,2.247835874557495,1.2560306787490845,76.70973205566406,24.51,1
-0.2164648920297622,-0.8112413287162781,0.0658022686839103,1.847362756729126,1.2533152103424072,76.70983123779297,24.51,1
-0.2284791022539138,-0.7893011569976807,0.0366303324699401,1.5330408811569214,1.251572608947754,76.70989227294922,24.51,1
-0.2082002609968185,-0.7808189988136292,0.0291050132364034,1.2632583379745483,1.250454306602478,76.70993041992188,24.51,1
-0.1783931404352188,-0.8313533663749695,0.0186779219657182,1.004145622253418,1.2497365474700928,76.70995330810547,24.51,1
-0.1480690985918045,-0.908565640449524,0.0007908670231699,0.7447149753570557,1.249276041984558,76.70996856689453,24.51,1
-0.1118155494332313,-1.0700714588165283,-0.06106798350811,0.5567318797111511,1.2489804029464722,76.70997619628906,24.51,1
-0.1053434312343597,-1.2129011154174805,-0.1231565326452255,0.5793981552124023,1.2487907409667969,76.7099838256836,24.51,1
-0.1627655178308487,-1.2821698188781738,-0.1685991585254669,0.8160637617111206,1.2486690282821655,76.70999145507812,24.51,1
-0.2332023531198501,-1.242655873298645,-0.1921638548374176,1.0001853704452517,1.24950909614563,76.70999145507812,24.51,1
-0.2672091126441955,-1.2172980308532717,-0.1904929876327514,0.8890591263771057,1.250048279762268,76.70999145507812,24.51,1
-0.2610438168048858,-1.1898293495178225,-0.1390407532453537,0.5454689264297485,1.2503942251205444,76.70999145507812,24.51,1
-0.245891734957695,-1.1889948844909668,-0.1116194501519203,0.124348297715187,1.2506163120269775,76.70999145507812,24.51,1
-0.2473635524511337,-1.126883864402771,-0.1220109090209007,-0.342944324016571,1.2507587671279907,76.70999145507812,24.51,1
-0.2315147519111633,-1.0142534971237185,-0.1510706394910812,-0.8040417432785034,1.2508502006530762,76.70999145507812,24.51,1
-0.2213439047336578,-0.9419738054275512,-0.1697195023298263,-1.218172550201416,1.2509088516235352,76.70999145507812,24.51,1
-0.2204146236181259,-0.912382185459137,-0.1872850507497787,-1.7884567975997925,1.2509465217590332,76.70999145507812,24.51,1
-0.2254160344600677,-0.8877941966056824,-0.2041553854942321,-2.702566385269165,1.2523478269577026,76.82821655273438,24.49,1
-0.245418980717659,-0.8664172291755676,-0.2149817943572998,-3.68327260017395,1.2532471418380735,76.90409088134766,24.49,1
-0.2694512605667114,-0.8750898241996765,-0.2331251055002212,-4.190825939178467,1.253824234008789,76.9527816772461,24.49,1
-0.2848737835884094,-0.869459867477417,-0.2447684407234192,-4.111713409423828,1.2541946172714231,76.9840316772461,24.49,1
-0.3227599561214447,-0.8658468723297119,-0.2298493683338165,-3.910475254058838,1.2544323205947876,77.00408172607422,24.49,1
-0.3638664484024048,-0.891517162322998,-0.2090796083211898,-4.021364688873291,1.254584789276123,77.01695251464844,24.49,1
-0.4070395529270172,-0.98076194524765,-0.1901530027389526,-4.242995262145996,1.2546826601028442,77.02520751953125,24.49,1
-0.4347455501556396,-1.1499896049499512,-0.1780069917440414,-3.9983069896698,1.2547454833984375,77.03050994873047,24.49,1
-0.4581234455108642,-1.2082102298736572,-0.1422235071659088,-3.038783311843872,1.2501955032348633,77.0339126586914,24.49,1
-0.4731260240077972,-1.1280195713043213,-0.0464886650443077,-1.6061888933181765,1.2472755908966064,77.03609466552734,24.49,1
-0.4771560430526733,-1.0317755937576294,0.0485350936651229,-0.1601936370134353,1.2454017400741575,77.03749084472656,24.49,1
-0.4797422885894775,-1.0371850728988647,0.1207114234566688,1.0364559888839722,1.2441991567611694,77.03839111328125,24.49,1
-0.4478153586387634,-1.1582098007202148,0.1502367109060287,2.338200569152832,1.2434273958206177,77.03897094726562,24.49,1
-0.3993376195430755,-1.2078876495361328,0.1691843420267105,4.148046016693115,1.2429322004318235,77.03933715820312,24.49,1
-0.3178474307060241,-1.166996955871582,0.1869416087865829,5.803895950317383,1.2426143884658811,77.0395736694336,24.49,1
-0.2767472565174103,-1.1015712022781372,0.1983372122049331,6.150010108947754,1.24241042137146,77.03972625732422,24.49,1
-0.2391759753227234,-1.0819758176803589,0.2000524699687957,5.340344429016113,1.2427383661270142,77.03982543945312,24.49,1
-0.1758804768323898,-1.019020676612854,0.2011532336473465,4.741930961608887,1.2429488897323608,77.03988647460938,24.49,1
-0.140858843922615,-0.945033073425293,0.2298485040664672,4.949028491973877,1.243083953857422,77.03992462158203,24.49,1
-0.0959928706288337,-0.8975520730018616,0.2482634782791137,5.218069553375244,1.2431706190109253,77.03995513916016,24.49,1
-0.0504071526229381,-0.8390926718711853,0.2488856017589569,4.83542537689209,1.2432262897491455,77.03997039794922,24.49,1
-0.0043595358729362,-0.7903812527656555,0.2380892932415008,3.851855993270874,1.2432620525360107,77.03997802734375,24.49,1
-0.0643732175230979,-0.7647188305854797,0.1807808727025985,2.475481986999512,1.2432849407196045,77.03998565673828,24.49,1
-0.1196798682212829,-0.7762390375137329,0.1272103041410446,0.7753772139549255,1.2432996034622192,77.03999328613281,24.49,1
-0.1719658225774765,-0.8843919634819031,0.0648429244756698,-0.8566210269927979,1.2428501844406128,77.03999328613281,24.49,1
-0.2167154848575592,-0.9929826855659484,0.0192213580012321,-1.817961812019348,1.2425616979599,77.03999328613281,24.49,1
-0.2454332411289215,-1.0850610733032229,-0.0212514847517013,-2.030064105987549,1.2423765659332275,77.03999328613281,24.49,1
-0.2694604098796844,-1.256107211112976,-0.0416268520057201,-1.926146507263184,1.242257833480835,77.03999328613281,24.49,1
-0.3128685355186462,-1.3210926055908203,-0.0323114916682243,-1.7197376489639282,1.242181658744812,77.03999328613281,24.49,1
-0.385507583618164,-1.17247211933136,0.02404654212296,-1.293505072593689,1.2421326637268066,77.03999328613281,24.49,1
-0.4489164650440216,-1.0043249130249023,0.0882027521729469,-0.7082895040512085,1.2421013116836548,77.03999328613281,24.49,1
-0.4784130752086639,-0.9579932689666748,0.1237767413258552,-0.1786811202764511,1.2420811653137207,77.03999328613281,24.49,1
-0.430169016122818,-1.0066291093826294,0.0682372450828552,0.3116592764854431,1.2416093349456787,77.12239074707031,24.49,1
-0.3376332223415375,-1.0658297538757324,0.0158018637448549,0.8341208696365356,1.2413065433502195,77.1752700805664,24.49,1
-0.2054780125617981,-1.053441286087036,0.0101407263427972,1.1371634006500244,1.241112232208252,77.2092056274414,24.49,1
-0.1262661814689636,-1.01190447807312,0.0344966053962707,0.8981471061706543,1.2409875392913818,77.23098754882812,24.49,1
-0.1314103305339813,-0.9348685145378112,0.0613223575055599,0.1751306802034378,1.2409074306488037,77.24496459960938,24.49,1
-0.1794937551021576,-0.902224600315094,0.0673420280218124,-0.6865255832672119,1.240856051445007,77.2539291381836,24.49,1
-0.221546471118927,-0.8700801134109497,0.0656073316931724,-1.4723544120788574,1.2408230304718018,77.25968170166016,24.49,1
-0.2709245979785919,-0.8214627504348755,0.0700918808579444,-2.209521532058716,1.2408019304275513,77.26337432861328,24.49,1
-0.3194059431552887,-0.7846651077270508,0.0673720315098762,-3.0014421939849854,1.2435423135757446,77.2657470703125,24.49,1
-0.3841051161289215,-0.7722460627555847,0.0712243616580963,-3.928812742233277,1.2453008890151978,77.26727294921875,24.49,1
-0.453614205121994,-0.7978628873825073,0.073696568608284,-5.025506019592285,1.246429443359375,77.26824951171875,24.49,1
-0.4982211291790008,-0.8254978656768799,0.0752830877900123,-6.098306179046631,1.247153639793396,77.26887512207031,24.49,1
-0.5324450731277466,-0.8544279336929321,0.0651056766510009,-6.743776798248291,1.2476184368133545,77.26927947998047,24.49,1
-0.5432124733924866,-0.8785913586616516,0.0529766231775283,-6.831987857818604,1.2479166984558103,77.26953887939453,24.49,1
-0.5277312994003296,-0.9500758051872252,0.0228017978370189,-6.705885410308838,1.248108148574829,77.26969909667969,24.49,1
-0.5177963376045227,-1.001548171043396,-0.0021604432258754,-6.732437610626221,1.2482309341430664,77.26980590820312,24.49,1
-0.5114206671714783,-1.1073511838912964,-0.0237775444984436,-6.717234134674072,1.2446376085281372,77.2698745727539,24.49,1
-0.5241224765777588,-1.0968806743621826,-0.0488457046449184,-5.718686580657959,1.242331624031067,77.2699203491211,24.49,1
-0.5434693098068237,-1.0565747022628784,-0.0873241052031517,-2.6811330318450928,1.2408517599105835,77.26995086669922,24.49,1
-0.5670804977416992,-1.1258708238601685,-0.1512017399072647,2.1700801849365234,1.239902138710022,77.26996612548828,24.49,1
-0.5766350626945496,-1.243112087249756,-0.2201836109161377,6.98503303527832,1.2392927408218384,77.26997375488281,24.49,1
-0.5547777414321899,-1.3127530813217163,-0.2644522190093994,9.849289894104004,1.2389016151428225,77.26998138427734,24.49,1
-0.4567843675613403,-1.307064652442932,-0.2704701423645019,10.218549728393556,1.238650679588318,77.26998901367188,24.49,1
-0.3715067505836487,-1.309011936187744,-0.268734335899353,8.67856216430664,1.2384896278381348,77.26998901367188,24.49,1
-0.2831938564777374,-1.3046637773513794,-0.2508270740509033,6.121118068695068,1.2397633790969849,77.26998901367188,24.49,1
-0.2153241634368896,-1.296275615692139,-0.239335224032402,3.469611406326294,1.2405807971954346,77.26998901367188,24.49,1
-0.171769306063652,-1.285294771194458,-0.2319604158401489,1.474255919456482,1.241105318069458,77.26998901367188,24.49,1
-0.1438183039426803,-1.300639033317566,-0.2440210133790969,0.4767751693725586,1.2414419651031494,77.26998901367188,24.49,1
-0.1258809566497802,-1.3216816186904907,-0.2629563510417938,0.2952191531658172,1.2416579723358154,77.26998901367188,24.49,1
-0.0975764766335487,-1.3351855278015137,-0.2695101797580719,0.3578357100486755,1.241796612739563,77.26998901367188,24.49,1
-0.0850100666284561,-1.315862774848938,-0.2569227218627929,0.1902300268411636,1.2418856620788574,77.26998901367188,24.49,1
-0.0993367657065391,-1.2083003520965576,-0.2040626406669616,-0.2146834433078766,1.2419427633285522,77.26998901367188,24.49,1
-0.1421174556016922,-1.055306315422058,-0.1309556514024734,-0.5963411331176758,1.238765835762024,77.34523010253906,24.49,1
-0.1919627487659454,-0.9179391264915466,-0.0672464743256568,-0.7122943997383118,1.2367271184921265,77.39351654052734,24.49,1
-0.2295483499765396,-0.6954382061958313,0.0408116951584816,-0.4356140792369842,1.235418677330017,77.42449951171875,24.49,1
-0.2592664062976837,-0.4966721832752228,0.1269505321979522,0.1181138679385185,1.234579086303711,77.44438171386719,24.49,1
-0.3175221681594848,-0.4810710847377777,0.1822294890880584,0.5952721834182739,1.2340402603149414,77.45714569091797,24.49,1
-0.4220806658267975,-0.7621434330940247,0.2344976663589477,0.7975901961326599,1.2336944341659546,77.46533203125,24.49,1
-0.5003758072853088,-0.992899477481842,0.2904314696788788,0.8951830863952637,1.233472466468811,77.47058868408203,24.49,1
-0.4666545391082763,-1.0290299654006958,0.3039354681968689,1.065289855003357,1.2333301305770874,77.47396087646484,24.49,1
-0.3722430765628814,-1.0578142404556274,0.307003766298294,1.1816197633743286,1.226353406906128,77.47612762451172,24.49,1
-0.2948619127273559,-1.1154706478118896,0.292179524898529,1.0520668029785156,1.2218761444091797,77.4775161743164,24.49,1
-0.2843875586986542,-1.1468734741210938,0.3106550276279449,0.753972589969635,1.2190028429031372,77.47840881347656,24.49,1
-0.3056546151638031,-1.1614282131195068,0.3337070941925049,0.4337001442909241,1.2171589136123655,77.4789810180664,24.49,1
-0.3416936695575714,-1.114790916442871,0.3708916902542114,0.0167957823723554,1.215975642204285,77.4793472290039,24.49,1
-0.3760170042514801,-1.056872844696045,0.3947546184062958,-0.5875115394592285,1.2152162790298462,77.47958374023438,24.49,1
-0.4204348623752594,-1.008508801460266,0.376481831073761,-1.2726750373840332,1.2147289514541626,77.479736328125,24.49,1
-0.4489396810531616,-0.955080509185791,0.3143754303455353,-1.898667454719544,1.2144161462783811,77.4798355102539,24.49,1
-0.4672324359416961,-0.9207932949066162,0.2577258050441742,-2.393540382385254,1.220641851425171,77.47989654541016,24.49,1
-0.4677761197090149,-0.8987897038459778,0.204578012228012,-2.6251394748687744,1.224637150764465,77.47993469238281,24.49,1
-0.4625272452831268,-0.8902668356895447,0.1592752635478973,-2.390430927276612,1.2272011041641235,77.4799575805664,24.49,1
-0.4535610377788543,-0.923981785774231,0.1078114733099937,-1.534040927886963,1.228846549987793,77.47997283935547,24.49,1
-0.4478070437908172,-1.0351824760437012,0.0467960983514785,-0.0995630621910095,1.2299025058746338,77.47998046875,24.49,1
-0.444114476442337,-1.1457291841506958,-0.0035556042566895,1.6378295421600342,1.2305800914764404,77.47998809814453,24.49,1
-0.4641358852386474,-1.2334649562835691,-0.0470639765262603,3.272261381149292,1.2310149669647217,77.47999572753906,24.49,1
-0.4657889306545257,-1.0882488489151,-0.1029740199446678,4.285320281982422,1.23129403591156,77.47999572753906,24.49,1
-0.4724475443363189,-0.967068612575531,-0.1612449586391449,4.183102130889893,1.2300959825515747,77.47999572753906,24.49,1
-0.5215028524398804,-1.023648738861084,-0.2378243207931518,2.95674991607666,1.2293272018432615,77.47999572753906,24.49,1
-0.5697770118713379,-1.0879474878311155,-0.3037618696689605,1.1952871084213257,1.228833794593811,77.47999572753906,24.49,1
-0.6007565855979919,-1.118015170097351,-0.3684678971767425,-0.5083304643630981,1.2285171747207642,77.47999572753906,24.49,1
-0.5590620040893555,-1.0925287008285522,-0.3820036351680755,-1.938376307487488,1.22831392288208,77.47999572753906,24.49,1
-0.4987181723117828,-1.0649774074554443,-0.3794945180416107,-3.0316433906555176,1.2281835079193115,77.47999572753906,24.49,1
-0.4096130132675171,-1.0193076133728027,-0.333102136850357,-3.7368221282958975,1.2280998229980469,77.47999572753906,24.49,1
-0.3412348926067352,-0.9676083326339722,-0.28653684258461,-4.246686458587647,1.228046178817749,77.47999572753906,24.49,1
-0.2917559742927551,-0.9064418077468872,-0.2286650538444519,-4.8855719566345215,1.2266346216201782,77.56239318847656,24.51,1
-0.2711988091468811,-0.8727864623069763,-0.1859284937381744,-5.650247097015381,1.2257287502288818,77.61527252197266,24.51,1
-0.2747997343540191,-0.9127638936042786,-0.1641003936529159,-6.295022010803223,1.225147366523743,77.64920806884766,24.51,1
-0.2939039170742035,-0.9943968653678894,-0.1556901633739471,-6.973912239074707,1.2247742414474487,77.67098999023438,24.51,1
-0.306163877248764,-1.052381992340088,-0.1558907330036163,-8.104604721069336,1.2245348691940308,77.68496704101562,24.51,1
-0.2860427498817444,-1.083995699882507,-0.1560194492340088,-9.546732902526855,1.2243812084197998,77.69393157958984,24.51,1
-0.2619346082210541,-1.0930880308151243,-0.1616998165845871,-10.662084579467772,1.2242826223373413,77.6996841430664,24.51,1
-0.2464634031057357,-1.138107419013977,-0.1709429323673248,-11.24888038635254,1.2242193222045898,77.70337677001953,24.51,1
-0.3037081658840179,-0.9710761308670044,-0.0929080098867416,-11.761590003967283,1.224178671836853,77.70574951171875,24.51,1
-0.3964222967624664,-0.774320662021637,-0.0036452687345445,-12.785636901855469,1.2241525650024414,77.707275390625,24.51,1
-0.5342897176742554,-0.7432165145874023,0.048040647059679,-14.324125289916992,1.2241358757019043,77.708251953125,24.51,1
-0.6227651238441467,-0.8520044684410095,0.0420252718031406,-14.867198944091797,1.2241251468658447,77.70887756347656,24.51,1
-0.640359103679657,-0.9833938479423524,-0.0010194702772423,-11.722701072692873,1.2241182327270508,77.70928192138672,24.51,1
-0.5732810497283936,-0.9725497961044312,0.0049435370601713,-3.95112681388855,1.2241138219833374,77.70954132080078,24.51,1
-0.4630609452724457,-0.9879817962646484,0.0535524487495422,5.901359081268311,1.2241109609603882,77.70970153808594,24.51,1
-0.3587413728237152,-0.9419074654579164,0.1575179100036621,14.445314407348633,1.224109172821045,77.70980834960938,24.51,1
-0.3029906451702118,-0.9123395681381226,0.2354325205087661,20.33316421508789,1.2181404829025269,77.70987701416016,24.51,1
-0.3119952082633972,-0.8821690678596497,0.2462491989135742,23.710399627685547,1.2143101692199707,77.70992279052734,24.51,1
-0.345762699842453,-0.8572096228599548,0.2028107494115829,25.118207931518555,1.2118520736694336,77.70995330810547,24.51,1
-0.3842260539531708,-0.8467898368835449,0.1637389063835144,25.56308937072754,1.210274577140808,77.70996856689453,24.51,1
-0.4257029592990875,-0.8512985706329346,0.1386648565530777,25.56914710998535,1.2092622518539429,77.70997619628906,24.51,1
-0.4635159969329834,-0.8373987078666687,0.1169759929180145,24.268978118896484,1.2086126804351809,77.7099838256836,24.51,1
-0.4821844398975372,-0.794891893863678,0.0918617844581604,20.787080764770508,1.2081958055496216,77.70999145507812,24.51,1
-0.4605781137943268,-0.8123956918716431,0.070147156715393,15.794015884399414,1.2079282999038696,77.70999145507812,24.51,1
-0.435516893863678,-0.8516174554824829,0.0618097297847271,10.748311042785645,1.2105108499526978,77.70999145507812,24.51,1
-0.402640700340271,-0.9215699434280396,0.0620570257306098,6.636119365692139,1.2121682167053225,77.70999145507812,24.51,1
-0.3759448826313019,-0.9776569604873656,0.0678135007619857,3.964908123016357,1.2132318019866943,77.70999145507812,24.51,1
-0.3532152771949768,-1.069628119468689,0.0715076699852943,3.031680107116699,1.213914394378662,77.70999145507812,24.51,1
-0.3666175901889801,-1.0558788776397705,0.0514872819185256,3.4108312129974365,1.2143523693084717,77.70999145507812,24.51,1
-0.3752184212207794,-1.0414576530456543,0.0218460243195295,3.535923480987549,1.2146334648132324,77.70999145507812,24.51,1
-0.4143245816230774,-1.0657895803451538,-0.0195671264082193,1.7031052112579346,1.2148138284683228,77.70999145507812,24.51,1
-0.473007321357727,-1.0758066177368164,-0.0461437031626701,-2.1492760181427,1.2149295806884766,77.70999145507812,24.51,1
-0.51066654920578,-1.0710394382476809,-0.0631990209221839,-6.362644195556641,1.2168400287628174,77.81388854980469,24.47,1
-0.4788562953472137,-1.017600178718567,-0.0405574925243854,-9.435546875,1.2180659770965576,77.88056182861328,24.47,1
-0.4304534494876861,-0.9553170204162598,-0.0036363678518682,-11.034971237182615,1.2188527584075928,77.92335510253906,24.47,1
-0.3546091020107269,-0.8817606568336487,0.0536441355943679,-11.26963996887207,1.2193576097488403,77.95081329345703,24.47,1
-0.3003387749195099,-0.8289586305618286,0.0960012376308441,-10.377707481384276,1.2196816205978394,77.96843719482422,24.47,1
-0.287902295589447,-0.7950733304023743,0.1287813633680343,-9.092384338378906,1.219889521598816,77.97974395751953,24.47,1
-0.3023123741149902,-0.7733277082443237,0.1498177647590637,-8.170807838439941,1.2200230360031128,77.98699951171875,24.47,1
-0.3115599453449249,-0.7705681324005127,0.1577199399471283,-7.665375232696533,1.2201086282730105,77.99165344238281,24.47,1
-0.2839078605175018,-0.8191772103309631,0.1739866435527801,-7.237123012542725,1.216950297355652,77.99464416503906,24.47,1
-0.2493690103292465,-0.8615672588348389,0.1900234520435333,-6.76525354385376,1.2149235010147097,77.9965591430664,24.47,1
-0.1992150992155075,-0.9167596101760864,0.2059127241373062,-6.251062870025635,1.213622808456421,77.99779510498047,24.47,1
-0.1558336615562439,-0.991363286972046,0.1937184482812881,-5.641644477844238,1.2127881050109863,77.99858856201172,24.47,1
-0.1447872668504715,-1.078424096107483,0.1635017693042755,-5.046347618103027,1.212252497673035,77.99909210205078,24.47,1
-0.1656872034072876,-1.201467990875244,0.1329149007797241,-4.718059062957764,1.2119086980819702,77.99942016601562,24.47,1
-0.2182839959859848,-1.2412461042404177,0.1188837811350822,-4.700841426849365,1.2116881608963013,77.99962615966797,24.47,1
-0.3080153167247772,-1.266773343086243,0.1098794117569923,-4.689792156219482,1.211546540260315,77.99976348876953,24.47,1
-0.3711975216865539,-1.081635355949402,0.0873076021671295,-4.356687068939209,1.214210033416748,77.99984741210938,24.47,1
-0.3725597858428955,-1.0020089149475098,0.0560289919376373,-3.734505653381348,1.2159192562103271,77.9999008178711,24.47,1
-0.3006629347801208,-1.0852558612823486,-0.0032282390166074,-3.102358102798462,1.217016100883484,77.99993896484375,24.47,1
-0.2601214647293091,-1.1498744487762451,-0.0412561185657978,-2.4602322578430176,1.2177200317382812,77.99996185302734,24.47,1
-0.2732886970043182,-1.09618079662323,-0.032073576003313,-1.2958120107650757,1.2181718349456787,77.9999771118164,24.47,1
-0.2929342091083526,-0.9553655982017516,-0.0317785218358039,0.902389109134674,1.2184617519378662,77.99998474121094,24.47,1
-0.3055415749549866,-0.8314118385314941,-0.0483824983239173,3.867905855178833,1.218647837638855,77.99999237060547,24.47,1
-0.3528166711330414,-0.7406699061393738,-0.0814290717244148,6.498266696929932,1.218767166137695,77.99999237060547,24.47,1
-0.4167417585849762,-0.6824369430541992,-0.1082342341542244,7.648894309997559,1.217007756233215,77.99999237060547,24.47,1
-0.4969496130943298,-0.6506641507148743,-0.1310340166091919,7.093991279602051,1.2158786058425903,77.99999237060547,24.47,1
-0.5372268557548523,-0.63027423620224,-0.1456656008958816,5.659531116485596,1.2151539325714111,77.99999237060547,24.47,1
-0.5518789291381836,-0.6115913987159729,-0.1438597738742828,4.276824951171875,1.2146888971328735,77.99999237060547,24.47,1
-0.578075110912323,-0.6443840265274048,-0.1315053403377533,3.120790481567383,1.214390516281128,77.99999237060547,24.47,1
-0.594886302947998,-0.6878195405006409,-0.1347725242376327,1.988413453102112,1.2141990661621094,77.99999237060547,24.47,1
-0.622468113899231,-0.7604761123657227,-0.1480647623538971,0.9894432425498962,1.2140761613845823,77.99999237060547,24.47,1
-0.6345707178115845,-0.8798739910125732,-0.1453994065523147,0.4164306223392486,1.2139972448349,77.99999237060547,24.47,1
-0.6535330414772034,-0.9397033452987672,-0.1268956214189529,0.3747184872627258,1.2107330560684204,78.0823974609375,24.51,1
-0.6712997555732727,-0.8717406988143921,-0.0478476583957672,0.8387628197669983,1.208638310432434,78.1352767944336,24.51,1
-0.671505868434906,-0.8001372814178467,0.0308696459978818,1.5449734926223757,1.20729398727417,78.1692123413086,24.51,1
-0.6716381311416626,-1.0676617622375488,0.0533970072865486,1.901449203491211,1.206431269645691,78.19099426269531,24.51,1
-0.6605274677276611,-1.205756902694702,0.0286693517118692,1.535507321357727,1.205877661705017,78.20497131347656,24.51,1
-0.5862239599227905,-1.23840069770813,0.0128005659207701,0.6629683971405029,1.2055224180221558,78.21393585205078,24.51,1
-0.3650092482566833,-1.197774052619934,0.0473990887403488,-0.4021199941635132,1.2052943706512451,78.21968841552734,24.51,1
-0.1614708602428436,-1.1269199848175049,0.1087868511676788,-1.5836105346679688,1.2051481008529663,78.22338104248047,24.51,1
-0.0252538621425628,-0.9694944620132446,0.1985619515180587,-2.6248464584350586,1.2045953273773191,78.22575378417969,24.51,1
-0.038597572594881,-0.8964566588401794,0.2169900238513946,-3.067349433898926,1.2042405605316162,78.22727966308594,24.51,1
-0.0919429957866668,-0.8383896946907043,0.2064249962568283,-2.846179246902466,1.2040128707885742,78.22825622558594,24.51,1
-0.1933503150939941,-0.7899301052093506,0.1324716806411743,-2.464212417602539,1.203866720199585,78.2288818359375,24.51,1
-0.2584276795387268,-0.7532337307929993,0.079414926469326,-2.401799440383911,1.203773021697998,78.22928619384766,24.51,1
-0.2833972573280334,-0.7296841144561768,0.0453661531209945,-2.6340222358703613,1.203712821006775,78.22954559326172,24.51,1
-0.2826279997825622,-0.7369624376296997,0.0347111597657203,-2.7794668674468994,1.2036741971969604,78.22970581054688,24.51,1
-0.2765365540981293,-0.7584265470504761,0.0334711745381355,-2.489469289779663,1.203649401664734,78.22981262207031,24.51,1
-0.2726274132728576,-0.8113853931427002,0.0326754227280616,-1.6190935373306274,1.2068467140197754,78.2298812866211,24.51,1
-0.2701187431812286,-0.8677624464035034,0.0321647524833679,-0.1828053742647171,1.2088985443115234,78.22992706298828,24.51,1
-0.2629110515117645,-0.999104142189026,-0.0073473853990435,1.6345654726028442,1.2102153301239014,78.2299575805664,24.51,1
-0.2694811224937439,-1.1561627388000488,-0.0830839723348617,3.395557165145874,1.2110602855682373,78.22997283935547,24.51,1
-0.2904907464981079,-1.240160584449768,-0.1372851282358169,4.647467613220215,1.2116025686264038,78.22998046875,24.51,1
-0.3431579172611236,-1.2548811435699463,-0.1664705276489257,5.32906436920166,1.2119505405426023,78.22998809814453,24.51,1
-0.3825544416904449,-1.1859591007232666,-0.1572111696004867,5.608840465545654,1.2121739387512207,78.22999572753906,24.51,1
-0.3798480033874511,-1.1025445461273191,-0.1400734931230545,5.498196125030518,1.2123172283172607,78.22999572753906,24.51,1
-0.327731192111969,-1.1049915552139282,-0.1290755271911621,5.000864505767822,1.2105730772018433,78.22999572753906,24.51,1
-0.2718945443630218,-1.1345508098602295,-0.1220176666975021,4.373603820800781,1.209453821182251,78.22999572753906,24.51,1
-0.2192684561014175,-1.1143358945846558,-0.0950972363352775,3.899412631988525,1.2087355852127075,78.22999572753906,24.51,1
-0.1854960620403289,-1.0509830713272097,-0.0722234845161438,3.595104217529297,1.2082746028900146,78.22999572753906,24.51,1
-0.1694206595420837,-0.9263603091239928,-0.0687399730086326,3.1275408267974854,1.2079788446426392,78.22999572753906,24.51,1
-0.1758977174758911,-0.8183956742286682,-0.0777000039815902,1.96050226688385,1.2077890634536743,78.22999572753906,24.51,1
-0.1968476474285125,-0.7659035325050354,-0.094645582139492,-0.0387547872960567,1.2076672315597534,78.22999572753906,24.51,1
-0.2326831966638565,-0.7434126734733582,-0.1167158335447311,-2.2603976726531982,1.207589030265808,78.22999572753906,24.51,1
-0.2724737226963043,-0.723381519317627,-0.1308792531490326,-4.116029262542725,1.2093749046325684,78.3088150024414,24.51,1
-0.3036067485809326,-0.7273200154304504,-0.1399685144424438,-5.704533100128174,1.2105209827423096,78.3593978881836,24.51,1
-0.3179883658885956,-0.7802274823188782,-0.1402036994695663,-7.207590579986572,1.211256504058838,78.39185333251953,24.51,1
-0.3384132087230682,-0.8309738039970398,-0.134756863117218,-8.243818283081055,1.2117284536361694,78.41268157958984,24.51,1
-0.3739117980003357,-0.8635398745536804,-0.1088702976703643,-8.335597038269043,1.212031364440918,78.4260482788086,24.51,1
-0.3966927528381347,-0.9068299531936646,-0.0922577902674675,-7.71022367477417,1.2122257947921753,78.43463134765625,24.51,1
-0.3945189416408539,-1.035370945930481,-0.0815968364477157,-7.1333489418029785,1.2123504877090454,78.44013977050781,24.51,1
-0.3763305842876434,-1.123458981513977,-0.0243752803653478,-7.0139241218566895,1.2124305963516235,78.44367218017578,24.51,1
-0.3590605556964874,-1.090424418449402,0.0515306405723094,-6.758155345916748,1.2120230197906494,78.44593811035156,24.51,1
-0.3199887871742248,-0.906889259815216,0.1114382371306419,-5.121579170227051,1.211761474609375,78.44739532470703,24.51,1
-0.2949147820472717,-0.9122580289840698,0.1498834937810897,-1.753392457962036,1.2115936279296875,78.44832611083984,24.51,1
-0.2620303928852081,-1.229178786277771,0.1353710144758224,1.755164384841919,1.2114858627319336,78.44892120361328,24.51,1
-0.2633181810379028,-1.231040358543396,0.1204599738121032,3.519523859024048,1.211416721343994,78.44931030273438,24.51,1
-0.2697423994541168,-1.2154417037963867,0.1276842504739761,3.989011764526367,1.2113723754882812,78.44955444335938,24.51,1
-0.2290828824043274,-1.199833631515503,0.1715047955513,5.142955303192139,1.2113438844680786,78.44971466064453,24.51,1
-0.1861966252326965,-1.128241777420044,0.2108218520879745,7.262781620025635,1.2113256454467771,78.44981384277344,24.51,1
-0.1250880509614944,-1.054309368133545,0.2472488135099411,8.658989906311035,1.2122321128845217,78.44988250732422,24.51,1
-0.0522854402661323,-0.9228971600532532,0.2818211019039154,8.218694686889648,1.2128138542175293,78.44992065429688,24.51,1
-0.0055649164132773,-0.816173255443573,0.2984098196029663,6.32039737701416,1.2131872177124023,78.449951171875,24.51,1
-0.0931356325745582,-0.7924661636352539,0.2474799901247024,3.7479655742645264,1.2134268283843994,78.44996643066406,24.51,1
-0.1661268025636673,-0.7828500866889954,0.1980028301477432,1.222978591918945,1.21358060836792,78.4499740600586,24.51,1
-0.2409572005271911,-0.771081268787384,0.1326645910739898,-0.4583165645599365,1.213679313659668,78.44998168945312,24.51,1
-0.2721857130527496,-0.7523332238197327,0.0627453997731208,-0.9640628099441528,1.2137426137924194,78.44998931884766,24.51,1
-0.2922263741493225,-0.740301787853241,0.0178752914071083,-0.736905038356781,1.2137832641601562,78.44998931884766,24.51,1
-0.3162828683853149,-0.7773628830909729,-0.0165175385773181,-0.3654259741306305,1.2142682075500488,78.44998931884766,24.51,1
-0.3373187184333801,-0.8235376477241516,-0.0441866517066955,-0.0553805865347385,1.214579463005066,78.44998931884766,24.51,1
-0.35641610622406,-0.9315388202667236,-0.1011275202035904,0.1256758272647857,1.214779257774353,78.44998931884766,24.51,1
-0.3742694854736328,-1.0568255186080933,-0.1432666629552841,0.0878166630864143,1.21490740776062,78.44998931884766,24.51,1
-0.4081178307533264,-1.1372272968292236,-0.1535158157348632,-0.1191905289888382,1.2149896621704102,78.44998931884766,24.51,1
-0.4522308707237243,-1.1944222450256348,-0.1153109371662139,-0.3702608346939087,1.2150424718856812,78.44998931884766,24.51,1
-0.4693445265293121,-1.2367244958877563,-0.0739999189972877,-0.5564613342285156,1.2150763273239136,78.44998931884766,24.51,1
-0.3571760356426239,-1.2246872186660769,-0.0474888868629932,-0.636545717716217,1.2150980234146118,78.44998931884766,24.51,1
-0.1844328194856643,-1.1945712566375732,-0.0416711829602718,-0.7560082674026489,1.2105216979980469,78.53597259521484,24.49,1
-0.0791739523410797,-1.1584513187408447,-0.0267421659082174,-1.1336086988449097,1.2075848579406738,78.59115600585938,24.49,1
-0.078798159956932,-1.034511685371399,-0.0003682588576339,-1.6123809814453125,1.205700159072876,78.62657165527344,24.49,1
-0.1233391910791397,-0.9157899022102356,-0.000236327337916,-1.7763264179229736,1.2044906616210938,78.64929962158203,24.49,1
-0.1967052519321441,-0.7948188781738281,-0.0393360815942287,-1.7310689687728882,1.2037144899368286,78.66387939453125,24.49,1
-0.2381895929574966,-0.7171866297721863,-0.0756236016750335,-2.157012462615967,1.203216314315796,78.6732406616211,24.49,1
-0.2648118436336517,-0.6785622835159302,-0.093313068151474,-3.347497940063477,1.2028965950012207,78.67924499511719,24.49,1
-0.2762987017631531,-0.6817643046379089,-0.0822740569710731,-4.785006999969482,1.2026914358139038,78.68309783935547,24.49,1
-0.2892680764198303,-0.6950147151947021,-0.0639943033456802,-5.890229225158691,1.2057729959487915,78.6855697631836,24.49,1
-0.3199822008609772,-0.7371047139167786,-0.0242745373398065,-6.595914363861084,1.2077505588531494,78.6871566772461,24.49,1
-0.3844749331474304,-0.8816689252853394,0.040399745106697,-7.027287006378174,1.209019660949707,78.68817901611328,24.49,1
-0.4482537508010864,-1.0136263370513916,0.0930995270609855,-7.110658168792725,1.209834098815918,78.68883514404297,24.49,1
-0.5171722173690796,-1.09830904006958,0.1045281141996383,-6.626774787902832,1.2103567123413086,78.68925476074219,24.49,1
-0.5446068048477173,-1.203033447265625,0.0950689986348152,-5.48508882522583,1.2106921672821045,78.68952178955078,24.49,1
-0.5342238545417786,-1.2310551404953003,0.1001942306756973,-4.039487838745117,1.2109074592590332,78.689697265625,24.49,1
-0.516365110874176,-1.2490378618240356,0.1258744150400161,-2.771439552307129,1.2110456228256226,78.68980407714844,24.49,1
-0.4881110787391662,-1.215795874595642,0.1479522436857223,-1.0727828741073608,1.212511420249939,78.68987274169922,24.49,1
-0.4867725968360901,-1.1160942316055298,0.1509249806404113,2.41047739982605,1.2134521007537842,78.6899185180664,24.49,1
-0.4915114045143127,-1.0689048767089844,0.1360393911600113,7.164384365081787,1.2140557765960691,78.68994903564453,24.49,1
-0.4721614122390747,-1.0890014171600342,0.0817044749855995,10.465948104858398,1.2144430875778198,78.68997192382812,24.49,1
-0.409363716840744,-1.191462516784668,0.0244443602859973,10.610702514648438,1.2146916389465332,78.68997955322266,24.49,1
