acc_x,acc_y,acc_z,bvp,eda,hr,temp,label
0.0,0.0,0.0,0.0,0.0,0.0,28.01,1
-0.0468749962747097,-0.1562499850988388,0.0390624962747097,0.3566666543483734,0.4257571399211883,11.528332710266112,28.01,1
-0.1181402429938316,-0.3616615831851959,0.099847562611103,1.277804970741272,0.9968948364257812,26.99317169189453,28.01,1
-0.1601951867341995,-0.5303675532341003,0.152720108628273,2.452192783355713,1.493686318397522,40.444915771484375,28.01,1
-0.1855383366346359,-0.6641240119934082,0.1859552711248397,3.066404342651367,1.8561224937438965,50.25868988037109,28.01,1
-0.2466144859790802,-0.7601725459098816,0.208456888794899,3.271446228027344,2.1015069484710693,56.90303039550781,28.01,1
-0.2478176802396774,-0.823194146156311,0.2232211828231811,4.507713317871094,2.262514591217041,61.262672424316406,28.01,1
-0.2709142565727234,-0.8640101552009583,0.2160452902317047,8.45423412322998,2.366791248321533,64.08619689941406,28.01,1
-0.3137432932853699,-0.8903027176856995,0.194652259349823,15.057173728942873,2.233174085617065,65.90503692626953,28.01,1
-0.3300820589065552,-0.8960127830505371,0.1809020489454269,21.13441467285156,2.1472926139831543,67.07408142089844,28.01,1
-0.3349775671958923,-0.9052760004997252,0.1776687800884246,22.65507698059082,2.0921435356140137,67.82478332519531,28.01,1
-0.3549117743968963,-0.9000276923179626,0.1643988192081451,18.7522029876709,2.0567426681518555,68.30667114257812,28.01,1
-0.3621082603931427,-0.9134519100189208,0.1558820009231567,12.209885597229004,2.0340218544006348,68.61595153808594,28.01,1
-0.3443360030651092,-0.9164695143699646,0.1672092080116272,7.448760509490967,2.0194404125213623,68.81443786621094,28.01,1
-0.3497238159179687,-0.918406069278717,0.168880745768547,9.007615089416504,2.010082721710205,68.94181823730469,28.01,1
-0.3531814217567444,-0.9252465963363647,0.1755512207746505,18.985916137695312,2.004077434539795,69.02356719970703,28.01,1
-0.3609980940818786,-0.9240387082099916,0.1798319518566131,34.95490264892578,2.1719067096710205,69.0760269165039,28.01,1
-0.3604166209697723,-0.9232635498046876,0.1825790852308273,52.12800598144531,2.2796101570129395,69.10969543457031,28.01,1
-0.360043466091156,-0.922766089439392,0.1843420416116714,66.78861999511719,2.348727941513061,69.13130187988281,28.01,1
-0.3598039746284485,-0.9224468469619752,0.1910711824893951,77.04602813720703,2.3930838108062744,69.1451644897461,28.01,1
-0.3596502840518951,-0.9278397560119628,0.2009873241186142,82.81539916992188,2.421548843383789,69.15406036376953,28.01,1
-0.3763449788093567,-0.9257028102874756,0.19615538418293,85.63294982910156,2.4398159980773926,69.1597671508789,28.01,1
-0.3534720242023468,-0.929929256439209,0.2154456228017807,87.06134033203125,2.4515388011932373,69.1634292602539,28.01,1
-0.3611845970153808,-0.938239336013794,0.2110316604375839,87.07877349853516,2.459061861038208,69.16577911376953,28.01,1
-0.3829273879528045,-0.9211811423301696,0.191405713558197,83.95162200927734,2.446446180343628,69.16728973388672,28.01,1
-0.3800873458385467,-0.9214296936988832,0.1900064647197723,75.64305114746094,2.438350200653076,69.16825866699219,28.01,1
-0.383862555027008,-0.9159914255142212,0.1891085058450698,62.092655181884766,2.433154582977295,69.16888427734375,28.01,1
-0.3862852454185486,-0.9125015139579772,0.1885322481393814,45.52229309082031,2.42982029914856,69.16928100585938,28.01,1
-0.3822422325611114,-0.9158596396446228,0.1881624311208725,28.386011123657227,2.427680730819702,69.16954040527344,28.01,1
-0.3796476423740387,-0.9180147051811218,0.1879251152276992,12.54529094696045,2.426307678222656,69.1697006225586,28.01,1
-0.3779825866222381,-0.9137998819351196,0.1877728104591369,-0.3287988901138305,2.425426483154297,69.16980743408203,28.01,1
-0.3769140541553497,-0.9110950827598572,0.1876750737428665,-9.618847846984863,2.424860954284668,69.16987609863281,28.01,1
-0.3762283325195312,-0.9149570465087892,0.1876123547554016,-15.996244430541992,2.40751314163208,68.59671020507812,28.07,1
-0.3813860416412353,-0.9118376970291138,0.187572106719017,-19.39745330810547,2.3963801860809326,68.2288818359375,28.07,1
-0.3846959769725799,-0.9098358750343324,0.1875462681055069,-18.377330780029297,2.389235734939575,67.99283599853516,28.07,1
-0.3868201076984405,-0.9085512161254884,0.1875296980142593,-12.219840049743652,2.384650707244873,67.84135437011719,28.07,1
-0.3881832361221313,-0.9077267646789552,0.1819212883710861,-1.8626713752746584,2.3817083835601807,67.744140625,28.07,1
-0.3890580236911773,-0.901599943637848,0.1783221364021301,11.583691596984863,2.3798201084136963,67.68175506591797,28.07,1
-0.3952171802520752,-0.8864725232124329,0.1760123968124389,27.08417320251465,2.378608465194702,67.64171600341797,28.07,1
-0.4047675430774688,-0.8767646551132202,0.1689323633909225,41.96111297607422,2.377830743789673,67.61602020263672,28.07,1
-0.4108964204788208,-0.8705346584320068,0.158791035413742,51.57992935180664,2.3773317337036133,67.59953308105469,28.07,1
-0.4316228926181793,-0.8665366172790527,0.1466851383447647,50.92434310913086,2.37701153755188,67.58895111083984,28.07,1
-0.461717277765274,-0.8751664757728577,0.1389162689447403,36.73220443725586,2.3768060207366943,67.58216094970703,28.07,1
-0.4754323661327362,-0.9030957221984864,0.1339306533336639,10.55711555480957,2.376674175262451,67.57780456542969,28.07,1
-0.4786361455917358,-0.9210190773010254,0.1307311803102493,-19.86866569519043,2.37658953666687,67.57501220703125,28.07,1
-0.4806921482086181,-0.915727972984314,0.1342757195234298,-45.41290664672852,2.376535177230835,67.5732192993164,28.07,1
-0.4820115566253662,-0.9179301857948304,0.1365503966808319,-62.24280548095703,2.376500368118286,67.57206726074219,28.07,1
-0.4716627299785614,-0.913745641708374,0.1380101591348648,-72.07597351074219,2.3764779567718506,67.57132720947266,28.07,1
-0.4538258910179138,-0.9054625034332277,0.1445447206497192,-77.7629623413086,2.376004695892334,67.57085418701172,28.07,1
-0.4367814660072326,-0.8945490717887878,0.148738220334053,-81.41613006591797,2.3757009506225586,67.57054901123047,28.07,1
-0.4202455580234527,-0.8875454664230347,0.1514293700456619,-84.86395263671875,2.3755061626434326,67.57035064697266,28.07,1
-0.4096337556838989,-0.8830509781837463,0.1531563997268676,-89.01116180419922,2.3753812313079834,67.57022857666016,28.07,1
-0.4028237164020538,-0.891362190246582,0.1486669331789016,-93.3922348022461,2.375300884246826,67.57014465332031,28.07,1
-0.3984534442424774,-0.902293622493744,0.1513836234807968,-97.31077575683594,2.37524938583374,67.5700912475586,28.07,1
-0.3900510668754577,-0.9205043315887452,0.1475292593240738,-100.4954071044922,2.375216245651245,67.57006072998047,28.07,1
-0.4014522433280945,-0.9825708866119384,0.1394579857587814,-102.1414566040039,2.375195026397705,67.57003784179688,28.07,1
-0.4087688624858856,-1.0279994010925293,0.1398760825395584,-100.82613372802734,2.377935647964477,67.57002258300781,28.07,1
-0.3966709077358246,-1.0067728757858276,0.128948837518692,-96.159423828125,2.3796944618225098,67.57001495361328,28.07,1
-0.4168960154056549,-0.981955349445343,0.1387296915054321,-89.48529052734375,2.380823135375977,67.57000732421875,28.07,1
-0.435473084449768,-0.9548333287239076,0.1450064778327942,-82.3074951171875,2.381547451019287,67.57000732421875,28.07,1
-0.4753836691379547,-0.948623538017273,0.1546323299407959,-74.82797241210938,2.382012367248535,67.57000732421875,28.07,1
-0.4898004233837127,-0.9390406608581544,0.1720051914453506,-66.27350616455078,2.382310628890991,67.57000732421875,28.07,1
-0.465465635061264,-0.9049020409584044,0.1999474167823791,-56.00458908081055,2.3825020790100098,67.57000732421875,28.07,1
-0.466642290353775,-0.8829938769340515,0.2290746867656707,-44.40972900390625,2.382624864578247,67.57000732421875,28.07,1
-0.4785929322242737,-0.8801299929618835,0.2477668821811676,-32.9742431640625,2.382244825363159,67.00753784179688,28.07,1
-0.4974577128887176,-0.8670966029167175,0.2597624659538269,-23.25319480895996,2.3820009231567383,66.6465835571289,28.07,1
-0.5039662718772888,-0.8419392108917236,0.2730583250522613,-15.68206787109375,2.381844282150269,66.4149398803711,28.07,1
-0.4857520163059234,-0.7922079563140869,0.2815908193588257,-9.723503112792969,2.381743907928467,66.26628112792969,28.07,1
-0.4740631282329559,-0.7379022240638733,0.2758709490299225,-4.910849094390869,2.3816795349121094,66.17088317871094,28.07,1
-0.4609641134738922,-0.7030519247055054,0.2722002565860748,-1.2384049892425537,2.3816380500793457,66.10966491699219,28.07,1
-0.4637534618377685,-0.7086758613586426,0.2698446214199066,1.2652440071105957,2.381611585617065,66.07037353515625,28.07,1
-0.4935323894023895,-0.7234805226325989,0.2683328986167907,2.760881900787353,2.38159441947937,66.04515838623047,28.07,1
-0.5014472603797913,-0.7553724050521851,0.2617650032043457,3.4090123176574707,2.380665302276612,66.02897644042969,28.07,1
-0.506526529788971,-0.8206210136413574,0.2575500905513763,3.3592100143432617,2.3800690174102783,66.01859283447266,28.07,1
-0.532177209854126,-0.8904826641082764,0.2716385424137115,2.8937582969665527,2.3796863555908203,66.01193237304688,28.07,1
-0.5598338842391968,-0.9633046984672546,0.2750819325447082,2.193809747695923,2.3794407844543457,66.00765991210938,28.07,1
-0.5551912784576416,-1.0044399499893188,0.2493028193712234,1.3147138357162476,2.37928318977356,66.00491333007812,28.07,1
-0.5354185700416565,-1.0532293319702148,0.2327592670917511,0.6538311839103699,2.3791821002960205,66.0031509399414,28.07,1
-0.5115340352058411,-1.0509527921676636,0.2221425622701645,0.8065093755722046,2.379117250442505,66.00202178955078,28.07,1
-0.5018041133880615,-1.015905261039734,0.2041338235139846,1.8610371351242063,2.379075527191162,66.00129699707031,28.07,1
-0.4843644499778747,-0.9262404441833496,0.1869790852069854,3.2327919006347656,2.3804259300231934,66.0008316040039,28.07,1
-0.4731726944446563,-0.8631009459495544,0.1759701520204544,4.170426368713379,2.3812925815582275,66.00053405761719,28.07,1
-0.477185994386673,-0.8281794786453247,0.1633074879646301,4.288498401641846,2.3818488121032715,66.0003433227539,28.07,1
-0.507750391960144,-0.8057688474655151,0.1271924376487732,3.78031063079834,2.3822057247161865,66.0002212524414,28.07,1
-0.5329626202583313,-0.7913870215415955,0.0984181091189384,3.117422819137573,2.382434606552124,66.0001449584961,28.07,1
-0.5603379607200623,-0.7653642296791077,0.0575613044202327,2.588124990463257,2.3825817108154297,66.00009155273438,28.07,1
-0.5835036039352417,-0.7430665493011475,0.020146207883954,2.176800489425659,2.382676124572754,66.00006103515625,28.07,1
-0.6207610964775085,-0.7231594324111938,-0.0038646459579467,1.7981936931610107,2.3827366828918457,66.00003814697266,28.07,1
-0.6558663845062256,-0.7327752709388733,-0.019273430109024,1.3259408473968506,2.3832345008850098,66.0000228881836,28.07,1
-0.6671993732452393,-0.7613372802734375,-0.0291619021445512,0.5105677843093872,2.383553981781006,66.00001525878906,28.07,1
-0.6576789021492004,-0.8132533431053162,-0.0355077534914016,-0.8725097179412842,2.383758783340454,66.00000762939453,28.07,1
-0.6571669578552246,-0.8689612150192261,-0.0507757030427455,-2.709471702575684,2.383890390396118,66.00000762939453,28.07,1
-0.6512406468391418,-0.9215046167373656,-0.0493782460689544,-4.672912120819092,2.38397479057312,66.00000762939453,28.07,1
-0.5914597511291504,-0.8824529051780701,-0.0036992440000176,-6.703189373016357,2.384028911590576,66.00000762939453,28.07,1
-0.553095817565918,-0.8797828555107117,0.0256149098277091,-8.94473934173584,2.384063720703125,66.00000762939453,28.07,1
-0.5396715998649597,-0.8836671113967896,0.0612203702330589,-11.36844539642334,2.3840861320495605,66.00000762939453,28.07,1
-0.5198611617088318,-0.8637687563896179,0.1064610034227371,-13.780076026916504,2.3712472915649414,65.28349304199219,28.05,1
-0.4903546571731567,-0.7838258147239685,0.1354938298463821,-15.814950942993164,2.3630080223083496,64.82366943359375,28.05,1
-0.4434302151203155,-0.726925253868103,0.1709187626838684,-16.809133529663086,2.357720375061035,64.5285873413086,28.05,1
-0.4189145863056183,-0.7072030901908875,0.1992502212524414,-16.361621856689453,2.3543272018432617,64.33921813964844,28.05,1
-0.4255729615688324,-0.7449265122413635,0.2006383836269378,-14.902932167053224,2.352149724960327,64.21768951416016,28.05,1
-0.4354436993598938,-0.7859285473823547,0.2127247750759124,-12.70576286315918,2.350752353668213,64.13970184326172,28.05,1
-0.4529736936092376,-0.8234368562698364,0.2596655488014221,-9.167695999145508,2.349855422973633,64.08965301513672,28.05,1
-0.4754189848899841,-0.8363119959831238,0.2953872084617615,-4.088428974151611,2.3492798805236816,64.05753326416016,28.05,1
-0.5066164135932922,-0.844574511051178,0.3239091038703918,1.3887664079666138,2.3438608646392822,64.03691864013672,28.05,1
-0.5378326773643494,-0.9338434934616088,0.3198217153549194,6.04297399520874,2.340383291244507,64.02368927001953,28.05,1
-0.5634632706642151,-1.0471090078353882,0.3060030937194824,9.592241287231444,2.338151454925537,64.01520538330078,28.05,1
-0.5687159299850464,-1.181371808052063,0.291537344455719,11.9451904296875,2.336719274520874,64.00975799560547,28.05,1
-0.5720868110656738,-1.177969455718994,0.2766562700271606,12.692089080810549,2.335800170898437,64.00626373291016,28.05,1
-0.546261191368103,-1.114210605621338,0.2559109032154083,11.863765716552734,2.33521032333374,64.00402069091797,28.05,1
-0.5240899920463562,-1.06769597530365,0.225804403424263,10.192935943603516,2.334831953048706,64.00257873535156,28.05,1
-0.5266551375389099,-1.0434433221817017,0.206483781337738,8.647793769836426,2.3345890045166016,64.00165557861328,28.05,1
-0.5227035284042358,-1.01668381690979,0.1828893721103668,8.512446403503418,2.331678867340088,64.00106048583984,28.05,1
-0.4529942870140075,-0.9547289609909058,0.1453567445278167,10.893982887268066,2.3298113346099854,64.00067901611328,28.05,1
-0.3970633745193481,-0.9093721508979796,0.115672692656517,14.887127876281738,2.328612804412842,64.00043487548828,28.05,1
-0.3723656833171844,-0.8914602994918823,0.0742320790886879,17.854530334472656,2.32784366607666,64.00028228759766,28.05,1
-0.362113893032074,-0.8967587947845459,0.0364423282444477,18.777212142944336,2.32735013961792,64.00018310546875,28.05,1
-0.3723282217979431,-0.8777679800987244,-0.0157978311181068,19.41590881347656,2.327033519744873,64.00011444091797,28.05,1
-0.3676876425743103,-0.8599830269813538,-0.0549203343689441,21.441530227661133,2.3268301486968994,64.00007629394531,28.05,1
-0.3591118156909942,-0.8653629422187805,-0.0688313543796539,24.72620391845703,2.326699733734131,64.00004577636719,28.05,1
-0.3704016506671905,-0.8800110220909119,-0.0721608698368072,28.59674453735352,2.3417646884918213,64.00003051757812,28.05,1
-0.3944401443004608,-0.9174001812934875,-0.0463086925446987,32.42768478393555,2.3514323234558105,64.0000228881836,28.05,1
-0.3986711204051971,-0.9413943886756896,-0.035316027700901,35.01871490478516,2.3576364517211914,64.00001525878906,28.05,1
-0.4013863205909729,-1.023965835571289,-0.0394571162760257,35.234130859375,2.3616180419921875,64.00000762939453,28.05,1
-0.3863354325294494,-1.0433688163757324,-0.0141257587820291,33.04011535644531,2.364173173904419,64.00000762939453,28.05,1
-0.3710788786411285,-0.9382672309875488,0.035717099905014,28.977434158325195,2.3658127784729004,64.00000762939453,28.05,1
-0.3892769813537597,-0.898807942867279,0.0621055997908115,23.33221435546875,2.3668651580810547,64.00000762939453,28.05,1
-0.4177487790584564,-0.8958763480186462,0.0678446739912033,16.366893768310547,2.3675403594970703,64.00000762939453,28.05,1
-0.4304225742816925,-0.8492128252983093,0.0715276822447776,8.604565620422363,2.3633832931518555,64.28661346435547,28.05,1
-0.4161647856235504,-0.8136690855026245,0.0906845480203628,0.8466536402702332,2.360715627670288,64.47054290771484,28.05,1
-0.3846238553524017,-0.8020547032356262,0.1253694146871566,-5.554210186004639,2.35900354385376,64.58857727050781,28.05,1
-0.3755782544612884,-0.8057968020439148,0.1532259434461593,-9.077956199645996,2.35790491104126,64.66432189941406,28.05,1
-0.4145555198192596,-0.8305893540382385,0.1934937536716461,-9.06435775756836,2.3571999073028564,64.71292877197266,28.05,1
-0.473155528306961,-0.8464998006820679,0.1969442218542099,-5.609193801879883,2.3567473888397217,64.74412536621094,28.05,1
-0.505163848400116,-0.8567101955413818,0.2047563046216964,0.7925800681114197,2.356456995010376,64.76414489746094,28.05,1
-0.5033138394355774,-0.8800559639930725,0.2209652066230774,8.390298843383789,2.3562707901000977,64.77699279785156,28.05,1
-0.4909310936927795,-0.9006357192993164,0.2257693707942962,14.297858238220217,2.354773998260498,64.78524017333984,28.05,1
-0.4941800832748413,-0.9474292993545532,0.2288524061441421,16.84941864013672,2.353813409805298,64.79052734375,28.05,1
-0.5018628835678101,-0.9830564856529236,0.2308309227228164,16.914113998413086,2.3531970977783203,64.7939224243164,28.05,1
-0.5179888010025024,-1.0003222227096558,0.1705251038074493,16.192543029785156,2.352801561355591,64.79610443115234,28.05,1
-0.5395330786705017,-1.1065645217895508,0.1094331964850425,15.238666534423828,2.352547645568848,64.79750061035156,28.05,1
-0.5589566826820374,-1.1635491847991943,0.0870212465524673,13.483682632446287,2.3523848056793213,64.79840087890625,28.05,1
-0.5938127636909485,-1.0937608480453491,0.067040778696537,10.172062873840332,2.352280139923096,64.7989730834961,28.05,1
-0.6329746842384338,-1.093756914138794,0.0430229119956493,4.725809097290039,2.352213144302368,64.7993392944336,28.05,1
-0.6748998761177063,-1.0769611597061155,-0.000379244913347,-2.9608964920043945,2.35308837890625,64.79957580566406,28.05,1
-0.617838442325592,-0.9990092515945436,-0.0170367006212472,-11.927762031555176,2.3536500930786133,64.79972839355469,28.05,1
-0.5420352816581726,-0.9265931248664856,-0.0165309477597475,-20.154157638549805,2.354010343551636,64.7998275756836,28.05,1
-0.470998078584671,-0.8913161754608154,-0.0218041595071554,-25.86329460144043,2.3542416095733643,64.79988861083984,28.05,1
-0.4422038197517395,-0.8798730373382568,-0.0419815257191658,-28.756834030151367,2.3543901443481445,64.7999267578125,28.05,1
-0.4461164176464081,-0.866931676864624,-0.066125750541687,-29.449405670166016,2.354485273361206,64.79995727539062,28.05,1
-0.4542250633239746,-0.8698222041130066,-0.0872178971767425,-28.324689865112305,2.354546546936035,64.79997253417969,28.05,1
-0.4594287276268005,-0.8884705305099487,-0.0895580723881721,-25.91193580627441,2.354585647583008,64.79998016357422,28.05,1
-0.4627681374549866,-0.9340245723724364,-0.0742665380239486,-23.62555885314941,2.353233575820923,64.79998779296875,28.05,1
-0.4593134224414825,-0.9632585644721984,-0.0700510889291763,-22.56312561035156,2.3523659706115723,64.79999542236328,28.05,1
-0.4570963680744171,-0.9988125562667848,-0.0617480799555778,-22.16792297363281,2.35180926322937,64.79999542236328,28.05,1
-0.4444780349731445,-1.0664112567901611,-0.0396263636648654,-21.373334884643555,2.351451873779297,64.79999542236328,28.05,1
-0.4195870161056518,-1.0426188707351685,0.0025589514989405,-20.085996627807617,2.351222515106201,64.79999542236328,28.05,1
-0.3980156183242798,-0.9377859234809875,0.0464243814349174,-18.500349044799805,2.3510754108428955,64.79999542236328,28.05,1
-0.4009656608104706,-0.8873035311698914,0.0633791387081146,-15.9673433303833,2.350980997085572,64.79999542236328,28.05,1
-0.4084565937519073,-0.8996890187263489,0.0798575058579444,-11.604718208312988,2.3509204387664795,64.79999542236328,28.05,1
-0.4188616275787353,-0.9020395278930664,0.1072256937623024,-5.534144878387451,2.350881576538086,65.29439544677734,28.03,1
-0.4087456464767456,-0.881156861782074,0.1303867995738983,1.1094355583190918,2.3508565425872803,65.6116714477539,28.03,1
-0.3798626959323883,-0.850962221622467,0.1620435863733291,7.053130626678467,2.3508405685424805,65.81527709960938,28.03,1
-0.3613272607326507,-0.842780590057373,0.1935546398162841,11.515897750854492,2.350830316543579,65.9459457397461,28.03,1
-0.3662256300449371,-0.8431279063224792,0.2137766182422638,14.64853858947754,2.3508236408233643,66.02980041503906,28.03,1
-0.3693691194057464,-0.8601440787315369,0.2491450160741806,17.611852645874023,2.3508193492889404,66.08361053466797,28.03,1
-0.3657886385917663,-0.8766618967056274,0.2662446498870849,21.186599731445312,2.3508167266845703,66.1181411743164,28.03,1
-0.3634909093379974,-0.8704687356948853,0.2716204226016998,24.2473373413086,2.3508150577545166,66.14030456542969,28.03,1
-0.3732118904590606,-0.872092068195343,0.2806680798530578,24.97197151184082,2.349895715713501,66.15452575683594,28.03,1
-0.390645831823349,-0.8955249786376953,0.2640832364559173,23.40567970275879,2.349305868148804,66.16365051269531,28.03,1
-0.4074316918849945,-0.9497472643852234,0.2366467118263244,21.25051689147949,2.3489272594451904,66.16950988769531,28.03,1
-0.4405950009822845,-0.984544038772583,0.2078439891338348,19.337236404418945,2.348684310913086,66.17327117919922,28.03,1
-0.5122572779655457,-1.096439003944397,0.1501756310462951,16.755189895629883,2.348528385162353,66.1756820678711,28.03,1
-0.5862348675727844,-1.213028907775879,0.1299607157707214,12.196294784545898,2.348428249359131,66.17723083496094,28.03,1
-0.6057205200195312,-1.080731987953186,0.1113901808857917,5.3441548347473145,2.3483641147613525,66.17822265625,28.03,1
-0.5958341956138611,-1.0406136512756348,0.0714838057756424,-2.9581611156463623,2.348322868347168,66.1788558959961,28.03,1
-0.6230763792991638,-1.0260635614395142,0.0402764156460762,-11.273978233337402,2.3505916595458984,66.17926788330078,28.03,1
-0.6405588388442993,-0.9943349957466124,0.0314448587596416,-18.276487350463867,2.352047681808472,66.17952728271484,28.03,1
-0.6125936508178711,-0.9571800827980042,0.0201795008033514,-22.938676834106445,2.3529820442199707,66.17969512939453,28.03,1
-0.5386694669723511,-0.9109451174736024,-0.0094410562887787,-24.243207931518555,2.353581666946411,66.17980194091797,28.03,1
-0.4744358658790588,-0.8868719339370728,-0.0228520501405,-21.501388549804688,2.353966474533081,66.17987060546875,28.03,1
-0.4388122260570526,-0.8658254146575928,-0.0370562300086021,-15.195557594299316,2.3542134761810303,66.17991638183594,28.03,1
-0.4215487837791443,-0.835525631904602,-0.0685627534985542,-7.182927131652832,2.354372024536133,66.17994689941406,28.03,1
-0.4160678684711456,-0.8272765278816223,-0.0999773740768432,-0.1671952009201049,2.354473829269409,66.17996978759766,28.03,1
-0.4237460792064667,-0.8667649030685425,-0.1145396903157234,3.210168838500977,2.3582112789154053,66.17997741699219,28.03,1
-0.439869076013565,-0.920095145702362,-0.1014938503503799,1.870225071907044,2.360609769821167,66.17998504638672,28.03,1
-0.4390203356742859,-0.976710557937622,-0.0763284564018249,-2.6976394653320312,2.3621490001678467,66.17999267578125,28.03,1
-0.4160845577716827,-1.0242385864257812,-0.0601787567138671,-7.681848049163818,2.3631367683410645,66.17999267578125,28.03,1
-0.390170156955719,-1.099521517753601,-0.0554125867784023,-11.088215827941896,2.3637707233428955,66.17999267578125,28.03,1
-0.3623442351818084,-1.0918560028076172,-0.0019739607814699,-12.324843406677246,2.3641774654388428,66.17999267578125,28.03,1
-0.3836715817451477,-1.075741171836853,0.0379176475107669,-11.53135871887207,2.364438533782959,66.17999267578125,28.03,1
-0.408553808927536,-1.04300856590271,0.0691155567765235,-9.255936622619627,2.3646061420440674,66.17999267578125,28.03,1
-0.4357173144817352,-0.9660248756408693,0.0891365781426429,-6.294602394104004,2.361959218978882,66.53466796875,28.05,1
-0.4307582080364227,-0.8942301273345947,0.0963871479034423,-3.226269006729126,2.3602607250213623,66.76228332519531,28.05,1
-0.3771957755088806,-0.8257652521133423,0.106637917459011,-0.3902056813240051,2.35917067527771,66.9083480834961,28.05,1
-0.3316269218921661,-0.8210128545761108,0.1524006873369217,1.72717022895813,2.358471155166626,67.00208282470703,28.05,1
-0.3079812228679657,-0.82915860414505,0.1873663812875747,3.107475519180298,2.3580222129821777,67.06224060058594,28.05,1
-0.3263934254646301,-0.8343861103057861,0.204207569360733,5.161195755004883,2.357734203338623,67.10084533691406,28.05,1
-0.338209331035614,-0.8489363193511963,0.2206130474805832,9.495683670043944,2.35754919052124,67.12561798095703,28.05,1
-0.3401943147182464,-0.8750671744346619,0.2255433648824691,15.562530517578123,2.357430458068848,67.14151763916016,28.05,1
-0.3246748447418213,-0.8806408643722534,0.2175118178129196,21.139694213867188,2.3541412353515625,67.15171813964844,28.05,1
-0.3203131258487701,-0.8898155093193054,0.2067598551511764,25.073471069335938,2.3520302772521973,67.15826416015625,28.05,1
-0.3343073427677154,-0.9068988561630248,0.1886643171310424,27.86305427551269,2.350675582885742,67.16246795654297,28.05,1
-0.3544835746288299,-0.9234597086906432,0.1770516484975814,29.65324783325196,2.349806308746338,67.16516876220703,28.05,1
-0.4010181725025177,-0.945283055305481,0.1416104286909103,29.6019287109375,2.34924840927124,67.16690063476562,28.05,1
-0.4588702619075775,-1.0152658224105835,0.107670746743679,27.29764175415039,2.3488903045654297,67.16800689697266,28.05,1
-0.5239852666854858,-1.0657744407653809,0.0858902111649513,23.03880500793457,2.348660469055176,67.1687240600586,28.05,1
-0.588163435459137,-1.0198191404342651,0.0551193952560424,16.844959259033203,2.348513126373291,67.16918182373047,28.05,1
-0.6405448317527771,-1.0351098775863647,0.0409702286124229,8.703570365905762,2.3497955799102783,67.16947174072266,28.05,1
-0.6685624122619629,-1.0953025817871094,0.0598789826035499,-0.4225293397903442,2.350618600845337,67.16966247558594,28.05,1
-0.6025758981704712,-1.0723552703857422,0.0720135271549224,-8.65438175201416,2.351146697998047,67.16978454589844,28.05,1
-0.5098495483398438,-1.012846827507019,0.0853985548019409,-14.076831817626951,2.3514857292175293,67.16986083984375,28.05,1
-0.4111587107181549,-0.9354732632637024,0.1051838472485542,-15.905080795288086,2.35170316696167,67.16990661621094,28.05,1
-0.3534223735332489,-0.8858193755149841,0.1122831329703331,-15.072102546691896,2.3518428802490234,67.16993713378906,28.05,1
-0.333163857460022,-0.8707476854324341,0.0888501778244972,-13.068689346313477,2.3519325256347656,67.16996002197266,28.05,1
-0.3313586413860321,-0.8386844396591187,0.068214476108551,-10.758398056030272,2.351989984512329,67.16997528076172,28.05,1
-0.3302001655101776,-0.8125103712081909,0.0549716725945472,-9.046501159667969,2.350649833679199,67.16998291015625,28.05,1
-0.3182611763477325,-0.8013111352920532,0.0520709790289402,-9.144484519958496,2.349789619445801,67.16999053955078,28.05,1
-0.3217949569225311,-0.8109173774719238,0.0502094812691211,-10.923418045043944,2.3492376804351807,67.16999053955078,28.05,1
-0.3240627348423004,-0.8562665581703186,0.0546126514673233,-12.462700843811035,2.348883390426636,67.16999053955078,28.05,1
-0.3255180716514587,-0.885369062423706,0.079829454421997,-12.339925765991213,2.348656177520752,67.16999053955078,28.05,1
-0.3320497870445251,-0.9208387136459352,0.1072076931595802,-11.053807258605955,2.348510265350342,67.16999053955078,28.05,1
-0.3586325645446777,-1.08914315700531,0.1023863703012466,-9.422370910644531,2.348416566848755,67.16999053955078,28.05,1
-0.3868874311447143,-1.2083468437194824,0.1048901006579399,-7.053439140319824,2.3483564853668213,67.16999053955078,28.05,1
-0.4106175303459167,-1.1169116497039795,0.1568768173456192,-3.344241142272949,2.352449417114258,67.38494873046875,28.05,1
-0.437041699886322,-1.0806249380111694,0.1790433526039123,1.02085542678833,2.35507607460022,67.52289581298828,28.05,1
-0.431608110666275,-1.0741314888000488,0.1988663375377655,4.5780463218688965,2.356761693954468,67.61141967773438,28.05,1
-0.4393166899681091,-0.9915955662727356,0.1780009418725967,6.670970439910889,2.357843399047852,67.66822814941406,28.05,1
-0.4330680668354034,-0.8938465714454651,0.15341517329216,8.160974502563477,2.358537673950196,67.7046890258789,28.05,1
-0.423460304737091,-0.7975302338600159,0.1432352215051651,10.629019737243652,2.358983039855957,67.72808837890625,28.05,1
-0.4396856725215912,-0.7469155192375183,0.1255067735910415,14.853227615356444,2.3592689037323,67.74310302734375,28.05,1
-0.4668914973735809,-0.7200316786766052,0.1141296699643135,19.742286682128903,2.359452486038208,67.75273895263672,28.05,1
-0.4843506515026092,-0.7195724844932556,0.1124262735247612,22.91204643249512,2.356815814971924,67.75891876220703,28.05,1
-0.4843593835830688,-0.7192777991294861,0.1113331317901611,22.82533073425293,2.35512375831604,67.76288604736328,28.05,1
-0.4843649864196777,-0.7246865034103394,0.1106316149234771,20.326366424560547,2.3540380001068115,67.76543426513672,28.05,1
-0.5179552435874939,-0.7673419117927551,0.1101814210414886,17.422199249267578,2.3533411026000977,67.7670669555664,28.05,1
-0.539511501789093,-0.8283023238182068,0.1098925173282623,15.14289379119873,2.3528940677642822,67.76811981201172,28.05,1
-0.5141606330871582,-0.8842165470123291,0.1432937532663345,13.243091583251951,2.352607011795044,67.76879119873047,28.05,1
-0.4922941625118255,-0.953685700893402,0.1759243011474609,10.970630645751951,2.352422952651977,67.76922607421875,28.05,1
-0.5174459218978882,-1.06544029712677,0.2248535752296447,7.405742168426514,2.352304697036743,67.76950073242188,28.05,1
-0.5615757703781128,-1.1539512872695925,0.2114713788032531,2.0907254219055176,2.345802068710327,67.7696762084961,28.05,1
-0.5563091039657593,-1.2275458574295044,0.1860901266336441,-3.999912738800049,2.3416290283203125,67.76979064941406,28.05,1
-0.4689626395702362,-1.2076013088226318,0.1865952312946319,-8.882994651794434,2.338951110839844,67.76986694335938,28.05,1
-0.3849198520183563,-1.1388243436813354,0.1981149166822433,-11.328821182250977,2.3372323513031006,67.76991271972656,28.05,1
-0.3197904825210571,-1.03870952129364,0.1831164956092834,-11.655258178710938,2.3361294269561768,67.76994323730469,28.05,1
-0.3059830665588379,-0.974461555480957,0.1343069523572921,-10.736234664916992,2.335421562194824,67.76996612548828,28.05,1
-0.3251111209392547,-0.9332309365272522,0.0917882472276687,-8.8997220993042,2.334967374801636,67.76997375488281,28.05,1
-0.3485819697380066,-0.8787826299667358,0.0589044131338596,-6.191394329071045,2.3346760272979736,67.76998138427734,28.05,1
-0.3468508720397949,-0.8326452970504761,0.0378014631569385,-3.2137746810913086,2.340456962585449,67.76998901367188,28.05,1
-0.3289466500282287,-0.7806459069252014,0.0298565775156021,-1.152441382408142,2.344166755676269,67.76998901367188,28.05,1
-0.3230545222759247,-0.7528734803199768,0.0359535552561283,-0.954525113105774,2.346547365188598,67.76998901367188,28.05,1
-0.3248710632324219,-0.7574418187141418,0.0286706965416669,-2.4683334827423096,2.348075151443481,67.76998901367188,28.05,1
-0.3372323513031006,-0.8107534646987915,0.0072036534547805,-4.482337951660156,2.349055528640747,67.76998901367188,28.05,1
-0.3451651334762573,-0.8617591261863708,-0.0065726586617529,-5.767644882202148,2.349684715270996,67.76998901367188,28.05,1
-0.3446581363677978,-0.9224805235862732,-0.0154135031625628,-6.0586771965026855,2.350088596343994,67.76998901367188,28.05,1
-0.3723216652870178,-1.106990098953247,0.0013040500925853,-6.008995056152344,2.350347757339477,67.76998901367188,28.05,1
-0.3956722915172577,-1.2253978252410889,0.0176301877945661,-6.084589004516602,2.351891279220581,67.87747192382812,28.03,1
-0.3994618356227875,-1.1166584491729736,0.0225095879286527,-5.638705730438232,2.352881669998169,67.94644927978516,28.03,1
-0.3795026540756225,-1.0860602855682373,0.025640906766057,-3.5684406757354736,2.3535172939300537,67.99071502685547,28.03,1
-0.3666940033435821,-1.088815212249756,0.0444437302649021,0.2965997755527496,2.3539252281188965,68.01911926269531,28.03,1
-0.3696696758270263,-1.006616473197937,0.0397169776260852,4.883514881134033,2.35418701171875,68.03734588623047,28.03,1
-0.3659815192222595,-0.9146816730499268,0.0366836190223693,8.815923690795898,2.3543550968170166,68.04904174804688,28.03,1
-0.3636146783828735,-0.822096586227417,0.0459325313568115,11.7013578414917,2.3544628620147705,68.05654907226562,28.03,1
-0.3788891136646271,-0.757082998752594,0.051867950707674,14.638583183288574,2.35453200340271,68.06137084960938,28.03,1
-0.3942891359329223,-0.7433499097824097,0.0500791892409324,18.80204391479492,2.354576349258423,68.06446075439453,28.03,1
-0.3929764330387115,-0.76812344789505,0.0601268112659454,23.537477493286133,2.354604959487915,68.06644439697266,28.03,1
-0.3977317810058594,-0.7952172160148621,0.072172574698925,26.8450984954834,2.354623317718506,68.06771850585938,28.03,1
-0.4175768196582794,-0.8182021975517273,0.0910983979701995,27.326919555664062,2.354635000228882,68.06853485107422,28.03,1
-0.4359099864959717,-0.8385504484176636,0.1032439023256301,24.598100662231445,2.354642629623413,68.06906127929688,28.03,1
-0.4644684791564941,-0.8851954340934753,0.1278315186500549,18.898902893066406,2.354647397994995,68.06939697265625,28.03,1
-0.477197915315628,-0.9543139338493348,0.1548059731721878,11.257661819458008,2.3546504974365234,68.06961059570312,28.03,1
-0.485366940498352,-1.037854552268982,0.183312177658081,3.118887424468994,2.354652404785156,68.06974792480469,28.03,1
-0.5074026584625244,-1.0802706480026243,0.2519857883453369,-4.679980754852295,2.3551125526428223,68.06983947753906,28.03,1
-0.5159461498260498,-1.062708616256714,0.2848609983921051,-11.68392276763916,2.355407953262329,68.06990051269531,28.03,1
-0.4990377724170685,-1.0906227827072144,0.2779695689678192,-16.909496307373047,2.355597496032715,68.06993865966797,28.03,1
-0.4378069937229156,-1.1533186435699463,0.2567537128925323,-19.65751266479492,2.3557190895080566,68.06996154785156,28.03,1
-0.3761214911937713,-1.1711621284484863,0.2431385964155197,-20.47881317138672,2.355797052383423,68.06997680664062,28.03,1
-0.3197419643402099,-1.0930486917495728,0.2344011962413787,-19.805713653564453,2.355847120285034,68.06998443603516,28.03,1
-0.2947563827037811,-1.0261266231536863,0.217598482966423,-17.05941390991211,2.355879306793213,68.06999206542969,28.03,1
-0.3011131584644317,-0.9775821566581726,0.1844243705272674,-12.538414001464844,2.3559000492095947,68.06999206542969,28.03,1
-0.3163881301879883,-0.9464290738105774,0.1463418155908584,-8.275717735290527,2.356372117996216,68.06999206542969,28.03,1
-0.3205929398536682,-0.909643530845642,0.1163048520684242,-5.694214820861816,2.356675148010254,68.06999206542969,28.03,1
-0.3064980208873749,-0.8580477833747864,0.0970288589596748,-4.342073917388916,2.356869697570801,68.06999206542969,28.03,1
-0.2918549478054046,-0.8025455474853516,0.0958541855216026,-3.445687055587769,2.356994390487671,68.06999206542969,28.03,1
-0.2880556583404541,-0.7669273614883423,0.0951003432273864,-2.852524518966675,2.357074499130249,68.06999206542969,28.03,1
-0.296813040971756,-0.7944496273994446,0.0890187993645668,-2.328563928604126,2.357125997543335,68.06999206542969,28.03,1
-0.2968352437019348,-0.8401007056236267,0.0739204660058021,-1.3546178340911863,2.357158899307251,68.06999206542969,28.03,1
-0.2856539487838745,-0.8749947547912598,0.0586334504187107,0.2556130290031433,2.357180118560791,68.06999206542969,28.03,1
-0.2840762138366699,-0.9365721344947816,0.0376275740563869,2.1917755603790283,2.3617844581604004,68.14164733886719,28.03,1
-0.3110525608062744,-1.121631145477295,0.0297449864447116,3.903610467910767,2.364739179611206,68.18762969970703,28.03,1
-0.3507555425167084,-1.0948492288589478,0.041479717940092,4.77288293838501,2.366635322570801,68.2171401977539,28.03,1
-0.3650390803813934,-1.0776621103286743,0.0434126183390617,4.399262428283691,2.367852210998535,68.23607635498047,28.03,1
-0.3574120998382568,-1.083425760269165,0.0614463649690151,3.11696457862854,2.368633270263672,68.24822998046875,28.03,1
-0.3637130856513977,-1.036744475364685,0.0730193853378295,2.265398979187012,2.369134426116944,68.25602722167969,28.03,1
-0.3677566945552826,-0.9396138787269592,0.0524574145674705,3.202099561691284,2.369456052780152,68.26103210449219,28.03,1
-0.3535583317279815,-0.8548899292945862,0.0560552477836608,5.2828240394592285,2.3696625232696533,68.26424407958984,28.03,1
-0.366837739944458,-0.8005189895629883,0.0583641305565834,6.249107837677002,2.364286422729492,68.26630401611328,28.03,1
-0.4033485651016235,-0.7824201583862305,0.0542480610311031,5.457678318023682,2.360836267471313,68.26762390136719,28.03,1
-0.432376891374588,-0.787598729133606,0.0572043806314468,4.408815383911133,2.3586220741271973,68.26847076416016,28.03,1
-0.451005607843399,-0.8077153563499451,0.0758948996663093,3.6318209171295166,2.357201099395752,68.2690200805664,28.03,1
-0.4629604518413543,-0.8374183773994446,0.0934871733188629,2.147982358932495,2.356289386749268,68.26937103271484,28.03,1
-0.4762301445007324,-0.8620778322219849,0.104776881635189,-0.0187530051916837,2.3557043075561523,68.26959228515625,28.03,1
-0.5015391707420349,-0.8835006356239319,0.1176197379827499,-1.7961572408676147,2.3553287982940674,68.26973724365234,28.03,1
-0.5121833086013794,-0.902846336364746,0.1314593255519867,-3.033522367477417,2.355087757110596,68.26982879638672,28.03,1
-0.5302096605300903,-1.0160212516784668,0.1795251965522766,-4.250336170196533,2.3563101291656494,68.26988983154297,28.03,1
-0.5529734492301941,-1.0102815628051758,0.2327622026205063,-5.2569193840026855,2.3570947647094727,68.26992797851562,28.03,1
-0.556386411190033,-1.0065981149673462,0.2501333355903625,-5.56970739364624,2.357598304748535,68.26995086669922,28.03,1
-0.5025988817214966,-1.0937986373901367,0.2388900220394134,-5.365605354309082,2.3579213619232178,68.26996612548828,28.03,1
-0.4400922954082489,-1.160954475402832,0.2372724860906601,-5.026834964752197,2.358128547668457,68.26997375488281,28.03,1
-0.371990293264389,-1.108889102935791,0.2530277669429779,-4.168150901794434,2.358261585235596,68.26998138427734,28.03,1
-0.328286349773407,-1.0250965356826782,0.2407474964857101,-2.1267454624176025,2.358346939086914,68.26998901367188,28.03,1
-0.3114352226257324,-0.971323311328888,0.2328667342662811,0.5948460698127747,2.3584017753601074,68.26998901367188,28.03,1
-0.3230122327804565,-0.9536080956459044,0.211015984416008,2.2375121116638184,2.3584370613098145,68.26998901367188,28.03,1
-0.3304416835308075,-0.9366416931152344,0.1857978850603103,1.5003929138183594,2.358459711074829,68.26998901367188,28.03,1
-0.3072206079959869,-0.8921669721603394,0.1752121299505233,-1.3765562772750854,2.3584742546081543,68.26998901367188,28.03,1
-0.2811231315135956,-0.8356367945671082,0.1628210246562957,-5.332953453063965,2.35848355293274,68.26998901367188,28.03,1
-0.2699730396270752,-0.7937611937522888,0.1604669094085693,-9.25839900970459,2.358489513397217,68.26998901367188,28.03,1
-0.2908064126968384,-0.7836812138557434,0.1589561700820922,-12.006808280944824,2.3584933280944824,68.26998901367188,28.03,1
-0.3041760921478271,-0.7884079813957214,0.1467911154031753,-12.79611873626709,2.358495712280273,68.26998901367188,28.03,1
-0.3071582019329071,-0.8306257724761963,0.1333865076303482,-11.661832809448242,2.358497142791748,68.26998901367188,28.03,1
-0.3090719282627105,-0.952880859375,0.1135886535048484,-8.856019020080566,2.3584980964660645,68.30940246582031,28.05,1
-0.3270933926105499,-1.1264992952346802,0.0952857583761215,-4.354147434234619,2.3584988117218018,68.3346939086914,28.05,1
-0.3554518520832062,-1.137157678604126,0.1003333330154419,1.4367809295654297,2.35849928855896,68.35092163085938,28.05,1
-0.3680528998374939,-1.0768243074417114,0.1147681251168251,7.474574565887451,2.358499526977539,68.36133575439453,28.05,1
-0.3817372918128967,-1.088485836982727,0.101640447974205,12.782313346862791,2.358499765396118,68.3680191040039,28.05,1
-0.3961169421672821,-1.045589566230774,0.0932158604264259,16.672161102294922,2.358499765396118,68.37230682373047,28.05,1
-0.3941494226455688,-0.9732789993286132,0.0822116732597351,18.94990539550781,2.358499765396118,68.37506103515625,28.05,1
-0.3593001365661621,-0.8597009778022766,0.080747589468956,20.322065353393555,2.358499765396118,68.3768310546875,28.05,1
-0.3537291884422302,-0.7756175994873047,0.0742102488875389,21.37460327148437,2.3621721267700195,68.37796783447266,28.05,1
-0.3781429529190063,-0.7272554636001587,0.0756127387285232,21.451770782470703,2.36452865600586,68.37869262695312,28.05,1
-0.4162013828754425,-0.7410016655921936,0.0765127763152122,20.211565017700195,2.3660409450531006,68.37915802001953,28.05,1
-0.4350273311138153,-0.7498231530189514,0.0882859155535698,18.889034271240234,2.367011547088623,68.37945556640625,28.05,1
-0.4471087455749511,-0.7610820531845093,0.1182323396205902,17.732208251953125,2.3676342964172363,68.37964630126953,28.05,1
-0.4604596495628357,-0.7739051580429077,0.1486457735300064,14.191832542419434,2.3680341243743896,68.37976837158203,28.05,1
-0.4914186000823974,-0.8157209157943726,0.1793589144945144,6.5602898597717285,2.368290662765503,68.37985229492188,28.05,1
-0.5336773991584778,-0.9153269529342652,0.193471074104309,-2.707936763763428,2.368455171585083,68.3799057006836,28.05,1
-0.5607966184616089,-1.0240305662155151,0.2137229889631271,-9.941895484924316,2.363511562347412,68.37993621826172,28.05,1
-0.572602391242981,-1.0993880033493042,0.2491105943918228,-14.279715538024902,2.360338926315308,68.37995910644531,28.05,1
-0.5857764482498169,-1.1085636615753174,0.2718203365802765,-16.698057174682617,2.35830307006836,68.37997436523438,28.05,1
-0.5662419199943542,-1.075267672538757,0.2863941192626953,-17.451093673706055,2.356996536254883,68.3799819946289,28.05,1
-0.5593035817146301,-1.0874868631362915,0.2677578628063202,-16.529979705810547,2.3561580181121826,68.37998962402344,28.05,1
-0.5492531657218933,-1.1065239906311035,0.2502004206180572,-14.781689643859863,2.3556199073791504,68.37998962402344,28.05,1
-0.5036189556121826,-1.0851542949676514,0.2389330714941024,-12.789172172546388,2.355274677276612,68.37998962402344,28.05,1
-0.4463447034358978,-1.0490493774414062,0.2317023277282714,-9.948486328125,2.355052947998047,68.37998962402344,28.05,1
-0.3592094182968139,-0.986694872379303,0.2270620614290237,-6.119255542755127,2.356287956237793,68.37998962402344,28.05,1
-0.3312798738479614,-0.9242882132530212,0.1848997771739959,-3.142401933670044,2.3570804595947266,68.37998962402344,28.05,1
-0.3301496207714081,-0.8786414861679077,0.1466469019651413,-2.923004388809204,2.35758900642395,68.37998962402344,28.05,1
-0.3518153727054596,-0.8493480086326599,0.1053050905466079,-4.88159704208374,2.35791540145874,68.37998962402344,28.05,1
-0.3601214289665222,-0.8305491805076599,0.0787742957472801,-6.937423229217529,2.3581247329711914,68.37998962402344,28.05,1
-0.3598540127277374,-0.8296806812286377,0.0729439035058021,-7.862650871276855,2.3582592010498047,68.37998962402344,28.05,1
-0.348486840724945,-0.8459166884422302,0.0692022964358329,-7.446122169494629,2.3583455085754395,68.37998962402344,28.05,1
-0.3411920666694641,-0.8507382273674011,0.0668011456727981,-5.756535530090332,2.358400821685791,68.37998962402344,28.05,1
-0.3477062284946441,-0.8818212747573853,0.0596624538302421,-3.163991928100586,2.360731363296509,68.36924743652344,28.05,1
-0.3518866598606109,-0.912964165210724,0.0382879301905632,0.0187651142477989,2.362226963043213,68.36235046386719,28.05,1
-0.3825582861900329,-1.0393075942993164,0.0357665382325649,3.967205762863159,2.363186836242676,68.35792541503906,28.05,1
-0.3910460174083709,-0.9300631880760192,0.0677350983023643,8.707954406738281,2.363802671432495,68.35508728027344,28.05,1
-0.4076884984970093,-0.8375653028488159,0.0938484594225883,13.448434829711914,2.364197969436645,68.35326385498047,28.05,1
-0.4519553482532501,-0.878965437412262,0.0938131883740425,17.063814163208008,2.3644516468048096,68.35209655761719,28.05,1
-0.4747654795646667,-0.916729211807251,0.0993883237242698,19.22990608215332,2.364614486694336,68.3513412475586,28.05,1
-0.4726103842258453,-0.8849861025810242,0.1309549957513809,20.551910400390625,2.3647189140319824,68.35086059570312,28.05,1
-0.4208474159240722,-0.847821831703186,0.1568104475736618,21.23908042907715,2.362949848175049,68.35055541992188,28.05,1
-0.393226683139801,-0.8407652974128723,0.1901963055133819,20.56230354309082,2.361814498901367,68.35035705566406,28.05,1
-0.4314790368080139,-0.836236834526062,0.2228169739246368,18.368942260742188,2.361085891723633,68.35022735595703,28.05,1
-0.4672227501869201,-0.8333306908607483,0.2381532788276672,15.857935905456545,2.360618352890014,68.35014343261719,28.05,1
-0.4845632314682007,-0.8314657211303711,0.2200063616037368,13.74853801727295,2.360318422317505,68.35009002685547,28.05,1
-0.4788980185985565,-0.8302688598632812,0.2363495826721191,10.789854049682615,2.360125780105591,68.35005950927734,28.05,1
-0.4696646332740783,-0.8295007944107056,0.2300443947315216,5.37305212020874,2.360002279281616,68.35003662109375,28.05,1
-0.5085213780403137,-0.8513990044593811,0.1868136674165725,-2.061885595321656,2.3599231243133545,68.35002136230469,28.05,1
-0.5446529388427734,-0.8766475915908813,0.159070685505867,-9.255022048950195,2.3603310585021973,68.35001373291016,28.05,1
-0.5790356397628784,-0.920839548110962,0.1188757345080375,-14.397801399230955,2.360592842102051,68.35000610351562,28.05,1
-0.6234915852546692,-0.9883837699890136,0.0259076319634914,-17.09268569946289,2.3607609272003174,68.35000610351562,28.05,1
-0.6632164120674133,-1.0989030599594116,-0.0393517166376113,-17.35325050354004,2.360868692398072,68.35000610351562,28.05,1
-0.694307267665863,-1.0634702444076538,-0.1204158291220665,-15.392416954040527,2.36093807220459,68.35000610351562,28.05,1
-0.7030640840530396,-1.035133719444275,-0.1948292106389999,-12.529072761535645,2.3609824180603027,68.35000610351562,28.05,1
-0.6639015078544617,-1.061731219291687,-0.2257901132106781,-10.48017120361328,2.361011028289795,68.35000610351562,28.05,1
-0.6275736689567566,-1.03401780128479,-0.2064746171236038,-9.466240882873535,2.3610293865203857,68.35000610351562,28.05,1
-0.576271653175354,-0.9826462268829346,-0.1828835010528564,-8.722412109375,2.3610410690307617,68.35000610351562,28.05,1
-0.4873712360858917,-0.921690046787262,-0.1565485298633575,-8.452855110168457,2.361048698425293,68.35000610351562,28.05,1
-0.4303200542926788,-0.8713763356208801,-0.1340504884719848,-9.537352561950684,2.361053466796875,68.35000610351562,28.05,1
-0.4160990118980407,-0.8558812141418457,-0.1476014107465744,-11.84547996520996,2.361056566238404,68.35000610351562,28.05,1
-0.3845816552639007,-0.8291440010070801,-0.1395042836666107,-14.136364936828612,2.361058473587036,68.35000610351562,28.05,1
-0.347562313079834,-0.8175833821296692,-0.1231124624609947,-15.19452667236328,2.361059665679932,68.35000610351562,28.05,1
-0.3350009620189667,-0.8325555324554443,-0.1069953665137291,-14.71284008026123,2.361060619354248,68.35000610351562,28.05,1
-0.3325375914573669,-0.8533593416213989,-0.0854567885398864,-13.31103515625,2.3610610961914062,68.35000610351562,28.05,1
-0.3477500677108764,-0.8891011476516724,-0.0380479246377944,-11.5838623046875,2.354175567626953,68.38224792480469,28.05,1
-0.3519147932529449,-0.917635977268219,-0.013221419416368,-9.422185897827148,2.349756956100464,68.40293884277344,28.05,1
-0.3657830059528351,-0.9807301759719848,-0.0084847463294863,-6.562507629394531,2.346921443939209,68.41621398925781,28.05,1
-0.3690850734710693,-1.0324159860610962,0.0225438494235277,-3.133084297180176,2.3451015949249268,68.42473602294922,28.05,1
-0.3656063675880432,-1.009607195854187,0.0368584431707859,0.7157067656517029,2.343933820724488,68.43020629882812,28.05,1
-0.385765016078949,-1.0397520065307615,0.0628380477428436,4.833624362945557,2.343184471130371,68.4337158203125,28.05,1
-0.4266905486583709,-1.047901630401611,0.0795102640986442,8.590447425842285,2.3427035808563232,68.43596649169922,28.05,1
-0.4529542028903961,-1.0083494186401367,0.0902095288038253,11.244976043701172,2.3423948287963867,68.43741607666016,28.05,1
-0.4418198466300964,-0.9213915467262268,0.1082712560892105,12.787283897399902,2.3440332412719727,68.43833923339844,28.05,1
-0.4178811311721802,-0.8767825365066528,0.1198622286319732,13.572840690612791,2.3450846672058105,68.43893432617188,28.05,1
-0.4249097406864166,-0.8593506217002869,0.1384961903095245,13.4034423828125,2.345759391784668,68.43931579589844,28.05,1
-0.4518114030361175,-0.8537615537643433,0.1672477275133133,12.230707168579102,2.3461923599243164,68.43955993652344,28.05,1
-0.4690753221511841,-0.8557726144790649,0.1912965774536132,10.836832046508787,2.3464701175689697,68.4397201538086,28.05,1
-0.4857521057128906,-0.8570631742477417,0.2347186207771301,9.48017120361328,2.3466484546661377,68.4398193359375,28.05,1
-0.4852587580680847,-0.8578913807868958,0.2681821584701538,7.205174446105957,2.3467628955841064,68.43988800048828,28.05,1
-0.4569532871246338,-0.8696184754371643,0.2784615755081177,3.760465621948242,2.3468363285064697,68.43992614746094,28.05,1
-0.4387884438037872,-0.8939375281333923,0.2626672387123108,0.5359808206558228,2.344588041305542,68.43995666503906,28.05,1
-0.4271312952041626,-0.9207396507263184,0.2469335496425628,-1.4079177379608154,2.3431453704833984,68.43997192382812,28.05,1
-0.4420415163040161,-0.9435374736785888,0.20884770154953,-2.712721347808838,2.342219352722168,68.43997955322266,28.05,1
-0.4572077989578247,-0.9469722509384156,0.167613074183464,-4.524529457092285,2.341625213623047,68.43998718261719,28.05,1
-0.4949295222759247,-1.0219476222991943,0.1075644195079803,-7.041457653045654,2.3412439823150635,68.43999481201172,28.05,1
-0.603103756904602,-1.075660228729248,0.0858219787478447,-9.702789306640623,2.3409993648529053,68.43999481201172,28.05,1
-0.6781215667724609,-1.0317610502243042,0.0662711560726165,-12.159436225891112,2.3408422470092773,68.43999481201172,28.05,1
-0.6534925699234009,-1.0315779447555542,0.0201379153877496,-14.348591804504396,2.3407413959503174,68.43999481201172,28.05,1
-0.6432849168777466,-1.0426560640335083,-0.0094677424058318,-15.878856658935549,2.348480701446533,68.43999481201172,28.05,1
-0.6143431067466736,-1.032971978187561,-0.0284669492393732,-16.040481567382812,2.353447437286377,68.43999481201172,28.05,1
-0.5341944098472595,-0.9987684488296508,-0.0294639989733696,-14.46397590637207,2.356634616851806,68.43999481201172,28.05,1
-0.4659662544727325,-0.9768185615539552,-0.041299395263195,-11.22748565673828,2.358680009841919,68.43999481201172,28.05,1
-0.4333769083023071,-0.9515368342399596,-0.0600902214646339,-6.5208821296691895,2.359992742538452,68.43999481201172,28.05,1
-0.4124629497528076,-0.940910279750824,-0.0833446383476257,-0.7526195645332336,2.360835075378418,68.43999481201172,28.05,1
-0.4102371037006378,-0.9228951930999756,-0.1262568533420562,4.991187572479248,2.361375570297241,68.43999481201172,28.05,1
-0.4144064784049988,-0.9113341569900512,-0.1593932211399078,9.089228630065918,2.361722469329834,68.43999481201172,28.05,1
-0.4226799011230469,-0.9263060688972472,-0.1694626808166504,10.368484497070312,2.362863063812256,68.45074462890625,28.03,1
-0.4335870742797851,-0.935914158821106,-0.1703269183635711,9.004066467285156,2.3635950088500977,68.4576416015625,28.03,1
-0.4405866861343384,-0.9420800805091858,-0.176479309797287,6.319260597229004,2.364064693450928,68.46206665039062,28.03,1
-0.4338830709457397,-0.9740259051322936,-0.152438685297966,3.783061981201172,2.364366054534912,68.46491241455078,28.03,1
-0.4295810759067535,-1.0449068546295166,-0.1482063382863998,2.384760618209839,2.3645594120025635,68.46673583984375,28.03,1
-0.3932336568832397,-1.0736008882522583,-0.134294718503952,2.94551944732666,2.3646836280822754,68.46790313720703,28.03,1
-0.3531146645545959,-0.952070653438568,-0.0861826166510582,6.106956481933594,2.364763259887696,68.46865844726562,28.03,1
-0.3497596979141235,-0.9020684361457824,-0.0553070418536663,11.44250202178955,2.364814519882202,68.4691390991211,28.03,1
-0.3811933100223541,-0.9147620797157288,-0.0410906486213207,17.220300674438477,2.360715866088867,68.46944427490234,28.03,1
-0.4181589186191559,-0.917310357093811,-0.0319673866033554,21.51928329467773,2.3580856323242188,68.46964263916016,28.03,1
-0.4418813288211822,-0.8965545892715454,0.0074740434065461,23.13528251647949,2.35639762878418,68.46977233886719,28.03,1
-0.4123228192329407,-0.9000280499458313,0.0607741512358188,21.9224796295166,2.3553144931793213,68.46985626220703,28.03,1
-0.3877560794353485,-0.913452684879303,0.0949790999293327,19.17375564575196,2.354619264602661,68.46990966796875,28.03,1
-0.276828408241272,-0.9724478125572203,0.4863829910755157,16.87239646911621,2.354173183441162,68.46994018554688,28.03,1
-0.2616191506385803,-0.9879163503646852,0.7207701206207275,15.717947959899902,2.353886842727661,68.46996307373047,28.03,1
-0.3638142049312591,-0.8914854526519775,0.524124264717102,14.593754768371582,2.353703022003174,68.46997833251953,28.03,1
-0.3846149146556854,-0.8799816370010376,0.4259171783924103,12.532428741455078,2.3535852432250977,68.46998596191406,28.03,1
-0.403561383485794,-0.8781969547271729,0.3740890622138977,10.235127449035645,2.3535096645355225,68.4699935913086,28.03,1
-0.4493067860603332,-0.8826494216918945,0.2736554741859436,8.979389190673828,2.3534610271453857,68.4699935913086,28.03,1
-0.4786635637283325,-0.8855067491531372,0.1644207835197448,8.703749656677246,2.3534297943115234,68.4699935913086,28.03,1
-0.5031008124351501,-0.9209270477294922,0.0887224748730659,8.014552116394043,2.353409767150879,68.4699935913086,28.03,1
-0.5131855010986328,-0.9268644452095032,0.0569369755685329,5.752315998077393,2.3533968925476074,68.4699935913086,28.03,1
-0.5364505648612976,-0.981054663658142,0.0253433231264352,1.8249832391738887,2.353388786315918,68.4699935913086,28.03,1
-0.6241518259048462,-0.9878419637680054,0.0218616612255573,-3.2139034271240234,2.3533835411071777,68.4699935913086,28.03,1
-0.680433452129364,-0.9026333093643188,0.0084317810833454,-8.672350883483887,2.3377726078033447,68.4699935913086,28.03,1
-0.733345091342926,-0.8983312249183655,-0.0169800650328397,-13.787426948547363,2.327754497528076,68.4699935913086,28.03,1
-0.778496265411377,-0.9123637080192566,-0.0332879237830638,-17.71126937866211,2.3213253021240234,68.4699935913086,28.03,1
-0.762689471244812,-0.915771186351776,-0.0325578227639198,-19.441198348999023,2.317199468612671,68.4699935913086,28.03,1
-0.651785671710968,-0.8899690508842468,0.0182906817644834,-18.172536849975582,2.314551830291748,68.4699935913086,28.03,1
-0.5414295792579651,-0.8678129315376282,0.0285312291234731,-14.202134132385254,2.312852621078491,68.4699935913086,28.03,1
-0.4762071371078491,-0.8591921925544739,0.0183097012341022,-8.94931411743164,2.3117620944976807,68.4699935913086,28.03,1
-0.4455466866493225,-0.8536599278450012,0.0005545634776353,-3.898128271102905,2.3110623359680176,68.4699935913086,28.03,1
-0.4258705675601959,-0.8501096367835999,-0.0108396615833044,-0.151424840092659,2.329434394836426,68.46282958984375,28.03,1
-0.4020480215549469,-0.8534290194511414,-0.0237495936453342,1.2247947454452517,2.341224431991577,68.4582290649414,28.03,1
-0.3923578560352325,-0.855559229850769,-0.0264366716146469,-0.274439662694931,2.348790645599365,68.45527648925781,28.03,1
-0.3917370438575744,-0.8681218028068542,-0.0281610824167728,-3.558070659637451,2.353646278381348,68.45338439941406,28.03,1
-0.3969364166259765,-0.8873792886734009,-0.0404632575809955,-6.227780818939209,2.356762409210205,68.4521713256836,28.03,1
-0.4002730846405029,-0.9277265071868896,-0.0371625386178493,-6.504434108734131,2.35876202583313,68.4513931274414,28.03,1
-0.3968165814876556,-1.0375856161117554,-0.035044327378273,-4.962337970733643,2.3600451946258545,68.45088958740234,28.03,1
-0.4001961648464203,-1.1248801946640017,-0.0168916583061218,-3.9333012104034415,2.360868692398072,68.45056915283203,28.03,1
-0.3799738883972168,-1.0689454078674316,0.0339420996606349,-5.2110981941223145,2.3623151779174805,68.45036315917969,28.03,1
-0.3725941777229309,-1.0274518728256226,0.0609665066003799,-8.74670696258545,2.363243341445923,68.45023345947266,28.03,1
-0.3734560906887054,-1.0288125276565552,0.0895047634840011,-13.319252967834473,2.3638389110565186,68.45014953613281,28.03,1
-0.3796069920063019,-1.0016969442367554,0.1134167462587356,-17.890886306762695,2.364221334457397,68.4500961303711,28.03,1
-0.3723587393760681,-0.9507090449333192,0.1287620812654495,-22.10367774963379,2.364466667175293,68.45005798339844,28.03,1
-0.3509138822555542,-0.8620101809501648,0.1498053818941116,-25.061567306518555,2.3646240234375,68.45003509521484,28.03,1
-0.3483473658561706,-0.8106861114501953,0.1745053082704544,-24.455551147460938,2.364725112915039,68.45001983642578,28.03,1
-0.3578958809375763,-0.7889448404312134,0.1903562992811203,-18.807422637939453,2.3647899627685547,68.45001220703125,28.03,1
-0.3752191066741943,-0.7973836660385132,0.20612633228302,-10.070444107055664,2.3588640689849854,68.45000457763672,28.03,1
-0.3863361477851867,-0.8139947652816772,0.2106488496065139,-1.8840994834899905,2.3550610542297363,68.45000457763672,28.03,1
-0.39347043633461,-0.8246548175811768,0.2191489189863205,4.272233963012695,2.3526206016540527,68.45000457763672,28.03,1
-0.4092443585395813,-0.8370935916900635,0.2246037721633911,10.211343765258787,2.3510544300079346,68.45000457763672,28.03,1
-0.3913782835006714,-0.8674671649932861,0.239299938082695,18.38629913330078,2.3500492572784424,68.45000457763672,28.03,1
-0.4079017341136932,-0.9317413568496704,0.2207422256469726,28.16089057922364,2.3494043350219727,68.45000457763672,28.03,1
-0.4297010898590088,-0.9729888439178468,0.1976373940706253,35.67323303222656,2.3489904403686523,68.45000457763672,28.03,1
-0.4268973469734192,-1.005056858062744,0.1940055936574936,37.8574447631836,2.348724842071533,68.45000457763672,28.03,1
-0.4306958317756653,-1.0760163068771362,0.2028704583644867,34.533729553222656,2.351308584213257,68.45000457763672,28.03,1
-0.4667201340198517,-1.1327495574951172,0.2197549790143966,26.439353942871094,2.352966785430908,68.45000457763672,28.03,1
-0.5346206426620483,-1.135571002960205,0.1858082860708236,14.502443313598633,2.3540308475494385,68.45000457763672,28.03,1
-0.5390108823776245,-1.142979383468628,0.1472299396991729,1.4681581258773804,2.3547136783599854,68.45000457763672,28.03,1
-0.530632734298706,-1.114147067070007,0.1224725693464279,-8.838252067565918,2.355151891708374,68.45000457763672,28.03,1
-0.4692783653736114,-1.0396664142608645,0.1289758086204528,-14.438444137573242,2.355433225631714,68.45000457763672,28.03,1
-0.4187090992927551,-0.975075662136078,0.1331492215394973,-15.854118347167969,2.3556137084960938,68.45000457763672,28.03,1
-0.3750611245632171,-0.9336250424385072,0.1134363785386085,-14.090015411376951,2.355729579925537,68.45000457763672,28.03,1
-0.3526481389999389,-0.9014266133308412,0.0895902588963508,-9.726432800292969,2.354426622390747,68.47508239746094,28.05,1
-0.3382647633552551,-0.8639702200889587,0.0630916431546211,-4.300108909606934,2.353590488433838,68.49117279052734,28.05,1
-0.3122410178184509,-0.8119440078735352,0.051684133708477,-0.3664020895957947,2.35305404663086,68.50149536132812,28.05,1
-0.2899427115917206,-0.7729587554931641,0.0499612241983413,0.8718801140785217,2.3527097702026367,68.50812530517578,28.05,1
-0.2924262583255768,-0.7479403018951416,0.0320622362196445,0.1009528189897537,2.3524887561798096,68.51237487792969,28.05,1
-0.2996178269386291,-0.7486782073974609,0.0205756984651088,-2.0346035957336426,2.352346897125244,68.51510620117188,28.05,1
-0.3154285252094269,-0.8051294684410095,0.0132042989134788,-5.156960487365723,2.352255821228028,68.51686096191406,28.05,1
-0.3255749046802521,-0.8469544649124146,0.0196693073958158,-7.769746780395508,2.3521974086761475,68.51798248291016,28.05,1
-0.3488796055316925,-0.8961864113807678,0.023818178102374,-8.0886869430542,2.351701021194458,68.51870727539062,28.05,1
-0.3694329857826233,-1.1069093942642212,0.0040895864367485,-5.982603073120117,2.3513824939727783,68.51917266845703,28.05,1
-0.3994162678718567,-1.2981170415878296,0.0026244611945003,-3.0332107543945312,2.3511781692504883,68.51947021484375,28.05,1
-0.3962667286396026,-1.1913143396377563,0.0352708734571933,-1.0401484966278076,2.3510470390319824,68.51966094970703,28.05,1
-0.3942455351352691,-1.161958932876587,0.0226348154246807,-0.3737362623214721,2.35096287727356,68.51978302001953,28.05,1
-0.4097417891025543,-1.137522578239441,-0.0022676028311252,0.2617181539535522,2.3509087562561035,68.51985931396484,28.05,1
-0.430881917476654,-1.04906964302063,-0.0294440910220146,1.719210863113403,2.350874185562134,68.51990509033203,28.05,1
-0.4164595603942871,-0.9643167853355408,-0.0300910715013742,3.0844550132751465,2.3508517742156982,68.51993560791016,28.05,1
-0.407204121351242,-0.8763406276702881,-0.0137129435315728,3.695479393005371,2.3535919189453125,68.51995849609375,28.05,1
-0.4124600887298584,-0.7974914908409119,-0.008800177834928,4.521091461181641,2.3553502559661865,68.51997375488281,28.05,1
-0.4270285964012146,-0.746890664100647,-0.0112452218309044,6.018217086791992,2.356478691101074,68.51998138427734,28.05,1
-0.4307800531387329,-0.7312113046646118,-0.0072165359742939,6.989733695983887,2.3572027683258057,68.51998901367188,28.05,1
-0.4331875145435333,-0.7379425168037415,0.000966616848018,6.792787551879883,2.3576674461364746,68.51998901367188,28.05,1
-0.4459280371665954,-0.7646533250808716,0.0286091919988393,6.283062934875488,2.3579657077789307,68.51998901367188,28.05,1
-0.4764952659606933,-0.8321747183799744,0.0575441531836986,6.041933059692383,2.358157157897949,68.51998901367188,28.05,1
-0.4961115717887878,-0.8811038732528687,0.0817107185721397,5.686565399169922,2.3582799434661865,68.51998901367188,28.05,1
-0.5087001919746399,-0.9572859406471252,0.1196105256676673,5.01427173614502,2.3569815158843994,68.51998901367188,28.05,1
-0.5223765969276428,-1.0285663604736328,0.1719213128089904,4.306973934173584,2.3561484813690186,68.51998901367188,28.05,1
-0.5423488616943359,-1.046321153640747,0.2278824597597122,3.616621017456055,2.3556137084960938,68.51998901367188,28.05,1
-0.5383726358413696,-1.080106258392334,0.2525995671749115,2.6326231956481934,2.3552706241607666,68.51998901367188,28.05,1
-0.5078320503234863,-1.1241786479949951,0.2684615850448608,1.08759343624115,2.3550503253936768,68.51998901367188,28.05,1
-0.4434506297111511,-1.1580595970153809,0.261847585439682,-0.7099973559379578,2.354908943176269,68.51998901367188,28.05,1
-0.3853410184383392,-1.146215796470642,0.2632008790969848,-1.4981648921966553,2.354818344116211,68.51998901367188,28.05,1
-0.3312563002109527,-1.0882351398468018,0.2472760081291198,0.0703459158539772,2.35476016998291,68.51998901367188,28.05,1
-0.3189389407634735,-1.0342330932617188,0.2090674787759781,3.64563250541687,2.357017755508423,68.57731628417969,28.03,1
-0.3334254622459411,-0.9883821606636048,0.1733518987894058,6.914506435394287,2.358466625213623,68.61410522460938,28.03,1
-0.3483198583126068,-0.9421643614768982,0.1336383670568466,7.478939056396484,2.359396457672119,68.63771057128906,28.03,1
-0.3466826677322387,-0.890113353729248,0.1081525087356567,4.516529083251953,2.3599932193756104,68.65286254882812,28.03,1
-0.3288387060165405,-0.8231233358383179,0.0973949283361435,-0.8489257097244263,2.3603761196136475,68.66258239746094,28.03,1
-0.3117896914482116,-0.78573077917099,0.101686879992485,-6.069123268127441,2.360621929168701,68.6688232421875,28.03,1
-0.3120441734790802,-0.7729299664497375,0.1044412106275558,-8.595152854919434,2.360779523849488,68.6728286743164,28.03,1
-0.2954141497611999,-0.7759106755256653,0.1118065491318702,-7.672585010528564,2.360880851745605,68.67539978027344,28.03,1
-0.2903397381305694,-0.7946168780326843,0.1109354272484779,-4.7303643226623535,2.365995407104492,68.67704772949219,28.03,1
-0.2870832681655884,-0.8290125131607056,0.0935830697417259,-1.785356521606445,2.3692777156829834,68.67810821533203,28.03,1
-0.29618901014328,-0.9966278076171876,0.0656540021300315,0.2908738553524017,2.3713841438293457,68.67878723144531,28.03,1
-0.3244236409664154,-1.1825624704360962,0.0477307327091693,1.7844947576522827,2.3727357387542725,68.6792221069336,28.03,1
-0.3481407761573791,-1.1451469659805298,0.0754130333662033,3.0367860794067383,2.373603105545044,68.67950439453125,28.03,1
-0.3521655201911926,-1.081951379776001,0.0819823890924453,3.912086009979248,2.374159812927246,68.67967987060547,28.03,1
-0.3659439086914062,-1.1085693836212158,0.0582093521952629,4.488133430480957,2.37451720237732,68.67979431152344,28.03,1
-0.3971771895885467,-1.0416847467422483,0.0373554117977619,5.549244403839111,2.374746561050415,68.67987060546875,28.03,1
-0.3948298096656799,-0.9595775604248048,0.0239725522696971,7.362298011779785,2.37122106552124,68.67991638183594,28.03,1
-0.365334540605545,-0.8677014708518982,0.0265797525644302,8.504316329956055,2.368958711624145,68.67994689941406,28.03,1
-0.3631995022296905,-0.8087407350540161,0.0282529033720493,7.764759540557861,2.367506742477417,68.67996978759766,28.03,1
-0.3954159915447235,-0.7876964211463928,0.0237288624048233,6.344354629516602,2.366575002670288,68.67997741699219,28.03,1
-0.4216884672641754,-0.802180290222168,0.0152278179302811,5.780330181121826,2.3659770488739014,68.67998504638672,28.03,1
-0.4329508543014526,-0.8170729279518127,0.0153701109811663,4.999210357666016,2.365593433380127,68.67999267578125,28.03,1
-0.4513739347457886,-0.8434234857559204,0.0322547480463981,2.0152077674865723,2.365347146987915,68.67999267578125,28.03,1
-0.4743923544883728,-0.8547360301017761,0.0542858876287937,-3.030924081802368,2.3651890754699707,68.67999267578125,28.03,1
-0.489164263010025,-0.8731912970542908,0.0852175280451774,-8.630158424377441,2.362792730331421,68.67999267578125,28.03,1
-0.4874484837055206,-0.9018281698226928,0.0938721224665641,-14.172346115112305,2.361254930496216,68.67999267578125,28.03,1
-0.4975429475307464,-0.9705856442451476,0.1218172460794448,-19.62776756286621,2.360267877578736,68.67999267578125,28.03,1
-0.5264120697975159,-1.0650901794433594,0.2069241106510162,-23.7807731628418,2.3596346378326416,68.67999267578125,28.03,1
-0.5561341643333435,-1.0865533351898191,0.2727363407611847,-24.582992553710938,2.359228134155273,68.67999267578125,28.03,1
-0.5528169870376587,-1.1171205043792725,0.2981775104999542,-21.70869445800781,2.3589673042297363,68.67999267578125,28.03,1
-0.4891127049922943,-1.175921082496643,0.3089064359664917,-17.144960403442383,2.358799934387207,68.67999267578125,28.03,1
-0.4258398711681366,-1.1800693273544312,0.3157916367053985,-12.4607572555542,2.358692407608032,68.67999267578125,28.03,1
-0.3572461307048797,-1.1043626070022583,0.3146123886108398,-7.423384666442871,2.357246398925781,68.73373413085938,28.03,1
-0.3132266104221344,-1.0501805543899536,0.2970622777938843,-2.2202725410461426,2.356318473815918,68.76821899414062,28.03,1
-0.2961729764938354,-1.0154097080230713,0.2522130012512207,1.2979142665863037,2.3557229042053223,68.79035186767578,28.03,1
-0.3076200187206268,-0.9930957555770874,0.2066379785537719,1.7321531772613523,2.3553407192230225,68.80455780029297,28.03,1
-0.3205638527870178,-0.9675803780555724,0.1717927753925323,-0.2676954567432403,2.355095386505127,68.81367492675781,28.03,1
-0.312077134847641,-0.9176194071769714,0.1494311392307281,-3.109503507614136,2.35493803024292,68.81952667236328,28.03,1
-0.301033079624176,-0.8631662726402283,0.1406784951686859,-5.506424427032471,2.354836940765381,68.82328033447266,28.03,1
-0.2827500998973846,-0.8002325296401978,0.1294637769460678,-6.500078678131104,2.354772090911865,68.82569122314453,28.03,1
-0.2878104448318481,-0.7766385674476624,0.1110712736845016,-5.590076446533203,2.362534046173096,68.82723236083984,28.03,1
-0.2966556549072265,-0.7894861698150635,0.0992680191993713,-3.125236988067627,2.3675153255462646,68.8282241821289,28.03,1
-0.2743431329727173,-0.803328812122345,0.0916933715343475,0.215599775314331,2.37071180343628,68.828857421875,28.03,1
-0.2600242495536804,-0.823407769203186,0.070039078593254,4.211747646331787,2.372763156890869,68.82926940917969,28.03,1
-0.2844218611717224,-0.9930309653282166,0.0225559510290622,8.538872718811035,2.374079704284668,68.82952880859375,28.03,1
-0.3672521412372589,-1.0627009868621826,0.0144751109182834,11.863906860351562,2.374924659729004,68.82969665527344,28.03,1
-0.4036145210266113,-1.029042363166809,0.0316803902387619,12.876376152038574,2.375466823577881,68.82980346679688,28.03,1
-0.3989609181880951,-1.080213189125061,0.0203306507319211,12.146828651428224,2.37581467628479,68.82987213134766,28.03,1
-0.3847789764404297,-1.1130517721176147,0.0186448153108358,11.628491401672363,2.369152307510376,68.82991790771484,28.03,1
-0.4092644453048706,-1.050158977508545,-0.0048281545750796,12.349129676818848,2.364876747131348,68.82994842529297,28.03,1
-0.396988958120346,-0.9538202881813048,-0.0198917556554079,13.51736068725586,2.362133026123047,68.82997131347656,28.03,1
-0.3891112506389618,-0.8919956684112549,-0.0239609330892562,13.94105052947998,2.360372304916382,68.8299789428711,28.03,1
-0.4232402145862579,-0.846722424030304,-0.0209745224565267,13.66481590270996,2.3592422008514404,68.82998657226562,28.03,1
-0.4563377499580383,-0.8176686763763428,-0.0246557891368865,13.734742164611816,2.358516931533813,68.82999420166016,28.03,1
-0.4887734055519104,-0.8158169388771057,-0.0214204415678977,14.098465919494627,2.3580515384674072,68.82999420166016,28.03,1
-0.5039909482002258,-0.8258241415023804,0.0142424656078219,12.551342964172363,2.357753038406372,68.82999420166016,28.03,1
-0.5193544626235962,-0.8434417843818665,0.0539221912622451,7.234319686889648,2.356184244155884,68.82999420166016,28.03,1
-0.518018364906311,-0.8547477722167969,0.0849841311573982,-0.3802012205123901,2.355177402496338,68.82999420166016,28.03,1
-0.5227587223052979,-0.8676010370254517,0.0993201211094856,-7.072380065917969,2.3545312881469727,68.82999420166016,28.03,1
-0.5425941348075867,-0.9206317663192748,0.1197156831622123,-11.481678009033203,2.354116678237915,68.82999420166016,28.03,1
-0.5665189027786255,-0.9882504343986512,0.1719888001680374,-14.0103759765625,2.3538506031036377,68.82999420166016,28.03,1
-0.5986657738685608,-1.0204486846923828,0.2167302221059799,-14.74108600616455,2.353679895401001,68.82999420166016,28.03,1
-0.630491316318512,-1.0579049587249756,0.2734315693378448,-13.884461402893066,2.3535702228546143,68.82999420166016,28.03,1
-0.6341217756271362,-1.11552894115448,0.309819221496582,-12.725690841674805,2.35349988937378,68.82999420166016,28.03,1
-0.5580827593803406,-1.1748998165130615,0.3219751715660095,-12.1002836227417,2.353454828262329,68.89089965820312,28.05,1
-0.453307569026947,-1.145827293395996,0.3185806274414062,-11.12213897705078,2.353425979614258,68.92998504638672,28.05,1
-0.3860688805580139,-1.093583583831787,0.3052066564559936,-8.713881492614746,2.353407382965088,68.95507049560547,28.05,1
-0.3541145026683807,-1.0320676565170288,0.2742328941822052,-5.473842620849609,2.353395462036133,68.9711685180664,28.05,1
-0.339205801486969,-0.9869925379753112,0.2375624030828476,-3.1043834686279297,2.3533878326416016,68.98149871826172,28.05,1
-0.3408337831497192,-0.9300770163536072,0.1916382908821106,-2.5331835746765137,2.3533828258514404,68.98812866210938,28.05,1
-0.3362807631492615,-0.8711608648300171,0.1509712934494018,-3.366783142089844,2.353379726409912,68.99237823486328,28.05,1
-0.3221633434295654,-0.8165585398674011,0.130471333861351,-4.833209037780762,2.3533775806427,68.99510955810547,28.05,1
-0.2963102757930755,-0.7759200930595398,0.1285111904144287,-6.318828105926514,2.363475561141968,68.99686431884766,28.05,1
-0.2797192633152008,-0.7554384469985962,0.110459953546524,-7.093084335327148,2.369955778121948,68.99798583984375,28.05,1
-0.2914631962776184,-0.7478923201560974,0.0988757088780403,-6.439950466156006,2.374114513397217,68.99871063232422,28.05,1
-0.3157931268215179,-0.7878318428993225,0.0970393866300582,-4.150702476501465,2.37678337097168,68.99917602539062,28.05,1
-0.3314066529273987,-0.847049355506897,0.0846653878688812,-0.4317371249198913,2.378495931625366,68.99947357177734,28.05,1
-0.3582198619842529,-1.041789412498474,0.0711266919970512,4.430440425872803,2.3795950412750244,68.99966430664062,28.05,1
-0.4034158885478973,-1.2339357137680054,0.0848294347524643,9.8292236328125,2.380300283432007,68.99978637695312,28.05,1
-0.4436156451702118,-1.1501264572143557,0.1384052634239196,14.576414108276367,2.3807530403137207,68.99986267089844,28.05,1
-0.4190335571765899,-1.0851470232009888,0.1392004936933517,17.382856369018555,2.382420778274536,68.99990844726562,28.05,1
-0.3808670938014984,-1.071435809135437,0.128515288233757,17.843984603881836,2.383491039276123,68.99993896484375,28.05,1
-0.3731673955917358,-1.02905011177063,0.0992670357227325,17.047225952148438,2.3841776847839355,68.99996185302734,28.05,1
-0.3626284003257751,-0.9626649618148804,0.0916927382349968,16.460678100585938,2.3846185207366943,68.9999771118164,28.05,1
-0.3726584017276764,-0.8808783292770386,0.1148208677768707,15.86931037902832,2.384901285171509,68.99998474121094,28.05,1
-0.4182794988155365,-0.8339901566505432,0.1352609395980835,13.924219131469728,2.385082721710205,68.99999237060547,28.05,1
-0.4587520360946655,-0.7983022928237915,0.1483782082796096,11.070977210998535,2.3851993083953857,68.99999237060547,28.05,1
-0.4903227686882019,-0.7921931743621826,0.1623938828706741,9.333077430725098,2.3852739334106445,68.99999237060547,28.05,1
-0.5049852728843689,-0.7882726788520813,0.1825838834047317,8.522313117980957,2.380272388458252,68.99999237060547,28.05,1
-0.4920037090778351,-0.7745612263679504,0.201138436794281,5.7879791259765625,2.377062559127808,68.99999237060547,28.05,1
-0.4892706573009491,-0.8105441927909851,0.2074479162693023,0.0028432756662368,2.375002861022949,68.99999237060547,28.05,1
-0.4987123012542724,-0.8616248369216919,0.2114969789981842,-6.475472450256348,2.37368106842041,68.99999237060547,28.05,1
-0.5327602624893188,-0.9111987948417664,0.1973021030426025,-11.224006652832031,2.372832775115967,68.99999237060547,28.05,1
-0.5434147715568542,-0.9430124759674072,0.1825948804616928,-14.03847599029541,2.372288227081299,68.99999237060547,28.05,1
-0.5726432800292969,-1.08657968044281,0.1675588488578796,-15.142455101013184,2.371938943862915,68.99999237060547,28.05,1
-0.6137915849685669,-1.1059417724609375,0.180300697684288,-14.102628707885742,2.37171483039856,68.99999237060547,28.05,1
-0.6122093200683594,-1.0455962419509888,0.1604887992143631,-11.622544288635254,2.370652675628662,68.95700073242188,28.03,1
-0.5608139634132385,-1.0404565334320068,0.0973946973681449,-9.7515287399292,2.3699710369110107,68.92941284179688,28.03,1
-0.5334291458129883,-1.059549331665039,0.0681000873446464,-9.181351661682127,2.36953353881836,68.91171264648438,28.03,1
-0.5214529037475586,-1.027019739151001,0.0381049402058124,-8.475099563598633,2.369252920150757,68.90035247802734,28.03,1
-0.4689850509166717,-0.9557641744613647,0.0076602352783083,-6.778714179992676,2.369072675704956,68.89305877685547,28.03,1
-0.4241186380386352,-0.9044386744499208,-0.0230729728937149,-5.3031535148620605,2.368957042694092,68.88838195800781,28.03,1
-0.3953259587287903,-0.8770987391471863,-0.0707846507430076,-5.413083553314209,2.368882894515991,68.8853759765625,28.03,1
-0.3880440294742584,-0.8539557456970215,-0.1125988066196441,-6.923825740814209,2.368835210800171,68.8834457397461,28.03,1
-0.4057620167732239,-0.8447017073631287,-0.1394327282905578,-8.917949676513672,2.377985715866089,68.88220977783203,28.03,1
-0.4059368371963501,-0.8387629985809326,-0.1454576402902603,-10.795953750610352,2.3838579654693604,68.88141632080078,28.03,1
-0.4060490429401397,-0.8349518775939941,-0.1493240892887115,-12.058469772338867,2.38762640953064,68.88090515136719,28.03,1
-0.4117188155651092,-0.8604949712753296,-0.1238164752721786,-11.84048080444336,2.390044927597046,68.88057708740234,28.03,1
-0.4153573513031006,-0.8880826234817505,-0.0962516069412231,-9.296679496765137,2.391597032546997,68.88037109375,28.03,1
-0.4120945632457733,-0.9225801229476928,-0.0897576138377189,-4.464974880218506,2.3925929069519043,68.88023376464844,28.03,1
-0.4155984818935394,-1.0118918418884275,-0.0631990432739257,1.508960843086243,2.393232107162476,68.8801498413086,28.03,1
-0.4178470969200134,-0.9964359402656556,-0.0125686358660459,7.051577568054199,2.3936421871185303,68.88009643554688,28.03,1
-0.408094584941864,-0.941735029220581,0.0199230462312698,10.923776626586914,2.3847243785858154,68.88005828857422,28.03,1
-0.4074337482452392,-0.9514133334159852,0.0183832384645938,12.932249069213867,2.379001379013061,68.88003540039062,28.03,1
-0.4461940824985504,-0.9912109971046448,0.0341884009540081,14.106527328491213,2.375328779220581,68.88002014160156,28.03,1
-0.4430793523788452,-0.955175280570984,0.0667223408818245,15.698434829711914,2.372972011566162,68.88001251220703,28.03,1
-0.4298849701881408,-0.9096585512161256,0.087600752711296,17.898696899414062,2.371459484100342,68.8800048828125,28.03,1
-0.4158197939395904,-0.8972418904304504,0.1345859616994857,19.52923583984375,2.37048888206482,68.8800048828125,28.03,1
-0.41239133477211,-0.8892735838890076,0.1703361421823501,18.83448982238769,2.369865894317627,68.8800048828125,28.03,1
-0.410191148519516,-0.8841599822044373,0.2044740915298462,15.060429573059082,2.3694660663604736,68.8800048828125,28.03,1
-0.4255725145339966,-0.869682788848877,0.2039907723665237,9.467875480651855,2.3669145107269287,68.8800048828125,28.03,1
-0.4130522906780243,-0.860392153263092,0.2204739302396774,4.0840253829956055,2.365277051925659,68.8800048828125,28.03,1
-0.3882242143154144,-0.8544299602508545,0.2310518622398376,-0.0517090186476707,2.3642263412475586,68.8800048828125,28.03,1
-0.3443021178245544,-0.8617993593215942,0.2434379458427429,-2.6269683837890625,2.36355209350586,68.8800048828125,28.03,1
-0.3776909708976745,-0.9001152515411377,0.228995531797409,-3.315909147262573,2.36311936378479,68.8800048828125,28.03,1
-0.4886823892593384,-0.9358997344970704,0.1525539308786392,-2.421730756759644,2.3628416061401367,68.8800048828125,28.03,1
-0.5487147569656372,-0.9476686120033264,0.0923025608062744,-1.0883926153182983,2.3626632690429688,68.8800048828125,28.03,1
-0.5816422700881958,-0.9776122570037842,0.0368433743715286,-0.0715169534087181,2.362548828125,68.8800048828125,28.03,1
-0.6195666193962097,-1.0584038496017456,0.0124484077095985,0.7100279927253723,2.368443012237549,69.0053939819336,28.03,1
-0.6439042687416077,-0.9479158520698548,-0.0032068772707134,1.236656665802002,2.372225522994995,69.08586120605469,28.03,1
-0.6539250016212463,-0.927390992641449,-0.0412424094974994,0.9655786752700806,2.374652862548828,69.13750457763672,28.03,1
-0.6827468276023865,-0.9645992517471312,-0.0600536502897739,-0.2186698913574218,2.3762106895446777,69.17064666748047,28.03,1
-0.6900474429130554,-0.9716840386390686,-0.0609300732612609,-1.3333274126052856,2.3772103786468506,69.19190979003906,28.03,1
-0.6555481553077698,-0.9538396000862122,-0.0502969622611999,-1.0455292463302612,2.377851963043213,69.20555877685547,28.03,1
-0.5662351846694946,-0.9143991470336914,-0.0266799200326204,0.9268683195114136,2.378263473510742,69.21431732177734,28.03,1
-0.4865281879901886,-0.883490800857544,-0.0003283143742009,3.593426465988159,2.3785276412963867,69.21994018554688,28.03,1
-0.4465723633766174,-0.8636555671691895,0.0109848557040095,6.057011127471924,2.3782384395599365,69.22354888916016,28.03,1
-0.4321265816688537,-0.845328688621521,-0.0041461009532213,8.318687438964844,2.3780527114868164,69.22586059570312,28.03,1
-0.4228560924530029,-0.8335675597190857,-0.0306496024131774,10.4364595413208,2.3779335021972656,69.22734832763672,28.03,1
-0.4281023740768432,-0.8596065640449524,-0.047658022493124,12.014060974121094,2.377856969833374,69.22830200195312,28.03,1
-0.4314691424369812,-0.9099035859107972,-0.0529752746224403,12.496253967285156,2.377807855606079,69.22891235351562,28.03,1
-0.4280319809913635,-0.9477790594100952,-0.0507898032665252,11.103974342346191,2.3777763843536377,69.22930145263672,28.03,1
-0.4202284216880798,-0.977683126926422,-0.0381917469203472,7.165299892425537,2.377756118774414,69.22955322265625,28.03,1
-0.415220558643341,-1.0248627662658691,-0.0301070399582386,1.1625868082046509,2.3777432441711426,69.2297134399414,28.03,1
-0.4064090251922607,-1.08872652053833,-0.0025276434607803,-5.6309027671813965,2.380948066711426,69.22982025146484,28.03,1
-0.3839609622955322,-1.0009617805480957,0.0263667777180671,-12.301335334777832,2.383004665374756,69.22988891601562,28.03,1
-0.3751528561115265,-0.9390416741371156,0.0393117778003215,-18.093881607055664,2.384324550628662,69.22992706298828,28.03,1
-0.3918914198875427,-0.9384893774986268,0.0532169081270694,-22.13363647460937,2.38517165184021,69.2299575805664,28.03,1
-0.4082310497760772,-0.9325371384620668,0.0677381977438926,-23.952281951904297,2.385715246200561,69.22997283935547,28.03,1
-0.4131191074848175,-0.867141842842102,0.0882526710629463,-23.374670028686523,2.386064052581787,69.22998046875,28.03,1
-0.3826693296432495,-0.8139793276786804,0.1070154532790184,-20.33139038085937,2.3862879276275635,69.22998809814453,28.03,1
-0.3631284236907959,-0.7966560125350952,0.1190563291311264,-15.519493103027344,2.3864316940307617,69.22999572753906,28.03,1
-0.3673815131187439,-0.8023322224617004,0.1547723412513733,-10.335687637329102,2.387442111968994,69.22999572753906,28.03,1
-0.3869042098522186,-0.8115726709365845,0.1888883709907531,-5.923499584197998,2.3880906105041504,69.22999572753906,28.03,1
-0.4162260890007019,-0.8398937582969666,0.2107820808887481,-2.877056360244751,2.3885066509246826,69.22999572753906,28.03,1
-0.4406409561634063,-0.8636663556098938,0.2304299771785736,-1.1405616998672483,2.3887736797332764,69.22999572753906,28.03,1
-0.4507112205028534,-0.8789222836494446,0.2430388629436493,0.2783395051956177,2.3889451026916504,69.22999572753906,28.03,1
-0.4403804242610931,-0.9111037254333496,0.2511305212974548,2.231438159942627,2.389055013656616,69.22999572753906,28.03,1
-0.4113596081733703,-0.9485492706298828,0.2563232779502868,4.183426380157471,2.3891255855560303,69.22999572753906,28.03,1
-0.4095290601253509,-0.9781774282455444,0.2316668182611465,5.242640972137451,2.38917088508606,69.22999572753906,28.03,1
-0.4363431930541992,-1.0027889013290403,0.1710615307092666,5.614282608032227,2.388740539550781,69.29448699951172,28.01,1
-0.4759420454502105,-1.1081475019454956,0.1265707612037658,5.637826442718506,2.3884644508361816,69.33586883544922,28.01,1
-0.5573320388793945,-1.0917938947677612,0.137203574180603,4.606823444366455,2.388287305831909,69.3624267578125,28.01,1
-0.6095634698867798,-0.9973325133323668,0.1272337734699249,1.9604380130767824,2.3881735801696777,69.37947082519531,28.01,1
-0.6150937080383301,-1.015081524848938,0.0816513150930404,-1.6545376777648926,2.3881006240844727,69.39041137695312,28.01,1
-0.6410338282585144,-1.0432651042938232,0.0468013398349285,-5.110097408294678,2.3880538940429688,69.39743041992188,28.01,1
-0.6240940690040588,-1.0165694952011108,0.0244366321712732,-7.3384246826171875,2.388023853302002,69.40193176269531,28.01,1
-0.5404520034790039,-0.9546555876731871,0.0156820230185985,-7.543195724487305,2.3880045413970947,69.40482330322266,28.01,1
-0.4643842577934265,-0.914922833442688,0.0044660451821982,-5.990795612335205,2.395337104797364,69.40667724609375,28.01,1
-0.4267638921737671,-0.8782290816307068,-0.025122819468379,-3.819469690322876,2.400042772293091,69.40786743164062,28.01,1
-0.4250124096870422,-0.8490833640098572,-0.0721001252532005,-1.748931050300598,2.403062582015991,69.40863037109375,28.01,1
-0.4350839555263519,-0.8415748476982117,-0.11904077231884,-0.0547557771205902,2.405000686645508,69.40911865234375,28.01,1
-0.4415473043918609,-0.8535496592521667,-0.1435668021440506,0.7458623647689819,2.4062442779541016,69.40943908691406,28.01,1
-0.4400973320007324,-0.8836255073547363,-0.1481106579303741,0.3066878914833069,2.4070425033569336,69.4096450805664,28.01,1
-0.4391668140888214,-0.9197197556495668,-0.1230377703905105,-0.9746875762939452,2.407554626464844,69.40977478027344,28.01,1
-0.4329718947410583,-0.948480784893036,-0.0957518815994262,-2.481272459030152,2.407883405685425,69.40985870361328,28.01,1
-0.4289963543415069,-0.9893290400505066,-0.0782413706183433,-3.964002847671509,2.4071760177612305,69.409912109375,28.01,1
-0.4152495265007019,-1.1051074266433716,-0.0781996771693229,-5.409929275512695,2.406722068786621,69.40994262695312,28.01,1
-0.384036511182785,-1.1066362857818604,-0.0445862784981727,-6.610117435455322,2.406430721282959,69.40996551513672,28.01,1
-0.3863968849182129,-1.023650884628296,0.0049737365916371,-7.140296459197998,2.406243801116944,69.40998077392578,28.01,1
-0.4047049582004547,-0.9983844757080078,0.0367785021662712,-6.764019966125488,2.406123876571656,69.40998840332031,28.01,1
-0.4444428980350494,-0.9877676963806152,0.0627867430448532,-5.576747417449951,2.406046867370605,69.40999603271484,28.01,1
-0.4363577663898468,-0.947367787361145,0.0906728878617286,-3.800955057144165,2.4059975147247314,69.40999603271484,28.01,1
-0.3975825607776642,-0.8990503549575806,0.1141663864254951,-1.8445265293121336,2.405965805053711,69.40999603271484,28.01,1
-0.32791668176651,-0.8512496948242188,0.1516342610120773,-0.259406566619873,2.402272939682007,69.40999603271484,28.01,1
-0.3056002259254455,-0.8261717557907104,0.1924723088741302,1.237897515296936,2.3999030590057373,69.40999603271484,28.01,1
-0.313669890165329,-0.8212737441062927,0.2130820453166961,3.9649908542633057,2.3983821868896484,69.40999603271484,28.01,1
-0.3188485503196716,-0.8349238038063049,0.2095148563385009,8.40201473236084,2.3974063396453857,69.40999603271484,28.01,1
-0.3221718966960907,-0.8604769706726074,0.2016278654336929,12.872346878051758,2.396780014038086,69.40999603271484,28.01,1
-0.3243046402931213,-0.8880710601806641,0.2021642178297042,15.397221565246582,2.3963780403137207,69.40999603271484,28.01,1
-0.3200755417346954,-0.9169749021530152,0.1857151091098785,15.982176780700684,2.396120071411133,69.40999603271484,28.01,1
-0.3229593336582184,-0.941121518611908,0.1583656817674636,15.906163215637209,2.3959546089172363,69.40999603271484,28.01,1
-0.3416033089160919,-0.9566174149513244,0.1408143937587738,15.63884449005127,2.3944711685180664,69.48165130615234,28.05,1
-0.364763468503952,-0.9777573347091676,0.1239532157778739,14.596728324890137,2.393519163131714,69.52763366699219,28.05,1
-0.3964196443557739,-1.0473014116287231,0.0795460417866706,12.265644073486328,2.392908334732056,69.55714416503906,28.05,1
-0.4671147465705871,-1.1367130279541016,0.051048070192337,8.6488037109375,2.3925163745880127,69.57608032226562,28.05,1
-0.534873902797699,-1.1101256608963013,0.0271619390696287,3.8700761795043945,2.3922648429870605,69.5882339477539,28.05,1
-0.5727600455284119,-1.0090967416763306,0.0006376451347023,-1.9767144918441768,2.392103433609009,69.59603118896484,28.05,1
-0.6082687377929688,-0.989044427871704,0.0004092039307579,-8.458770751953125,2.3919997215271,69.60103607177734,28.05,1
-0.6142628192901611,-1.0153604745864868,0.0226537007838487,-14.384791374206545,2.3919332027435303,69.604248046875,28.05,1
-0.550936222076416,-0.9818686246871948,0.0425267145037651,-18.169857025146484,2.3973991870880127,69.60630798339844,28.05,1
-0.4655146300792694,-0.9379843473434448,0.0608778446912765,-19.13003921508789,2.400906801223755,69.60762786865234,28.05,1
-0.3659137785434723,-0.9154197573661804,0.0782523155212402,-17.951358795166016,2.403157949447632,69.60847473144531,28.05,1
-0.3019956946372986,-0.9009390473365784,0.089402250945568,-15.49322509765625,2.404602527618408,69.60902404785156,28.05,1
-0.2889656126499176,-0.886048436164856,0.0797643139958381,-12.418219566345217,2.405529499053955,69.609375,28.05,1
-0.2917992174625397,-0.8764925003051758,0.0623836927115917,-10.140338897705078,2.406124353408813,69.6095962524414,28.05,1
-0.2824220955371856,-0.8591644763946533,0.0512298122048378,-10.34084129333496,2.406506061553955,69.6097412109375,28.05,1
-0.282002180814743,-0.864837646484375,0.0664629936218261,-13.27108669281006,2.4067511558532715,69.60983276367188,28.05,1
-0.2873304784297943,-0.8908694982528687,0.0818365439772605,-17.831315994262695,2.4000227451324463,69.60989379882812,28.05,1
-0.2795543372631073,-0.907575249671936,0.0749090835452079,-22.91093635559082,2.395704746246338,69.60993194580078,28.05,1
-0.2633684873580932,-0.9574804306030272,0.0872567594051361,-27.567949295043945,2.3929336071014404,69.60995483398438,28.05,1
-0.2641769051551819,-1.04548442363739,0.0839852392673492,-30.56371688842773,2.391155242919922,69.60997009277344,28.05,1
-0.2982823550701141,-1.146742582321167,0.093081310391426,-30.401168823242188,2.390014171600342,69.60997772216797,28.05,1
-0.3201692700386047,-1.1221598386764526,0.115711972117424,-25.868791580200195,2.389281749725342,69.6099853515625,28.05,1
-0.3342150151729584,-1.0616018772125244,0.1246372535824775,-16.948610305786133,2.3888118267059326,69.60999298095703,28.05,1
-0.3544243276119232,-1.0451303720474243,0.1191694363951683,-5.509944438934326,2.388510227203369,69.60999298095703,28.05,1
-0.3673934936523437,-0.9897776246070862,0.1212582811713218,5.388230800628662,2.3901526927948,69.60999298095703,28.05,1
-0.3701185882091522,-0.8982776999473572,0.1058054566383361,13.696857452392578,2.391206741333008,69.60999298095703,28.05,1
-0.3662696182727813,-0.8171672224998474,0.0958887264132499,19.906587600708008,2.391883134841919,69.60999298095703,28.05,1
-0.3917884528636932,-0.7819085121154785,0.1007202863693237,25.9265365600586,2.392317295074463,69.60999298095703,28.05,1
-0.430556058883667,-0.7760748267173767,0.1038209050893783,32.480308532714844,2.3925960063934326,69.60999298095703,28.05,1
-0.4666304290294647,-0.8059177398681641,0.1058107018470764,37.95795440673828,2.392774820327759,69.60999298095703,28.05,1
-0.4785853326320648,-0.8418625593185425,0.1294787377119064,39.83595657348633,2.392889499664306,69.60999298095703,28.05,1
-0.469463974237442,-0.8649298548698425,0.1558630615472793,37.42274856567383,2.392963171005249,69.60999298095703,28.05,1
-0.452414870262146,-0.8741353154182434,0.1783927828073501,32.879058837890625,2.39117431640625,69.67448425292969,28.03,1
-0.4526692926883697,-0.8968362212181091,0.1928510665893554,28.813173294067383,2.390026330947876,69.71586608886719,28.03,1
-0.4528325498104095,-0.9393932223320008,0.1965317875146865,25.412172317504883,2.389289617538452,69.74242401123047,28.03,1
-0.4697306454181671,-1.03387713432312,0.1988938599824905,21.158876419067383,2.3888168334960938,69.75946807861328,28.03,1
-0.4917704164981842,-1.1169025897979736,0.2228007912635803,15.33401107788086,2.388513326644897,69.7704086303711,28.03,1
-0.4947187304496765,-1.136596918106079,0.2325451076030731,8.3931245803833,2.3883187770843506,69.77742767333984,28.03,1
-0.4966107904911041,-1.1772243976593018,0.2164073586463928,1.101463794708252,2.3881938457489014,69.78192901611328,28.03,1
-0.4642383456230163,-1.203296780586243,0.2172466218471527,-5.405017375946045,2.3881137371063232,69.78482055664062,28.03,1
-0.3986813724040985,-1.1248663663864136,0.2121874392032623,-9.92084789276123,2.3889803886413574,69.78667449951172,28.03,1
-0.3398173749446869,-1.0521432161331177,0.1977452039718628,-12.20622730255127,2.3895366191864014,69.7878646850586,28.03,1
-0.3076396286487579,-1.0110714435577393,0.1660859137773513,-12.852442741394045,2.3898935317993164,69.78862762451172,28.03,1
-0.2925875782966614,-0.979116141796112,0.1345732510089874,-12.185208320617676,2.390122652053833,69.78911590576172,28.03,1
-0.2941235899925232,-0.9418157339096068,0.1031546890735626,-10.05171012878418,2.3902697563171387,69.78943634033203,28.03,1
-0.2895115315914154,-0.8898895978927612,0.0773942917585372,-6.590329647064209,2.390364170074463,69.78964233398438,28.03,1
-0.2809540033340454,-0.8341752886772156,0.0608627498149871,-2.864332914352417,2.3904247283935547,69.7897720336914,28.03,1
-0.27546226978302,-0.7760300040245056,0.0558515340089798,-0.5090283155441284,2.390463590621948,69.78985595703125,28.03,1
-0.2775357663631439,-0.7387157082557678,0.0582333989441394,-0.4807158410549164,2.394160985946656,69.78990936279297,28.03,1
-0.2956597506999969,-0.7595517039299011,0.0485663935542106,-2.2287564277648926,2.396533727645874,69.7899398803711,28.03,1
-0.2848995625972748,-0.789716362953186,0.0423626638948917,-4.350086688995361,2.398056507110596,69.78996276855469,28.03,1
-0.277994304895401,-0.837063193321228,0.0383814685046672,-5.55021858215332,2.399033546447754,69.78997802734375,28.03,1
-0.295954018831253,-1.0297831296920776,0.0190332420170307,-5.0020060539245605,2.399660587310791,69.78998565673828,28.03,1
-0.3354683816432953,-1.0918841361999512,0.0290077626705169,-2.482736587524414,2.4000630378723145,69.78999328613281,28.03,1
-0.3552286624908447,-1.0701614618301392,0.057799931615591,1.734935283660889,2.400321245193481,69.78999328613281,28.03,1
-0.356714129447937,-1.112198829650879,0.0650815442204475,7.003136157989502,2.400486946105957,69.78999328613281,28.03,1
-0.3576674163341522,-1.1223827600479126,0.0641566887497901,12.150174140930176,2.3982980251312256,69.78999328613281,28.03,1
-0.3750725090503692,-1.0505493879318235,0.0299765206873416,15.94764232635498,2.396893262863159,69.78999328613281,28.03,1
-0.3694487512111664,-0.9652664065361024,0.008041656576097,18.00130271911621,2.395991802215576,69.78999328613281,28.03,1
-0.3602419793605804,-0.8825477957725525,0.0107584465295076,18.50239562988281,2.395413398742676,69.78999328613281,28.03,1
-0.3935180306434631,-0.8350615501403809,0.0069041517563164,17.648883819580078,2.395042181015014,69.78999328613281,28.03,1
-0.4260682165622711,-0.8157831430435181,-0.0011670870007947,16.3344783782959,2.394803762435913,69.78999328613281,28.03,1
-0.4469570517539978,-0.8202047348022461,0.0048488052561879,15.91012954711914,2.394650936126709,69.78999328613281,28.03,1
-0.4547645449638366,-0.8286399841308594,0.014307233504951,15.870675086975098,2.394552707672119,69.78999328613281,28.03,1
-0.4541771709918976,-0.8228577375411987,0.0371704325079917,13.437864303588867,2.391735553741455,69.82940673828125,28.05,1
-0.4761913120746612,-0.8415380716323853,0.0518427155911922,6.735630512237549,2.389927625656128,69.85469818115234,28.05,1
-0.5071120262145996,-0.8647215962409973,0.0668563172221183,-2.5416746139526367,2.3887672424316406,69.87092590332031,28.05,1
-0.5213574171066284,-0.9075883626937866,0.0988822802901268,-10.594704627990724,2.3880226612091064,69.88134002685547,28.05,1
-0.5360970497131348,-0.95189106464386,0.1474235653877258,-15.171550750732422,2.387544870376587,69.88802337646484,28.05,1
-0.5455561280250549,-0.9915175437927246,0.2121612280607223,-16.82256317138672,2.3872382640838623,69.8923110961914,28.05,1
-0.5628219246864319,-1.0841208696365356,0.2425105720758438,-16.914791107177734,2.3870415687561035,69.89506530761719,28.05,1
-0.5515110492706299,-1.1827327013015747,0.2451937198638916,-15.945778846740724,2.38691520690918,69.89683532714844,28.05,1
-0.4602857530117035,-1.2236250638961792,0.2469156086444854,-14.127342224121094,2.386834144592285,69.8979721069336,28.05,1
-0.3849492967128753,-1.1994874477386477,0.2648139297962188,-11.964418411254885,2.386782169342041,69.89869689941406,28.05,1
-0.3366026878356933,-1.1224217414855957,0.2595067322254181,-9.49802303314209,2.386748790740967,69.89916229248047,28.05,1
-0.3391632735729217,-1.0561721324920654,0.2225142270326614,-6.260082721710205,2.386727333068848,69.89945983886719,28.05,1
-0.3575998246669769,-1.0080591440200806,0.1875790208578109,-2.552087545394897,2.38671350479126,69.89965057373047,28.05,1
-0.3638335764408111,-0.9491941332817078,0.1651596128940582,0.2824776172637939,2.386704683303833,69.89977264404297,28.05,1
-0.3510407209396362,-0.894624650478363,0.1563699096441269,1.363527774810791,2.3866989612579346,69.89985656738281,28.05,1
-0.3036465644836426,-0.8260184526443481,0.1451314091682434,1.2619518041610718,2.386695384979248,69.89990997314453,28.05,1
-0.2788295149803161,-0.7651976346969604,0.1435169577598571,1.0821237564086914,2.3889880180358887,69.89994049072266,28.05,1
-0.2740989029407501,-0.7429596185684204,0.1312853395938873,1.3213955163955688,2.3904592990875244,69.89996337890625,28.05,1
-0.2878564000129699,-0.762275218963623,0.1066424697637558,1.951428890228272,2.3914036750793457,69.89997863769531,28.05,1
-0.2966851592063904,-0.7914641499519348,0.0964258685708046,3.1725752353668213,2.3920094966888428,69.89998626708984,28.05,1
-0.3023509383201599,-0.8661736845970154,0.0786738917231559,5.267459392547607,2.3923983573913574,69.89999389648438,28.05,1
-0.3171824514865875,-1.0540623664855957,0.0504883751273155,7.396419525146484,2.3926479816436768,69.89999389648438,28.05,1
-0.354689359664917,-1.2026273012161257,0.0491938553750515,7.66639518737793,2.392808198928833,69.89999389648438,28.05,1
-0.3731613457202911,-1.1356322765350342,0.0483631081879138,5.181379318237305,2.392910957336426,69.89999389648438,28.05,1
-0.3626244962215423,-1.0926387310028076,0.0366344340145587,0.7707345485687256,2.394354343414306,69.89999389648438,28.05,1
-0.3502647876739502,-1.1210256814956665,0.0179120972752571,-4.284543037414551,2.395280599594116,69.89999389648438,28.05,1
-0.3703218996524811,-1.04408061504364,0.0114949531853199,-8.227331161499023,2.3958749771118164,69.89999389648438,28.05,1
-0.3719978630542755,-0.95551735162735,0.0073767993599176,-8.873150825500488,2.396256446838379,69.89999389648438,28.05,1
-0.373073399066925,-0.865095853805542,0.0047340053133666,-6.088360786437988,2.396501302719116,69.89999389648438,28.05,1
-0.3793613910675049,-0.8014708161354065,0.0086357863619923,-2.1731927394866943,2.396658420562744,69.89999389648438,28.05,1
-0.4113855361938476,-0.771835446357727,0.0055419504642486,1.6075685024261477,2.396759271621704,69.89999389648438,28.05,1
-0.4431323409080505,-0.7696105241775513,-0.0020412695594131,5.520611763000488,2.39682412147522,69.89999389648438,28.05,1
-0.4635055959224701,-0.7681826949119568,0.004287804942578,8.17866325378418,2.393651962280273,69.85342407226562,28.03,1
-0.4765799939632416,-0.7840597033500671,0.0307405404746532,7.1222825050354,2.3916163444519043,69.82353210449219,28.03,1
-0.4793726205825805,-0.8110419511795044,0.0533141531050205,2.8367044925689697,2.390310049057007,69.80435180664062,28.03,1
-0.5035558342933655,-0.8619442582130432,0.0789961516857147,-1.5937607288360596,2.3894717693328857,69.79204559326172,28.03,1
-0.5190752744674683,-0.939392626285553,0.1122706979513168,-4.569533824920654,2.388933658599853,69.78414916992188,28.03,1
-0.5346325039863586,-1.0170834064483645,0.1504177153110504,-6.644011974334717,2.3885884284973145,69.7790756225586,28.03,1
-0.561409592628479,-1.094929814338684,0.2252782434225082,-7.978875160217285,2.388366937637329,69.77582550048828,28.03,1
-0.5673980116844177,-1.1057026386260986,0.2677216529846191,-7.986443519592285,2.388224840164185,69.77373504638672,28.03,1
-0.5040677189826965,-1.13500714302063,0.255774974822998,-6.852041244506836,2.38951063156128,69.77239227294922,28.03,1
-0.4298393726348877,-1.1818020343780518,0.2425104975700378,-5.328715324401856,2.39033579826355,69.77153778076172,28.03,1
-0.3710083365440368,-1.189441204071045,0.239595890045166,-3.4196627140045166,2.3908653259277344,69.77098846435547,28.03,1
-0.3332539498806,-1.1159746646881104,0.2209321409463882,-0.6755307912826538,2.391205310821533,69.7706298828125,28.03,1
-0.3146231472492218,-1.0464370250701904,0.2033570557832718,2.3644747734069824,2.391423463821411,69.77040100097656,28.03,1
-0.3138625025749206,-1.0074094533920288,0.1864805966615677,3.9499526023864746,2.391563415527344,69.77025604248047,28.03,1
-0.3189721405506134,-0.9655705690383912,0.1532591581344604,2.832206010818481,2.391653299331665,69.7701644897461,28.03,1
-0.3166534602642059,-0.9275252223014832,0.1319395452737808,-0.0919658988714218,2.3917107582092285,69.77010345458984,28.03,1
-0.292774349451065,-0.8919143676757812,0.118257850408554,-2.563238859176636,2.388075590133667,69.77006530761719,28.03,1
-0.2718523442745209,-0.8522680401802063,0.1038799509406089,-3.235602855682373,2.385742664337158,69.7700424194336,28.03,1
-0.269621342420578,-0.8324230909347534,0.1002508178353309,-2.513497829437256,2.3842456340789795,69.77002716064453,28.03,1
-0.2737874090671539,-0.830883264541626,0.0979218482971191,-1.2475955486297607,2.3832848072052,69.77001953125,28.03,1
-0.2764609456062317,-0.8131017684936523,0.0852317065000534,0.5786564946174622,2.382668256759644,69.77001190185547,28.03,1
-0.3005677461624145,-0.8296794891357422,0.0658923536539077,3.402207374572754,2.382272720336914,69.77000427246094,28.03,1
-0.321635901927948,-0.901893675327301,0.0310903713107109,6.819193363189697,2.382018804550171,69.77000427246094,28.03,1
-0.3687428534030914,-1.037800908088684,0.0087564615532755,9.62105655670166,2.381855726242065,69.77000427246094,28.03,1
-0.4045711755752563,-1.0130629539489746,0.0112171676009893,10.95339584350586,2.388636827468872,69.77000427246094,28.03,1
-0.4219659566879272,-1.0195785760879517,0.007198532577604,10.923518180847168,2.392988681793213,69.77000427246094,28.03,1
-0.4555200040340423,-1.0349555015563965,0.0158151518553495,10.546087265014648,2.3957815170288086,69.77000427246094,28.03,1
-0.4826508462429046,-0.9608569145202636,0.004551479127258,11.267586708068848,2.397573709487915,69.77000427246094,28.03,1
-0.4776707589626312,-0.8797180652618408,0.0029208774212747,13.536221504211426,2.398723840713501,69.77000427246094,28.03,1
-0.4800726175308227,-0.805256724357605,0.0186677742749452,15.604721069335938,2.3994619846343994,69.77000427246094,28.03,1
-0.4872117638587951,-0.7630695104598999,0.0343709997832775,15.02623462677002,2.399935722351074,69.77000427246094,28.03,1
-0.5197821259498596,-0.7583872675895691,0.0388506539165973,11.982394218444824,2.4002397060394287,69.77000427246094,28.03,1
-0.5294883251190186,-0.7665780186653137,0.0585187599062919,9.291022300720217,2.3976800441741943,69.73059844970703,28.03,1
-0.5189239382743835,-0.7718343734741211,0.0991294905543327,8.083328247070312,2.396037340164185,69.70530700683594,28.03,1
-0.5009487271308899,-0.769609808921814,0.1475822180509567,5.936172962188721,2.394983291625977,69.68907928466797,28.03,1
-0.4838155210018158,-0.784975528717041,0.1954697072505951,0.9505987763404846,2.394306898117065,69.67866516113281,28.03,1
-0.5287981629371643,-0.8676074743270874,0.2038100510835647,-5.301210403442383,2.393872737884521,69.67198181152344,28.03,1
-0.5576654076576233,-0.9542225003242492,0.2147601693868637,-10.667475700378418,2.393594026565552,69.66769409179688,28.03,1
-0.548201858997345,-1.0433937311172483,0.2385806590318679,-15.110774040222168,2.3934152126312256,69.6649398803711,28.03,1
-0.5701175928115845,-1.0726298093795776,0.2706606090068817,-19.05133056640625,2.3933005332946777,69.66316986083984,28.03,1
-0.5841818451881409,-1.0298162698745728,0.2856498956680298,-21.594482421875,2.3881776332855225,69.66203308105469,28.03,1
-0.5820119380950928,-0.9855477213859558,0.2672802805900574,-21.725431442260746,2.384890079498291,69.66130828857422,28.03,1
-0.5750216245651245,-0.9795297980308532,0.255491703748703,-19.79964256286621,2.3827803134918213,69.66084289550781,28.03,1
-0.5649378895759583,-1.031645655632019,0.2479264885187149,-16.77249526977539,2.3814263343811035,69.6605453491211,28.03,1
-0.5192822813987732,-1.00911283493042,0.2318760156631469,-12.784193992614746,2.3805572986602783,69.66035461425781,28.03,1
-0.4675920605659485,-0.9722614288330078,0.2159779667854309,-7.978457450866699,2.37999963760376,69.66023254394531,28.03,1
-0.4120291471481323,-0.9318190217018129,0.1945799738168716,-4.26387882232666,2.3796417713165283,69.66014862060547,28.03,1
-0.3819698393344879,-0.9002676010131836,0.15845687687397,-3.8504929542541504,2.379412174224853,69.66009521484375,28.03,1
-0.373875081539154,-0.8744219541549683,0.1128840520977974,-6.1933207511901855,2.3847734928131104,69.66006469726562,28.03,1
-0.3798758685588836,-0.8522379398345947,0.0724424868822097,-8.685603141784668,2.388214111328125,69.66004180908203,28.03,1
-0.3781290650367737,-0.8268059492111206,0.0520871914923191,-9.808524131774902,2.390422105789185,69.66002655029297,28.03,1
-0.3770080506801605,-0.8440718054771423,0.0446221083402633,-9.640671730041504,2.391839027404785,69.66001892089844,28.03,1
-0.3762886524200439,-0.8607498407363892,0.0342336744070053,-8.225314140319824,2.3927483558654785,69.6600112915039,28.03,1
-0.3758269846439361,-0.8658550977706909,0.0443602986633777,-5.411088466644287,2.39333176612854,69.6600112915039,28.03,1
-0.3755307197570801,-0.8915224075317383,0.0396634340286254,-1.570177435874939,2.3937063217163086,69.6600112915039,28.03,1
-0.3809383511543274,-0.9527764320373536,0.0310514830052852,2.7612199783325195,2.393946647644043,69.6600112915039,28.03,1
-0.401201993227005,-1.059259057044983,0.0647092461585998,7.2461676597595215,2.397773265838623,69.6600112915039,28.03,1
-0.4030104875564575,-1.015637993812561,0.1086999624967575,11.482144355773926,2.400228977203369,69.6600112915039,28.03,1
-0.3873777389526367,-0.9148734211921692,0.1369306743144989,14.89915370941162,2.4018049240112305,69.6600112915039,28.03,1
-0.3885411024093628,-0.93977290391922,0.1438519656658172,17.027507781982422,2.40281629562378,69.6600112915039,28.03,1
-0.4004832208156585,-0.950154185295105,0.1538914293050766,17.795072555541992,2.4034652709960938,69.6600112915039,28.03,1
-0.3969514369964599,-0.8840451836585999,0.1771274954080581,17.40991973876953,2.403881788253784,69.6600112915039,28.03,1
-0.3722938597202301,-0.8304247260093689,0.1976368427276611,15.901683807373049,2.404149055480957,69.6600112915039,28.03,1
-0.3676655888557434,-0.818405270576477,0.2219941169023513,13.665553092956545,2.40432071685791,69.6600112915039,28.03,1
-0.403879851102829,-0.8106918931007385,0.2432229816913604,12.327262878417969,2.396167993545532,69.8248062133789,28.03,1
-0.4551089406013489,-0.8057419061660767,0.24565090239048,13.134323120117188,2.3909358978271484,69.9305648803711,28.03,1
-0.5103759169578552,-0.8137608170509338,0.2416112273931503,14.40817165374756,2.387578248977661,69.9984359741211,28.03,1
-0.5402452945709229,-0.8245046734809875,0.2390187978744506,12.882649421691896,2.3854236602783203,70.04198455810547,28.03,1
-0.5370226502418518,-0.8425949811935425,0.2261595726013183,7.557992935180664,2.3840408325195312,70.06993865966797,28.03,1
-0.5237590074539185,-0.8653998970985413,0.2011139392852783,0.2574229836463928,2.3831534385681152,70.08787536621094,28.03,1
-0.5320404767990112,-0.8744369745254517,0.1738455444574356,-7.111011981964111,2.3825838565826416,70.0993881225586,28.03,1
-0.5597461462020874,-0.9026275277137756,0.122759610414505,-13.681093215942385,2.382218360900879,70.10677337646484,28.03,1
-0.5887216329574585,-0.9319141507148744,0.0619867295026779,-18.244903564453125,2.387492418289185,70.11151123046875,28.03,1
-0.6353052854537964,-1.0570663213729858,-0.0273937787860631,-19.3143367767334,2.3908770084381104,70.11455535888672,28.03,1
-0.6987866163253784,-1.0366219282150269,-0.0903508216142654,-17.141742706298828,2.3930490016937256,70.11650848388672,28.03,1
-0.6779497861862183,-1.0067085027694702,-0.1363507956266403,-13.906052589416504,2.3944430351257324,70.11775970458984,28.03,1
-0.6421868205070496,-1.0322940349578855,-0.1770664751529693,-11.242030143737791,2.395337581634521,70.11856079101562,28.03,1
-0.619236171245575,-1.0487133264541626,-0.1752065867185592,-9.041601181030272,2.395911693572998,70.11907958984375,28.03,1
-0.5821166634559631,-0.9584903120994568,-0.2299907654523849,-6.862821578979492,2.39628005027771,70.1194076538086,28.03,1
-0.4911222159862518,-0.8837971091270447,-0.1867792606353759,-4.966628074645996,2.3965165615081787,70.11962127685547,28.03,1
-0.4607160985469818,-0.824667751789093,-0.1702441424131393,-3.5849618911743164,2.394831895828247,70.11975860595703,28.03,1
-0.430007666349411,-0.7979174852371216,-0.1540350914001464,-2.6696274280548096,2.393750667572021,70.11984252929688,28.03,1
-0.4214963018894195,-0.7751529216766357,-0.1436330527067184,-2.6733434200286865,2.393056869506836,70.11990356445312,28.03,1
-0.4160341918468475,-0.7717394828796387,-0.1369576156139373,-4.302217483520508,2.392611503601074,70.11994171142578,28.03,1
-0.412528932094574,-0.7919400334358215,-0.1046848371624946,-7.167483806610107,2.3923258781433105,70.11996459960938,28.03,1
-0.4158772230148315,-0.8384901881217957,-0.0727784782648086,-10.002202987670898,2.392142534255981,70.11997985839844,28.03,1
-0.4180259704589844,-0.8795589804649353,-0.052302811294794,-12.154541969299316,2.3920247554779053,70.11998748779297,28.03,1
-0.4138071537017822,-0.9003167748451233,-0.0447604842483997,-13.668343544006348,2.39194917678833,70.1199951171875,28.03,1
-0.4222953021526336,-1.0311912298202517,-0.0175291541963815,-14.238566398620604,2.38685154914856,70.1199951171875,28.03,1
-0.4277425110340118,-1.0592011213302612,0.0447285436093807,-13.175055503845217,2.383580207824707,70.1199951171875,28.03,1
-0.4032493233680725,-0.998807430267334,0.090279720723629,-10.271358489990234,2.3814806938171387,70.1199951171875,28.03,1
-0.3651399314403534,-0.999234676361084,0.0971207469701767,-6.140161991119385,2.380133390426636,70.1199951171875,28.03,1
-0.3518790602684021,-1.0330954790115356,0.0959131494164466,-1.747866153717041,2.379268884658813,70.1199951171875,28.03,1
-0.3881511986255646,-0.9820543527603148,0.1119315102696418,2.4680609703063965,2.378714084625244,70.1199951171875,28.03,1
-0.383439689874649,-0.8989191055297852,0.116613395512104,6.8359150886535645,2.3783578872680664,70.1199951171875,28.03,1
-0.363622784614563,-0.8511654734611511,0.1196179613471031,11.322763442993164,2.378129482269287,70.1199951171875,28.03,1
-0.3900898694992065,-0.8485088348388672,0.1327416598796844,15.018991470336914,2.379818916320801,70.2346420288086,28.03,1
-0.4238682389259338,-0.8579995036125183,0.1467614769935608,17.648963928222656,2.380903005599976,70.30821228027344,28.03,1
-0.4567407965660095,-0.8752856254577637,0.1613563597202301,20.207294464111328,2.381598711013794,70.35543060302734,28.03,1
-0.4890320599079132,-0.8807810544967651,0.1763202846050262,23.042081832885746,2.382045269012451,70.38572692871094,28.03,1
-0.5041569471359253,-0.8787099719047546,0.1915210485458374,25.00458717346192,2.3823318481445312,70.4051742553711,28.03,1
-0.4802765846252441,-0.8773808479309082,0.195678249001503,25.576156616210938,2.3825156688690186,70.41764831542969,28.03,1
-0.4537560045719147,-0.887723445892334,0.1927483230829239,25.89638328552246,2.382633686065674,70.4256591796875,28.03,1
-0.453529953956604,-0.9279473423957824,0.185270294547081,26.807653427124023,2.382709264755249,70.43080139160156,28.03,1
-0.4701781868934631,-0.9537607431411744,0.1468846797943115,27.478435516357425,2.3822989463806152,70.43409729003906,28.03,1
-0.4808620810508728,-0.9815218448638916,0.1054576784372329,26.74456787109375,2.382035493850708,70.43621063232422,28.03,1
-0.5213050246238708,-1.1280860900878906,0.0788722187280654,24.48590850830078,2.381866455078125,70.43756866455078,28.03,1
-0.5640522837638855,-1.1269804239273071,0.078604519367218,21.09109306335449,2.381757974624634,70.43843841552734,28.03,1
-0.5858872532844543,-1.0646953582763672,0.0504438541829586,16.63397789001465,2.381688356399536,70.43899536132812,28.03,1
-0.6110952496528625,-1.0807021856307983,0.015578637830913,11.136881828308104,2.381643772125244,70.4393539428711,28.03,1
-0.6216744780540466,-1.0909744501113892,-0.0067958505824208,4.768179416656494,2.381615161895752,70.43958282470703,28.03,1
-0.566888153553009,-1.0415887832641602,-0.0043611857108771,-2.138374090194702,2.381596803665161,70.43973541259766,28.03,1
-0.4981427788734436,-0.9987004399299622,-0.0083965323865413,-8.594758033752441,2.387552499771118,70.43983459472656,28.03,1
-0.426037073135376,-0.965579390525818,-0.0277795083820819,-13.54417324066162,2.391374588012696,70.43989562988281,28.03,1
-0.4021548926830292,-0.9275308847427368,-0.0570117123425006,-17.297218322753906,2.393827438354492,70.43993377685547,28.03,1
-0.392426460981369,-0.9031135439872742,-0.092564582824707,-20.601348876953125,2.3954014778137207,70.43995666503906,28.03,1
-0.3973788619041443,-0.8874439001083374,-0.1321736872196197,-22.86147117614746,2.396411657333374,70.43997192382812,28.03,1
-0.4005570113658905,-0.8829857707023621,-0.1519947499036789,-23.598955154418945,2.397059917449951,70.43997955322266,28.03,1
-0.4025965631008148,-0.8913203477859497,-0.1591169983148574,-24.082977294921875,2.3974759578704834,70.43998718261719,28.03,1
-0.4095032215118408,-0.9134623408317566,-0.1524921059608459,-25.13160514831543,2.397742986679077,70.43999481201172,28.03,1
-0.4083377420902252,-0.9276717901229858,-0.137045070528984,-25.59676551818848,2.3933238983154297,70.43999481201172,28.03,1
-0.4187853336334228,-1.048746109008789,-0.0991431847214698,-24.7524356842041,2.3904879093170166,70.43999481201172,28.03,1
-0.4198922216892242,-1.0928579568862915,-0.0636243894696235,-23.45108795166016,2.3886680603027344,70.43999481201172,28.03,1
-0.3870159089565277,-1.0092109441757202,-0.0016460526967421,-21.609254837036133,2.387500047683716,70.43999481201172,28.03,1
-0.3659178018569946,-1.011508822441101,0.0381280779838562,-17.37849998474121,2.3867504596710205,70.43999481201172,28.03,1
-0.3691715598106384,-1.0017879009246826,0.063652828335762,-10.07416534423828,2.3862695693969727,70.43999481201172,28.03,1
-0.3936507403850555,-0.956365168094635,0.0912286937236785,-1.5927164554595947,2.385960817337036,70.43999481201172,28.03,1
-0.4037622809410095,-0.8992266058921814,0.120120845735073,5.516086578369141,2.3857626914978027,70.43999481201172,28.03,1
-0.3710668683052063,-0.8513628244400024,0.1442599445581436,9.64461612701416,2.383340120315552,70.55821990966797,28.05,1
-0.3556826114654541,-0.8374398946762085,0.1765443384647369,10.051376342773438,2.3817856311798096,70.63409423828125,28.05,1
-0.3626032173633575,-0.8397005200386047,0.2084581553936004,7.363951683044434,2.3807880878448486,70.68278503417969,28.05,1
-0.3894355595111847,-0.8523468375205994,0.2289386093616485,3.8301165103912354,2.380147933959961,70.71402740478516,28.05,1
-0.4010572433471679,-0.8660602569580078,0.2532773315906524,1.3294368982315063,2.37973690032959,70.73407745361328,28.05,1
-0.4029175937175751,-0.8804585337638855,0.2688965201377868,0.0005030806642025,2.3794732093811035,70.7469482421875,28.05,1
-0.3873181343078613,-0.900894045829773,0.2901155650615692,-0.3615172803401947,2.3793039321899414,70.75520324707031,28.05,1
-0.399698406457901,-0.9196062088012696,0.286939412355423,0.5275049805641174,2.37919545173645,70.76050567626953,28.05,1
-0.4020455777645111,-0.9540056586265564,0.2345211654901504,2.2695305347442627,2.3791258335113525,70.76390838623047,28.05,1
-0.4147473871707916,-0.9816790223121644,0.1840888261795044,3.631077527999878,2.379081010818481,70.7660903930664,28.05,1
-0.4452897906303406,-1.0442204475402832,0.1181376129388809,3.9065499305725098,2.3790524005889893,70.76748657226562,28.05,1
-0.5488567352294922,-1.145931363105774,0.1261938959360122,3.1876883506774902,2.3790340423583984,70.76838684082031,28.05,1
-0.6209178566932678,-1.048868179321289,0.1313639432191848,1.4760453701019287,2.379022121429444,70.76896667480469,28.05,1
-0.6111847758293152,-0.9753830432891846,0.0563129447400569,-1.3456073999404907,2.379014492034912,70.76933288574219,28.05,1
-0.6105363965034485,-0.9842022657394408,0.0137473074719309,-4.911843776702881,2.37900972366333,70.76956939697266,28.05,1
-0.6437069773674011,-0.9954596757888794,-0.0079710930585861,-8.407776832580566,2.3790066242218018,70.76972198486328,28.05,1
-0.5978206396102905,-0.9579018354415894,-0.0219087116420269,-10.988027572631836,2.385431289672852,70.76982116699219,28.05,1
-0.5403845310211182,-0.9226038455963136,-0.0252552982419729,-11.87721347808838,2.389554262161255,70.76988220214844,28.05,1
-0.4755364954471588,-0.8943538665771484,-0.0385984927415847,-10.484589576721191,2.392200231552124,70.7699203491211,28.05,1
-0.439518541097641,-0.8706268668174744,-0.058356937021017,-6.961273193359375,2.3938982486724854,70.76995086669922,28.05,1
-0.4331976175308227,-0.8609980344772339,-0.0822323188185691,-2.4145288467407227,2.3949880599975586,70.76996612548828,28.05,1
-0.4179456532001495,-0.86041659116745,-0.1143474876880645,1.6604821681976318,2.3956873416900635,70.76997375488281,28.05,1
-0.4025600552558899,-0.8544456362724304,-0.1349571496248245,3.928079605102539,2.3961360454559326,70.76998138427734,28.05,1
-0.4038819968700409,-0.8842005133628845,-0.1257921457290649,3.617083549499512,2.396424055099488,70.76998901367188,28.05,1
-0.4103281199932098,-0.9200887680053712,-0.1143128052353859,1.3252800703048706,2.397067785263061,70.76998901367188,28.05,1
-0.4088670909404754,-0.937521994113922,-0.1013482511043548,-1.0518592596054075,2.3974809646606445,70.76998901367188,28.05,1
-0.3911361694335937,-1.0326762199401855,-0.0986261218786239,-2.287181615829468,2.397746086120605,70.76998901367188,28.05,1
-0.3909530341625213,-1.082545280456543,-0.0744881182909011,-3.187417984008789,2.397916316986084,70.76998901367188,28.05,1
-0.3964332938194275,-1.0025928020477295,0.0025777830742299,-5.155177116394043,2.3980255126953125,70.76998901367188,28.05,1
-0.4055479764938354,-0.9288928508758544,0.052034243941307,-8.24866771697998,2.3980956077575684,70.76998901367188,28.05,1
-0.4057994782924652,-0.9599652886390686,0.0669792294502258,-11.373150825500488,2.3981404304504395,70.76998901367188,28.05,1
-0.4115586578845978,-0.9799057841300964,0.1213522553443908,-13.027172088623049,2.3981692790985107,70.76998901367188,28.05,1
-0.4096567928791046,-0.9647135734558104,0.1674412786960601,-11.699049949645996,2.3931381702423096,70.82373046875,28.03,1
-0.3860451877117157,-0.9381707906723022,0.1858230233192443,-7.371638774871826,2.389909505844116,70.85821533203125,28.03,1
-0.3317081928253174,-0.9099416136741638,0.2815859913825989,-2.104665279388428,2.3878374099731445,70.8803482055664,28.03,1
-0.3472177982330322,-0.9086190462112428,0.3654322326183319,2.4791200160980225,2.386507749557495,70.8945541381836,28.03,1
-0.3795620799064636,-0.8741836547851562,0.2904911041259765,6.807186603546143,2.38565444946289,70.90367126464844,28.03,1
-0.3611343502998352,-0.8688783645629883,0.247995987534523,11.15385913848877,2.3851068019866943,70.9095230102539,28.03,1
-0.3381129503250122,-0.8542781472206116,0.2263228446245193,14.34813404083252,2.384755373001098,70.91327667236328,28.03,1
-0.3065458238124847,-0.8393108248710632,0.2068164944648742,15.785415649414062,2.384529829025269,70.91568756103516,28.03,1
-0.2471034377813339,-0.8409011960029602,0.1998962163925171,16.4390869140625,2.378417730331421,70.91722869873047,28.03,1
-0.3209122121334076,-0.8643128871917725,0.1450752019882202,17.09502601623535,2.374495267868042,70.91822052001953,28.03,1
-0.3794739842414856,-0.8681416511535645,0.1266875565052032,17.286684036254883,2.371978044509888,70.91885375976562,28.03,1
-0.4282511174678802,-0.881794273853302,0.1036918759346008,16.25250816345215,2.3703627586364746,70.91926574707031,28.03,1
-0.470749020576477,-0.9297401309013368,0.0833368003368377,13.905022621154783,2.369326114654541,70.91952514648438,28.03,1
-0.5372061729431152,-0.9661068320274352,0.1094585061073303,10.360055923461914,2.368660926818848,70.91969299316406,28.03,1
-0.6078433990478516,-0.9446626901626588,0.1206241399049758,5.258448123931885,2.3682339191436768,70.9197998046875,28.03,1
-0.6587720513343811,-1.0036721229553225,0.1165940538048744,-1.436829686164856,2.367959976196289,70.91986846923828,28.03,1
-0.6522707343101501,-1.1199097633361816,0.12520332634449,-8.209033012390137,2.3682429790496826,70.91991424560547,28.03,1
-0.5921208262443542,-1.1385266780853271,0.1531193554401397,-12.63386058807373,2.368424654006958,70.9199447631836,28.03,1
-0.4303690195083618,-1.0553117990493774,0.1878275722265243,-13.442139625549316,2.3685412406921387,70.91996765136719,28.03,1
-0.3265660405158996,-0.9851159453392028,0.1765146702528,-11.395722389221191,2.368616104125977,70.91997528076172,28.03,1
-0.2767445743083954,-0.9456660747528076,0.1636569201946258,-8.129945755004883,2.368664026260376,70.91998291015625,28.03,1
-0.289554238319397,-0.9147516489028932,0.1274166852235794,-4.844743251800537,2.36869478225708,70.91999053955078,28.03,1
-0.3145680427551269,-0.8781192302703857,0.098562017083168,-2.446300983428955,2.368714570999145,70.91999053955078,28.03,1
-0.3306204676628113,-0.8210240006446838,0.0912403017282486,-1.9603959321975708,2.368727207183838,70.91999053955078,28.03,1
-0.3297264575958252,-0.778785765171051,0.0921394228935241,-3.773037433624268,2.3714895248413086,70.91999053955078,28.03,1
-0.3347505033016205,-0.7740707993507385,0.0815208777785301,-7.007014751434326,2.373262405395508,70.91999053955078,28.03,1
