acc_x,acc_y,acc_z,bvp,eda,hr,temp,label
0.0,0.0,0.0,0.0,0.0,0.0,25.93,1
-0.0677083283662796,-0.1223958283662796,0.0833333283662796,7.466666221618652,1.7395579814910889,11.833333015441896,25.93,1
-0.1711128056049347,-0.2865853607654571,0.1951219588518142,15.90000057220459,4.073111534118652,27.70731735229492,25.93,1
-0.261056900024414,-0.4294019937515259,0.2973422110080719,23.38863754272461,6.102901458740234,41.514949798583984,25.93,1
-0.3053231537342071,-0.5549472570419312,0.334549993276596,29.96918296813965,7.583742618560791,51.58836364746094,25.93,1
-0.3298035562038421,-0.6234775185585022,0.3597412407398224,32.74858856201172,8.586334228515625,58.40848922729492,25.93,1
-0.3847377598285675,-0.6628901362419128,0.3596110939979553,29.50431632995605,9.244178771972656,62.88347244262695,25.93,1
-0.4426333010196686,-0.6828364133834839,0.3651061356067657,22.011293411254883,9.670232772827148,65.78170013427734,25.93,1
-0.468747615814209,-0.7459968328475952,0.3462851643562317,14.29012966156006,10.005196571350098,67.6486587524414,25.93,1
-0.4743431210517883,-0.7865927219390869,0.3285934925079345,9.320249557495115,10.220492362976074,68.8486328125,25.93,1
-0.5339011549949646,-0.8518369197845459,0.278057336807251,7.554357051849365,10.358744621276855,69.61920166015625,25.93,1
-0.4993679821491241,-0.8433427810668945,0.3015899956226349,8.383874893188477,10.447490692138672,70.11383819580078,25.93,1
-0.4716066122055053,-0.8378911018371582,0.3278886675834656,11.843119621276855,10.504448890686035,70.4312973022461,25.93,1
-0.4705832302570343,-0.8231970071792603,0.3335710167884826,17.566865921020508,10.541003227233888,70.6350326538086,25.93,1
-0.4811219274997711,-0.8193647265434265,0.3372176885604858,23.758638381958008,10.564462661743164,70.76578521728516,25.93,1
-0.4654940962791443,-0.8113076090812683,0.339557945728302,27.35960578918457,10.579517364501951,70.84969329833984,25.93,1
-0.4498672485351562,-0.8061370253562927,0.3466575443744659,25.75117301940918,10.678855895996094,70.9035415649414,25.89,1
-0.4510343670845032,-0.8084166049957275,0.3456158936023712,18.367067337036133,10.742605209350586,70.93809509277344,25.89,1
-0.4517833590507507,-0.8098795413970947,0.3449474275112152,7.434099197387695,10.78351593017578,70.96027374267578,25.89,1
-0.4466662406921386,-0.8108183145523071,0.3445184528827667,-5.163704872131348,10.809770584106444,70.97450256347656,25.89,1
-0.4433823525905609,-0.805823028087616,0.3442431390285492,-19.926172256469727,10.826619148254396,70.98363494873047,25.89,1
-0.4412749409675598,-0.8082150816917419,0.3440664708614349,-37.28512191772461,10.837430953979492,70.98949432373047,25.89,1
-0.4399225413799286,-0.8041524291038513,0.3383553326129913,-56.35333633422852,10.844369888305664,70.99325561523438,25.89,1
-0.4334568679332733,-0.801545262336731,0.3346902430057525,-75.0854263305664,10.848822593688965,70.99567413330078,25.89,1
-0.4349053502082824,-0.799872100353241,0.3323381841182709,-94.25743103027344,10.472967147827148,70.99722290039062,25.89,1
-0.4414326846599579,-0.8099939227104187,0.3364265561103821,-112.08882904052734,10.231764793395996,70.99821472167969,25.89,1
-0.4512193202972412,-0.8164895176887512,0.3334524631500244,-125.09041595458984,10.076974868774414,70.99885559082031,25.89,1
-0.4630976021289825,-0.8206580281257629,0.3371416330337524,-131.675048828125,9.977639198303224,70.999267578125,25.89,1
-0.4595248401165008,-0.8289309144020081,0.3339113593101501,-136.96829223632812,9.913891792297363,70.99952697753906,25.89,1
-0.4516342878341675,-0.8230444192886353,0.3262405693531036,-146.6884307861328,9.872982025146484,70.99969482421875,25.89,1
-0.4409728050231933,-0.8192667961120605,0.3101223707199096,-157.86305236816406,9.846728324890137,70.99980163574219,25.89,1
-0.4341308772563934,-0.8168425559997559,0.2997786402702331,-166.79331970214844,9.829880714416504,70.99987030029297,25.89,1
-0.4353379011154175,-0.798493504524231,0.2819450795650482,-174.3370361328125,9.750507354736328,83.29889678955078,25.89,1
-0.4305147230625152,-0.8035114407539368,0.2760982811450958,-188.3244781494141,9.699570655822754,91.19170379638672,25.89,1
-0.4162239134311676,-0.7955361008644104,0.2667483687400818,-206.5975952148437,9.666882514953612,96.2568588256836,25.89,1
-0.4070529043674469,-0.8240046501159668,0.2607481479644775,-221.6273651123047,9.645904541015623,99.50737762451172,25.89,1
-0.40116748213768,-0.8758607506752014,0.2568975389003753,-221.81460571289065,9.632442474365234,101.59337615966795,25.89,1
-0.4085861146450043,-0.914736807346344,0.2488286644220352,-169.618408203125,9.62380313873291,102.93205261230467,25.89,1
-0.4133469462394714,-0.9005007743835449,0.2604438662528991,-84.26411437988281,9.61825942993164,103.7911376953125,25.89,1
-0.4164021909236908,-0.8633760809898376,0.2790933549404144,-5.094883918762207,9.614701271057127,104.34244537353516,25.89,1
-0.4071673154830932,-0.789171576499939,0.2910615503787994,55.00098419189453,9.611958503723145,104.6962432861328,25.89,1
-0.4012409150600433,-0.7583447694778442,0.3043398261070251,95.11473083496094,9.610198974609377,104.9232940673828,25.89,1
-0.4086332321166992,-0.8337240219116211,0.3128610551357269,109.07433319091795,9.60906982421875,105.06900024414062,25.89,1
-0.4077794253826141,-0.8653047680854797,0.3407205641269684,102.61339569091795,9.60834503173828,105.16250610351562,25.89,1
-0.3904381692409515,-0.8799737095832825,0.3530014455318451,89.6683349609375,9.607879638671877,105.2225112915039,25.89,1
-0.3737117648124695,-0.8502029776573181,0.3384914994239807,81.85891723632812,9.60758113861084,105.26101684570312,25.89,1
-0.3853688240051269,-0.8199023008346558,0.3235820829868316,85.22334289550781,9.607389450073242,105.28572845458984,25.89,1
-0.3872518837451935,-0.8172503709793091,0.3587962687015533,96.3603744506836,9.607266426086426,105.30158996582033,25.89,1
-0.3436781466007232,-0.7819618582725525,0.3478080630302429,110.80518341064452,9.586989402770996,105.311767578125,25.89,1
-0.3325083255767822,-0.7537179589271545,0.3407564461231231,122.3607177734375,9.573976516723633,105.31829833984376,25.89,1
-0.3757201731204986,-0.7467882037162781,0.3250355720520019,126.94973754882812,9.56562614440918,105.32249450683594,25.89,1
-0.425842136144638,-0.7591344118118286,0.3261423707008362,121.94855499267578,9.560267448425291,105.32518768310548,25.89,1
-0.4636053144931793,-0.7782530188560486,0.2820704579353332,111.11536407470705,9.556828498840332,105.32691192626952,25.89,1
-0.4598506689071655,-0.7905222773551941,0.2761787474155426,100.9711685180664,9.554621696472168,105.32801818847656,25.89,1
-0.4462456107139587,-0.8319826126098633,0.2891910970211029,95.01651000976562,9.553205490112305,105.32872772216795,25.89,1
-0.4263190925121307,-0.8697850108146667,0.2807483673095703,89.11009216308594,9.55229663848877,105.32918548583984,25.89,1
-0.4471180737018585,-0.9612177014350892,0.2585369944572449,75.39954376220703,9.517743110656738,105.32947540283205,25.89,1
-0.5164433717727661,-1.1486427783966064,0.2162941247224807,53.15191268920898,9.495569229125977,105.32966613769533,25.89,1
-0.54413902759552,-1.1401726007461548,0.1667939871549606,29.78567123413086,9.48133945465088,105.3297882080078,25.89,1
-0.5283259153366089,-1.0843569040298462,0.1518209725618362,12.275592803955078,9.472207069396973,105.32986450195312,25.89,1
-0.4789935350418091,-1.0485376119613647,0.1366143822669983,0.3794379830360412,9.466346740722656,105.32991027832033,25.89,1
-0.4473348259925842,-1.0703331232070925,0.1212578937411308,-7.799381256103516,9.46258544921875,105.32994079589844,25.89,1
-0.4102247655391693,-1.1011134386062622,0.100207433104515,-12.055703163146973,9.460171699523926,105.32996368408205,25.89,1
-0.3416274785995483,-1.0368999242782593,0.0978940054774284,-12.97438144683838,9.458622932434082,105.3299789428711,25.89,1
-0.2864101529121399,-0.9621047377586364,0.102007158100605,-12.969228744506836,9.460241317749023,102.7039566040039,25.89,1
-0.2789637148380279,-0.8749210834503174,0.110244520008564,-13.442404747009276,9.46127986907959,101.01873016357422,25.89,1
-0.290978342294693,-0.8077760338783264,0.1155307814478874,-13.713818550109863,9.461946487426758,99.93724822998048,25.89,1
-0.3042864203453064,-0.7478929162025452,0.1077276542782783,-13.33627986907959,9.462373733520508,99.24321746826172,25.89,1
-0.2792401313781738,-0.7150611281394958,0.1027200520038604,-13.373437881469728,9.462648391723633,98.7978286743164,25.89,1
-0.2575690746307373,-0.710784912109375,0.0995064601302146,-14.801653861999512,9.462824821472168,98.51200103759766,25.89,1
-0.2604551613330841,-0.7584206461906433,0.0862486138939857,-16.73206901550293,9.462937355041504,98.32857513427734,25.89,1
-0.2735028564929962,-0.8113816380500793,0.0665449425578117,-17.84192657470703,9.46300983428955,98.21086120605467,25.89,1
-0.2986694276332855,-0.8957489132881165,0.0650958120822906,-18.53267288208008,9.442858695983888,98.13531494140624,25.89,1
-0.3204176723957062,-1.0114665031433103,0.0473725199699401,-20.036396026611328,9.429926872253418,98.08683776855467,25.89,1
-0.3343744277954101,-1.1025207042694092,0.0415965057909488,-22.226640701293945,9.42162799835205,98.05572509765624,25.89,1
-0.3657221794128418,-1.2001384496688845,0.0602808892726898,-23.87224578857422,9.416301727294922,98.03575897216795,25.89,1
-0.4138282239437103,-1.2124038934707642,0.1058580949902534,-24.555713653564453,9.412883758544922,98.02294921875,25.89,1
-0.4223088026046753,-1.0859286785125732,0.1351069211959839,-24.36379051208496,9.410690307617188,98.01472473144533,25.89,1
-0.3437845408916473,-1.060741901397705,0.1314860433340072,-22.50665855407715,9.409282684326172,98.00945281982422,25.89,1
-0.2821966409683227,-1.0165895223617554,0.1459556967020034,-18.839298248291016,9.408379554748535,98.00606536865234,25.89,1
-0.2594664096832275,-0.9378751516342164,0.1608392596244812,-14.50821590423584,9.399078369140623,98.00389099121094,25.91,1
-0.2616727650165558,-0.8537741303443909,0.153597354888916,-10.929862022399902,9.393109321594238,98.00249481201172,25.91,1
-0.2966753244400024,-0.7662162780761719,0.1377543658018112,-8.110424041748047,9.389278411865234,98.00160217285156,25.91,1
-0.3415290415287018,-0.7156244516372681,0.133185014128685,-5.16181230545044,9.38681983947754,98.00102996826172,25.91,1
-0.3703135848045349,-0.6831575632095337,0.1414482146501541,-1.1630088090896606,9.385242462158203,98.00066375732422,25.91,1
-0.3775902986526489,-0.6791154742240906,0.1691421568393707,4.777979850769043,9.38422966003418,98.00042724609376,25.91,1
-0.3822600841522217,-0.687717080116272,0.1869145482778549,12.112235069274902,9.383580207824709,98.00027465820312,25.91,1
-0.3796591162681579,-0.6932370662689209,0.2151131629943847,17.78623390197754,9.383163452148438,98.00017547607422,25.91,1
-0.3835877180099487,-0.6967794895172119,0.2388071864843368,20.084014892578125,9.387946128845217,98.00011444091795,25.91,1
-0.4140977561473846,-0.7830194234848022,0.2540126442909241,21.927602767944336,9.39101505279541,98.00007629394533,25.91,1
-0.4392751157283783,-0.9111343026161194,0.2413795292377472,26.127241134643555,9.392984390258787,98.0000457763672,25.91,1
-0.4442369341850281,-1.0325355529785156,0.2164790034294128,30.420154571533203,9.394248008728027,98.00003051757812,25.91,1
-0.4810077846050262,-1.1664215326309204,0.2060970515012741,31.40172576904297,9.395059585571287,98.0000228881836,25.91,1
-0.5381918549537659,-1.2075597047805786,0.2050322890281677,29.27305793762207,9.395580291748049,98.00001525878906,25.91,1
-0.5301070809364319,-1.0660265684127808,0.1371756941080093,25.51384162902832,9.395914077758787,98.00000762939452,25.91,1
-0.4801365733146667,-1.137534260749817,0.1048247888684272,20.71539688110352,9.39612865447998,98.00000762939452,25.91,1
-0.4424706101417541,-1.1834237575531006,0.1008571609854698,16.33913803100586,9.395347595214844,101.8691864013672,25.91,1
-0.4238965213298797,-1.1345040798187256,0.0703220963478088,14.121832847595217,9.394845962524414,104.35220336914062,25.91,1
-0.3839878737926483,-1.030339241027832,0.0451286733150482,13.143133163452148,9.394524574279783,105.94566345214844,25.91,1
-0.3527790307998657,-0.90751451253891,0.0345587581396102,10.953057289123535,9.39431858062744,106.96825408935548,25.91,1
-0.3439465463161468,-0.8342904448509216,0.0333733707666397,6.849913120269775,9.39418601989746,107.6244888305664,25.91,1
-0.3494738936424255,-0.7817016839981079,0.0270148832350969,1.5871407985687256,9.3941011428833,108.04562377929688,25.91,1
-0.3306299448013305,-0.7591487765312195,0.0117388237267732,-4.383988380432129,9.394046783447266,108.31588745117188,25.91,1
-0.3017436563968658,-0.7558711767196655,0.0075333011336624,-10.060941696166992,9.39401149749756,108.48932647705078,25.91,1
-0.2720105648040771,-0.7705610990524292,0.0160299874842166,-12.76544952392578,9.38297176361084,108.6006317138672,25.91,1
-0.2753206491470337,-0.8191726803779602,0.0102871228009462,-10.570960998535156,9.375887870788574,108.67205810546876,25.91,1
-0.2998359799385071,-0.906346559524536,0.0177972316741943,-5.297065734863281,9.371341705322266,108.7178955078125,25.91,1
-0.3211662769317627,-1.102234125137329,0.0002256900334032,-0.966783046722412,9.368423461914062,108.747314453125,25.91,1
-0.3516481518745422,-1.2223457098007202,0.0057426090352237,-0.0687090754508972,9.366551399230955,108.76618957519533,25.91,1
-0.415991872549057,-1.0531243085861206,0.0652607977390289,-2.6486260890960693,9.365349769592283,108.77830505371094,25.91,1
-0.3845129013061523,-0.9725165963172911,0.0922605916857719,-7.431856632232666,9.364578247070312,108.78607940673828,25.91,1
-0.3531159460544586,-1.0159493684768677,0.1095875054597854,-12.60443115234375,9.364083290100098,108.79106903076172,25.91,1
-0.3553583025932312,-1.055017590522766,0.1486957967281341,-16.82670021057129,9.35550308227539,108.79427337646484,25.93,1
-0.3232106566429138,-1.0297093391418457,0.1681954711675644,-19.711854934692383,9.34999656677246,108.79632568359376,25.93,1
-0.2857868373394012,-0.9350991249084472,0.1527203619480133,-20.27007293701172,9.346463203430176,108.79764556884766,25.93,1
-0.3065525889396667,-0.8631882071495056,0.1539848744869232,-16.658809661865234,9.344195365905762,108.79849243164062,25.93,1
-0.3422699272632599,-0.822637677192688,0.1659919172525406,-9.332868576049805,9.342740058898926,108.79903411865234,25.93,1
-0.3931801319122314,-0.8022124767303467,0.1625017970800399,-2.177436828613281,9.341806411743164,108.79937744140624,25.93,1
-0.4202536046504974,-0.7835069894790649,0.1546642631292343,1.4543765783309937,9.341206550598145,108.79959869384766,25.93,1
-0.420834481716156,-0.7491117715835571,0.1552323698997497,1.821813941001892,9.340822219848633,108.79974365234376,25.93,1
-0.4324027895927429,-0.7158433198928833,0.1499991714954376,1.3876724243164062,9.351133346557615,108.79983520507812,25.93,1
-0.462217777967453,-0.722482442855835,0.141043022274971,2.66032075881958,9.35775089263916,108.79989624023438,25.93,1
-0.5205357670783997,-0.8107096552848816,0.112904392182827,7.063190937042236,9.361997604370115,108.79993438720705,25.93,1
-0.5467653274536133,-0.9289042949676514,0.0556622147560119,13.50351905822754,9.36472225189209,108.79995727539062,25.93,1
-0.5635979175567627,-1.1335036754608154,0.0245252568274736,18.757896423339844,9.36647129058838,108.79997253417967,25.93,1
-0.5744001269340515,-1.0856750011444092,0.0101411240175366,20.944021224975582,9.367593765258787,108.79998016357422,25.93,1
-0.5197568535804749,-0.9766124486923218,-0.0270786583423614,21.379653930664062,9.368313789367676,108.79998779296876,25.93,1
-0.4734943807125091,-1.119337797164917,-0.0733552649617195,22.04255485534668,9.368776321411133,108.79999542236328,25.93,1
-0.4605991244316101,-1.2221262454986572,-0.1086507067084312,22.72591209411621,9.369991302490234,106.7830047607422,25.93,1
-0.4467259049415588,-1.232112169265747,-0.1313012838363647,21.44481468200684,9.370770454406738,105.48861694335938,25.93,1
-0.3706495761871338,-1.1097718477249146,-0.1346415728330612,17.384031295776367,9.371270179748535,104.65795135498048,25.93,1
-0.3274259567260742,-1.014467477798462,-0.1367851793766021,12.875706672668455,9.371591567993164,104.1248779296875,25.93,1
-0.3220786154270172,-0.9365133047103882,-0.1493563801050186,11.06804370880127,9.371797561645508,103.78278350830078,25.93,1
-0.3298425674438476,-0.886486828327179,-0.1574238389730453,11.80317211151123,9.371930122375488,103.56324768066406,25.93,1
-0.3516183197498321,-0.8543826937675476,-0.1570032984018325,11.916678428649902,9.372014999389648,103.42236328125,25.93,1
-0.326408326625824,-0.8337801098823547,-0.145537868142128,9.123459815979004,9.372069358825684,103.33195495605467,25.93,1
-0.2934367060661316,-0.83735191822052,-0.1325822472572326,3.712530851364136,9.36475944519043,103.27393341064452,25.93,1
-0.289070725440979,-0.8620351552963257,-0.1186702996492385,-2.3214333057403564,9.360068321228027,103.2366943359375,25.93,1
-0.3086600005626678,-0.9058643579483032,-0.1097424104809761,-6.340569496154785,9.357057571411133,103.21279907226562,25.93,1
-0.326829046010971,-1.0179580450057983,-0.1152085587382316,-7.124949455261231,9.355125427246094,103.1974639892578,25.93,1
-0.3832710683345794,-1.078697681427002,-0.0795319974422454,-6.736258029937744,9.353885650634766,103.1876220703125,25.93,1
-0.4474811851978302,-1.028112530708313,-0.0118546374142169,-8.500226020812988,9.353090286254885,103.18130493164062,25.93,1
-0.4327098131179809,-0.9340744018554688,0.0147834727540612,-12.999859809875488,9.352579116821287,103.17725372314452,25.93,1
-0.3896437287330627,-0.9241061210632324,0.0094871819019317,-17.58560562133789,9.352251052856444,103.17465209960938,25.93,1
-0.3732019662857055,-1.0352623462677002,0.0228816512972116,-19.725976943969727,9.33230209350586,103.17298126220705,25.93,1
-0.3738461136817932,-1.0450204610824585,0.0818574205040931,-20.01044273376465,9.319499969482422,103.17191314697266,25.93,1
-0.3518683910369873,-1.01209819316864,0.080520249903202,-20.748294830322266,9.311284065246582,103.17122650146484,25.93,1
-0.3153732717037201,-0.9517861604690552,0.0684665814042091,-20.87787818908692,9.306012153625488,103.17078399658205,25.93,1
-0.3143438994884491,-0.9242769479751588,0.0663290098309516,-15.142934799194336,9.30262851715088,103.17050170898438,25.93,1
-0.3528677225112915,-0.8898298144340515,0.0761527866125106,-1.621242880821228,9.300457000732422,103.17031860351562,25.93,1
-0.3384056687355041,-0.8397347331047058,0.054468248039484,12.748913764953612,9.299063682556152,103.17020416259766,25.93,1
-0.3123314380645752,-0.790793240070343,0.0405523590743541,18.341703414916992,9.298169136047363,103.17012786865234,25.93,1
-0.3235873878002167,-0.776178777217865,0.0428174920380115,13.024551391601562,9.307694435119627,103.17008209228516,25.93,1
-0.3532018959522247,-0.7723978161811829,0.038673348724842,3.851527214050293,9.313807487487791,103.17005157470705,25.93,1
-0.3890001177787781,-0.7923625111579895,0.0248183291405439,-0.0898533090949058,9.317730903625488,103.17002868652344,25.93,1
-0.4175711274147033,-0.8443590998649597,0.0159269757568836,4.27367115020752,9.3202486038208,103.1700210571289,25.93,1
-0.447101891040802,-0.8777275085449219,0.0158187914639711,12.462122917175291,9.321864128112791,103.17001342773438,25.93,1
-0.4660530388355255,-0.9439236521720886,-0.0122395073994994,18.16840553283692,9.322900772094728,103.17000579833984,25.93,1
-0.495008111000061,-1.0983600616455078,-0.0190501604229211,19.297487258911133,9.323566436767578,103.17000579833984,25.93,1
-0.5135897994041443,-1.0743173360824585,-0.0010297482367604,18.08747673034668,9.323992729187012,103.17000579833984,25.93,1
-0.4751344919204712,-1.0085082054138184,-0.0174541566520929,17.364700317382812,9.32426643371582,101.47186279296876,25.93,1
-0.4672494232654571,-1.0390467643737793,-0.0279943961650133,17.391677856445312,9.324442863464355,100.38209533691406,25.93,1
-0.4789825677871704,-1.0530468225479126,-0.0067696440964937,16.126426696777344,9.324555397033691,99.6827392578125,25.93,1
-0.4585233628749847,-1.022846817970276,0.0012534065172076,12.906970977783203,9.324627876281738,99.2339324951172,25.93,1
-0.4118071496486664,-0.925097405910492,0.0119999125599861,9.89511013031006,9.324674606323242,98.94591522216795,25.93,1
-0.4098162651062011,-0.8623674511909485,0.0356897264719009,8.313363075256348,9.32470417022705,98.7610855102539,25.93,1
-0.4029408395290375,-0.8109154105186462,0.0564902573823928,5.994231700897217,9.32472324371338,98.64247131347656,25.93,1
-0.3929308354854584,-0.7778964638710022,0.0698388442397117,0.4003153443336487,9.324735641479492,98.56635284423828,25.93,1
-0.386506974697113,-0.7735001444816589,0.0784051939845085,-8.24096965789795,9.298577308654783,98.51750183105467,25.93,1
-0.3711889684200287,-0.7930698990821838,0.0950981378555297,-17.31886863708496,9.281790733337402,98.48615264892578,25.93,1
-0.3501631915569305,-0.8728019595146179,0.105810709297657,-23.814483642578125,9.271018028259276,98.46603393554688,25.93,1
-0.3310723006725311,-0.9575560688972472,0.1014898717403411,-26.424575805664062,9.264104843139648,98.453125,25.93,1
-0.3020275235176086,-1.101510763168335,0.0707281306385994,-26.580570220947266,9.259668350219728,98.44483947753906,25.93,1
-0.305779367685318,-1.199490308761597,0.062182568013668,-26.927875518798828,9.256821632385254,98.43952178955078,25.93,1
-0.3585670590400696,-1.1728036403656006,0.0958829373121261,-29.106842041015625,9.25499439239502,98.43611145019533,25.93,1
-0.3420631885528564,-1.0213310718536377,0.095118798315525,-32.77294921875,9.25382137298584,98.43392181396484,25.93,1
-0.3090808689594269,-0.9465157389640808,0.0946284160017967,-36.01054000854492,9.253068923950195,98.4325180053711,25.93,1
-0.2935124635696411,-0.976872444152832,0.0999114885926246,-37.35381317138672,9.252586364746094,98.4316177368164,25.93,1
-0.2779237926006317,-0.99075585603714,0.108899638056755,-36.5571174621582,9.252276420593262,98.43103790283205,25.93,1
-0.2567243278026581,-0.9436876773834229,0.1146677136421203,-31.39207649230957,9.252077102661133,98.4306640625,25.93,1
-0.2543152868747711,-0.8295153975486755,0.1239671111106872,-17.70231056213379,9.251949310302734,98.43042755126952,25.93,1
-0.2695626318454742,-0.7506484389305115,0.1355327069759369,2.9126579761505127,9.251867294311523,98.4302749633789,25.93,1
-0.3017385900020599,-0.7112317085266113,0.1485526114702224,20.8962345123291,9.25181484222412,98.43017578125,25.93,1
-0.3111917078495025,-0.6915341019630432,0.1625058054924011,29.234235763549805,9.251781463623049,98.43011474609376,25.93,1
-0.3172581791877746,-0.6844910979270935,0.1714601665735244,30.09253692626953,9.248087882995604,98.4300765991211,25.93,1
-0.3379446268081665,-0.6911668181419373,0.1772065609693527,28.056724548339844,9.24571704864502,98.43004608154295,25.93,1
-0.3456222116947174,-0.7122442722320557,0.1808942705392837,24.915979385375977,9.244195938110352,98.4300308227539,25.93,1
-0.3673425614833832,-0.7481616735458374,0.1888585984706878,22.8251953125,9.243219375610352,98.43002319335938,25.93,1
-0.3980747759342193,-0.8159935474395752,0.1827740967273712,23.73689079284668,9.242592811584473,98.43001556396484,25.93,1
-0.4121991693973541,-0.965881884098053,0.1508805453777313,24.701717376708984,9.24219036102295,98.43000793457033,25.93,1
-0.4044700562953949,-1.151636004447937,0.1136197745800018,21.2833251953125,9.24193286895752,98.43000793457033,25.93,1
-0.4274988174438476,-1.2820378541946411,0.106501281261444,15.01262664794922,9.241766929626465,98.43000793457033,25.93,1
-0.4646684527397156,-1.2369734048843384,0.0907374918460846,11.00278377532959,9.236611366271973,97.1116180419922,25.93,1
-0.460532933473587,-1.1744669675827026,0.0526323243975639,10.227950096130373,9.23330307006836,96.26554870605467,25.93,1
-0.4242923259735107,-1.240711688995361,0.0617652684450149,9.705628395080566,9.231179237365724,95.72259521484376,25.93,1
-0.3674485683441162,-1.2496371269226074,0.0564307160675525,7.955315113067627,9.229816436767578,95.37415313720705,25.93,1
-0.3085784018039703,-1.1937893629074097,0.0474095344543457,6.147792816162109,9.228941917419434,95.15054321289062,25.93,1
-0.2652011513710022,-1.0292006731033323,0.0640113577246666,5.604032039642334,9.228381156921388,95.00704193115234,25.93,1
-0.242961898446083,-0.9067838191986084,0.0858609974384307,6.021749019622803,9.228020668029783,94.91495513916016,25.93,1
-0.2454833537340164,-0.8114303946495056,0.1110783889889717,5.730933666229248,9.227789878845217,94.8558578491211,25.93,1
-0.2303081601858139,-0.7390425205230713,0.0992725864052772,3.8425817489624015,9.21662425994873,94.81793212890624,25.93,1
-0.2037762701511383,-0.7093814611434937,0.0860985293984413,1.4341659545898438,9.20945930480957,94.79359436035156,25.93,1
-0.1755540817975998,-0.7183355689048767,0.0776441767811775,-0.2081461995840072,9.20486068725586,94.7779769897461,25.93,1
-0.1966271251440048,-0.7464728951454163,0.0554253384470939,-0.5706504583358765,9.201910018920898,94.76795196533205,25.93,1
-0.2157483547925949,-0.8037142753601074,0.041166566312313,0.9306817650794984,9.200016021728516,94.7615203857422,25.93,1
-0.2336170375347137,-0.8796328902244568,0.0208205580711364,4.036530494689941,9.198801040649414,94.75739288330078,25.93,1
-0.2562796771526336,-0.9283530712127686,0.0189592093229293,6.58856725692749,9.198020935058594,94.75474548339844,25.93,1
-0.2652254700660705,-1.0211944580078125,0.0065691550262272,6.8756866455078125,9.19752025604248,94.75304412841795,25.93,1
-0.2653686106204986,-1.142350196838379,-0.0237731654196977,5.433454036712647,9.1893949508667,94.751953125,25.95,1
-0.3382315337657928,-1.1809165477752686,0.0015370734035968,2.766780376434326,9.184181213378906,94.75125122070312,25.95,1
-0.3402085602283478,-1.0881129503250122,0.0737574771046638,-2.437548875808716,9.180834770202637,94.75080108642578,25.95,1
-0.3022928833961487,-1.1013280153274536,0.0977132692933082,-10.302180290222168,9.17868709564209,94.7505111694336,25.95,1
-0.3283407688140869,-1.1377975940704346,0.1130867227911949,-16.57448959350586,9.177309036254885,94.75032806396484,25.95,1
-0.3506545722484588,-1.0828328132629397,0.1117569729685783,-16.26119613647461,9.176424980163574,94.75021362304688,25.95,1
-0.3313876390457153,-0.9579951763153076,0.110903613269329,-10.324440002441406,9.175857543945312,94.75013732910156,25.95,1
-0.3470121026039123,-0.8275015950202942,0.1327470690011978,-4.777022361755371,9.175493240356444,94.75009155273438,25.95,1
-0.3738323152065277,-0.7437583208084106,0.1467649489641189,-3.398797512054444,9.16286563873291,94.75006103515624,25.95,1
-0.4022395312786102,-0.6956144571304321,0.1557608097791671,-5.083038806915283,9.15476131439209,94.75003814697266,25.95,1
-0.414871871471405,-0.664718508720398,0.16153384745121,-6.984297752380371,9.149560928344728,94.7500228881836,25.95,1
-0.4061852395534515,-0.6448912620544434,0.1652386486530304,-6.52060604095459,9.14622402191162,94.75001525878906,25.95,1
-0.4006106555461883,-0.6545583605766296,0.1620184034109115,-2.088742971420288,9.144082069396973,94.75000762939452,25.95,1
-0.3970332145690918,-0.7167398929595947,0.1543540507555008,4.91474199295044,9.142707824707031,94.75000762939452,25.95,1
-0.3891396522521972,-0.8182199597358704,0.1046533212065696,10.48394775390625,9.141825675964355,94.75000762939452,25.95,1
-0.3728784620761871,-0.8889418244361877,0.0671604797244072,12.259490966796877,9.14125919342041,94.75000762939452,25.95,1
-0.3904318511486053,-0.9959025382995604,0.0375019572675228,11.793938636779783,9.130337715148926,93.68598175048828,25.95,1
-0.4352832436561584,-1.0589460134506226,-0.0039222757332026,11.785362243652344,9.123329162597656,93.0031509399414,25.95,1
-0.4304796457290649,-1.1385880708694458,-0.0417015105485916,12.80089282989502,9.118831634521484,92.56494903564452,25.95,1
-0.3546259105205536,-1.217686653137207,-0.077141597867012,12.958206176757812,9.115944862365724,92.2837371826172,25.95,1
-0.3003495633602142,-1.234860897064209,-0.105482779443264,9.859920501708984,9.114092826843262,92.103271484375,25.95,1
-0.2599203586578369,-1.1675134897232056,-0.1012794226408004,3.7158315181732178,9.11290454864502,91.98745727539062,25.95,1
-0.2563663125038147,-1.0459250211715698,-0.0761908516287803,-1.6028000116348269,9.112141609191896,91.9131317138672,25.95,1
-0.2596833109855652,-0.9567009806632996,-0.0656882226467132,-3.0204968452453613,9.111652374267578,91.8654327392578,25.95,1
-0.2618119716644287,-0.8994421362876892,-0.0533504672348499,-2.411281108856201,9.124191284179688,91.83482360839844,25.95,1
-0.2631780207157135,-0.885087788105011,-0.051030583679676,-3.413943290710449,9.132238388061523,91.815185546875,25.95,1
-0.2584568858146667,-0.8646804094314575,-0.0551395900547504,-6.436224460601807,9.137402534484863,91.80258178710938,25.95,1
-0.2834160029888153,-0.8515841364860535,-0.0745698362588882,-9.077935218811035,9.140716552734377,91.79449462890624,25.95,1
-0.3162266612052917,-0.8543752431869507,-0.0982346013188362,-8.874467849731445,9.14284324645996,91.78929901123048,25.95,1
-0.3428804278373718,-0.878557562828064,-0.1134212836623191,-4.731409549713135,9.144207954406738,91.78596496582033,25.95,1
-0.3487897217273712,-0.899674117565155,-0.1119716688990593,1.6460797786712646,9.1450834274292,91.78382873535156,25.95,1
-0.3413864374160766,-0.9020299911499025,-0.0886502936482429,5.860592842102051,9.145645141601562,91.78245544433594,25.95,1
-0.3198421001434326,-0.9595195651054382,-0.0736839771270752,4.4631757736206055,9.143251419067385,91.78157806396484,25.95,1
-0.2780273258686065,-1.091575264930725,-0.0920683294534683,-1.5781840085983276,9.141715049743652,91.78101348876952,25.95,1
-0.2959752082824707,-1.1931142807006836,-0.1374529898166656,-7.819681167602539,9.140728950500488,91.78064727783205,25.95,1
-0.3018953502178192,-1.1239296197891235,-0.1441871672868728,-10.667943000793455,9.140096664428713,91.7804183959961,25.95,1
-0.2497168034315109,-1.0235531330108645,-0.086933247745037,-10.19577980041504,9.139690399169922,91.78026580810548,25.95,1
-0.1994382888078689,-1.0542994737625122,-0.0781798511743545,-9.183423042297363,9.139430046081545,91.78016662597656,25.95,1
-0.1503791064023971,-1.0292484760284424,-0.0949535220861435,-10.579401016235352,9.139263153076172,91.78010559082033,25.95,1
-0.1188957542181015,-1.013172268867493,-0.1169134452939033,-14.448797225952148,9.139156341552734,91.78006744384766,25.95,1
-0.1266804188489914,-0.969268798828125,-0.1142127439379692,-16.079299926757812,9.100069046020508,91.78004455566406,25.95,1
-0.1820561438798904,-0.8683229684829712,-0.0788929387927055,-10.673443794250488,9.074984550476074,91.780029296875,25.95,1
-0.2455819696187973,-0.7923462390899658,-0.0618244968354702,-0.9849249124526978,9.058886528015137,91.78002166748048,25.95,1
-0.2807514071464538,-0.7379909753799438,-0.0396754033863544,5.135878562927246,9.048556327819824,91.78001403808594,25.95,1
-0.2977233529090881,-0.7031089067459106,-0.0030702939257025,5.40604829788208,9.041926383972168,91.7800064086914,25.95,1
-0.30861496925354,-0.697516918182373,0.0260185338556766,5.353725433349609,9.03767204284668,91.7800064086914,25.95,1
-0.3323979079723358,-0.7163193821907043,0.0446860678493976,9.90942668914795,9.034941673278809,91.7800064086914,25.95,1
-0.3588559925556183,-0.7731679081916809,0.0566658191382885,17.931018829345703,9.03318977355957,91.7800064086914,25.95,1
-0.3814330399036407,-0.8320411443710327,0.064353734254837,24.888015747070312,8.999932289123535,90.89152526855467,25.95,1
-0.4015194475650787,-0.9761803150177002,0.0468962974846363,27.65089225769043,8.978589057922363,90.32135009765624,25.95,1
-0.4423986375331878,-1.1414515972137451,0.0244975704699754,26.550722122192383,8.964892387390137,89.9554443359375,25.95,1
-0.4630347490310669,-1.0963733196258545,0.0381122305989265,23.498109817504883,8.95610237121582,89.72062683105469,25.95,1
-0.2971490621566772,-1.0002713203430176,0.069240428507328,18.665891647338867,8.950462341308594,89.56993865966797,25.95,1
-0.2298775911331176,-1.0337607860565186,0.1060100421309471,10.595820426940918,8.946842193603516,89.47322845458984,25.95,1
-0.2146954983472824,-1.2175878286361694,0.0176511704921722,-0.2041477710008621,8.94451904296875,89.41117095947266,25.95,1
-0.193756952881813,-1.2683840990066528,-0.078236885368824,-10.026084899902344,8.943028450012207,89.37134552001953,25.95,1
-0.1523309350013733,-1.1778312921524048,-0.0334146097302436,-15.777521133422852,8.946203231811523,89.34578704833984,25.95,1
-0.1481371968984604,-1.114121913909912,0.0065452987328171,-18.755529403686523,8.948240280151367,89.32938385009766,25.95,1
-0.167836993932724,-1.0676391124725342,-0.0069951526820659,-22.701547622680664,8.94954776763916,89.31885528564453,25.95,1
-0.1860769689083099,-0.9762336015701294,-0.0156846344470977,-28.25398635864257,8.950387001037598,89.31210327148438,25.95,1
-0.1809890121221542,-0.9007814526557922,0.0067278277128934,-31.60943031311035,8.950925827026367,89.30776977539062,25.95,1
-0.1665282994508743,-0.8411650657653809,0.0211108550429344,-29.77893829345703,8.951271057128906,89.30498504638672,25.95,1
-0.1740415692329406,-0.7973089218139648,0.01914550550282,-24.31947326660156,8.951493263244629,89.3031997680664,25.95,1
-0.1900587081909179,-0.785957932472229,0.0066887098364531,-18.003582000732422,8.951635360717773,89.30205535888672,25.95,1
-0.2115331292152404,-0.8178579211235046,-0.0125008942559361,-11.431855201721191,8.93152904510498,89.30132293701172,25.91,1
-0.2309119552373886,-0.8551228046417236,-0.0192179027944803,-5.2190046310424805,8.918625831604004,89.30084991455078,25.91,1
-0.2377503961324691,-0.9574061036109924,-0.0291262678802013,-1.411083459854126,8.910345077514648,89.30054473876953,25.91,1
-0.2589322328567505,-1.1182078123092651,-0.0634737536311149,-0.13529834151268,8.905031204223633,89.30035400390625,25.91,1
-0.3229054808616638,-1.2046077251434326,-0.0799182206392288,1.7402868270874023,8.901620864868164,89.30023193359375,25.91,1
-0.3247754275798797,-1.0193499326705933,-0.0009069441002793,6.243481636047363,8.899432182312012,89.3001480102539,25.91,1
-0.2923887968063354,-0.8948644399642944,0.0721890404820442,10.838678359985352,8.898027420043945,89.30009460449219,25.91,1
-0.2939960062503814,-1.016496658325195,0.0799134150147438,10.42357349395752,8.897126197814941,89.30006408691406,25.91,1
-0.2614407837390899,-0.9993910789489746,0.0624793767929077,2.572869777679444,8.902268409729004,89.30004119873047,25.91,1
-0.2349509447813034,-0.9660226106643676,0.0680845379829406,-7.7316460609436035,8.90556812286377,89.3000259399414,25.91,1
-0.245940163731575,-0.8662397861480713,0.1052682548761367,-10.145712852478027,8.907685279846191,89.30001831054688,25.91,1
-0.2753835022449493,-0.7854115962982178,0.1179350763559341,-0.8003091216087341,8.90904426574707,89.30001068115234,25.91,1
-0.3222674131393432,-0.7335407137870789,0.1092705875635147,9.535531997680664,8.909916877746582,89.30001068115234,25.91,1
-0.3131704032421112,-0.7618284821510315,0.1316990852355957,6.961260795593262,8.910476684570312,89.30001068115234,25.91,1
-0.2905391156673431,-0.79117751121521,0.1516901850700378,-7.150956630706787,8.910836219787598,89.30001068115234,25.91,1
-0.2928089797496795,-0.7820231318473816,0.1813126504421234,-17.912670135498047,8.911066055297852,89.30001068115234,25.91,1
-0.3166567683219909,-0.7705506086349487,0.2003226429224014,-15.62602996826172,8.90249252319336,89.03131103515625,25.91,1
-0.3711453080177307,-0.7855793237686157,0.2349132597446441,-4.152462005615234,8.896989822387695,88.85887908935547,25.91,1
-0.3893195986747741,-0.8791905045509338,0.2627092897891998,7.724658012390137,8.893458366394043,88.74822235107422,25.91,1
-0.3897872567176819,-0.9840469360351562,0.2693516314029693,14.995617866516112,8.891192436218262,88.67720794677734,25.91,1
-0.3788918256759643,-1.219270944595337,0.2456254363059997,17.06075096130371,8.889738082885742,88.63163757324219,25.91,1
-0.3942908644676208,-1.3478331565856934,0.230399340391159,16.12184715270996,8.888805389404297,88.6023941040039,25.91,1
-0.4377597272396087,-1.2624037265777588,0.2038347721099853,15.44407844543457,8.888206481933594,88.58362579345703,25.91,1
-0.4152755737304687,-1.1627978086471558,0.1532005220651626,15.958507537841797,8.887822151184082,88.57157897949219,25.91,1
-0.3896510004997253,-1.1884409189224243,0.1151086017489433,15.582871437072754,8.89033031463623,88.56385040283203,25.91,1
-0.3508155345916748,-1.210494875907898,0.0794678479433059,13.75114631652832,8.891939163208008,88.55889129638672,25.91,1
-0.3258931636810303,-1.1518768072128296,0.0398023426532745,13.589519500732422,8.892971992492676,88.55570983886719,25.91,1
-0.2931060791015625,-0.9967058300971984,0.0143473036587238,16.87133026123047,8.893634796142578,88.55366516113281,25.91,1
-0.288858562707901,-0.869137167930603,0.0092072738334536,18.719463348388672,8.894060134887695,88.55235290527344,25.91,1
-0.3029260635375976,-0.7872709631919861,0.0003109236131422,11.525843620300291,8.894332885742188,88.551513671875,25.91,1
-0.3287470936775207,-0.7347339391708374,-0.0165937896817922,-4.178679466247559,8.894508361816406,88.55097198486328,25.91,1
-0.3285242319107055,-0.7122142314910889,-0.0274422615766525,-17.79652214050293,8.894620895385742,88.55062866210938,25.91,1
-0.2835990190505981,-0.7145557403564453,-0.0288064125925302,-21.48423767089844,8.879544258117676,88.55040740966797,25.91,1
-0.2603663802146911,-0.7328516840934753,-0.0128885237500071,-18.41961669921875,8.869869232177734,88.55026245117188,25.91,1
-0.2622503340244293,-0.7613862752914429,-0.0026733379345387,-14.418017387390137,8.863659858703613,88.5501708984375,25.91,1
-0.2802526652812958,-0.8692625164985657,0.0038821797352284,-10.757335662841797,8.859675407409668,88.55010986328125,25.91,1
-0.2918055057525635,-0.9720779657363892,-0.0031064145732671,-8.51559829711914,8.857118606567383,88.5500717163086,25.91,1
-0.3272083401679992,-1.1444166898727417,-0.0187868401408195,-9.430731773376465,8.855477333068848,88.550048828125,25.91,1
-0.4059055745601654,-1.0199072360992432,0.0887036323547363,-10.917238235473633,8.854424476623535,88.55003356933594,25.91,1
-0.4284200668334961,-0.8560376167297363,0.1912714689970016,-9.159183502197266,8.853748321533203,88.5500259399414,25.91,1
-0.3700975179672241,-0.9300042986869812,0.2067136317491531,-6.429553508758545,8.842297554016113,88.55001831054688,25.91,1
-0.304680585861206,-1.0222541093826294,0.1718413382768631,-8.9052734375,8.834949493408203,88.55001068115234,25.91,1
-0.1955264657735824,-1.047868013381958,0.1494622975587844,-17.447826385498047,8.830233573913574,88.55001068115234,25.91,1
-0.2038464695215225,-1.0027300119400024,0.1351007223129272,-24.11219596862793,8.827207565307617,88.55001068115234,25.91,1
-0.2483701854944229,-0.9233831167221068,0.1482753902673721,-19.851726531982425,8.825264930725098,88.55001068115234,25.91,1
-0.3329207003116607,-0.8556695580482483,0.1679256707429886,-5.918470859527588,8.824018478393555,88.55001068115234,25.91,1
-0.3983758985996246,-0.8234103918075562,0.1581449955701828,5.620458126068115,8.82321834564209,88.55001068115234,25.91,1
-0.4291857182979584,-0.7915127873420715,0.1294772326946258,5.505651473999023,8.822705268859863,88.55001068115234,25.91,1
-0.4265666007995605,-0.7542493939399719,0.1166776791214943,-1.8406531810760496,8.81549072265625,88.35296630859375,25.91,1
-0.4136902391910553,-0.719140350818634,0.1196592152118682,-5.222370147705078,8.810860633850098,88.22651672363281,25.91,1
-0.4278180301189422,-0.746989369392395,0.1159748136997222,-0.4853560626506805,8.807888984680176,88.1453628540039,25.91,1
-0.4592755436897278,-0.7872523665428162,0.0968170538544654,7.871129035949707,8.80598258972168,88.0932846069336,25.91,1
-0.5130497813224792,-0.8242864012718201,0.0677293837070465,14.874659538269045,8.80475902557373,88.05986785888672,25.91,1
-0.5475590229034424,-1.071963667869568,0.0266714971512556,18.820987701416016,8.803973197937012,88.03842163085938,25.91,1
-0.597693920135498,-1.2700930833816528,0.0003229077265132,19.91690254211425,8.80346965789795,88.024658203125,25.91,1
-0.5403032302856445,-1.1565368175506592,-0.050172746181488,20.251192092895508,8.803146362304688,88.01582336425781,25.91,1
-0.4530932307243347,-1.162031888961792,-0.1049690470099449,22.70483016967773,8.79651165008545,88.0101547241211,25.91,1
-0.447506844997406,-1.2271337509155271,-0.128938615322113,26.79081916809082,8.792254447937012,88.00651550292969,25.91,1
-0.4215307235717773,-1.235325813293457,-0.1331253498792648,27.72557830810547,8.789522171020508,88.00418090820312,25.91,1
-0.3768718540668487,-1.1510186195373535,-0.1414099335670471,22.256568908691406,8.787768363952637,88.002685546875,25.91,1
-0.3314190506935119,-1.0297417640686035,-0.1523242741823196,14.06803035736084,8.786643028259277,88.00172424316406,25.91,1
-0.3078478276729584,-0.9519132375717164,-0.1649262458086013,10.36435317993164,8.785921096801758,88.00110626220703,25.91,1
-0.2983189523220062,-0.9187607169151306,-0.1786112338304519,13.121376991271973,8.785457611083984,88.0007095336914,25.91,1
-0.3089971840381622,-0.8974853157997131,-0.1817957013845443,16.452678680419922,8.785160064697266,88.00045776367188,25.91,1
-0.3046543300151825,-0.8670386672019958,-0.1782415360212326,13.528337478637695,8.777165412902832,88.00029754638672,25.91,1
-0.2682806849479675,-0.836304247379303,-0.1647651344537735,4.457851886749268,8.772034645080566,88.00019073486328,25.91,1
-0.2449381649494171,-0.8501672744750977,-0.1561167538166046,-3.9066922664642334,8.768742561340332,88.0001220703125,25.91,1
-0.2635449171066284,-0.909443736076355,-0.116980068385601,-5.777981758117676,8.766630172729492,88.00007629394531,25.91,1
-0.2810834348201751,-1.031450629234314,-0.1030599474906921,-2.704854965209961,8.765274047851562,88.00004577636719,25.91,1
-0.3035342097282409,-1.087356448173523,-0.0885290428996086,-1.012139916419983,8.764404296875,88.00003051757812,25.91,1
-0.3515284657478332,-0.9608981609344482,-0.0064328713342547,-4.590366363525391,8.763845443725586,88.0000228881836,25.91,1
-0.3767306506633758,-0.8573534488677979,0.0518494993448257,-11.891524314880373,8.763486862182617,88.00001525878906,25.91,1
-0.4096972644329071,-0.9420443177223206,0.0556651204824447,-18.619054794311523,8.71643352508545,88.00000762939453,25.91,1
-0.4252555668354034,-1.0355784893035889,0.0581137686967849,-22.004926681518555,8.686238288879395,88.00000762939453,25.91,1
-0.3960555791854858,-1.05082106590271,0.0596851706504821,-23.489931106567383,8.666860580444336,88.00000762939453,25.91,1
-0.3157411813735962,-0.9822340607643129,0.0662913769483566,-26.549474716186523,8.654424667358398,88.00000762939453,25.91,1
-0.2809933423995971,-0.9270233511924744,0.0649330839514732,-29.45513153076172,8.646444320678711,88.00000762939453,25.91,1
-0.3146719336509704,-0.9251789450645448,0.0472680889070034,-24.176158905029297,8.64132308959961,88.00000762939453,25.91,1
-0.3698715567588806,-0.9072019457817078,0.0303339380770921,-7.995040416717529,8.638036727905273,88.00000762939453,25.91,1
-0.3940999507904053,-0.8900675773620605,0.0082710273563861,8.3289794921875,8.635927200317383,88.00000762939453,25.91,1
-0.3760617077350616,-0.8566806316375732,-0.0058876797556877,11.216900825500488,8.641918182373047,87.80654907226562,25.91,1
-0.3700835704803467,-0.8296570181846619,-0.0093761486932635,0.1550180166959762,8.645763397216797,87.6823959350586,25.91,1
-0.3998337984085083,-0.806717038154602,-0.0228103958070278,-12.471776008605955,8.64823055267334,87.60272216796875,25.91,1
-0.4525124132633209,-0.803191065788269,-0.0482250452041626,-14.785483360290527,8.64981460571289,87.55158996582031,25.91,1
-0.491916298866272,-0.8065260648727417,-0.0701324790716171,-5.19654655456543,8.650830268859863,87.5187759399414,25.91,1
-0.5060079097747803,-0.8870351314544678,-0.1121802777051925,8.921147346496582,8.651482582092285,87.49771881103516,25.91,1
-0.5038555264472961,-1.0170700550079346,-0.1447619050741195,19.16690254211425,8.651901245117188,87.48420715332031,25.91,1
-0.5528542399406433,-1.0837256908416748,-0.1376820504665374,22.170209884643555,8.652170181274414,87.47553253173828,25.91,1
-0.4723432958126068,-1.0425348281860352,-0.1667252629995346,19.98118019104004,8.649128913879395,87.469970703125,25.91,1
-0.4150782227516174,-1.094469666481018,-0.1909612864255905,17.05379295349121,8.647177696228027,87.46640014648438,25.91,1
-0.4399043023586273,-1.1277984380722046,-0.1785257011651992,16.636856079101562,8.645925521850586,87.46410369873047,25.91,1
-0.472629576921463,-1.137991428375244,-0.1705452650785446,18.36836624145508,8.645121574401855,87.46263122558594,25.91,1
-0.43205526471138,-1.049370527267456,-0.1654238849878311,19.44730567932129,8.64460563659668,87.46168518066406,25.91,1
-0.3948214650154114,-0.9589120745658876,-0.156539499759674,18.301847457885746,8.644274711608887,87.4610824584961,25.91,1
-0.370926946401596,-0.8896655440330505,-0.145240232348442,15.91160774230957,8.644062042236328,87.460693359375,25.91,1
-0.366788387298584,-0.845227062702179,-0.1155979186296463,13.70774745941162,8.643925666809082,87.46044158935547,25.91,1
-0.3641324937343597,-0.816709041595459,-0.0965751856565475,11.458697319030762,8.630985260009766,87.46028137207031,25.91,1
-0.3400369882583618,-0.8040055632591248,-0.0843674913048744,7.815684795379639,8.6226806640625,87.4601821899414,25.91,1
-0.2965849936008453,-0.8126465082168579,-0.0709355250000953,2.7407212257385254,8.617351531982422,87.46011352539062,25.91,1
-0.2575044631958008,-0.8461806774139404,-0.0623156614601612,-1.9133026599884035,8.613930702209473,87.46007537841797,25.91,1
-0.2436203807592392,-0.9572653770446776,-0.0623817034065723,-5.512608051300049,8.611736297607422,87.46004486083984,25.91,1
-0.2515037059783935,-1.1237152814865112,-0.0736196339130401,-10.448463439941406,8.61032772064209,87.46002960205078,25.91,1
-0.3573226928710937,-1.1185777187347412,-0.0136581966653466,-18.74984169006348,8.609423637390137,87.46002197265625,25.91,1
-0.3972423672676086,-0.980934202671051,0.0248216018080711,-28.99964714050293,8.608843803405762,87.46001434326172,25.91,1
-0.3668827712535858,-0.9149935841560364,0.0159290749579668,-38.37537384033203,8.602045059204102,87.46000671386719,25.91,1
-0.3529975116252899,-1.029414415359497,0.015820138156414,-45.06570053100586,8.597681999206543,87.46000671386719,25.91,1
-0.3384889662265777,-1.0692564249038696,0.04933687672019,-48.4420280456543,8.594882011413574,87.46000671386719,25.91,1
-0.2787982523441314,-1.016455888748169,0.0540526658296585,-49.10765838623047,8.593085289001465,87.46000671386719,25.91,1
-0.2069055438041687,-0.920996069908142,0.0458834394812583,-46.7869873046875,8.59193229675293,87.46000671386719,25.91,1
-0.1831600368022918,-0.8709309697151184,0.0462386719882488,-37.75997543334961,8.591192245483398,87.46000671386719,25.91,1
-0.2518881559371948,-0.8667909502983093,0.0576621890068054,-19.56049919128418,8.590717315673828,87.46000671386719,25.91,1
-0.3127872347831726,-0.8529385924339294,0.0481998212635517,2.103513717651367,8.590412139892578,87.46000671386719,25.91,1
-0.3238798677921295,-0.8384511470794678,0.0365296453237533,17.295957565307617,8.594806671142578,87.39910125732422,25.91,1
-0.3198029398918152,-0.8123606443405151,0.0570292696356773,22.02998733520508,8.597626686096191,87.36001586914062,25.91,1
-0.3115888237953186,-0.7900194525718689,0.0925758481025695,20.002254486083984,8.59943675994873,87.33493041992188,25.91,1
-0.3063174784183502,-0.758888840675354,0.1321809142827987,16.841615676879883,8.600598335266113,87.31883239746094,25.91,1
-0.3085324168205261,-0.7557043433189392,0.1519993990659713,16.178260803222656,8.601343154907227,87.30850219726562,25.91,1
-0.3267471492290497,-0.8320295810699463,0.1423266530036926,18.203039169311523,8.601821899414062,87.30187225341797,25.91,1
-0.3328385353088379,-0.9761728644371032,0.080141507089138,19.60273742675781,8.602128982543945,87.29762268066406,25.91,1
-0.3423454165458679,-1.180631160736084,0.0178435575217008,17.22292709350586,8.602325439453125,87.29489135742188,25.91,1
-0.4044241309165954,-1.2166786193847656,0.017048742622137,12.417644500732422,8.602452278137207,87.29313659667969,25.91,1
-0.4274693727493286,-1.1278563737869265,-0.0002546471660025,9.455698013305664,8.602533340454102,87.2920150756836,25.91,1
-0.4030740559101105,-1.1548218727111816,-0.0281522907316684,10.066277503967283,8.602584838867188,87.29129028320312,25.91,1
-0.4154074192047119,-1.222506761550903,-0.0236642938107252,11.78366470336914,8.602618217468262,87.29082489013672,25.91,1
-0.4065289199352264,-1.226758599281311,-0.0487730279564857,11.381103515625,8.602640151977539,87.29052734375,25.91,1
-0.3280601501464844,-1.0783473253250122,-0.0536908209323883,8.80483627319336,8.602653503417969,87.29033660888672,25.91,1
-0.2665078639984131,-0.9439210891723632,-0.0176623556762933,6.753870487213135,8.602662086486816,87.29021453857422,25.91,1
-0.2605938017368316,-0.8464584946632385,0.0166541878134012,5.939239025115967,8.602667808532715,87.2901382446289,25.91,1
-0.2847873568534851,-0.7895104289054871,0.0106876995414495,3.696819305419922,8.597163200378418,87.29009246826172,25.95,1
-0.2779223024845123,-0.7753555178642273,-0.0099345734342932,-0.8877381086349487,8.59363079071045,87.2900619506836,25.95,1
-0.206343412399292,-0.794260561466217,-0.0343643091619014,-4.868790149688721,8.591363906860352,87.2900390625,25.95,1
-0.1324193179607391,-0.8063927292823792,-0.0388463586568832,-6.262845516204834,8.589908599853516,87.29002380371094,25.95,1
-0.0849790945649147,-0.8253740072250366,-0.0249293576925992,-6.064784526824951,8.588974952697754,87.2900161743164,25.95,1
-0.121707983314991,-0.932717263698578,-0.0383893251419067,-4.859324932098389,8.58837604522705,87.29000854492188,25.95,1
-0.1508762389421463,-1.0239951610565186,-0.063820481300354,-2.4341630935668945,8.587991714477539,87.29000854492188,25.95,1
-0.1639969795942306,-1.1105608940124512,-0.0801407322287559,-0.5374892354011536,8.58774471282959,87.29000854492188,25.95,1
-0.1724171191453933,-1.222091555595398,-0.0906141325831413,-1.7887077331542969,8.582536697387695,87.29000854492188,25.95,1
-0.2505917549133301,-1.2376877069473269,-0.074944257736206,-6.013027191162109,8.579195022583008,87.29000854492188,25.95,1
-0.3343463838100433,-1.0573720932006836,0.0246761571615934,-11.088452339172363,8.57705020904541,87.29000854492188,25.95,1
-0.3265197575092315,-0.9584492444992064,0.0886068046092987,-16.853370666503906,8.575674057006836,87.29000854492188,25.95,1
-0.2207371294498443,-0.9957262277603148,0.0792538449168205,-22.942541122436523,8.574790954589844,87.29000854492188,25.95,1
-0.1584497094154358,-0.9692684412002563,0.0620561055839061,-23.891014099121094,8.574223518371582,87.29000854492188,25.95,1
-0.1464660912752151,-0.8851161003112793,0.090204007923603,-14.178288459777832,8.573859214782715,87.29000854492188,25.95,1
-0.205948993563652,-0.8255141973495483,0.1138654872775077,2.5875515937805176,8.573625564575195,87.29000854492188,25.95,1
-0.266512781381607,-0.7704718112945557,0.1234522834420204,16.800506591796875,8.5445556640625,87.21118927001953,25.95,1
-0.3165746927261352,-0.7575398683547974,0.1184089928865432,22.124032974243164,8.525900840759277,87.16060638427734,25.95,1
-0.348701536655426,-0.7660341858863831,0.1039769500494003,17.06757354736328,8.51392936706543,87.12814331054688,25.95,1
-0.3413298428058624,-0.777083158493042,0.1003130674362182,4.357464790344238,8.506246566772461,87.10731506347656,25.95,1
-0.3254035711288452,-0.7785759568214417,0.109157346189022,-7.682663440704346,8.50131607055664,87.09394836425781,25.95,1
-0.3319763243198395,-0.7795339822769165,0.1204308718442916,-10.970514297485352,8.498151779174805,87.08536529541016,25.95,1
-0.3473898768424988,-0.8641153573989868,0.1164700239896774,-6.488527774810791,8.496121406555176,87.0798568725586,25.95,1
-0.340488076210022,-0.951981484889984,0.1083304062485694,-1.37313711643219,8.494818687438965,87.07632446289062,25.95,1
-0.3192655742168426,-1.1091288328170776,0.0751179903745651,1.246849536895752,8.466898918151855,87.07405853271484,25.95,1
-0.3896128237247467,-1.2099769115447998,0.0761952772736549,4.002978801727295,8.448981285095215,87.07260131835938,25.95,1
-0.4179643094539642,-1.1459466218948364,0.071288838982582,9.039012908935549,8.437482833862305,87.07167053222656,25.95,1
-0.3186053931713104,-1.088062405586243,0.0793357193470001,15.058094024658203,8.430103302001953,87.07107543945312,25.95,1
-0.2492447942495346,-1.1292845010757446,0.1012930646538734,19.05334854125977,8.425368309020996,87.07068634033203,25.95,1
-0.1823420524597168,-1.234107255935669,0.0538085103034973,18.023950576782227,8.42232894897461,87.07044219970703,25.95,1
-0.1506032794713974,-1.1278454065322876,-0.0102509902790188,11.792435646057127,8.420378684997559,87.07028198242188,25.95,1
-0.1358329355716705,-0.9980772137641908,-0.0121762696653604,5.468317031860352,8.419127464294434,87.07018280029297,25.95,1
-0.1431474983692169,-0.9203972220420836,0.0201748423278331,4.9064555168151855,8.420232772827148,87.07011413574219,25.95,1
-0.1534393429756164,-0.8761444687843323,0.0129470527172088,9.547161102294922,8.420942306518555,87.07007598876953,25.95,1
-0.1488485038280487,-0.8197566866874695,-0.0308757480233907,12.991033554077148,8.421398162841797,87.0700454711914,25.95,1
-0.1235112771391868,-0.794765830039978,-0.0534009225666523,9.873822212219238,8.421689987182617,87.07003021240234,25.95,1
-0.107251301407814,-0.7899236679077148,-0.0678562819957733,1.4104095697402954,8.42187786102295,87.07002258300781,25.95,1
-0.1415987759828567,-0.8204029202461243,-0.1051217764616012,-4.877157211303711,8.421998023986816,87.07001495361328,25.95,1
-0.1804343312978744,-0.8567560315132141,-0.1346344053745269,-2.7143001556396484,8.422075271606445,87.07000732421875,25.95,1
-0.2165523022413253,-0.9360631108283995,-0.1591716855764389,4.971865177154541,8.422124862670898,87.07000732421875,25.95,1
-0.2565240561962127,-0.958968997001648,-0.1525271981954574,8.646919250488281,8.409762382507324,87.07000732421875,25.95,1
-0.2709800899028778,-1.0072553157806396,-0.1594586968421936,2.7009470462799072,8.40182876586914,87.07000732421875,25.95,1
-0.3082460165023803,-1.18378484249115,-0.1918957978487014,-9.118309020996094,8.396738052368164,87.07000732421875,25.95,1
-0.3713455498218536,-1.2298979759216309,-0.1903209686279297,-18.512428283691406,8.393470764160156,87.07000732421875,25.95,1
-0.4006436467170715,-1.0747642517089844,-0.0605615228414535,-21.567495346069336,8.391373634338379,87.07000732421875,25.95,1
-0.3410766422748565,-1.137543797492981,0.02830839343369,-22.073535919189453,8.39002799987793,87.07000732421875,25.95,1
-0.2916544377803802,-1.1106587648391724,0.0573511198163032,-26.27104759216309,8.389164924621582,87.07000732421875,25.95,1
-0.2207536697387695,-0.9758522510528564,0.0424024201929569,-35.126800537109375,8.38861083984375,87.07000732421875,25.95,1
-0.1696558743715286,-0.8613523244857788,0.0607980787754058,-40.76333999633789,8.379074096679688,87.02342987060547,25.95,1
-0.1984397619962692,-0.7598839998245239,0.0837989002466201,-32.4398193359375,8.372954368591309,86.99353790283203,25.95,1
-0.2672915756702423,-0.77313631772995,0.0761684104800224,-10.836953163146973,8.369026184082031,86.97435760498047,25.95,1
-0.3226722478866577,-0.7984341979026794,0.0768693760037422,7.615801334381103,8.36650562286377,86.96205139160156,25.95,1
-0.3358213007450104,-0.7978755831718445,0.0941125378012657,8.939275741577148,8.364888191223145,86.95415496826172,25.95,1
-0.3330640494823456,-0.8087126612663269,0.1163737550377845,-0.9734513759613036,8.363850593566895,86.94908142089844,25.95,1
-0.3424901366233825,-0.8324605822563171,0.1362574994564056,-5.69404935836792,8.363183975219727,86.94583129882812,25.95,1
-0.3429414927959442,-0.8980806469917297,0.1378221958875656,1.515543818473816,8.362756729125977,86.94374084472656,25.95,1
-0.3320356011390686,-0.9457895755767822,0.1220329999923706,14.57204532623291,8.326217651367188,86.94239807128906,25.95,1
-0.3250368237495422,-1.0547752380371094,0.0895093008875846,24.950035095214844,8.30276870727539,86.94154357910156,25.95,1
-0.3485342860221863,-1.1918892860412598,0.0630396902561187,28.589920043945312,8.287720680236816,86.94099426269531,25.95,1
-0.3860046863555908,-1.1343390941619873,0.023661920800805,27.13542366027832,8.278063774108887,86.94063568115234,25.95,1
-0.3148888945579529,-1.035831093788147,0.0487715043127536,25.872413635253903,8.271866798400879,86.9404067993164,25.95,1
-0.2692508697509765,-1.0733742713928225,0.0816787183284759,27.73090553283692,8.267889976501465,86.94026184082031,25.95,1
-0.2119741290807724,-1.2150206565856934,-0.0091588189825415,29.15286445617676,8.265337944030762,86.94017028808594,25.95,1
-0.152826115489006,-1.210758924484253,-0.1010397672653198,25.239665985107425,8.263700485229492,86.94010925292969,25.95,1
-0.1036727800965309,-1.090470790863037,-0.0704392790794372,17.856098175048828,8.219498634338379,86.94007110595703,25.93,1
-0.0889223217964172,-1.0132766962051392,-0.0228127762675285,14.020557403564451,8.191132545471191,86.94004821777344,25.93,1
-0.1186407431960105,-0.9805313348770142,-0.0426287986338138,16.41710090637207,8.172928810119629,86.94003295898438,25.93,1
-0.1209189966320991,-0.9259306192398072,-0.0833344534039497,19.1301498413086,8.161246299743652,86.94002532958984,25.93,1
-0.0943921729922294,-0.8684999346733093,-0.0870659053325653,14.229132652282717,8.153749465942383,86.94001770019531,25.93,1
-0.0885643362998962,-0.820448637008667,-0.0894605293869972,1.873140335083008,8.148938179016113,86.94001007080078,25.93,1
-0.1240087896585464,-0.8176009654998779,-0.1133883595466613,-8.8363037109375,8.145851135253906,86.94001007080078,25.93,1
-0.1523527652025222,-0.8325668573379517,-0.1343416422605514,-10.765053749084473,8.143869400024414,86.94001007080078,25.93,1
-0.1817378550767898,-0.8533666133880615,-0.1589837968349456,-7.062442779541016,8.137548446655273,86.94001007080078,25.93,1
-0.2117910534143448,-0.883508026599884,-0.1747977137565612,-5.829161643981934,8.133492469787598,86.94001007080078,25.93,1
-0.2478707879781723,-0.936437726020813,-0.1849461793899536,-11.188995361328123,8.130888938903809,86.94001007080078,25.93,1
-0.265426903963089,-1.155131459236145,-0.2474366277456283,-21.87617874145508,8.129218101501465,86.94001007080078,25.93,1
-0.3270733952522278,-1.345856547355652,-0.3043327331542969,-33.1769905090332,8.128146171569824,86.94001007080078,25.93,1
-0.4450033903121948,-1.1155930757522583,-0.1617165803909301,-39.37950897216797,8.127458572387695,86.94001007080078,25.93,1
-0.4479130208492279,-0.9118455052375792,-0.0030204532667994,-38.62734222412109,8.1270170211792,86.94001007080078,25.93,1
-0.2762492597103119,-0.9994052648544312,0.0316482931375503,-35.61534881591797,8.126733779907227,86.94001007080078,25.93,1
-0.1884764283895492,-1.0332050323486328,-0.0244721416383981,-37.86328887939453,8.120125770568848,86.87551879882812,25.93,1
-0.12655109167099,-0.9765268564224244,-0.0828781053423881,-47.17322540283203,8.115884780883789,86.83413696289062,25.93,1
-0.1595820486545562,-0.9121652245521544,-0.025197522714734,-52.7680549621582,8.113162994384766,86.80757904052734,25.93,1
-0.242354929447174,-0.8316771984100342,0.0510029718279838,-39.513221740722656,8.111416816711426,86.79053497314453,25.93,1
-0.3122671246528625,-0.8416001200675964,0.0775129646062851,-9.472169876098633,8.110296249389648,86.77959442138672,25.93,1
-0.3347416520118713,-0.8367725610733032,0.0945255532860755,15.01909351348877,8.109577178955078,86.77257537841797,25.93,1
-0.3211756348609924,-0.8112834095954895,0.1054432541131973,18.96383476257324,8.109115600585938,86.76807403564453,25.93,1
-0.295676440000534,-0.8229148387908936,0.1180473789572715,12.621302604675291,8.108819007873535,86.76518249511719,25.93,1
-0.2793125212192535,-0.8415747284889221,0.1317337602376938,12.860868453979492,8.105875015258789,86.7633285522461,25.93,1
-0.3023977279663086,-0.8423540592193604,0.1349191069602966,21.3261833190918,8.103984832763672,86.76213836669922,25.93,1
-0.3228102624416351,-0.8708430528640747,0.1145721897482872,29.839750289916992,8.10277271270752,86.7613754272461,25.93,1
-0.3415076434612274,-1.0458632707595823,0.0735258385539054,34.497188568115234,8.101994514465332,86.7608871459961,25.93,1
-0.426277607679367,-1.091007947921753,0.0639779716730117,37.00958251953125,8.101494789123535,86.76056671142578,25.93,1
-0.4526892006397247,-1.0416103601455688,0.0578507035970687,39.67516708374024,8.101174354553223,86.76036071777344,25.93,1
-0.4024653732776642,-1.0770831108093262,0.0875052213668823,42.57520294189453,8.100968360900879,86.7602310180664,25.93,1
-0.3702346086502075,-1.1726185083389282,0.1177313327789306,42.84919738769531,8.100836753845215,86.76014709472656,25.93,1
-0.3495507538318634,-1.211536526679993,0.058759868144989,38.07391357421875,8.111310005187988,86.76009368896484,25.93,1
-0.2970926165580749,-1.118958592414856,0.048904251307249,31.588048934936523,8.11803150177002,86.76006317138672,25.93,1
-0.2634280025959015,-1.031558632850647,0.0761661306023597,30.868650436401367,8.122344970703125,86.76004028320312,25.93,1
-0.2642150819301605,-0.9250903725624084,0.082465685904026,38.55734252929688,8.125112533569336,86.76002502441406,25.93,1
-0.2759157419204712,-0.8231785297393799,0.080910600721836,46.03871154785156,8.1268892288208,86.76001739501953,25.93,1
-0.2946200966835022,-0.8137550950050354,0.0631193146109581,39.57262420654297,8.128028869628906,86.760009765625,25.93,1
-0.267439067363739,-0.7741210460662842,0.0572996661067009,18.323429107666016,8.12876033782959,86.760009765625,25.93,1
-0.2388002872467041,-0.7374906539916992,0.064760498702526,-0.5937985181808472,8.129229545593262,86.760009765625,25.93,1
-0.2260193526744842,-0.7755588889122009,0.0695484355092048,-5.239038467407227,8.119431495666504,86.760009765625,25.93,1
-0.2234150469303131,-0.8223799467086792,0.0670232772827148,-4.340156555175781,8.113143920898438,86.760009765625,25.93,1
-0.2497326284646988,-0.8468292355537415,0.0654027760028839,-7.653983116149902,8.109108924865723,86.760009765625,25.93,1
-0.2834150493144989,-0.9296926856040956,0.0643628314137458,-11.08466339111328,8.10651969909668,86.760009765625,25.93,1
-0.2994327247142792,-1.050042986869812,0.0413043610751628,-13.225372314453123,8.104857444763184,86.760009765625,25.93,1
-0.3097119629383087,-1.1944501399993896,0.0097134364768862,-21.893280029296875,8.103791236877441,86.760009765625,25.93,1
-0.3498952090740204,-1.231144666671753,0.0118312984704971,-34.80728912353516,8.103106498718262,86.760009765625,25.93,1
-0.3980736136436462,-1.064368724822998,0.0915592610836029,-37.66715621948242,8.102667808532715,86.760009765625,25.93,1
-0.3226340115070343,-1.0581014156341553,0.1091374307870864,-27.422008514404297,8.096877098083496,86.6883544921875,25.93,1
-0.251830130815506,-1.1044594049453735,0.0868314430117607,-22.402099609375,8.093161582946777,86.64237213134766,25.93,1
-0.1840011775493621,-1.039047122001648,0.0669189691543579,-44.7243766784668,8.090776443481445,86.61286163330078,25.93,1
-0.1572657823562622,-0.9578849077224731,0.0653358399868011,-92.3961410522461,8.089245796203613,86.59392547607422,25.93,1
-0.1792929619550705,-0.8666152358055115,0.0811132043600082,-130.47312927246094,8.088263511657715,86.58177185058594,25.93,1
-0.2717975676059723,-0.7912502884864807,0.0912382081151008,-122.45062255859376,8.08763313293457,86.573974609375,25.93,1
-0.3535528182983398,-0.7484831809997559,0.0865403041243553,-75.5079116821289,8.087228775024414,86.5689697265625,25.93,1
-0.3948230743408203,-0.7434288263320923,0.1003187820315361,-36.72727966308594,8.086969375610352,86.56575775146484,25.93,1
-0.4157101809978485,-0.7625763416290283,0.1371498852968216,-33.9947509765625,8.081753730773926,86.5636978149414,25.93,1
-0.4179187715053558,-0.7692663073539734,0.1663837432861328,-43.66958618164063,8.07840633392334,86.56237030029297,25.93,1
-0.413738340139389,-0.7567662596702576,0.2019376754760742,-32.10517883300781,8.076258659362793,86.5615234375,25.93,1
-0.4222511351108551,-0.7711355090141296,0.235949695110321,-1.3934869766235352,8.07487964630127,86.56097412109375,25.93,1
-0.4501052498817444,-0.825139045715332,0.2465810924768448,26.612754821777344,8.073994636535645,86.56062316894531,25.93,1
-0.4623826444149017,-0.9829464554786682,0.2142193019390106,43.70065307617188,8.073427200317383,86.5604019165039,25.93,1
-0.4702615737915039,-1.1401959657669067,0.176658034324646,51.28831481933594,8.073062896728516,86.56025695800781,25.93,1
-0.5256977677345276,-1.2243162393569946,0.1693467050790786,48.637813568115234,8.072829246520996,86.56016540527344,25.93,1
-0.555675745010376,-1.1887354850769043,0.1422636210918426,40.16222381591797,8.063957214355469,86.56010437011719,25.95,1
-0.4965450763702392,-1.1211196184158323,0.0521121807396411,35.41093063354492,8.058263778686523,86.56006622314453,25.95,1
-0.4418050944805145,-1.1393030881881714,-0.0057418216019868,35.7939338684082,8.054610252380371,86.56004333496094,25.95,1
-0.3842850029468536,-1.2517321109771729,-0.0148803191259503,34.43114471435547,8.052265167236328,86.56002807617188,25.95,1
-0.3305786252021789,-1.1279605627059937,-0.0319404304027557,29.468868255615234,8.050760269165039,86.56002044677734,25.95,1
-0.273721843957901,-0.9869555830955504,-0.0484864003956317,26.85757637023925,8.049795150756836,86.56001281738281,25.95,1
-0.2540277540683746,-0.8628800511360168,-0.0647024288773536,28.341630935668945,8.049175262451172,86.56000518798828,25.95,1
-0.258182555437088,-0.7888532876968384,-0.0751089379191398,26.395708084106445,8.04877758026123,86.56000518798828,25.95,1
-0.2944355010986328,-0.7525427341461182,-0.0761894658207893,16.254974365234375,8.053571701049805,86.56000518798828,25.95,1
-0.3121027946472168,-0.7516317963600159,-0.093676209449768,4.849853992462158,8.056648254394531,86.56000518798828,25.95,1
-0.2898539900779724,-0.7566449642181396,-0.1048981919884681,1.575432062149048,8.058622360229492,86.56000518798828,25.95,1
-0.2475871294736862,-0.7654598951339722,-0.0897087156772613,6.499527454376221,8.059889793395996,86.56000518798828,25.95,1
-0.226060464978218,-0.8103012442588806,-0.0743632167577743,12.006115913391112,8.06070327758789,86.56000518798828,25.95,1
-0.2514303028583526,-0.9174466729164124,-0.0477220304310321,11.24441909790039,8.061224937438965,86.56000518798828,25.95,1
-0.3012978434562683,-1.030988693237305,-0.0306252520531415,3.654941320419312,8.061559677124023,86.56000518798828,25.95,1
-0.3444955348968506,-1.098255634307861,-0.0084579745307564,-4.934262752532959,8.061774253845215,86.56000518798828,25.95,1
-0.3666195273399353,-1.0350658893585205,0.0617454499006271,-8.056740760803223,8.02702522277832,86.49193572998047,25.95,1
-0.3752196729183197,-0.9441344141960144,0.129189059138298,-5.199013233184815,8.004725456237793,86.44824981689453,25.95,1
-0.3583476543426513,-1.0089309215545654,0.1556771695613861,-2.286732912063598,7.990414142608643,86.42021942138672,25.95,1
-0.3027379512786865,-1.0617090463638306,0.1502846181392669,-5.952878475189209,7.98123025894165,86.40222930908203,25.95,1
-0.2502575218677521,-1.0396013259887695,0.1468239873647689,-15.137571334838867,7.97533655166626,86.39068603515625,25.95,1
-0.2277741581201553,-0.9414472579956056,0.1446031481027603,-18.95030212402344,7.971554279327393,86.3832778930664,25.95,1
-0.2301389575004577,-0.8728598356246948,0.1487757265567779,-8.944060325622559,7.969127178192139,86.37852478027344,25.95,1
-0.2764387428760528,-0.8568332195281982,0.1346601247787475,7.207645416259766,7.967569351196289,86.37547302246094,25.95,1
-0.3509334921836853,-0.8577438592910767,0.1088082119822502,12.811636924743652,7.967487335205078,86.3735122680664,25.95,1
-0.4043377041816711,-0.8527304530143738,0.0978157222270965,2.600710153579712,7.967434883117676,86.37225341796875,25.95,1
-0.4274139106273651,-0.8327198028564453,0.1075546965003013,-12.385458946228027,7.967401027679443,86.37144470214844,25.95,1
-0.419831782579422,-0.7918892502784729,0.1305979341268539,-19.62388801574707,7.967379570007324,86.37092590332031,25.95,1
-0.4205637872219085,-0.765686571598053,0.1453857570886612,-16.44474983215332,7.967365741729736,86.37059783935547,25.95,1
-0.4602179527282715,-0.7880555987358093,0.1324846297502517,-7.0029616355896,7.96735668182373,86.3703842163086,25.95,1
-0.5080568194389343,-0.813606321811676,0.1186076551675796,4.236639499664307,7.967350959777832,86.37024688720703,25.95,1
-0.5331592559814453,-0.8971765637397766,0.0761155635118484,13.821233749389648,7.967347145080566,86.37016296386719,25.95,1
-0.5268774628639221,-1.0403715372085571,0.0264554899185895,19.21615028381348,7.969181060791016,86.37010192871094,25.95,1
-0.534041702747345,-1.1938413381576538,0.0113798351958394,21.06255531311035,7.970357894897461,86.37006378173828,25.95,1
-0.4658682644367218,-1.0908095836639404,-0.0374792739748954,23.0356388092041,7.971113204956055,86.37004089355469,25.95,1
-0.3885318338871002,-1.0582764148712158,-0.0912253335118293,26.66276741027832,7.971597671508789,86.37002563476562,25.95,1
-0.3836839497089386,-1.1269627809524536,-0.1537053287029266,28.58561897277832,7.9719085693359375,86.3700180053711,25.95,1
-0.4085617363452911,-1.1878350973129272,-0.1882036179304123,26.168949127197266,7.972108364105225,86.37001037597656,25.95,1
-0.4021357595920563,-1.1541284322738647,-0.2103426456451416,22.665565490722656,7.972236633300781,86.37001037597656,25.95,1
-0.3252408802509308,-1.026139736175537,-0.23014797270298,22.34472274780273,7.972318649291992,86.37001037597656,25.95,1
-0.2758941650390625,-0.949601709842682,-0.24285788834095,24.02684211730957,7.963650226593018,86.37001037597656,25.95,1
-0.261019617319107,-0.9284728765487672,-0.25101438164711,23.38669204711914,7.958086967468262,86.37001037597656,25.95,1
-0.2570717632770538,-0.909315824508667,-0.2562487423419952,17.949527740478516,7.954516887664795,86.37001037597656,25.95,1
-0.2601360380649566,-0.8746308088302612,-0.2708033919334411,7.947145462036133,7.952225685119629,86.37001037597656,25.95,1
-0.2285158485174179,-0.8467742204666138,-0.2521548569202423,-3.594891309738159,7.950755596160889,86.37001037597656,25.95,1
-0.213821604847908,-0.8344952464103699,-0.228991761803627,-11.782907485961914,7.949811935424805,86.37001037597656,25.95,1
-0.2267827838659286,-0.8657997250556946,-0.2029314786195755,-14.801977157592772,7.949206352233887,86.37001037597656,25.95,1
-0.24629607796669,-0.9530624151229858,-0.1974030286073684,-16.889909744262695,7.948817729949951,86.37001037597656,25.95,1
-0.3371874392032623,-1.0874314308166504,-0.1938551962375641,-23.46755027770996,7.904958724975586,86.32701873779297,25.95,1
-0.4123095870018005,-0.9721418619155884,-0.1411984264850616,-34.714134216308594,7.87681245803833,86.29942321777344,25.95,1
-0.387747585773468,-0.9485356211662292,-0.1353952139616012,-45.80788803100586,7.858749866485596,86.2817153930664,25.95,1
-0.3551917970180511,-1.0901241302490234,-0.1372688263654709,-52.27519226074219,7.847158432006836,86.27035522460938,25.95,1
-0.362288236618042,-1.1865853071212769,-0.0936890020966529,-53.33735656738281,7.839719772338867,86.2630615234375,25.95,1
-0.3500489890575409,-1.1701196432113647,-0.0265375655144453,-49.970680236816406,7.834946155548096,86.25838470458984,25.95,1
-0.2862167954444885,-1.0475975275039673,-0.0114325070753693,-41.23611831665039,7.831882476806641,86.25537872314453,25.95,1
-0.2508507668972015,-0.9633720517158508,0.0038588235620409,-25.1195011138916,7.829916477203369,86.25344848632812,25.95,1
-0.2561437487602234,-0.9093210101127625,0.0192696936428546,-3.8069372177124015,7.825339317321777,86.25221252441406,25.95,1
-0.2931271195411682,-0.8690363764762878,0.0347572788596153,14.556248664855955,7.822402000427246,86.25141906738281,25.95,1
-0.3168609142303467,-0.8207929134368896,0.0055118976160883,21.84813499450684,7.820517063140869,86.25090789794922,25.95,1
-0.3208963572978973,-0.7786374688148499,-0.0188538786023855,17.76824951171875,7.819307327270508,86.25057983398438,25.95,1
-0.3402794003486633,-0.7459867596626282,-0.0176971089094877,10.116495132446287,7.818531036376953,86.25037384033203,25.95,1
-0.3863049745559692,-0.7362290024757385,-0.0113569861277937,7.094057083129883,7.818032741546631,86.25023651123047,25.95,1
-0.4326348602771759,-0.7355647683143616,-0.0128860343247652,10.736083030700684,7.817712783813477,86.25015258789062,25.95,1
-0.523942232131958,-0.7519318461418152,-0.0138672897592186,18.06027030944824,7.817507743835449,86.2500991821289,25.95,1
-0.588135838508606,-0.8464019298553467,-0.042485874146223,26.475643157958984,7.8260979652404785,86.25006103515625,25.93,1
-0.6125382781028748,-0.9853962063789368,-0.083242729306221,34.97865676879883,7.831610679626465,86.25003814697266,25.93,1
-0.672980546951294,-1.152963638305664,-0.0926048159599304,41.904258728027344,7.835148334503174,86.2500228881836,25.93,1
-0.6725844740867615,-1.086967706680298,-0.1042106375098228,45.796993255615234,7.837418556213379,86.25001525878906,25.93,1
-0.5547770261764526,-1.0110286474227903,-0.1340496838092804,48.66413116455078,7.8388752937316895,86.25000762939453,25.93,1
-0.5183594226837158,-1.051859736442566,-0.1364053338766098,53.814395904541016,7.839810371398926,86.25000762939453,25.93,1
-0.5117820501327515,-1.0612695217132568,-0.1379170566797256,59.81721878051758,7.840410232543945,86.25000762939453,25.93,1
-0.4571810662746429,-0.9889392852783204,-0.1612782925367355,62.16838455200195,7.840795516967773,86.25000762939453,25.93,1
-0.4053479731082916,-0.8865441679954529,-0.1650746464729309,60.81475067138672,7.818089962005615,86.25000762939453,25.93,1
-0.388877809047699,-0.8040395379066467,-0.1451198309659958,61.80183792114258,7.803518772125244,86.25000762939453,25.93,1
-0.3839059770107269,-0.77348393201828,-0.1267161965370178,68.4898452758789,7.794167995452881,86.25000762939453,25.93,1
-0.3807153403759002,-0.7818639874458313,-0.1149058043956756,75.77686309814453,7.7881669998168945,86.25000762939453,25.93,1
-0.3562766909599304,-0.7816440463066101,-0.0961310267448425,73.7932357788086,7.784316062927246,86.25000762939453,25.93,1
-0.3293977975845337,-0.781502902507782,-0.0784846842288971,59.31130599975586,7.781844615936279,86.25000762939453,25.93,1
-0.2897574007511139,-0.8541833758354187,-0.0783558264374733,42.40108108520508,7.780258655548096,86.25000762939453,25.93,1
-0.2643184661865234,-0.9456077218055724,-0.078273132443428,33.89924240112305,7.77924108505249,86.25000762939453,25.93,1
-0.2479932159185409,-1.1050385236740112,-0.1006111577153205,28.210384368896484,7.783637523651123,86.22850799560547,25.93,1
-0.2990921437740326,-1.1681675910949707,-0.0813597738742828,4.375372409820557,7.786458969116211,86.21471405029297,25.93,1
-0.3542755842208862,-1.079931378364563,-0.0242231469601392,-51.127811431884766,7.788269519805908,86.20586395263672,25.93,1
-0.3337113857269287,-1.0233064889907837,0.0012483025202527,-131.10243225097656,7.789431571960449,86.20018005371094,25.93,1
-0.3261122405529022,-1.0485434532165527,0.0287899617105722,-207.6898651123047,7.790177345275879,86.196533203125,25.93,1
-0.3100399971008301,-1.0703368186950684,0.0520623885095119,-252.722900390625,7.790655612945557,86.1941909790039,25.93,1
-0.2437480241060257,-1.0171492099761963,0.0502039678394794,-263.1507263183594,7.790962696075439,86.19268798828125,25.93,1
-0.2068034261465072,-0.9382343292236328,0.0434135645627975,-252.7359161376953,7.791159629821777,86.19172668457031,25.93,1
-0.2054855972528457,-0.8540046215057373,0.0558491982519626,-223.95497131347656,7.762825012207031,86.19110870361328,25.93,1
-0.2438243180513382,-0.7999508380889893,0.0638296753168106,-157.79734802246094,7.744641780853271,86.19071197509766,25.93,1
-0.2852212190628052,-0.7596644759178162,0.063353307545185,-64.68357849121094,7.732972621917725,86.19046020507812,25.93,1
-0.3173851370811462,-0.7338110208511353,0.0630476027727127,8.688850402832031,7.725483894348144,86.19029998779297,25.93,1
-0.3380261063575744,-0.7228175401687622,0.0740469694137573,46.74338150024414,7.720678329467773,86.19019317626953,25.93,1
-0.340076744556427,-0.7381536364555359,0.0811057314276695,63.36890411376953,7.717594146728516,86.19012451171875,25.93,1
-0.3525882661342621,-0.7479954361915588,0.0912334099411964,65.83769226074219,7.715615272521973,86.19007873535156,25.93,1
-0.3662151992321014,-0.7878980040550232,0.097732774913311,59.41496276855469,7.714344978332519,86.19004821777344,25.93,1
-0.3693624138832092,-0.9310584664344788,0.0683170408010482,55.938087463378906,7.716743469238281,86.19003295898438,25.93,1
-0.3601865768432617,-1.1012994050979614,0.0270486213266849,58.76542663574219,7.718282699584961,86.19002532958984,25.93,1
-0.4214713275432586,-1.3113101720809937,0.0285537969321012,58.67033386230469,7.7192702293396,86.19001770019531,25.93,1
-0.4384092688560486,-1.1661943197250366,-0.0040669152513146,49.30894470214844,7.719903945922852,86.19001007080078,25.93,1
-0.387703537940979,-1.078665018081665,-0.0250010099261999,39.12047958374024,7.720310688018799,86.19001007080078,25.93,1
-0.3495657444000244,-1.2072203159332275,0.0231402106583118,38.4145393371582,7.720571994781494,86.19001007080078,25.93,1
-0.302700012922287,-1.2673286199569702,0.0372411534190177,45.78585433959961,7.720739364624023,86.19001007080078,25.93,1
-0.2390376329421997,-1.1659584045410156,-0.015285194851458,50.53783416748047,7.720847129821777,86.19001007080078,25.93,1
-0.1981827914714813,-1.0001448392868042,0.0293752625584602,45.687801361083984,7.720457077026367,86.19001007080078,25.93,1
-0.1887578219175338,-0.8881374597549438,0.0692313238978385,37.151309967041016,7.720207214355469,86.19001007080078,25.93,1
-0.1995027512311935,-0.821855366230011,0.066819779574871,33.81546401977539,7.720046520233154,86.19001007080078,25.93,1
-0.2063982188701629,-0.7737215161323547,0.0428810864686965,33.759769439697266,7.719943523406982,86.19001007080078,25.93,1
-0.1660411357879638,-0.7820164561271667,0.0163230635225772,27.78411674499512,7.719877243041992,86.19001007080078,25.93,1
-0.1345445215702057,-0.7761440873146057,0.0160729773342609,14.29066276550293,7.719834804534912,86.19001007080078,25.93,1
-0.131125122308731,-0.7779732942581177,0.010314711369574,0.2037377506494522,7.7198076248168945,86.19001007080078,25.93,1
-0.1737129390239715,-0.8295271396636963,-0.0101739345118403,-8.20590591430664,7.719789981842041,86.19001007080078,25.93,1
-0.2066411226987838,-0.8850025534629822,-0.0289201419800519,-9.321553230285645,7.697744846343994,86.0896987915039,25.93,1
-0.2333703190088272,-0.9541901350021362,-0.0297548305243253,-6.171912670135498,7.683597564697266,86.02532196044922,25.93,1
-0.250523567199707,-1.0545685291290283,-0.0470838099718093,-3.8604660034179688,7.674518585205078,85.9840087890625,25.93,1
-0.2671293318271637,-1.208549976348877,-0.0805956497788429,-4.440676212310791,7.668692111968994,85.9574966430664,25.93,1
-0.3673503398895263,-1.1954108476638794,-0.0797105208039283,-5.991689205169678,7.664952754974365,85.94048309326172,25.93,1
-0.442861944437027,-1.0246435403823853,0.0048241172917187,-7.882684230804443,7.662553310394287,85.9295654296875,25.93,1
-0.3401810526847839,-0.9990214705467224,0.0534758120775222,-13.84671115875244,7.661013603210449,85.92255401611328,25.93,1
-0.2518952786922455,-1.0665453672409058,0.0063288258388638,-26.558868408203125,7.660025119781494,85.91806030273438,25.93,1
-0.2232274115085601,-1.0259116888046265,-0.0295251719653606,-38.775856018066406,7.67316198348999,85.91517639160156,25.93,1
-0.2440144419670105,-0.9550530910491944,-0.0357408784329891,-36.55256271362305,7.681592464447021,85.91332244873047,25.93,1
-0.2853432297706604,-0.8703957200050354,-0.0285342130810022,-16.58953285217285,7.687002658843994,85.9121322631836,25.93,1
-0.3510500788688659,-0.7600897550582886,0.0040794815868139,6.5788164138793945,7.690474510192871,85.91136932373047,25.93,1
-0.3876191973686218,-0.7116928100585938,0.030606847256422,15.954841613769531,7.692702770233154,85.91088104248047,25.93,1
-0.3886960446834564,-0.6974277496337891,0.0476305857300758,8.250569343566895,7.694132804870605,85.91056823730469,25.93,1
-0.3613982498645782,-0.7106643915176392,0.0529576651751995,-6.706887722015381,7.695050239562988,85.91036224365234,25.93,1
-0.3382823169231415,-0.7415499687194824,0.05077850446105,-15.779083251953123,7.695639133453369,85.91023254394531,25.93,1
-0.3346433937549591,-0.8061527609825134,0.0437822714447975,-11.985464096069336,7.670310497283935,85.91014862060547,25.95,1
-0.3546992242336273,-0.8811977505683899,0.0392924919724464,0.9818350076675416,7.654056072235107,85.91009521484375,25.95,1
-0.3675698935985565,-0.9965305924415588,0.019617885351181,13.566765785217283,7.643624782562256,85.91006469726562,25.95,1
-0.4374050796031952,-1.165706753730774,0.018187403678894,19.52216529846192,7.6369309425354,85.91004180908203,25.95,1
-0.4710257351398468,-1.1175366640090942,0.0284649524837732,20.391956329345703,7.632635116577148,85.91002655029297,25.95,1
-0.3582549393177032,-1.0978193283081057,0.0406582653522491,22.20045661926269,7.629878044128418,85.91001892089844,25.95,1
-0.2690918147563934,-1.2195124626159668,0.0204943604767322,26.778823852539062,7.628108978271484,85.9100112915039,25.95,1
-0.1838831901550293,-1.3199992179870603,-0.0204345434904098,27.897008895874023,7.626973628997803,85.9100112915039,25.95,1
-0.1459945142269134,-1.1829659938812256,-0.0578959099948406,20.6182861328125,7.631294250488281,85.9100112915039,25.95,1
-0.1328752934932708,-1.033450484275818,-0.0483498126268386,10.709495544433594,7.634067058563232,85.9100112915039,25.95,1
-0.1412494629621505,-0.9542933106422424,-0.0198325775563716,7.789876937866211,7.6358466148376465,85.9100112915039,25.95,1
-0.1522212922573089,-0.9314836859703064,-0.0575096011161804,13.496963500976562,7.636988639831543,85.9100112915039,25.95,1
-0.1424690634012222,-0.8944546580314636,-0.0872863233089447,20.888904571533203,7.637721538543701,85.9100112915039,25.95,1
-0.1194173172116279,-0.8427026867866516,-0.084004208445549,20.943035125732425,7.6381916999816895,85.9100112915039,25.95,1
-0.1102218031883239,-0.8150890469551086,-0.0818979367613792,10.548895835876465,7.638493537902832,85.9100112915039,25.95,1
-0.1435050815343856,-0.814161479473114,-0.1029373481869697,-2.129444122314453,7.6386871337890625,85.9100112915039,25.95,1
-0.1704621464014053,-0.841555118560791,-0.1276347786188125,-5.980912208557129,7.63238525390625,85.81686401367188,25.95,1
-0.1877616345882415,-0.8815258741378784,-0.1490819454193115,-1.7065727710723877,7.628340721130371,85.75708770751953,25.95,1
-0.2268523275852203,-0.9687523245811462,-0.168443277478218,0.4095014333724975,7.625745296478271,85.71871948242188,25.95,1
-0.2407429367303848,-1.04152250289917,-0.1976615935564041,-5.240041255950928,7.624079704284668,85.69409942626953,25.95,1
-0.277646005153656,-1.3177310228347778,-0.2835855185985565,-16.009248733520508,7.623010635375977,85.67829895019531,25.95,1
-0.3908926546573639,-1.1311304569244385,-0.1707933098077774,-26.219858169555664,7.62232494354248,85.66815948486328,25.95,1
-0.4131878614425659,-0.8602409958839417,-0.0144431553781032,-30.250307083129883,7.621884822845459,85.66165161132812,25.95,1
-0.2651601731777191,-0.882321834564209,0.035513412207365,-25.965436935424805,7.621602058410644,85.65747833251953,25.95,1
-0.1645667552947998,-0.9916542172431946,-0.010796183720231,-18.569053649902344,7.610403537750244,85.65480041503906,25.95,1
-0.088816151022911,-0.9610574841499328,-0.1356771737337112,-18.67328834533692,7.603217124938965,85.65308380126953,25.95,1
-0.1241703853011131,-0.9134334325790404,-0.1486453115940094,-31.34368133544922,7.598605155944824,85.6519775390625,25.95,1
-0.1972386687994003,-0.838088870048523,-0.1065875515341758,-43.49803924560547,7.595645427703857,85.6512680053711,25.95,1
-0.305705189704895,-0.8065303564071655,-0.0572062022984027,-32.396339416503906,7.593746185302734,85.65081787109375,25.95,1
-0.3753127753734588,-0.7974734902381897,-0.0423094220459461,2.919379711151123,7.592527389526367,85.65052795410156,25.95,1
-0.3807984888553619,-0.786063551902771,-0.0271517522633075,32.260894775390625,7.591745376586914,85.65033721923828,25.95,1
-0.3619278073310852,-0.7899368405342102,-0.0118266576901078,30.505111694335938,7.591243267059326,85.65021514892578,25.95,1
-0.3386221528053283,-0.8036180138587952,0.0036058803088963,8.857358932495117,7.574854373931885,85.65013885498047,25.93,1
-0.329263687133789,-0.8347889184951782,0.0247051436454057,-3.343946933746338,7.564336776733398,85.65009307861328,25.93,1
-0.3344535231590271,-0.8659881949424744,0.04384321346879,6.248022079467773,7.557587146759033,85.65006256103516,25.93,1
-0.3769684731960296,-1.0707366466522217,0.0225382763892412,27.400257110595703,7.553255558013916,85.65003967285156,25.93,1
-0.393056571483612,-1.0677858591079712,0.0200615432113409,44.95837020874024,7.55047607421875,85.6500244140625,25.93,1
-0.3194143772125244,-0.9931210875511168,0.0184721183031797,51.40758895874024,7.548692226409912,85.65001678466797,25.93,1
-0.2385684102773666,-1.1579209566116333,0.0174521170556545,47.56793212890625,7.547547340393066,85.65000915527344,25.93,1
-0.1419039219617843,-1.3140599727630615,-0.0167891085147857,39.27500915527344,7.546812534332275,85.65000915527344,25.93,1
-0.0966635420918464,-1.268718957901001,-0.0779475793242454,32.86398696899414,7.547259330749512,85.65000915527344,25.93,1
-0.0900219678878784,-1.0940794944763184,-0.0388267189264297,31.035444259643555,7.54754638671875,85.65000915527344,25.93,1
-0.0969553366303443,-0.9820059537887572,0.0030721188522875,33.16870880126953,7.547730445861816,85.65000915527344,25.93,1
-0.1126003265380859,-0.9324747323989868,-0.0204195883125066,38.42122650146485,7.547848701477051,85.65000915527344,25.93,1
-0.1114448308944702,-0.8894928693771362,-0.0466907620429992,45.539363861083984,7.547924518585205,85.65000915527344,25.93,1
-0.0939099714159965,-0.8451162576675415,-0.0411589927971363,49.31921005249024,7.547973155975342,85.65000915527344,25.93,1
-0.1162437573075294,-0.7942467927932739,-0.0264134723693132,42.59141540527344,7.548004150390625,85.65000915527344,25.93,1
-0.1473696231842041,-0.7951883673667908,-0.0337439700961113,26.84548759460449,7.548024177551269,85.65000915527344,25.93,1
-0.1729421764612198,-0.8293792605400085,-0.0608393587172031,15.26821994781494,7.562267303466797,85.58193969726562,25.93,1
-0.2005487233400344,-0.8569188117980957,-0.0838253945112228,17.26076889038086,7.571407794952393,85.53825378417969,25.93,1
-0.2294605672359466,-0.9137765169143676,-0.0929787307977676,26.306495666503903,7.577273368835449,85.51021575927734,25.93,1
-0.2424167543649673,-0.9950466752052308,-0.1100483685731887,30.42054748535156,7.581037998199463,85.49222564697266,25.93,1
-0.2451335042715072,-1.131167769432068,-0.1545893251895904,26.053192138671875,7.58345365524292,85.48068237304688,25.93,1
-0.3252457976341247,-1.2465113401412964,-0.194368690252304,16.196382522583008,7.585003852844238,85.47327423095703,25.93,1
-0.4046461284160614,-1.0910234451293943,-0.1135390847921371,5.503690242767334,7.58599853515625,85.46852111816406,25.93,1
-0.3604385256767273,-0.918469250202179,0.0278970953077077,1.364493489265442,7.586637020111084,85.46546936035156,25.93,1
-0.2704931199550628,-1.0204492807388306,-0.0212816689163446,8.61401653289795,7.590260505676269,85.46350860595703,25.93,1
-0.2015757858753204,-1.0579053163528442,-0.0696350932121276,16.350940704345703,7.592586040496826,85.46224975585938,25.93,1
-0.1629463881254196,-1.0203670263290403,-0.0558833442628383,-2.472248077392578,7.594078063964844,85.46144104003906,25.93,1
-0.2053295522928238,-0.9011148810386658,0.0145172569900751,-63.30358123779297,7.595035552978516,85.46092224121094,25.93,1
-0.2661152780056,-0.8077924251556396,0.0596963092684745,-139.4785919189453,7.595650196075439,85.4605941772461,25.93,1
-0.3219173848628998,-0.7702945470809937,0.0551029779016971,-176.29005432128906,7.596044540405273,85.46038055419922,25.93,1
-0.3521301746368408,-0.7462305426597595,0.0633507892489433,-147.34640502929688,7.596297740936279,85.46024322509766,25.93,1
-0.3379323780536651,-0.7531787753105164,0.0854370817542076,-86.64094543457031,7.596460342407227,85.46015930175781,25.93,1
-0.3120277225971222,-0.7576377391815186,0.116404116153717,-54.46549606323242,7.58554744720459,85.46009826660156,25.91,1
-0.3121969103813171,-0.7884880900382996,0.1474725306034088,-77.38126373291016,7.5785441398620605,85.4600601196289,25.91,1
-0.3514899015426636,-0.8418727517127991,0.1506171226501464,-128.83734130859375,7.574049949645996,85.46003723144531,25.91,1
-0.3767058849334717,-0.9153163433074952,0.135841816663742,-162.62197875976562,7.571165561676025,85.46002197265625,25.91,1
-0.4152791500091553,-1.1191859245300293,0.1319576501846313,-152.03475952148438,7.569314479827881,85.46001434326172,25.91,1
-0.4848154485225677,-1.238822102546692,0.1630516648292541,-98.73866271972656,7.568126678466797,85.46000671386719,25.91,1
-0.5126465559005737,-1.1420667171478271,0.1774082332849502,-23.72358703613281,7.56736421585083,85.46000671386719,25.91,1
-0.4465403258800506,-1.1135613918304443,0.1698281317949295,43.2503662109375,7.566874980926514,85.46000671386719,25.91,1
-0.3929215967655182,-1.1568437814712524,0.1593658924102783,81.57662963867188,7.572987556457519,85.46000671386719,25.91,1
-0.3641099631786346,-1.1678266525268557,0.0966740846633911,96.1374282836914,7.576910495758057,85.46000671386719,25.91,1
-0.334424763917923,-1.107701539993286,0.0508443154394626,108.86366271972656,7.579427719116211,85.46000671386719,25.91,1
-0.2985811829566955,-0.968356728553772,0.0494222790002822,131.06715393066406,7.581043243408203,85.46000671386719,25.91,1
-0.2979699373245239,-0.8453465700149536,0.0597052462399005,151.470947265625,7.582079887390137,85.46000671386719,25.91,1
-0.3199687600135803,-0.760807991027832,0.0607064887881279,150.9547119140625,7.58274507522583,85.46000671386719,25.91,1
-0.3452818989753723,-0.7457404136657715,0.033360157161951,120.81281280517578,7.58317232131958,85.46000671386719,25.91,1
-0.3447330892086029,-0.7416686415672302,0.0102130807936191,69.3122787475586,7.583446502685547,85.46000671386719,25.91,1
-0.305196464061737,-0.7782400846481323,0.0065541672520339,20.67799568176269,7.577195644378662,85.39551544189453,25.91,1
-0.2686285972595215,-0.8352961540222168,0.015401636250317,-3.5359156131744385,7.573184490203857,85.35413360595703,25.91,1
-0.2507592141628265,-0.8775092363357544,0.0210794322192668,-12.701607704162598,7.570610046386719,85.32757568359375,25.91,1
-0.2672805488109588,-0.9437835812568665,0.0247231144458055,-33.318756103515625,7.568958282470703,85.31053161621094,25.91,1
-0.2722852230072021,-1.0199012756347656,0.0214636456221342,-62.234169006347656,7.567898273468018,85.29959106445312,25.91,1
-0.2810947000980377,-1.2198891639709473,-0.0142147401347756,-70.84877014160156,7.567217826843262,85.29257202148438,25.91,1
-0.337128072977066,-1.1019277572631836,0.0692466422915458,-57.98418045043945,7.566781044006348,85.28807067871094,25.91,1
-0.3674893081188202,-0.931064784526825,0.1563939899206161,-47.854740142822266,7.566500663757324,85.2851791381836,25.91,1
-0.2806156873703003,-0.9893479943275452,0.1619401723146438,-41.56562042236328,7.562648296356201,85.2833251953125,25.91,1
-0.1912785470485687,-1.0603374242782593,0.1151194274425506,-22.722841262817383,7.560176372528076,85.28213500976562,25.91,1
-0.1283493340015411,-1.0219277143478394,0.0738770216703414,-5.020317077636719,7.558589935302734,85.2813720703125,25.91,1
-0.149540513753891,-0.9748875498771667,0.0530077926814556,-25.06829643249512,7.557571887969971,85.2808837890625,25.91,1
-0.1967264264822006,-0.8999176621437073,0.0620062239468097,-81.84197998046875,7.556918621063232,85.28056335449219,25.91,1
-0.2773876190185547,-0.8294152021408081,0.0845742225646972,-128.21771240234375,7.556499004364014,85.28035736083984,25.91,1
-0.3515424132347107,-0.7841708064079285,0.0934592857956886,-124.90106964111328,7.556230068206787,85.28022766113281,25.91,1
-0.3991307020187378,-0.7551355361938477,0.093563437461853,-81.4297103881836,7.556057453155518,85.28014373779297,25.91,1
-0.4184745550155639,-0.7365023493766785,0.0992280468344688,-35.78779983520508,7.5669636726379395,85.28009033203125,25.93,1
-0.4252905547618866,-0.7245446443557739,0.1196565926074981,-9.882983207702637,7.573962688446045,85.28005981445312,25.93,1
-0.4128713607788086,-0.7112731337547302,0.1495597809553146,7.450586795806885,7.578454494476318,85.28003692626953,25.93,1
-0.4104992151260376,-0.7195495367050171,0.1631521582603454,39.263648986816406,7.581336975097656,85.28002166748047,25.93,1
-0.4313679933547973,-0.8144252896308899,0.1550816297531128,72.33667755126953,7.583186626434326,85.28001403808594,25.93,1
-0.4503581523895263,-1.0768309831619265,0.0939246863126754,82.8778076171875,7.584373950958252,85.2800064086914,25.93,1
-0.4793382585048675,-1.3739765882492063,0.043482132256031,77.84149169921875,7.585135459899902,85.2800064086914,25.93,1
-0.5091316103935242,-1.267985463142395,0.0335021056234836,68.56925201416016,7.585624217987059,85.2800064086914,25.93,1
-0.466675728559494,-1.1048043966293335,0.0103041753172874,54.142486572265625,7.5785932540893555,85.2800064086914,25.93,1
-0.3834522366523742,-1.1512240171432495,-0.0437673442065715,37.525611877441406,7.574081420898437,85.2800064086914,25.93,1
-0.352435290813446,-1.2313934564590454,-0.0672717839479446,27.685850143432617,7.571186065673828,85.2800064086914,25.93,1
-0.3493237197399139,-1.2100704908370972,-0.0879533514380455,25.57719993591309,7.5693278312683105,85.2800064086914,25.93,1
-0.3137402534484863,-1.0340511798858645,-0.1012255921959877,25.313093185424805,7.5681352615356445,85.2800064086914,25.93,1
-0.2741115093231201,-0.8875054717063904,-0.1041451767086982,24.64204406738281,7.567369937896728,85.2800064086914,25.93,1
-0.2654733657836914,-0.7990586757659912,-0.1116165742278099,27.693666458129883,7.566878795623779,85.2800064086914,25.93,1
-0.2935165762901306,-0.7646896839141846,-0.1164112910628318,33.03755569458008,7.566563606262207,85.2800064086914,25.93,1
-0.3059152960777282,-0.7482314705848694,-0.1250860393047332,30.82798194885254,7.542949676513672,85.0972900390625,25.93,1
-0.2690899074077606,-0.7600606083869934,-0.1306529939174652,15.00088596343994,7.527795791625977,84.98003387451172,25.93,1
-0.2286641597747802,-0.7788473963737488,-0.1342255473136901,-3.96916937828064,7.518070697784424,84.90478515625,25.93,1
-0.2027212381362915,-0.8244903683662415,-0.1197248771786689,-8.483511924743652,7.511829853057861,84.85649871826172,25.93,1
-0.2364525347948074,-0.9321502447128296,-0.1048214063048362,3.3223323822021484,7.507824897766113,84.82550811767578,25.93,1
-0.2692948877811432,-1.0516201257705688,-0.1120505407452583,15.018606185913086,7.505254745483398,84.80561828613281,25.93,1
-0.3351534008979797,-1.1562778949737549,-0.1166897788643837,11.655067443847656,7.503605365753174,84.79285430908203,25.93,1
-0.3886131644248962,-1.0778990983963013,-0.0580914616584777,-3.995437860488892,7.502546787261963,84.78466796875,25.93,1
-0.4173227846622467,-0.9324378967285156,0.0410890839993953,-18.05151557922364,7.46697998046875,84.77941131591797,25.93,1
-0.3909647762775421,-1.0182180404663086,0.0599552541971206,-21.39709854125977,7.444155216217041,84.77603912353516,25.93,1
-0.3348653018474579,-1.073266863822937,0.0384758301079273,-17.30683708190918,7.429507732391357,84.77387237548828,25.93,1
-0.2148972749710083,-1.0470184087753296,0.0358871221542358,-16.824321746826172,7.420107841491699,84.7724838256836,25.93,1
-0.1435064822435379,-0.9853914976119996,0.0454213880002498,-25.453197479248047,7.414075374603271,84.77159118652344,25.93,1
-0.1816585958003997,-0.9346473813056946,0.0571377053856849,-31.943679809570312,7.410204410552978,84.7710189819336,25.93,1
-0.2733157277107239,-0.918876051902771,0.0534610152244567,-19.528738021850582,7.40772008895874,84.7706527709961,25.93,1
-0.3433315455913543,-0.9087548851966858,0.0399059765040874,6.2689361572265625,7.406125545501709,84.77041625976562,25.93,1
-0.3826658725738525,-0.8966619372367859,0.0144138084724545,17.267824172973633,7.406068801879883,84.770263671875,25.95,1
-0.4023106098175049,-0.8777058124542236,-0.0019455958390608,-1.0491050481796265,7.406032562255859,84.7701644897461,25.95,1
-0.3981241583824157,-0.8431497812271118,0.0099469777196645,-30.39072036743164,7.406009197235107,84.77010345458984,25.95,1
-0.3730464279651642,-0.8377670645713806,0.0231767203658819,-44.33384704589844,7.405993938446045,84.77006530761719,25.95,1
-0.3569529950618744,-0.8399105072021484,0.0204712599515914,-35.16823959350586,7.405984401702881,84.7700424194336,25.95,1
-0.3690162599086761,-0.8468838334083557,0.0131372762843966,-11.97885799407959,7.405978202819824,84.77002716064453,25.95,1
-0.3935510814189911,-0.8905432820320129,-0.0027648014947772,13.22057056427002,7.405974388122559,84.77001953125,25.95,1
-0.4092961251735687,-1.198450207710266,-0.0745453536510467,31.186983108520508,7.405972003936768,84.77001190185547,25.95,1
-0.4809758961200714,-1.1553428173065186,-0.1038166582584381,38.0701904296875,7.408265113830566,84.77000427246094,25.95,1
-0.4654003381729126,-1.0269190073013306,-0.1561879515647888,37.264041900634766,7.409736633300781,84.77000427246094,25.95,1
-0.371438205242157,-1.0396661758422852,-0.2457745671272277,36.13766479492188,7.410681247711182,84.77000427246094,25.95,1
-0.327932059764862,-1.1318131685256958,-0.3032661080360412,37.725582122802734,7.411287307739258,84.77000427246094,25.95,1
-0.3559900522232055,-1.1965456008911133,-0.3177697658538818,37.06438827514648,7.411676406860352,84.77000427246094,25.95,1
-0.3292138576507568,-1.0925450325012207,-0.3270773887634277,30.34548759460449,7.411925792694092,84.77000427246094,25.95,1
-0.2728460133075714,-0.9922167658805848,-0.3498438000679016,22.992076873779297,7.412086009979248,84.77000427246094,25.95,1
-0.247867926955223,-0.9222341179847716,-0.3532584309577942,25.72842025756836,7.41218900680542,84.77000427246094,25.95,1
-0.2542295455932617,-0.8717254996299744,-0.3386564254760742,39.17439270019531,7.423272132873535,84.61237335205078,25.95,1
-0.2751053869724273,-0.8337141871452332,-0.3124923706054687,48.297637939453125,7.430384635925293,84.51121520996094,25.95,1
-0.2829045057296753,-0.8205162882804871,-0.3124951124191284,33.80338287353516,7.434948921203613,84.44629669189453,25.95,1
-0.2711162269115448,-0.8176444172859192,-0.3013013005256653,-4.850235939025879,7.437878131866455,84.40463256835938,25.95,1
-0.2803445160388946,-0.8325946927070618,-0.2829222083091736,-44.37312698364258,7.439757823944092,84.37789916992188,25.95,1
-0.3086577951908111,-0.8645800352096558,-0.2823231220245361,-65.06854248046875,7.440964221954346,84.3607406616211,25.95,1
-0.4107942283153534,-0.9802685379981996,-0.2707431316375732,-65.91097259521484,7.441738128662109,84.3497314453125,25.95,1
-0.5435128211975098,-1.076901912689209,-0.2185295522212982,-62.33163070678711,7.442234992980957,84.34266662597656,25.95,1
-0.5615106821060181,-1.0269601345062256,-0.1738263368606567,-68.82266998291016,7.408584594726562,84.33812713623047,25.95,1
-0.4443118572235107,-1.090072512626648,-0.1339428275823593,-84.885986328125,7.386989593505859,84.33521270751953,25.95,1
-0.385893702507019,-1.208943247795105,-0.1083478927612304,-98.4259796142578,7.373131275177002,84.33334350585938,25.95,1
-0.3763931691646576,-1.2348476648330688,-0.0527381189167499,-95.90886688232422,7.3642377853393555,84.33214569091797,25.95,1
-0.3143185377120971,-1.1507116556167605,-0.0338442884385585,-75.81102752685547,7.358530521392822,84.33137512207031,25.95,1
-0.2408959716558456,-1.0519359111785889,-0.0161215420812368,-42.81513595581055,7.354867935180664,84.33088684082031,25.95,1
-0.1993753612041473,-0.9605584144592284,-0.0047481027431786,1.739616870880127,7.352517604827881,84.33056640625,25.95,1
-0.2007187008857727,-0.8963198065757751,0.0081484895199537,59.42638397216797,7.351009368896484,84.33036041259766,25.95,1
-0.2407651990652084,-0.8383018374443054,0.0164247807115316,109.5084991455078,7.351877212524414,84.33023071289062,25.93,1
-0.2720625102519989,-0.7898737192153931,0.0161382537335157,120.6042709350586,7.352434158325195,84.33014678955078,25.93,1
-0.2809517681598663,-0.7531975507736206,0.021552151069045,91.2721939086914,7.352791786193848,84.33009338378906,25.93,1
-0.3090474903583526,-0.7184653282165527,0.0418197996914386,45.546993255615234,7.353021144866943,84.33006286621094,25.93,1
-0.3774576783180237,-0.6961762309074402,0.0548264123499393,12.337594985961914,7.353168487548828,84.33003997802734,25.93,1
-0.488532692193985,-0.6762745976448059,0.0519777573645114,4.367226123809815,7.353262901306152,84.33002471923828,25.93,1
-0.5822053551673889,-0.7138828039169312,0.0501496568322181,13.58260440826416,7.353323459625244,84.33001708984375,25.93,1
-0.6591123938560486,-0.8163864612579346,0.0321831628680229,25.619125366210938,7.353362560272217,84.33000946044922,25.93,1
-0.7588468790054321,-0.9829273223876952,0.0094577530398964,33.35063552856445,7.34053373336792,84.33000946044922,25.93,1
-0.7668729424476624,-0.9498593211174012,-0.0163216553628444,34.21022415161133,7.332301139831543,84.33000946044922,25.93,1
-0.6992525458335876,-0.9622248411178588,-0.0384631715714931,30.491430282592773,7.327017784118652,84.33000946044922,25.93,1
-0.7062376737594604,-1.0765180587768557,-0.0582700967788696,27.46722412109375,7.323627471923828,84.33000946044922,25.93,1
-0.6771336793899536,-1.1218760013580322,-0.0709810405969619,28.39252281188965,7.321451663970947,84.33000946044922,25.93,1
-0.5744897723197937,-1.0502241849899292,-0.0791381895542144,29.222776412963867,7.320055484771728,84.33000946044922,25.93,1
-0.4974232912063598,-0.9538621306419371,-0.0731774345040321,24.15601921081543,7.319159507751465,84.33000946044922,25.93,1
-0.4535642266273498,-0.8864247798919678,-0.0581566132605075,16.938554763793945,7.318584442138672,84.33000946044922,25.93,1
-0.4310157597064972,-0.8207562565803528,-0.0541148893535137,16.946237564086914,7.319133281707764,84.18670654296875,25.93,1
-0.4165454506874084,-0.7842117547988892,-0.0515211448073387,26.856990814208984,7.319485664367676,84.09474182128906,25.93,1
-0.3848681449890136,-0.7887484431266785,-0.0442588552832603,35.90407180786133,7.319711685180664,84.03572082519531,25.93,1
-0.3421483933925628,-0.7916598320007324,-0.0395983345806598,27.95287704467773,7.319857120513916,83.99784851074219,25.93,1
-0.2867444455623626,-0.8327126502990723,-0.0366074815392494,-7.057080268859863,7.319950103759766,83.97354125976562,25.93,1
-0.2679826915264129,-0.9430245757102966,-0.0514814481139183,-61.69240188598633,7.320009708404541,83.95793914794922,25.93,1
-0.2503446936607361,-1.0585986375808716,-0.0778200253844261,-107.369384765625,7.3200483322143555,83.94792938232422,25.93,1
-0.2446234375238418,-1.1439629793167114,-0.0835270583629608,-127.85118865966795,7.320073127746582,83.9415054321289,25.93,1
-0.2801362872123718,-1.1091804504394531,-0.053602859377861,-130.5950164794922,7.318252563476562,83.93738555908203,25.93,1
-0.3365130126476288,-0.980501353740692,-0.0064103575423359,-128.02809143066406,7.317084312438965,83.93473815917969,25.93,1
-0.3670945763587951,-0.9874868988990784,0.0014839755604043,-125.22003936767578,7.316334724426269,83.93304443359375,25.93,1
-0.3643289804458618,-1.0143609046936035,0.0065501043573021,-115.97698211669922,7.315853595733643,83.93195343017578,25.93,1
-0.2953808903694153,-1.020411491394043,0.0321923531591892,-85.91667175292969,7.315545082092285,83.9312515258789,25.93,1
-0.2455361932516098,-0.9907078146934508,0.0598436221480369,-33.497615814208984,7.315346717834473,83.93080139160156,25.93,1
-0.2191465198993683,-0.8876791000366211,0.0999797135591507,23.62928009033203,7.315219402313232,83.93051147460938,25.93,1
-0.2581888735294342,-0.8271589875221252,0.114541195333004,64.14130401611328,7.31513786315918,83.93032836914062,25.93,1
-0.3056351244449615,-0.7883206605911255,0.1238859146833419,85.04875183105469,7.32288932800293,83.93021392822266,25.91,1
-0.3416811525821686,-0.7522009015083313,0.1298828125,93.90532684326172,7.327863693237305,83.93013763427734,25.91,1
-0.3480201065540313,-0.7234235405921936,0.1337312757968902,97.18863677978516,7.331056118011475,83.93009185791016,25.91,1
-0.3464902937412262,-0.7161514163017273,0.1473965495824813,97.34675598144533,7.333105087280273,83.93006134033203,25.91,1
-0.3623018860816955,-0.7226801514625549,0.156166136264801,90.05020904541016,7.334419727325439,83.93003845214844,25.91,1
-0.3724488615989685,-0.7548587918281555,0.1561961770057678,70.8976821899414,7.335263252258301,83.93002319335938,25.91,1
-0.3845583796501159,-0.887464702129364,0.1338243633508682,45.71658706665039,7.3358049392700195,83.93001556396484,25.91,1
-0.3811340034008026,-1.0005524158477783,0.0970763191580772,24.523292541503903,7.33615255355835,83.93000793457031,25.91,1
-0.3677408993244171,-1.1570922136306765,0.051102440804243,10.030594825744627,7.340047836303711,83.93000793457031,25.91,1
-0.4207215011119842,-1.2575504779815674,0.0495879277586936,0.4290792346000671,7.342547416687012,83.93000793457031,25.91,1
-0.4715147316455841,-1.198867678642273,0.0486159995198249,-4.149122714996338,7.344151496887207,83.93000793457031,25.91,1
-0.4145464897155761,-1.1444151401519775,0.031198950484395,-3.200054407119751,7.345180988311768,83.93000793457031,25.91,1
-0.3388031423091888,-1.182241678237915,0.0480105616152286,0.5007656812667847,7.345841407775879,83.93000793457031,25.91,1
-0.2454132288694381,-1.2009187936782837,0.0252126418054103,3.1408495903015137,7.3462653160095215,83.93000793457031,25.91,1
-0.1854809522628784,-1.072960376739502,0.016180021688342,3.208614110946656,7.346537590026855,83.93000793457031,25.91,1
-0.1470198631286621,-0.9348663091659546,0.0551656000316143,1.8441492319107056,7.346712112426758,83.93000793457031,25.91,1
-0.1447288542985916,-0.8462454676628113,0.1025753989815712,0.563683271408081,7.347283363342285,83.8189468383789,25.91,1
-0.160051941871643,-0.8061670064926147,0.105011411011219,0.0966288745403289,7.347650051116943,83.74767303466797,25.91,1
-0.1474943161010742,-0.7916425466537476,0.061792504042387,0.1014191806316375,7.347885608673096,83.70193481445312,25.91,1
-0.122642233967781,-0.7935171127319336,0.0508504211902618,-1.6294732093811035,7.348036766052246,83.6725845336914,25.91,1
-0.1122913733124733,-0.7947201132774353,0.0382306464016437,-6.398069858551025,7.348133563995361,83.65374755859375,25.91,1
-0.1448332071304321,-0.851469874382019,-0.0034546423703432,-10.84832000732422,7.348195552825928,83.64165496826172,25.91,1
-0.1825100034475326,-0.904681921005249,-0.0358036383986473,-10.178979873657228,7.348235607147217,83.63389587402344,25.91,1
-0.2346776723861694,-0.9780147671699524,-0.062161136418581,-5.50050163269043,7.34826135635376,83.62892150878906,25.91,1
-0.273753672838211,-1.036271095275879,-0.0790758579969406,-2.623513698577881,7.336342334747314,83.62572479248047,25.91,1
-0.2932326197624206,-1.0904500484466553,-0.0955285280942916,-4.02662467956543,7.328693389892578,83.62367248535156,25.91,1
-0.3505152761936188,-1.2147833108901978,-0.0892935842275619,-7.470689296722412,7.323784828186035,83.62236022949219,25.91,1
-0.4264604151248932,-1.154628872871399,-0.0237168353050947,-11.47576141357422,7.320634841918945,83.62151336669922,25.91,1
-0.3800354599952698,-0.9872764348983764,0.0407576449215412,-18.16594886779785,7.318613052368164,83.6209716796875,25.91,1
-0.2774715423583984,-1.053410291671753,0.0205581355839967,-30.975107192993164,7.317315578460693,83.6206283569336,25.91,1
-0.2228474617004394,-1.039873480796814,0.0131930280476808,-47.91527938842773,7.316483020782471,83.62040710449219,25.91,1
-0.2157817333936691,-0.9920018315315248,0.0084665259346365,-56.53306579589844,7.315948963165283,83.6202621459961,25.91,1
-0.2392362356185913,-0.9220961928367616,0.0054333289153873,-44.01803207397461,7.326164245605469,83.62017059326172,25.93,1
-0.2878746390342712,-0.8044636845588684,0.0370734445750713,-15.462027549743652,7.332719802856445,83.62010955810547,25.93,1
-0.3358812928199768,-0.7513650059700012,0.0461826995015144,7.993819713592529,7.336926937103271,83.62007141113281,25.93,1
-0.3610914051532745,-0.7284848690032959,0.0464307218790054,12.058674812316896,7.339626789093018,83.62004852294922,25.93,1
-0.3492809534072876,-0.7361928224563599,0.0521876625716686,1.2290230989456177,7.3413591384887695,83.62003326416016,25.93,1
-0.3305061161518097,-0.7411393523216248,0.0670776814222335,-10.815245628356934,7.342471122741699,83.62002563476562,25.93,1
-0.3184575140476227,-0.8058892488479614,0.0710354670882225,-13.321168899536133,7.343184471130371,83.6200180053711,25.93,1
-0.3275187313556671,-0.8698331117630005,0.0567820221185684,-3.479414939880371,7.343642234802246,83.62001037597656,25.93,1
-0.344529241323471,-0.9388574957847596,0.0252438839524984,12.498662948608398,7.333837032318115,83.62001037597656,25.93,1
-0.3890322744846344,-1.1286954879760742,0.0050045219250023,24.22132873535156,7.327544689178467,83.62001037597656,25.93,1
-0.4343850612640381,-1.155360460281372,0.0032116142101585,27.25529289245605,7.323506832122803,83.62001037597656,25.93,1
-0.3515343964099884,-1.1724724769592283,-0.0147322937846183,27.077850341796875,7.320915222167969,83.62001037597656,25.93,1
-0.2871700525283813,-1.233833909034729,-0.0318454355001449,30.46415328979492,7.319252014160156,83.62001037597656,25.93,1
-0.2346691787242889,-1.290005445480347,-0.065218761563301,35.130760192871094,7.318184852600098,83.62001037597656,25.93,1
-0.1953793615102768,-1.1637177467346191,-0.0810380652546882,32.411312103271484,7.317500114440918,83.62001037597656,25.93,1
-0.1701654195785522,-1.0043046474456787,-0.0520055666565895,20.42354393005371,7.317060470581055,83.62001037597656,25.93,1
-0.1819734424352646,-0.9243936538696288,-0.0333741791546344,9.072674751281738,7.314942359924316,83.53044128417969,25.93,1
-0.1951489150524139,-0.8899046778678894,-0.049406498670578,8.663302421569824,7.313582897186279,83.47296142578125,25.93,1
-0.1980064064264297,-0.862173855304718,-0.0764884427189827,17.278213500976562,7.312710762023926,83.43607330322266,25.93,1
-0.1998401880264282,-0.8275845050811768,-0.0826725289225578,22.40551948547364,7.312150955200195,83.41239929199219,25.93,1
-0.2122125476598739,-0.8109847903251648,-0.0866411179304122,13.787447929382324,7.311791896820068,83.39720916748047,25.93,1
-0.2425435185432434,-0.8003320693969727,-0.1059812530875206,-5.152716159820557,7.311561107635498,83.38745880126953,25.93,1
-0.2676059603691101,-0.8102890849113464,-0.1239904090762138,-19.65042495727539,7.311413288116455,83.3812026977539,25.93,1
-0.2836895883083343,-0.8446677923202515,-0.1243521049618721,-19.965539932250977,7.311318397521973,83.37718963623047,25.93,1
-0.305206686258316,-0.9059144854545592,-0.1245842203497886,-12.121296882629396,7.311716079711914,83.37461853027344,25.93,1
-0.3246128857135772,-0.9564146399497986,-0.1303309500217437,-8.602743148803711,7.311971664428711,83.37296295166016,25.93,1
-0.3258711397647857,-1.1343648433685305,-0.1676055192947387,-13.993536949157717,7.312135696411133,83.37190246582031,25.93,1
-0.4274385273456573,-1.131009817123413,-0.1299506723880767,-24.062889099121094,7.3122406005859375,83.37122344970703,25.93,1
-0.4646297693252563,-0.9273368716239928,-0.0330148935317993,-32.57047271728516,7.312308311462402,83.37078857421875,25.93,1
-0.3597481548786163,-0.8917934894561768,0.040388461202383,-35.149757385253906,7.312351703643799,83.3705062866211,25.93,1
-0.2588545382022857,-1.0145258903503418,0.0091256648302078,-31.80371856689453,7.312379360198975,83.37032318115234,25.93,1
-0.1717157214879989,-1.0261151790618896,-0.0781102925539016,-29.007976531982425,7.312397003173828,83.37020874023438,25.93,1
-0.1493816822767257,-0.9943681359291076,-0.1172999814152717,-34.4649658203125,7.294964790344238,83.37013244628906,25.91,1
-0.2134178280830383,-0.901223599910736,-0.0528852827847003,-43.82445526123047,7.283778190612793,83.37008666992188,25.91,1
-0.2936969697475433,-0.8246555328369141,-0.028340958058834,-39.45928192138672,7.276598930358887,83.37005615234375,25.91,1
-0.3620088100433349,-0.7867140769958496,-0.0349809192121028,-13.571849822998049,7.271991729736328,83.37003326416016,25.91,1
-0.3610652387142181,-0.7735610008239746,-0.0168509650975465,15.350948333740234,7.269035339355469,83.37002563476562,25.91,1
-0.3436663746833801,-0.753924548625946,0.0115771172568202,23.791156768798828,7.267138004302978,83.3700180053711,25.91,1
-0.3101096749305725,-0.7581163048744202,0.0410161763429641,12.996441841125488,7.265920162200928,83.37001037597656,25.91,1
-0.3333571255207062,-0.7775996923446655,0.0431151427328586,3.1707119941711426,7.265138626098633,83.37001037597656,25.91,1
-0.3650693297386169,-0.818091869354248,0.0220710430294275,6.28013277053833,7.269686698913574,83.37001037597656,25.91,1
-0.3854203820228576,-0.8888596296310425,0.0029683767352253,17.844640731811523,7.272604942321777,83.37001037597656,25.91,1
-0.4152738451957702,-0.9902520179748536,-0.0092906160280108,29.0636043548584,7.274477958679199,83.37001037597656,25.91,1
-0.4960075914859772,-1.0553197860717771,0.0276244636625051,35.70440673828125,7.275680065155029,83.37001037597656,25.91,1
-0.4246668219566345,-1.0466965436935425,0.0793033093214035,37.06778717041016,7.276451587677002,83.37001037597656,25.91,1
-0.3564933240413666,-1.113933801651001,0.095674492418766,33.80843734741211,7.276946544647217,83.37001037597656,25.91,1
-0.2287769019603729,-1.235451579093933,0.0334095135331153,28.26317024230957,7.27726411819458,83.37001037597656,25.91,1
-0.1580113917589187,-1.1846859455108645,0.0046469792723655,23.837553024291992,7.277467727661133,83.37001037597656,25.91,1
-0.123793713748455,-1.1017274856567385,0.0029821638017892,22.48421669006348,7.273008346557617,83.28402709960938,25.91,1
-0.1466169655323028,-1.026098370552063,0.0187071040272712,23.09890937805176,7.270146369934082,83.22884368896484,25.91,1
-0.1668614000082016,-0.9831618070602416,0.0176029168069362,22.51534080505371,7.268309593200684,83.19342803955078,25.91,1
-0.157462015748024,-0.927618682384491,0.0112965386360883,17.65903663635254,7.267130851745605,83.17070007324219,25.91,1
-0.1458322554826736,-0.869583249092102,0.0184450168162584,7.663995742797852,7.266374588012695,83.15612030029297,25.91,1
-0.1327711641788482,-0.8323394060134888,0.017434723675251,-4.414298534393311,7.2658891677856445,83.14675903320312,25.91,1
-0.1691715121269226,-0.8196340203285217,-6.946731446078047e-06,-13.229476928710938,7.265577793121338,83.14075469970703,25.91,1
-0.2093244791030883,-0.839469313621521,-0.0223955549299716,-16.66893768310547,7.265377998352051,83.13690185546875,25.91,1
-0.2350923418998718,-0.863394021987915,-0.0311655011028051,-17.285520553588867,7.271217346191406,83.13442993164062,25.91,1
-0.2796175479888916,-0.9347252249717712,-0.0311957728117704,-17.26921272277832,7.274964332580566,83.13284301757812,25.91,1
-0.341777890920639,-0.9860993027687072,-0.0536062978208065,-17.312484741210938,7.277369022369385,83.13182067871094,25.91,1
-0.3704732954502105,-1.0806437730789185,-0.1239658221602439,-19.77640724182129,7.27891206741333,83.13116455078125,25.91,1
-0.4056816697120666,-1.1693058013916016,-0.1691185235977172,-24.940185546875,7.279902458190918,83.13074493408203,25.91,1
-0.4450697004795074,-1.035879611968994,-0.102932758629322,-26.233428955078125,7.280538082122803,83.13047790527344,25.91,1
-0.4423578083515167,-0.8718855381011963,0.0011169706704095,-18.31829071044922,7.280946254730225,83.13030242919922,25.91,1
-0.435019701719284,-0.9233812689781188,0.0566945485770702,-7.614166736602783,7.281208038330078,83.13019561767578,25.91,1
-0.3631372153759002,-0.9788193702697754,0.0139921987429261,-7.243668556213379,7.270359039306641,83.130126953125,25.91,1
-0.3058116436004638,-0.9752119183540344,-0.0190094839781522,-20.47280502319336,7.263397216796875,83.13008117675781,25.91,1
-0.3026100099086761,-0.9113213419914246,0.026985228061676,-31.208778381347656,7.258929252624512,83.13005065917969,25.91,1
-0.3173487186431885,-0.8367334008216858,0.0788930878043174,-17.570350646972656,7.256062030792236,83.1300277709961,25.91,1
-0.3771871328353882,-0.7944649457931519,0.1010090112686157,18.32360076904297,7.25422191619873,83.13002014160156,25.91,1
-0.4043924510478973,-0.7785350680351257,0.1207995116710662,42.17509841918945,7.2530412673950195,83.13001251220703,25.91,1
-0.4050579369068146,-0.7683121562004089,0.1446954607963562,25.14170837402344,7.252283573150635,83.1300048828125,25.91,1
-0.3830938935279846,-0.7449583411216736,0.1656282842159271,-16.398866653442383,7.251797199249268,83.1300048828125,25.91,1
-0.3857919573783874,-0.7355690002441406,0.1790617704391479,-39.91529846191406,7.194104194641113,83.1300048828125,25.91,1
-0.432305634021759,-0.7687278985977173,0.1988781541585922,-29.30539321899414,7.157079696655273,83.1300048828125,25.91,1
-0.4677532017230987,-0.8291918039321899,0.2059973925352096,-4.676836967468262,7.133319854736328,83.1300048828125,25.91,1
-0.4737080931663513,-0.8903851509094238,0.1993705630302429,13.077275276184082,7.118072032928467,83.1300048828125,25.91,1
-0.4719318151473999,-1.091990947723389,0.1615311950445175,21.156959533691406,7.1082868576049805,83.1300048828125,25.91,1
-0.4931830167770386,-1.2325655221939087,0.131650298833847,22.816781997680664,7.102007389068604,83.1300048828125,25.91,1
-0.5516030192375183,-1.1604427099227903,0.1180722266435623,19.776329040527344,7.097977638244629,83.1300048828125,25.91,1
-0.5219203233718872,-1.097365140914917,0.0981630533933639,15.632604598999023,7.095391273498535,83.1300048828125,25.91,1
-0.4748827815055847,-1.0904722213745115,0.0909842699766159,13.639759063720703,7.120815753936768,83.10492706298828,25.91,1
-0.4279034733772278,-1.136428713798523,0.0751817896962165,13.801061630249023,7.137131690979004,83.08882904052734,25.91,1
-0.380961537361145,-1.109943151473999,0.0482473447918891,16.634498596191406,7.147602081298828,83.07849884033203,25.91,1
-0.3228480219841003,-0.9865885972976683,0.0309623684734106,23.450529098510746,7.154321670532227,83.07186889648438,25.91,1
-0.3023474514484405,-0.8458511829376221,0.0310654137283563,29.239782333374023,7.158633708953857,83.06761932373047,25.91,1
-0.300386905670166,-0.7499362826347351,0.0311315432190895,24.02363014221192,7.16140079498291,83.06488800048828,25.91,1
-0.3327153921127319,-0.7275680303573608,0.0143806580454111,6.876121997833252,7.163176536560059,83.0631332397461,25.91,1
-0.3478641808032989,-0.7188111543655396,-0.0075646438635885,-9.727726936340332,7.164316177368164,83.06201171875,25.91,1
-0.3295969069004059,-0.7299848198890686,-0.0160501021891832,-15.363932609558104,7.161834239959717,83.06128692626953,25.91,1
-0.3178740441799164,-0.7651442885398865,-0.0158978067338466,-12.686339378356934,7.160241603851318,83.06082153320312,25.91,1
-0.3159487545490265,-0.8100987076759338,-0.0158000718802213,-8.424386024475098,7.159219264984131,83.0605239868164,25.91,1
-0.3427020907402038,-0.894925594329834,-0.0101395770907402,-4.464068412780762,7.158563137054443,83.06033325195312,25.91,1
-0.3654686212539673,-0.9829492568969728,-0.0121047710999846,-2.7429745197296143,7.15814208984375,83.06021118164062,25.91,1
-0.3688833117485046,-1.1010133028030396,-0.035757016390562,-6.5430216789245605,7.157872200012207,83.06013488769531,25.91,1
-0.4158568680286407,-1.0088467597961426,0.0162376277148723,-11.82982063293457,7.157698631286621,83.06008911132812,25.91,1
-0.434806227684021,-0.8769285082817078,0.0775936692953109,-8.662887573242188,7.15758752822876,83.06005859375,25.91,1
-0.4021846354007721,-0.9546064734458924,0.1057728976011276,3.7983458042144775,7.154302597045898,83.0600357055664,25.95,1
-0.3700544238090515,-1.04364013671875,0.0958678275346756,11.97795867919922,7.152194499969482,83.06002044677734,25.95,1
-0.2878595888614654,-1.0224080085754397,0.0839135497808456,0.4571267068386078,7.15084171295166,83.06001281738281,25.95,1
-0.2519049942493438,-0.9360113143920898,0.0818397551774978,-30.398569107055664,7.1499738693237305,83.06000518798828,25.95,1
-0.2568202912807464,-0.8525780439376831,0.0861066877841949,-57.33646774291992,7.149416923522949,83.06000518798828,25.95,1
-0.3159523904323578,-0.8046331405639648,0.0888449624180793,-53.25001525878906,7.149059295654297,83.06000518798828,25.95,1
-0.3706932961940765,-0.7794626355171204,0.0850044563412666,-20.73455619812012,7.148829936981201,83.06000518798828,25.95,1
-0.3890295326709747,-0.7577118873596191,0.0825398415327072,7.186087608337402,7.148682594299316,83.06000518798828,25.95,1
-0.3951988816261291,-0.7437534928321838,0.0809581875801086,8.652762413024902,7.145374774932861,83.06000518798828,25.95,1
-0.3935602605342865,-0.7347958087921143,0.0855409502983093,-3.245960235595703,7.143252372741699,83.06000518798828,25.95,1
-0.4204975664615631,-0.7794272303581238,0.082884132862091,-5.977330207824707,7.141890048980713,83.06000518798828,25.95,1
-0.4545776844024658,-0.830460250377655,0.0699835866689682,4.658379554748535,7.141016006469727,83.06000518798828,25.95,1
