acc_x,acc_y,acc_z,bvp,eda,hr,temp,label
0.0,0.0,0.0,0.0,0.0,0.0,28.83,1
-0.0260416641831398,-0.0624999962747097,0.1588541567325592,15.928332328796388,0.3687019944190979,10.56666660308838,28.83,1
-0.0651676878333091,-0.1379573196172714,0.3761433064937591,31.66146278381348,0.8633022904396057,24.741464614868164,28.83,1
-0.0942171961069107,-0.2135589718818664,0.5651473999023438,39.659934997558594,1.293519377708435,37.07109832763672,28.83,1
-0.1154103800654411,-0.2740526497364044,0.6763451099395752,40.54823303222656,1.6073859930038452,46.06623077392578,28.83,1
-0.1187796145677566,-0.2985402643680572,0.7461409568786621,36.975704193115234,1.819886922836304,52.15631484985352,28.83,1
-0.1265434026718139,-0.3312668800354004,0.797490119934082,31.749343872070312,1.9593180418014529,56.152286529541016,28.83,1
-0.1371509581804275,-0.3636209964752197,0.8195878267288208,27.47536277770996,2.0496208667755127,58.74028015136719,28.83,1
-0.1439840495586395,-0.3788724243640899,0.8338225483894348,25.89567375183105,2.107332706451416,60.40739440917969,28.83,1
-0.1483759582042694,-0.3718912303447723,0.8541610836982727,27.834312438964844,2.1444265842437744,61.47891998291016,28.83,1
-0.1511962413787841,-0.3730047047138214,0.861625075340271,32.965415954589844,2.1682465076446533,62.1670036315918,28.83,1
-0.1474093794822693,-0.3905111849308014,0.872013509273529,38.9780502319336,2.1835367679595947,62.60869216918945,28.83,1
-0.1449789255857467,-0.3849543929100036,0.8898760676383972,42.62566757202149,2.193350315093994,62.89217376708984,28.83,1
-0.1490168124437332,-0.3869858980178833,0.8957420587539673,42.154327392578125,2.199648380279541,63.07410430908203,28.83,1
-0.1516081392765045,-0.3994851112365722,0.8939088582992554,36.388450622558594,2.2036900520324707,63.19085693359375,28.83,1
-0.136477842926979,-0.4075064361095428,0.8983301520347595,23.73896598815918,2.2062838077545166,63.26578521728516,28.83,1
-0.1323658227920532,-0.4014585316181183,0.9011675119400024,4.844852447509766,2.213916063308716,63.31386947631836,28.83,1
-0.1353247314691543,-0.4087728857994079,0.9029883742332458,-17.411836624145508,2.2188141345977783,63.3447265625,28.83,1
-0.1372235864400863,-0.4190645813941955,0.892961323261261,-41.55057144165039,2.2219574451446533,63.36452865600586,28.83,1
-0.1216488480567932,-0.4256692230701446,0.897722065448761,-68.55940246582031,2.223974704742432,63.377235412597656,28.83,1
-0.1340449750423431,-0.4299076795578003,0.8895817399024963,-96.5037078857422,2.225269079208374,63.38539123535156,28.83,1
-0.1643911898136139,-0.4438232481479645,0.861966609954834,-119.835693359375,2.226099729537964,63.390625,28.83,1
-0.1110945791006088,-0.469546765089035,0.8722336888313293,-134.23202514648438,2.226632833480835,63.393985748291016,28.83,1
-0.1104785278439521,-0.4916524291038513,0.8564314246177673,-140.33242797851562,2.2269749641418457,63.396141052246094,28.83,1
-0.1044854074716568,-0.4722519218921661,0.8518881797790527,-141.74667358398438,2.231326103210449,63.39752578735352,28.83,1
-0.1062371432781219,-0.4709973335266113,0.8433748483657837,-140.5871124267578,2.234118223190308,63.398414611816406,28.83,1
-0.0961657539010047,-0.4645944237709045,0.8379114866256714,-135.8949737548828,2.235910177230835,63.39898300170898,28.83,1
-0.0897025167942047,-0.4660831987857818,0.8400031924247742,-124.66539764404295,2.237060070037842,63.39934921264648,28.83,1
-0.0855547860264778,-0.4670386016368866,0.841345489025116,-110.18269348144533,2.237797975540161,63.39958190917969,28.83,1
-0.0772952362895011,-0.4620539546012878,0.8422068953514099,-96.01622772216795,2.238271713256836,63.39973068237305,28.83,1
-0.0775925070047378,-0.4588550925254822,0.8371619582176208,-83.13822174072266,2.2385756969451904,63.39982604980469,28.83,1
-0.077783279120922,-0.4512044787406921,0.8227288722991943,-71.96480560302734,2.2387707233428955,63.39988708496094,28.83,1
-0.0723079293966293,-0.446294754743576,0.8022709488868713,-70.08222961425781,2.242568016052246,63.59696960449219,28.83,1
-0.0743919387459755,-0.4431439638137817,0.7779467105865479,-83.79911041259766,2.245004892349243,63.723445892333984,28.83,1
-0.0813271105289459,-0.4579153060913086,0.7567390203475952,-104.3562469482422,2.2465686798095703,63.80461120605469,28.83,1
-0.0913754776120185,-0.472992479801178,0.7431291937828064,-123.66050720214844,2.247572422027588,63.85669708251953,28.83,1
-0.0922261700034141,-0.4938636720180511,0.7343951463699341,-144.61480712890625,2.248216390609741,63.8901252746582,28.83,1
-0.0815765485167503,-0.4848664999008178,0.7231923937797546,-186.7406005859375,2.248629808425904,63.91157531738281,28.83,1
-0.0747422277927398,-0.495885968208313,0.7271986603736877,-251.8429412841797,2.2488949298858643,63.92534255981445,28.83,1
-0.0647585839033126,-0.5253487229347229,0.7521607279777527,-327.08673095703125,2.2490651607513428,63.93417739868164,28.83,1
-0.0695472061634063,-0.5442562103271484,0.7681799530982971,-403.661865234375,2.2500925064086914,63.93984603881836,28.83,1
-0.0838158130645752,-0.5731832981109619,0.7952535152435303,-492.5520629882813,2.2507519721984863,63.943485260009766,28.83,1
-0.1097659096121788,-0.586149275302887,0.8070299625396729,-606.7888793945312,2.251175165176392,63.94581985473633,28.83,1
-0.126419186592102,-0.5944700837135315,0.814587414264679,-729.9653930664062,2.2514467239379883,63.94731903076172,28.83,1
-0.1371062994003296,-0.5942121148109436,0.8194373846054077,-838.2861938476562,2.2516210079193115,63.948280334472656,28.83,1
-0.1439646780490875,-0.605242133140564,0.8169519901275635,-828.9585571289062,2.25173282623291,63.94889831542969,28.83,1
-0.1595615297555923,-0.6179183125495911,0.7985637187957764,-635.0987548828125,2.25180459022522,63.94929504394531,28.83,1
-0.1751684695482254,-0.637248694896698,0.7699698209762573,-366.8037109375,2.2518506050109863,63.94954681396485,28.83,1
-0.1795863360166549,-0.6496538519859314,0.7516199350357056,-129.29551696777344,2.250962018966675,63.94971084594727,28.83,1
-0.1656281501054763,-0.6576147675514221,0.7454417943954468,48.95751953125,2.250391721725464,63.94981384277344,28.83,1
-0.1566705852746963,-0.673919141292572,0.7358792424201965,163.6903839111328,2.250025749206543,63.94988250732422,28.83,1
-0.1509221345186233,-0.6843823790550232,0.7297425866127014,214.7527008056641,2.249790906906128,63.94992446899414,28.83,1
-0.1416353285312652,-0.7022926211357117,0.7258043885231018,231.6829833984375,2.249640226364136,63.949951171875,28.83,1
-0.1356755942106247,-0.7249819040298462,0.7232770919799805,242.8022308349609,2.2495434284210205,63.94997024536133,28.83,1
-0.1486442983150482,-0.7451403737068176,0.6936663389205933,255.21864318847656,2.249481439590454,63.949981689453125,28.83,1
-0.1625646501779556,-0.7748702168464661,0.6634683012962341,251.12782287597656,2.249441623687744,63.949989318847656,28.83,1
-0.1770956963300705,-0.8275358080863953,0.6272956728935242,229.3107147216797,2.2512524127960205,63.94999313354492,28.83,1
-0.1808231174945831,-0.8893224000930786,0.5984843373298645,205.1638946533203,2.252414464950561,63.94999694824219,28.83,1
-0.1776173859834671,-0.945766806602478,0.5799949169158936,188.2205047607422,2.253160238265991,63.94999694824219,28.83,1
-0.1755601316690445,-0.9595984816551208,0.5513361096382141,171.15293884277344,2.253638744354248,63.94999694824219,28.83,1
-0.1462510377168655,-0.9180948734283448,0.5049557089805603,144.6479949951172,2.253945827484131,63.94999694824219,28.83,1
-0.1218443661928176,-0.8970580101013184,0.4583981037139892,115.73016357421876,2.254142999649048,63.94999694824219,28.83,1
-0.1341704428195953,-0.9003511071205139,0.4285201132297516,93.87997436523438,2.254269599914551,63.94999694824219,28.83,1
-0.1420806050300598,-0.9192577600479126,0.4037483632564544,80.88240051269531,2.2543506622314453,63.94999694824219,28.83,1
-0.1415591239929199,-0.9425864815711976,0.3766557276248932,69.8113784790039,2.251648426055908,64.1291275024414,28.83,1
-0.1412244737148285,-0.9575575590133668,0.3536714613437652,59.20645904541016,2.2499144077301025,64.24407958984375,28.83,1
-0.1522052586078643,-0.9447740316390992,0.3333236873149872,53.30364227294922,2.2488014698028564,64.3178482055664,28.83,1
-0.1592520922422409,-0.9085814356803894,0.3202656805515289,54.187232971191406,2.248087406158448,64.36518859863281,28.83,1
-0.1637743413448333,-0.8685617446899414,0.311885803937912,58.77033996582031,2.247629165649414,64.39556884765625,28.83,1
-0.1610786914825439,-0.8372816443443298,0.3065080642700195,63.49921798706055,2.2473349571228027,64.41506958007812,28.83,1
-0.1537510007619857,-0.822805643081665,0.3086547255516052,69.41791534423828,2.2471461296081543,64.42758178710938,28.83,1
-0.1378529667854309,-0.819113552570343,0.321227878332138,78.95189666748047,2.2470250129699707,64.43561553955078,28.83,1
-0.1164549738168716,-0.8279397487640381,0.3292965888977051,92.29631042480467,2.243734121322632,64.44076538085938,28.83,1
-0.097125194966793,-0.8336039185523987,0.3344746232032776,107.78510284423828,2.24162220954895,64.4440689086914,28.83,1
-0.0791226848959922,-0.8652276992797852,0.3433953821659088,124.53539276123048,2.240266799926758,64.4461898803711,28.83,1
-0.078765258193016,-0.9079131484031676,0.3435224294662475,143.7002410888672,2.239397048950196,64.44755554199219,28.83,1
-0.1009269803762435,-0.963295042514801,0.3324083983898163,167.82879638671875,2.2388389110565186,64.44843292236328,28.83,1
-0.1263446509838104,-1.0268248319625854,0.3196782767772674,197.4463806152344,2.238480567932129,64.44898986816406,28.83,1
-0.1538517922163009,-1.0675946474075315,0.31150883436203,226.1226043701172,2.238250732421875,64.44934844970703,28.83,1
-0.1994931697845459,-1.082562804222107,0.3006683886051178,242.203857421875,2.238103151321411,64.44957733154297,28.83,1
-0.2287831753492355,-1.0977662801742554,0.3049071431159973,238.79544067382807,2.238926410675049,64.4497299194336,28.83,1
-0.2195909470319748,-1.0291541814804075,0.3244206607341766,219.1108245849609,2.239454746246338,64.4498291015625,28.83,1
-0.1801052540540695,-0.9067540168762208,0.3145522177219391,190.56455993652344,2.2397937774658203,64.44989013671875,28.83,1
-0.1435700505971908,-0.8394001722335815,0.2970236837863922,158.49887084960938,2.240011215209961,64.4499282836914,28.83,1
-0.1257216334342956,-0.8577518463134766,0.2969704270362854,126.45314025878906,2.2401509284973145,64.449951171875,28.83,1
-0.1142675504088401,-0.8751266598701477,0.2969362437725067,96.8348617553711,2.2402405738830566,64.44996643066406,28.83,1
-0.0901236608624458,-0.9142656922340392,0.2745231986045837,70.09635925292969,2.24029803276062,64.4499740600586,28.83,1
-0.0522384047508239,-0.9169917702674866,0.2377487123012542,46.707027435302734,2.240334987640381,64.44998168945312,28.83,1
-0.044719148427248,-0.9075456857681274,0.2309422791004181,29.58338165283203,2.23714542388916,64.44998931884766,28.83,1
-0.1014692410826683,-0.8790926337242126,0.2601609528064728,21.464054107666016,2.235098600387573,64.44998931884766,28.83,1
-0.1490837335586547,-0.8608331084251404,0.3013029098510742,20.20870018005371,2.233784914016724,64.44998931884766,28.83,1
-0.1628466546535492,-0.8379196524620056,0.33890101313591,19.73626518249512,2.2329418659210205,64.44998931884766,28.83,1
-0.2052655518054962,-0.8232150673866272,0.3406381905078888,16.205183029174805,2.232400894165039,64.44998931884766,28.83,1
-0.1989009082317352,-0.8081807494163513,0.3697418868541717,11.28803253173828,2.232053756713867,64.44998931884766,28.83,1
-0.2060119956731796,-0.8097281455993652,0.4052122831344604,8.522989273071289,2.2318310737609863,64.44998931884766,28.83,1
-0.2161732614040374,-0.8387100696563721,0.4279751479625702,8.149330139160156,2.2316880226135254,64.44998931884766,28.83,1
-0.2394874989986419,-0.8852978348731995,0.4649741351604461,6.483672618865967,2.2311370372772217,64.61479187011719,28.83,1
-0.2656447887420654,-0.9263907670974731,0.4887179732322693,0.5567768216133118,2.230783462524414,64.72055053710938,28.83,1
-0.2712354660034179,-0.9471640586853028,0.4927598536014557,-6.736191749572754,2.2305564880371094,64.78842163085938,28.83,1
-0.2636277079582214,-0.9772884845733644,0.4617670476436615,-8.3819580078125,2.2304108142852783,64.83197784423828,28.83,1
-0.2587454915046692,-1.007816195487976,0.4306820929050445,-1.5528672933578491,2.2303173542022705,64.85993194580078,28.83,1
-0.2612101137638092,-1.0609936714172363,0.3995380103588104,8.841211318969727,2.230257511138916,64.87786865234375,28.83,1
-0.2739873230457306,-1.0223488807678225,0.3571604490280151,15.841130256652832,2.2302188873291016,64.8893814086914,28.83,1
-0.2709914445877075,-0.9415711760520936,0.3131716251373291,16.019853591918945,2.230194091796875,64.89676666259766,28.83,1
-0.2410800009965896,-0.9177215695381165,0.268148809671402,10.058500289916992,2.2200794219970703,64.9015121459961,28.83,1
-0.227482333779335,-0.9304051399230956,0.2336579859256744,2.2203621864318848,2.2135884761810303,64.90455627441406,28.83,1
-0.2579405605792999,-1.0001201629638672,0.2059259861707687,-1.989294052124024,2.209422826766968,64.90650939941406,28.83,1
-0.2774868905544281,-1.0000771284103394,0.1657380908727646,-0.803714394569397,2.206749677658081,64.90776062011719,28.83,1
-0.2732372879981994,-0.988853931427002,0.1343500316143036,2.704957962036133,2.205034017562866,64.90856170654297,28.83,1
-0.2481190264225006,-0.948064923286438,0.1198047623038292,5.440269470214844,2.203933000564575,64.9090805053711,28.83,1
-0.2319995760917663,-0.9106932878494264,0.1272637695074081,7.589718341827393,2.2032265663146973,64.90940856933594,28.83,1
-0.2272528111934662,-0.8923081159591675,0.1320505291223526,10.502452850341797,2.202773094177246,64.90962219238281,28.83,1
-0.2186088413000106,-0.886107325553894,0.1127313002943992,13.120436668395996,2.211663246154785,64.90975952148438,28.83,1
-0.2074638605117797,-0.8821280598640442,0.0947355553507804,11.604850769042969,2.2173683643341064,64.90984344482422,28.83,1
-0.1891161054372787,-0.9019654989242554,0.0943824723362922,2.9261152744293213,2.22102952003479,64.90990447998047,28.83,1
-0.1717437952756881,-0.9370871186256408,0.0997536554932594,-11.524603843688965,2.223379135131836,64.90994262695312,28.83,1
-0.1605952531099319,-0.98201721906662,0.1255916655063629,-27.28628730773925,2.224886894226074,64.90996551513672,28.83,1
-0.142245203256607,-1.0108507871627808,0.1645641177892685,-41.13785552978516,2.2258546352386475,64.90998077392578,28.83,1
-0.119273655116558,-1.0461478233337402,0.1895743906497955,-51.91859436035156,2.226475715637207,64.90998840332031,28.83,1
-0.1045318394899368,-1.0520061254501345,0.21682009100914,-57.640472412109375,2.2268741130828857,64.90999603271484,28.83,1
-0.1006691604852676,-1.0613634586334229,0.2510981559753418,-53.6672248840332,2.224834442138672,64.90999603271484,28.83,1
-0.1373747438192367,-1.0001951456069946,0.2954869270324707,-35.71593475341797,2.2235255241394043,64.90999603271484,28.83,1
-0.1553324908018112,-0.8657786250114441,0.3183753192424774,-7.282487869262695,2.222685575485229,64.90999603271484,28.83,1
-0.1556611955165863,-0.8243000507354736,0.3274659812450409,17.55281639099121,2.222146511077881,64.90999603271484,28.83,1
-0.1558721363544464,-0.8592570424079895,0.305310994386673,24.34795379638672,2.2218005657196045,64.90999603271484,28.83,1
-0.1560075134038925,-0.915277063846588,0.2910932004451751,11.422754287719728,2.221578598022461,64.90999603271484,28.83,1
-0.1448988318443298,-0.968020796775818,0.2819690108299255,-10.202658653259276,2.221436023712158,64.90999603271484,28.83,1
-0.1321721524000167,-0.9402931928634644,0.2705158591270447,-27.39448547363281,2.2213447093963623,64.90999603271484,28.83,1
-0.1240049004554748,-0.9001080989837646,0.2575681209564209,-33.554908752441406,2.2199089527130127,65.07837677001953,28.81,1
-0.1467525064945221,-0.8631240725517273,0.2436612397432327,-29.490509033203125,2.218987464904785,65.18643188476562,28.81,1
-0.1781439334154129,-0.8449876308441162,0.2291388213634491,-16.646793365478516,2.2183961868286133,65.25577545166016,28.81,1
-0.2206802368164062,-0.8501420021057129,0.2142214030027389,7.591763973236084,2.218016624450684,65.30027770996094,28.81,1
-0.2479775846004486,-0.8758409023284912,0.2270393520593643,44.6098861694336,2.217773199081421,65.3288345336914,28.81,1
-0.2710932195186615,-0.886735200881958,0.2464607208967209,89.44227600097656,2.2176167964935303,65.34716033935547,28.81,1
-0.2971230745315552,-0.9049220681190492,0.286913126707077,134.8076171875,2.2175164222717285,65.35892486572266,28.81,1
-0.3082297444343567,-0.9333866834640504,0.3240686953067779,174.6753692626953,2.217452049255371,65.3664779663086,28.81,1
-0.2817707359790802,-0.9572514295578004,0.3759018778800964,202.2736053466797,2.2174108028411865,65.37132263183594,28.81,1
-0.2423997521400451,-0.9781641960144044,0.3979698717594147,210.99588012695312,2.2173843383789062,65.37442779541016,28.81,1
-0.2115359455347061,-1.0251715183258057,0.3953385055065155,197.6450958251953,2.21736741065979,65.37642669677734,28.81,1
-0.2029248923063278,-1.1337069272994995,0.3544654250144958,161.0042724609375,2.217356443405152,65.3777084350586,28.81,1
-0.2029965817928314,-1.2145541906356812,0.322637677192688,101.2847900390625,2.2173495292663574,65.37852478027344,28.81,1
-0.2198359072208404,-1.182470679283142,0.2910169064998626,26.973291397094727,2.2173449993133545,65.3790512084961,28.81,1
-0.2250446528196334,-1.0555236339569092,0.2371378690004348,-41.80976104736328,2.2173421382904053,65.37938690185547,28.81,1
-0.2283873260021209,-0.9628608226776124,0.1857680827379226,-86.69951629638672,2.2173402309417725,65.37960815429688,28.81,1
-0.2417280077934265,-0.9873617887496948,0.1080197170376777,-108.15573120117188,2.218257188796997,65.37974548339844,28.81,1
-0.261484831571579,-1.0142806768417358,0.0469297431409359,-119.90811157226562,2.21884560585022,65.37983703613281,28.81,1
-0.2909569442272186,-1.070739984512329,-0.0146653885021805,-127.32830047607422,2.2192232608795166,65.37989807128906,28.81,1
-0.3042726814746856,-1.0733857154846191,-0.0765846893191337,-123.24835968017578,2.219465732574463,65.37993621826172,28.81,1
-0.2848290801048279,-1.0526925325393677,-0.1107231602072715,-104.60163879394533,2.219621181488037,65.37995910644531,28.81,1
-0.2555579841136932,-1.0338150262832642,-0.1102401688694953,-79.97084045410156,2.2197210788726807,65.37997436523438,28.81,1
-0.2423712462186813,-1.0272983312606812,-0.1043324396014213,-59.06621170043945,2.219785213470459,65.3799819946289,28.81,1
-0.2395065277814865,-1.0343117713928225,-0.1061389744281768,-43.98134231567383,2.2198262214660645,65.37998962402344,28.81,1
-0.2208748012781143,-1.0388126373291016,-0.1184938549995422,-31.388107299804688,2.217557430267334,65.37998962402344,28.81,1
-0.2033202499151229,-1.0361032485961914,-0.1264225095510482,-16.796955108642578,2.2161014080047607,65.37998962402344,28.81,1
-0.1808592081069946,-1.0455601215362549,-0.109119564294815,3.4470884799957275,2.2151670455932617,65.37998962402344,28.81,1
-0.1664450019598007,-1.0572267770767212,-0.086819976568222,29.418222427368164,2.2145674228668213,65.37998962402344,28.81,1
-0.1739881187677383,-1.0815070867538452,-0.0557160638272762,55.72929382324219,2.214182615280152,65.37998962402344,28.81,1
-0.1788288503885269,-1.1362731456756592,-0.018962038680911,75.30474090576172,2.213935613632202,65.37998962402344,28.81,1
-0.1707397997379303,-1.199407696723938,0.010222353041172,85.65668487548828,2.2137770652771,65.37998962402344,28.81,1
-0.1711464971303939,-1.183946132659912,0.0737334117293357,88.36988067626953,2.2136752605438232,65.37998962402344,28.81,1
-0.1714074909687042,-1.1292415857315063,0.1480778008699417,83.87379455566406,2.207183122634888,65.53046417236328,28.81,1
-0.1379883289337158,-0.9877776503562928,0.2237766236066818,72.10725402832031,2.203016996383667,65.62702941894531,28.81,1
-0.0829551890492439,-0.9361786842346193,0.2723557651042938,56.520450592041016,2.200343370437622,65.68899536132812,28.81,1
-0.0532358661293983,-0.9366520643234252,0.297933280467987,41.34808349609375,2.198627471923828,65.72876739501953,28.81,1
-0.0509570389986038,-0.981738030910492,0.2975541353225708,26.30553436279297,2.197526454925537,65.75428771972656,28.81,1
-0.0606901682913303,-1.0218671560287476,0.286115288734436,8.999711036682129,2.19681978225708,65.77066802978516,28.81,1
-0.0837296545505523,-1.0084352493286133,0.2899700403213501,-8.805585861206055,2.196366310119629,65.78118133544922,28.81,1
-0.1265039443969726,-0.9662288427352904,0.3092371225357055,-21.22079086303711,2.196075201034546,65.78792572021484,28.81,1
-0.1595517843961715,-0.9279476404190063,0.3216016292572021,-24.276445388793945,2.196347713470459,65.79225158691406,28.81,1
-0.2031510919332504,-0.8921854496002197,0.3183408975601196,-19.4555721282959,2.1965227127075195,65.79502868652344,28.81,1
-0.2367283850908279,-0.8692353367805481,0.31624835729599,-10.916298866271973,2.1966350078582764,65.79681396484375,28.81,1
-0.2638741433620453,-0.8489094972610474,0.3261010348796844,-1.4381297826766968,2.196707010269165,65.79795837402344,28.81,1
-0.3036858141422272,-0.8190721869468689,0.3324238955974579,7.463900566101074,2.1967532634735107,65.79869079589844,28.81,1
-0.3348324298858642,-0.7999243140220642,0.3420793414115906,12.925930976867676,2.19678282737732,65.79916381835938,28.81,1
-0.3604183197021484,-0.79323410987854,0.3650689721107483,10.004006385803224,2.1968019008636475,65.7994613647461,28.81,1
-0.3824356496334076,-0.8001362681388855,0.3854201734066009,-5.5207295417785645,2.1968140602111816,65.79965209960938,28.81,1
-0.390967309474945,-0.838152289390564,0.3984803855419159,-33.26393508911133,2.1981990337371826,65.79977416992188,28.81,1
-0.3740513622760772,-0.918526530265808,0.4068616926670074,-68.27145385742188,2.199087858200073,65.79985809326172,28.81,1
-0.3631956577301025,-1.0148882865905762,0.4178380966186523,-105.78766632080078,2.199658155441284,65.79991149902344,28.81,1
-0.3562290966510772,-1.1103143692016602,0.4192843437194824,-143.92501831054688,2.200024127960205,65.79994201660156,28.81,1
-0.3461605906486511,-1.12117338180542,0.3978213667869568,-179.4480438232422,2.200259208679199,65.79996490478516,28.81,1
-0.317308098077774,-1.0217843055725098,0.3392654657363891,-203.5917205810547,2.2004098892211914,65.79998016357422,28.81,1
-0.3099877834320068,-0.941208839416504,0.2792965769767761,-207.0626220703125,2.200506687164306,65.79998779296875,28.81,1
-0.3276811242103576,-0.9230868220329284,0.2352142035961151,-189.2132873535156,2.200568675994873,65.79999542236328,28.81,1
-0.3558290302753448,-0.9450438022613524,0.2013269066810608,-157.95413208007812,2.1992313861846924,65.79999542236328,28.81,1
-0.3794904947280884,-0.9703300595283508,0.1627866625785827,-120.496826171875,2.198373317718506,65.79999542236328,28.81,1
-0.394675076007843,-0.9921550750732422,0.1100648865103721,-78.91859436035156,2.197822570800781,65.79999542236328,28.81,1
-0.3988218903541565,-0.978172242641449,0.0818288549780845,-34.93223571777344,2.1974692344665527,65.79999542236328,28.81,1
-0.4014830589294433,-0.9691988825798036,0.0693063735961914,6.705259323120117,2.197242259979248,65.79999542236328,28.81,1
-0.3919953107833862,-0.9466469883918762,0.0612701661884784,40.48347854614258,2.197096824645996,65.79999542236328,28.81,1
-0.3747110664844513,-0.9321744441986084,0.0505152158439159,62.07799911499024,2.1970033645629883,65.79999542236328,28.81,1
-0.3468257188796997,-0.9284846186637878,0.0380155332386493,69.72393035888672,2.196943521499634,65.79999542236328,28.81,1
-0.306539386510849,-0.903725564479828,0.0411895029246807,67.87390899658203,2.195986747741699,65.9397201538086,28.83,1
-0.2750881612300873,-0.8934344053268433,0.0488241501152515,66.91954040527344,2.1953728199005127,66.02938842773438,28.83,1
-0.2549045979976654,-0.9092212319374084,0.0649191737174987,75.07006072998047,2.194978713989258,66.08692932128906,28.83,1
-0.2475497126579284,-0.9361456632614136,0.0808458104729652,92.2234115600586,2.19472599029541,66.12385559082031,28.83,1
-0.2428297698497772,-0.9758152961730956,0.1358488053083419,113.71047973632812,2.194563627243042,66.14755249023438,28.83,1
-0.2062141448259353,-1.057250738143921,0.1767443269491195,136.31277465820312,2.1944594383239746,66.16275787353516,28.83,1
-0.1659230142831802,-1.1263046264648438,0.1973909586668014,156.08042907714844,2.194392681121826,66.17251586914062,28.83,1
-0.1400664895772934,-1.1314350366592407,0.255422979593277,163.15228271484375,2.194349765777588,66.17877960205078,28.83,1
-0.1234732568264007,-1.0843474864959717,0.326251208782196,147.54576110839844,2.1961586475372314,66.18280029296875,28.83,1
-0.1128246784210205,-0.930978298187256,0.3884980380535126,111.5889663696289,2.197319507598877,66.18537902832031,28.83,1
-0.1059910282492637,-0.8885325789451599,0.3836622536182403,69.1895523071289,2.1980645656585693,66.1870346069336,28.83,1
-0.1128011345863342,-0.8948799967765808,0.3525700569152832,32.47547912597656,2.198542594909668,66.18809509277344,28.83,1
-0.1283670216798782,-0.954931139945984,0.3102257847785949,6.166663646697998,2.198849439620972,66.18878173828125,28.83,1
-0.1383563131093979,-1.021457314491272,0.2942472100257873,-8.241260528564453,2.1990463733673096,66.18921661376953,28.83,1
-0.1391690820455551,-0.9969767332077026,0.2951886355876922,-12.102825164794922,2.1991727352142334,66.18949890136719,28.83,1
-0.1340928971767425,-0.9532776474952698,0.284597247838974,-11.213334083557127,2.199253797531128,66.18968200683594,28.83,1
-0.1364330798387527,-0.9084407687187196,0.2778002917766571,-11.30886936187744,2.199305772781372,66.1897964477539,28.83,1
-0.1547281891107559,-0.8852648138999939,0.2566450834274292,-13.630784034729004,2.1993391513824463,66.18987274169922,28.83,1
-0.1776644885540008,-0.8759896159172058,0.2430688887834549,-16.883481979370117,2.199360609054565,66.1899185180664,28.83,1
-0.203579232096672,-0.8644395470619202,0.228758692741394,-19.981163024902344,2.1993744373321533,66.18994903564453,28.83,1
-0.2314053773880005,-0.8738206624984741,0.2195752263069152,-21.40302848815918,2.19938325881958,66.18997192382812,28.83,1
-0.2604581415653229,-0.8854387402534485,0.2192795872688293,-19.015947341918945,2.1993889808654785,66.18997955322266,28.83,1
-0.2958958446979522,-0.887296736240387,0.2414809614419937,-12.54368495941162,2.199392557144165,66.18998718261719,28.83,1
-0.3186377286911011,-0.8884891271591187,0.2613262832164764,-4.918644428253174,2.199394941329956,66.18999481201172,28.83,1
-0.3164388537406921,-0.9284387230873108,0.2796596586704254,-0.276111900806427,2.201232433319092,66.18999481201172,28.83,1
-0.2814410924911499,-0.9988582730293274,0.2970227301120758,-1.5851449966430664,2.202411651611328,66.18999481201172,28.83,1
-0.2533837556838989,-1.088831663131714,0.3193609118461609,-10.328368186950684,2.2031683921813965,66.18999481201172,28.83,1
-0.2297804057598114,-1.174560308456421,0.3504895865917206,-25.52623748779297,2.2036540508270264,66.18999481201172,28.83,1
-0.2202309072017669,-1.1903915405273438,0.3480750918388366,-41.26583862304688,2.203965663909912,66.18999481201172,28.83,1
-0.2141025811433792,-1.1333779096603394,0.3353300392627716,-48.74058151245117,2.2041656970977783,66.18999481201172,28.83,1
-0.2045720070600509,-1.0072253942489624,0.2879665791988373,-44.14751052856445,2.204293966293335,66.18999481201172,28.83,1
-0.1984558254480362,-0.943061351776123,0.2407781183719635,-32.25425338745117,2.204376459121704,66.18999481201172,28.83,1
-0.1945308148860931,-0.9578622579574584,0.1937019526958465,-20.397987365722656,2.205806493759156,66.3727035522461,28.81,1
-0.1920119673013687,-0.9729584455490112,0.152295634150505,-12.03339385986328,2.206724166870117,66.48995971679688,28.81,1
-0.1847977489233017,-0.9994395971298218,0.108930118381977,-6.6009931564331055,2.207313060760498,66.5652084350586,28.81,1
-0.1745703071355819,-0.9884448051452636,0.0699050799012184,-1.8608897924423216,2.207690954208374,66.61349487304688,28.81,1
-0.1792024672031402,-0.9478023648262024,0.0504588298499584,4.4698405265808105,2.2079334259033203,66.64448547363281,28.81,1
-0.1933706700801849,-0.8769381642341614,0.071565993130207,13.02150535583496,2.2080891132354736,66.66437530517578,28.81,1
-0.2080607861280441,-0.8314616084098816,0.0907091274857521,23.26713180541992,2.208189010620117,66.67713928222656,28.81,1
-0.2174880504608154,-0.8134729266166687,0.1141896396875381,36.366058349609375,2.2082531452178955,66.6853256225586,28.81,1
-0.1843535006046295,-0.8299176692962646,0.1460514068603515,55.09717559814453,2.205080986022949,66.69058227539062,28.81,1
-0.140698567032814,-0.8460687398910522,0.1720962226390838,80.4664077758789,2.20304536819458,66.69395446777344,28.81,1
-0.0902922451496124,-0.8452380299568176,0.2167991697788238,109.64419555664062,2.2017390727996826,66.69612121582031,28.81,1
-0.0579443648457527,-0.8559004664421082,0.2454869449138641,136.26123046875,2.200900793075561,66.697509765625,28.81,1
-0.0707720071077346,-0.9075252413749696,0.2638970911502838,153.18846130371094,2.2003626823425293,66.69840240478516,28.81,1
-0.0901995971798896,-0.9798394441604614,0.2813094556331634,156.6641082763672,2.2000174522399902,66.698974609375,28.81,1
-0.0970693305134773,-1.0542354583740234,0.298081487417221,145.4599151611328,2.199795961380005,66.6993408203125,28.81,1
-0.1126734763383865,-1.1523584127426147,0.3144425749778747,117.5803451538086,2.1996538639068604,66.69957733154297,28.81,1
-0.1282850950956344,-1.2041325569152832,0.3193444013595581,75.18760681152344,2.1972672939300537,66.6997299194336,28.81,1
-0.171890377998352,-1.164587140083313,0.3224901258945465,29.56078147888184,2.1957356929779053,66.6998291015625,28.81,1
-0.2054715156555175,-1.010460376739502,0.3021177649497986,-8.368226051330566,2.194752693176269,66.69989013671875,28.81,1
-0.2326197326183319,-0.922746241092682,0.2778483927249908,-38.433837890625,2.194121837615967,66.6999282836914,28.81,1
-0.2724329829216003,-0.9616185426712036,0.2342848479747772,-65.31610870361328,2.1937170028686523,66.699951171875,28.81,1
-0.2979828417301178,-0.9977601170539856,0.1951327174901962,-88.69380950927734,2.1934573650360107,66.69996643066406,28.81,1
-0.2975859344005584,-0.9985625743865968,0.1532138139009475,-104.7280502319336,2.1932907104492188,66.6999740600586,28.81,1
-0.2749401330947876,-0.9542953372001648,0.1319104582071304,-111.7720947265625,2.193183660507202,66.69998168945312,28.81,1
-0.2548095881938934,-0.9034960865974426,0.1238369569182396,-111.37725830078124,2.194951057434082,66.69998931884766,28.81,1
-0.2418909668922424,-0.842907190322876,0.1242536231875419,-105.9649658203125,2.196085214614868,66.69998931884766,28.81,1
-0.2336005419492721,-0.8096224665641785,0.1245210170745849,-96.4693603515625,2.196813106536865,66.69998931884766,28.81,1
-0.2282802164554596,-0.8050556182861328,0.1414859443902969,-82.364990234375,2.197280168533325,66.69998931884766,28.81,1
-0.208072617650032,-0.8021248579025269,0.1747641563415527,-64.0920639038086,2.197579860687256,66.69998931884766,28.81,1
-0.2007023245096206,-0.8002440333366394,0.1961201876401901,-44.48746871948242,2.197772264480591,66.69998931884766,28.81,1
-0.2183635830879211,-0.821428120136261,0.2266185879707336,-28.21273422241211,2.197895765304565,66.69998931884766,28.81,1
-0.2464908957481384,-0.8518161773681641,0.251788467168808,-21.1433334350586,2.197974920272827,66.69998931884766,28.81,1
-0.2981280386447906,-0.8825130462646484,0.290332168340683,-28.81243324279785,2.196648597717285,66.91136169433594,28.77,1
-0.3144724369049072,-0.9302014112472534,0.3262628316879272,-52.259521484375,2.1957974433898926,67.04701232910156,28.77,1
-0.3193635642528534,-0.9887939095497132,0.3493210673332214,-85.32328796386719,2.195251226425171,67.13406372070312,28.77,1
-0.3169046342372894,-1.115959644317627,0.3641185164451599,-118.03102111816406,2.194900751113892,67.18992614746094,28.77,1
-0.3153266310691833,-1.1639806032180786,0.3736146688461303,-142.11273193359375,2.194675922393799,67.22577667236328,28.77,1
-0.2919228672981262,-1.0436577796936035,0.362915426492691,-152.38299560546875,2.1945316791534424,67.24878692626953,28.77,1
-0.2880992293357849,-0.944050431251526,0.3280603885650635,-146.58531188964844,2.194438934326172,67.2635498046875,28.77,1
-0.3024387657642364,-0.919312596321106,0.2944968938827514,-127.2375030517578,2.194379568099976,67.27302551269531,28.77,1
-0.317238837480545,-0.9706105589866638,0.2561644613742828,-100.80257415771484,2.193882465362549,67.27910614013672,28.77,1
-0.2987477779388428,-1.0371172428131104,0.220369353890419,-72.36316680908203,2.193563461303711,67.28301239013672,28.77,1
-0.2365013211965561,-1.046210765838623,0.17500701546669,-42.49409866333008,2.1933586597442627,67.28551483154297,28.77,1
-0.1909573525190353,-0.9960687756538392,0.1682871729135513,-9.862531661987305,2.1932272911071777,67.28712463378906,28.77,1
-0.1729254126548767,-0.9582927227020264,0.1807680875062942,25.534223556518555,2.193142890930176,67.28815460205078,28.77,1
-0.1669513136148452,-0.9228547215461732,0.1999731659889221,61.494606018066406,2.19308876991272,67.288818359375,28.77,1
-0.1519219428300857,-0.8945148587226868,0.2067001014947891,93.07694244384766,2.19305419921875,67.28924560546875,28.77,1
-0.1142880842089653,-0.8875235319137573,0.2110170722007751,112.98641204833984,2.1930317878723145,67.28951263427734,28.77,1
-0.0957346111536026,-0.8774390816688538,0.2249830067157745,115.84300994873048,2.190263271331787,67.28968811035156,28.77,1
-0.0950236096978187,-0.8765652775764465,0.2395433038473129,103.32799530029295,2.1884865760803223,67.28980255126953,28.77,1
-0.1057628765702247,-0.8872000575065613,0.2432895004749298,82.84712982177734,2.1873464584350586,67.28987121582031,28.77,1
-0.1070569455623626,-0.8940248489379883,0.2400958091020584,60.58603286743164,2.186614751815796,67.2899169921875,28.77,1
-0.1134851798415184,-0.926393449306488,0.2268507331609726,38.44713592529297,2.186145067214966,67.28994750976562,28.77,1
-0.1176104545593261,-0.9639590978622437,0.1903619319200515,16.949127197265625,2.185843706130981,67.28997039794922,28.77,1
-0.1258555948734283,-1.0328487157821655,0.1501522064208984,-3.098652601242065,2.18565034866333,67.28997802734375,28.77,1
-0.1647334992885589,-1.116242527961731,0.0907612666487693,-22.54535675048828,2.185526132583618,67.28998565673828,28.77,1
-0.2064764201641082,-1.1585643291473389,0.0470498092472553,-43.63047790527344,2.19095516204834,67.28999328613281,28.77,1
-0.2668512761592865,-1.056975245475769,0.0245960857719182,-64.58120727539062,2.194439172744751,67.28999328613281,28.77,1
-0.3167919218540191,-0.907814621925354,0.0325776748359203,-77.89720916748047,2.196675062179565,67.28999328613281,28.77,1
-0.337645411491394,-0.8960585594177246,0.0376997999846935,-78.59680938720703,2.198109865188598,67.28999328613281,28.77,1
-0.3510279655456543,-0.9444919228553772,0.0409868843853473,-70.37236022949219,2.199030637741089,67.28999328613281,28.77,1
-0.3316272497177124,-0.9643781185150146,0.048694122582674,-59.25836563110352,2.1996214389801025,67.28999328613281,28.77,1
-0.2743948101997375,-1.0051287412643433,0.0872268304228782,-46.54080581665039,2.200000762939453,67.28999328613281,28.77,1
-0.209677442908287,-0.9641069173812866,0.139943778514862,-31.54027366638184,2.200244188308716,67.28999328613281,28.77,1
-0.1793411076068878,-0.9265859127044678,0.1737744808197021,-14.977928161621094,2.199941396713257,67.43329620361328,28.83,1
-0.1822640895843505,-0.8969092965126038,0.1898873001337051,2.7479138374328613,2.199747085571289,67.52526092529297,28.83,1
-0.1897376626729965,-0.8834623694419861,0.2058253586292266,21.02696228027344,2.199622392654419,67.58428192138672,28.83,1
-0.1833382248878479,-0.8636373281478882,0.2272490262985229,36.97768020629883,2.199542284011841,67.62215423583984,28.83,1
-0.1680358946323394,-0.8341214656829834,0.2465952783823013,48.37826919555664,2.199491024017334,67.6464614868164,28.83,1
-0.1694112867116928,-0.8151798844337463,0.2590105831623077,57.19919204711914,2.199458122253418,67.66206359863281,28.83,1
-0.1814894825220108,-0.8254153728485107,0.2725757956504822,66.89751434326172,2.199436902999878,67.67207336425781,28.83,1
-0.1948383450508117,-0.8543750047683716,0.2756834030151367,77.72136688232422,2.199423313140869,67.67849731445312,28.83,1
-0.2146004289388656,-0.9065462350845336,0.2832754552364349,87.08214569091797,2.1980371475219727,67.6826171875,28.83,1
-0.2328803688287735,-1.007200002670288,0.2881475985050201,92.9639663696289,2.1971476078033447,67.68526458740234,28.83,1
-0.2614046931266784,-1.12217378616333,0.2856764793395996,94.57470703125,2.1965765953063965,67.68695831298828,28.83,1
-0.2797099649906158,-1.1119906902313232,0.2784928977489471,91.90042114257812,2.1962101459503174,67.68804931640625,28.83,1
-0.2802616953849792,-1.0550758838653564,0.2682850956916809,88.37501525878906,2.1959750652313232,67.68875122070312,28.83,1
-0.2806157767772674,-0.9233890175819396,0.2561365365982055,90.61949157714844,2.195824146270752,67.68920135498047,28.83,1
-0.2920385301113128,-0.9508354663848876,0.2371447533369064,99.4578857421875,2.1957273483276367,67.68949127197266,28.83,1
-0.2937712371349334,-0.968449056148529,0.2249569147825241,104.8110122680664,2.1956653594970703,67.6896743774414,28.83,1
-0.2501010000705719,-1.0357301235198977,0.1947443634271621,96.52056884765624,2.1942484378814697,67.68978881835938,28.83,1
-0.2108803987503051,-1.0677117109298706,0.1585623621940612,76.43644714355469,2.1933391094207764,67.68986511230469,28.83,1
-0.2025041878223419,-1.0434534549713137,0.1353428363800048,53.41967391967773,2.192755460739136,67.68991088867188,28.83,1
-0.2195199280977249,-0.9887015223503112,0.1540285348892212,31.652061462402344,2.192380905151367,67.68994140625,28.83,1
-0.2304396480321884,-0.9535648822784424,0.1660199463367462,10.306337356567385,2.192140579223633,67.6899642944336,28.83,1
-0.2262517362833023,-0.9422117471694946,0.1849108934402465,-10.50711441040039,2.191986322402954,67.68997955322266,28.83,1
-0.2011730819940567,-0.9461215138435364,0.2026317864656448,-29.549537658691406,2.191887378692627,67.68998718261719,28.83,1
-0.1458946317434311,-0.931837260723114,0.2307973504066467,-46.79622268676758,2.191823720932007,67.68999481201172,28.83,1
-0.0936267748475074,-0.9058771133422852,0.2544701695442199,-61.91962814331055,2.1936194896698,67.68999481201172,28.83,1
-0.0656820461153984,-0.8780218362808228,0.2640642523765564,-73.06515502929688,2.1947717666625977,67.68999481201172,28.83,1
-0.0589442811906337,-0.8433526158332825,0.2534278631210327,-79.79496765136719,2.1955113410949707,67.68999481201172,28.83,1
-0.0546203702688217,-0.8322994112968445,0.2354064881801605,-84.76580047607422,2.195985794067383,67.68999481201172,28.83,1
-0.0630410835146904,-0.8475972414016724,0.1958525329828262,-89.71484375,2.1962904930114746,67.68999481201172,28.83,1
-0.1076294332742691,-0.8965989351272583,0.1312846541404724,-91.38616943359376,2.196485996246338,67.68999481201172,28.83,1
-0.164232537150383,-0.984023094177246,0.0674576088786125,-83.72083282470703,2.1966114044189453,67.68999481201172,28.83,1
-0.2565349042415619,-1.0849090814590454,0.0208993107080459,-63.17804336547852,2.1966917514801025,67.68999481201172,28.83,1
-0.3101714551448822,-1.1272608041763306,0.0022164257243275,-31.207839965820312,2.1990387439727783,67.81180572509766,28.83,1
-0.3222012221813202,-1.0200930833816528,0.0126179233193397,6.451422214508057,2.200545072555542,67.88997650146484,28.83,1
-0.3467145562171936,-0.9961012601852416,0.0248907804489135,41.19472885131836,2.20151162147522,67.94013977050781,28.83,1
-0.3904346823692322,-0.9919002652168274,0.0383645668625831,64.1250991821289,2.202131986618042,67.97233581542969,28.83,1
-0.396100640296936,-0.9948020577430724,0.0750001370906829,70.0882568359375,2.2025299072265625,67.99299621582031,28.83,1
-0.3717478513717651,-0.9854686856269836,0.1041085124015808,59.86421203613281,2.20278549194336,68.00625610351562,28.83,1
-0.2945441305637359,-0.9570879936218262,0.1395819187164306,38.84373092651367,2.202949285507202,68.01476287841797,28.83,1
-0.2394014447927475,-0.8996904492378235,0.179140031337738,14.742409706115724,2.203054428100586,68.02021789550781,28.83,1
-0.2208073586225509,-0.8684538006782532,0.2045261561870575,-4.75482988357544,2.199908494949341,68.02371978759766,28.83,1
-0.2312658429145813,-0.8652012348175049,0.2208175063133239,-15.507991790771484,2.197889566421509,68.02597045898438,28.83,1
-0.2323797196149826,-0.8687117099761963,0.2256745845079422,-18.439258575439453,2.196593999862671,68.02741241455078,28.83,1
-0.2274967730045318,-0.8821600675582886,0.2343893498182296,-16.23265838623047,2.1957623958587646,68.02833557128906,28.83,1
-0.2467542737722396,-0.8963882327079773,0.2343842089176178,-10.17357063293457,2.195228815078736,68.0289306640625,28.83,1
-0.2759059369564056,-0.9111168384552002,0.2399786859750747,-0.9579065442085266,2.194886445999145,68.02931213378906,28.83,1
-0.317004919052124,-0.9429599046707152,0.2603622078895569,9.89296531677246,2.194666624069214,68.02955627441406,28.83,1
-0.348977655172348,-0.9745904803276062,0.2846387326717376,20.72561264038086,2.194525718688965,68.02971649169922,28.83,1
-0.3638981282711029,-1.006084680557251,0.3170113265514374,30.475372314453125,2.1944351196289062,68.02981567382812,28.83,1
-0.3622776865959167,-1.0542848110198977,0.3545795381069183,37.76757049560547,2.194376945495605,68.0298843383789,28.83,1
-0.3668355643749237,-1.1244012117385864,0.378688633441925,40.70257186889648,2.1943397521972656,68.02992248535156,28.83,1
-0.3697605431079864,-1.1693979501724243,0.3997582495212555,39.80958938598633,2.1943159103393555,68.02995300292969,28.83,1
-0.3604420721530914,-1.2038719654083252,0.4076817333698272,39.852725982666016,2.194300651550293,68.02996826171875,28.83,1
-0.3264731466770172,-1.1084421873092651,0.384777694940567,44.07918930053711,2.1942906379699707,68.02997589111328,28.83,1
-0.2822827398777008,-1.0080164670944214,0.3364925682544708,47.9844856262207,2.194284200668335,68.02998352050781,28.83,1
-0.2539238929748535,-0.9659600853919984,0.2943103909492492,44.90903091430664,2.1942801475524902,68.02999114990234,28.83,1
-0.2413225769996643,-0.9725573658943176,0.2448492050170898,36.16072845458984,2.192900419235229,68.02999114990234,28.83,1
-0.2332357764244079,-1.0103777647018433,0.2019123136997223,28.55107688903809,2.1920149326324463,68.02999114990234,28.83,1
-0.2280461341142654,-1.0290509462356567,0.1519667953252792,24.351911544799805,2.191446781158448,68.02999114990234,28.83,1
-0.2247157245874405,-0.9962521195411682,0.119914636015892,20.19902229309082,2.191082239151001,68.02999114990234,28.83,1
-0.2113829106092453,-0.9640081524848938,0.1161387339234352,12.82284927368164,2.1908481121063232,68.02999114990234,28.83,1
-0.2028266787528991,-0.91532701253891,0.113715574145317,0.9384243488311768,2.1906979084014893,68.02999114990234,28.83,1
-0.1973357796669006,-0.8728907108306885,0.1065627560019493,-14.874499320983888,2.190601587295532,68.02999114990234,28.83,1
-0.1938120424747467,-0.8512552976608276,0.0907769426703453,-31.352733612060547,2.190539836883545,68.02999114990234,28.83,1
-0.1803551614284515,-0.8429687023162842,0.0806465148925781,-44.70759582519531,2.194631576538086,68.14463806152344,28.83,1
-0.1605237573385238,-0.8376508355140686,0.0797431617975235,-54.16645812988281,2.1972575187683105,68.21820831298828,28.83,1
-0.1421993225812912,-0.8790203332901001,0.0791634395718574,-60.67726516723633,2.1989426612854004,68.26542663574219,28.83,1
-0.136037528514862,-0.9167644381523132,0.0787914097309112,-62.6092529296875,2.200024127960205,68.29572296142578,28.83,1
-0.1432787925004959,-0.9409864544868468,0.0897482112050056,-55.4228744506836,2.20071792602539,68.31517028808594,28.83,1
-0.136730283498764,-0.9957151412963868,0.1079752072691917,-37.19011688232422,2.2011632919311523,68.32764434814453,28.83,1
-0.1325278133153915,-1.0532280206680298,0.1196722388267517,-13.78152561187744,2.201449155807495,68.33565521240234,28.83,1
-0.1466242372989654,-1.067745327949524,0.1663631498813629,5.4359564781188965,2.201632499694824,68.3407974243164,28.83,1
-0.1612682938575744,-1.0546705722808838,0.2131200134754181,19.19091415405273,2.198536872863769,68.3440933227539,28.83,1
-0.1650682240724563,-0.9511178135871888,0.282310277223587,35.51280212402344,2.196550369262696,68.34620666503906,28.83,1
-0.1675067991018295,-0.923848032951355,0.3211148381233215,57.376258850097656,2.19527554512024,68.34756469726562,28.83,1
-0.1746695190668106,-0.9287389516830444,0.3348218202590942,74.60978698730469,2.194457530975342,68.34843444824219,28.83,1
-0.1792661398649215,-0.9990509748458862,0.3156293034553528,75.4410171508789,2.19393253326416,68.34899139404297,28.83,1
-0.1766182035207748,-1.0609664916992188,0.2921171188354492,60.010498046875,2.1935956478118896,68.34934997558594,28.83,1
-0.1581255942583084,-1.050320386886597,0.2882238924503326,38.80147171020508,2.1933794021606445,68.34957885742188,28.83,1
-0.1406603306531906,-1.0099016427993774,0.2857254445552826,23.026865005493164,2.1932406425476074,68.3497314453125,28.83,1
-0.140647679567337,-0.9671698808670044,0.2785243093967438,18.70023727416992,2.192692279815674,68.3498306274414,28.83,1
-0.15743288397789,-0.9285515546798706,0.2515119314193725,25.82231330871582,2.19234037399292,68.34989166259766,28.83,1
-0.1738024353981018,-0.9037685394287108,0.2285791784524917,40.7321662902832,2.1921145915985107,68.34992980957031,28.83,1
-0.1955030113458633,-0.8766686916351318,0.208264485001564,59.43601989746094,2.191969633102417,68.3499526977539,28.83,1
-0.2150269746780395,-0.8424842357635498,0.1952276825904846,78.79768371582031,2.1918766498565674,68.34996795654297,28.83,1
-0.2331541031599044,-0.8261443972587585,0.1924591809511184,95.65094757080078,2.191817045211792,68.3499755859375,28.83,1
-0.2615803778171539,-0.8268539905548096,0.2018780708312988,106.87481689453124,2.1917786598205566,68.34998321533203,28.83,1
-0.2854204773902893,-0.8497004508972168,0.213520348072052,110.63479614257812,2.191754102706909,68.34999084472656,28.83,1
-0.3007197082042694,-0.909144163131714,0.2321872264146804,105.96856689453124,2.1935746669769287,68.34999084472656,28.83,1
-0.2825489938259125,-0.9976717233657836,0.2497643381357193,90.73596954345705,2.194743156433105,68.34999084472656,28.83,1
-0.259692519903183,-1.093667984008789,0.2666420936584472,61.679141998291016,2.19549298286438,68.34999084472656,28.83,1
-0.2282312363386154,-1.177664041519165,0.2774732708930969,18.24430274963379,2.195974111557007,68.34999084472656,28.83,1
-0.2192367315292358,-1.1979811191558838,0.2620329856872558,-33.12062454223633,2.196282863616944,68.34999084472656,28.83,1
-0.2134645879268646,-1.1718350648880005,0.2465265244245529,-80.46414184570312,2.1964809894561768,68.34999084472656,28.83,1
-0.2097603529691696,-1.0431005954742432,0.214184284210205,-115.5289077758789,2.196608066558838,68.34999084472656,28.83,1
-0.1961876451969146,-0.9492906332015992,0.1822333335876464,-140.34579467773438,2.19668960571289,68.34999084472656,28.83,1
-0.1874774545431137,-0.9730554223060608,0.1281424164772033,-160.72857666015625,2.196742057800293,68.48255157470703,28.81,1
-0.1874855309724807,-1.0162951946258545,0.0766366496682167,-174.85159301757812,2.1967756748199463,68.56761932373047,28.81,1
-0.2098818123340606,-1.0328483581542969,0.0155943464487791,-173.73326110839844,2.1967973709106445,68.62220764160156,28.81,1
-0.2130589038133621,-0.9930912852287292,-0.062763512134552,-152.48025512695312,2.1968111991882324,68.65724182128906,28.81,1
-0.2039022296667099,-0.9507842063903807,-0.1186468526721,-115.9128189086914,2.196820020675659,68.67972564697266,28.81,1
-0.2092215567827224,-0.9124383926391602,-0.1153251379728317,-73.61592102050781,2.1968257427215576,68.69415283203125,28.81,1
-0.212635189294815,-0.8822324872016907,-0.0908023566007614,-33.96185302734375,2.196829319000244,68.70341491699219,28.81,1
-0.231619194149971,-0.8740436434745789,-0.0750650465488433,-2.362870216369629,2.196831703186035,68.70935821533203,28.81,1
-0.2270087152719497,-0.8631907105445862,-0.0817590728402137,19.756980895996094,2.1968331336975098,68.71317291259766,28.81,1
-0.2184522002935409,-0.8618236780166626,-0.0860549136996269,35.593048095703125,2.196834087371826,68.71562194824219,28.81,1
-0.2129611074924469,-0.9001308679580688,-0.072018414735794,49.83269119262695,2.1968348026275635,68.71719360351562,28.81,1
-0.220632791519165,-0.9471052885055542,-0.0518150478601455,64.55611419677734,2.1968352794647217,68.71820068359375,28.81,1
-0.2423493713140487,-0.9996418356895448,-0.0164585914462804,79.67955780029297,2.196835517883301,68.7188491821289,28.81,1
-0.2450902611017227,-1.0725412368774414,0.0118289217352867,95.27108764648438,2.19683575630188,68.7192611694336,28.81,1
-0.235653668642044,-1.1249216794967651,0.0411777682602405,109.43978881835938,2.19683575630188,68.71952819824219,28.81,1
-0.2128044813871383,-1.1473408937454224,0.082403264939785,115.58039855957033,2.19683575630188,68.71969604492188,28.81,1
-0.2037389576435089,-1.1617281436920166,0.1256527453660965,107.16836547851562,2.1890318393707275,68.71980285644531,28.81,1
-0.2203123271465301,-1.0422122478485107,0.1925921887159347,84.63813018798828,2.184023857116699,68.7198715209961,28.81,1
-0.214154839515686,-0.9375249743461608,0.2243545204401016,53.04048538208008,2.18080997467041,68.71991729736328,28.81,1
-0.2102033197879791,-0.926320493221283,0.2223466634750366,15.412519454956056,2.1787474155426025,68.7199478149414,28.81,1
-0.2076674550771713,-0.9751078486442566,0.2098625898361206,-26.572587966918945,2.1774237155914307,68.719970703125,28.81,1
-0.1836489886045456,-1.0679922103881836,0.1850576996803283,-68.2835922241211,2.176574230194092,68.71997833251953,28.81,1
-0.1458442211151123,-1.0828179121017456,0.1691393554210662,-102.49232482910156,2.1760292053222656,68.71998596191406,28.81,1
-0.1271810680627823,-1.0251588821411133,0.164521649479866,-122.23148345947266,2.175679445266724,68.7199935913086,28.81,1
-0.1263996809720993,-0.9545699954032898,0.1671560406684875,-123.09793853759766,2.1791274547576904,68.7199935913086,28.81,1
-0.1482893377542495,-0.8756834864616394,0.1576510965824127,-106.23907470703124,2.181340217590332,68.7199935913086,28.81,1
-0.1735323965549469,-0.8306564092636108,0.1459535956382751,-78.89718627929688,2.182760238647461,68.7199935913086,28.81,1
-0.2009274959564209,-0.8129562139511108,0.1272512674331665,-49.70020294189453,2.183671474456787,68.7199935913086,28.81,1
-0.2241058647632599,-0.8239883184432983,0.1208469569683075,-23.583152770996094,2.1842563152313232,68.7199935913086,28.81,1
-0.2557737231254577,-0.8366658687591553,0.1279325932264328,-2.1868817806243896,2.184631586074829,68.7199935913086,28.81,1
-0.304085224866867,-0.850399374961853,0.1660663932561874,12.127973556518556,2.1848723888397217,68.7199935913086,28.81,1
-0.3462843000888824,-0.8648105263710022,0.2017340213060379,14.729649543762209,2.1850268840789795,68.7199935913086,28.81,1
-0.3733652532100677,-0.896449863910675,0.2358189970254898,1.327359914779663,2.187880516052246,68.84180450439453,28.83,1
-0.3627553582191467,-0.9503408074378968,0.2632905542850494,-29.11642265319824,2.189711809158325,68.91997528076172,28.83,1
-0.3503487706184387,-0.9905226826667786,0.2753224372863769,-73.92139434814453,2.190886974334717,68.97013854980469,28.83,1
-0.3535824716091156,-1.0890802145004272,0.2774460315704345,-127.28336334228516,2.191641092300415,69.00233459472656,28.83,1
-0.3612554669380188,-1.1803176403045654,0.2732110619544983,-180.69119262695312,2.192125082015991,69.02299499511719,28.83,1
-0.3773750960826874,-1.2276729345321655,0.2257111072540283,-224.23696899414065,2.1924357414245605,69.0362548828125,28.83,1
-0.3597308695316314,-1.112520694732666,0.1560439467430114,-249.93228149414065,2.192635059356689,69.04476165771484,28.83,1
-0.3372122645378113,-1.0106338262557983,0.0945422500371933,-255.23367309570312,2.192762851715088,69.05021667480469,28.83,1
-0.3227611482143402,-1.0068241357803345,0.0214873533695936,-242.5034637451172,2.192844867706299,69.05371856689453,28.83,1
-0.3246828019618988,-0.9987815618515016,-0.0309928487986326,-214.55096435546875,2.1928975582122803,69.05596923828125,28.83,1
-0.3259159922599792,-1.0272068977355957,-0.081464946269989,-172.25473022460938,2.1929314136505127,69.05741119384766,28.83,1
-0.298718512058258,-1.006264328956604,-0.1250505745410919,-117.03121185302734,2.192953109741211,69.05833435058594,28.83,1
-0.2700691819190979,-0.9928245544433594,-0.1530213207006454,-53.57978439331055,2.192966938018799,69.05892944335938,28.83,1
-0.2460859268903732,-0.9897974133491516,-0.142982468008995,10.910080909729004,2.1929759979248047,69.05931091308594,28.83,1
-0.2306948453187942,-0.9934525489807128,-0.1197467893362045,69.45650482177734,2.192981719970703,69.05955505371094,28.83,1
-0.2376110702753067,-0.984602689743042,-0.0880421474575996,117.31739044189452,2.1929852962493896,69.0597152709961,28.83,1
-0.2308539450168609,-0.9789233207702636,-0.0676959306001663,152.6532745361328,2.1911511421203613,69.059814453125,28.83,1
-0.2097242921590805,-0.9752786755561828,-0.0546388998627662,176.28277587890625,2.189974308013916,69.05988311767578,28.83,1
-0.1849689483642578,-0.9841352701187134,-0.0238685514777898,190.83419799804688,2.1892189979553223,69.05992126464844,28.83,1
-0.1746801733970642,-0.9954167008399964,0.001475861412473,199.05470275878903,2.188734292984009,69.05995178222656,28.83,1
-0.1848707497119903,-1.0194498300552368,0.0233382191509008,202.0659637451172,2.188423156738281,69.05996704101562,28.83,1
-0.1970082521438598,-1.0460684299468994,0.0485637709498405,199.06521606445312,2.188223600387573,69.05997467041016,28.83,1
-0.1991996169090271,-1.085541844367981,0.0703498572111129,188.15798950195312,2.188095569610596,69.05998229980469,28.83,1
-0.1838125884532928,-1.1052757501602173,0.0955264568328857,166.7062530517578,2.1880133152008057,69.05998992919922,28.83,1
-0.1627425402402877,-1.1347332000732422,0.1284766793251037,133.554443359375,2.187042713165283,69.05998992919922,28.83,1
-0.1548187583684921,-1.0696706771850586,0.1832088828086853,92.8583755493164,2.186419725418091,69.05998992919922,28.83,1
-0.132940411567688,-0.9159618020057678,0.235126182436943,51.54827499389648,2.186019897460937,69.05998992919922,28.83,1
-0.1133023723959922,-0.8341136574745178,0.2572481632232666,12.287447929382324,2.185763359069824,69.05998992919922,28.83,1
-0.117493137717247,-0.8543592691421509,0.2490536868572235,-24.837865829467773,2.185598850250244,69.05998992919922,28.83,1
-0.1257802993059158,-0.8897428512573242,0.2437949329614639,-54.3339729309082,2.185493230819702,69.05998992919922,28.83,1
-0.1255007535219192,-0.9572321772575378,0.2404201775789261,-67.12593078613281,2.1854255199432373,69.05998992919922,28.83,1
-0.1141258031129837,-0.950162947177887,0.2382544428110122,-60.23809814453125,2.1853818893432617,69.05998992919922,28.83,1
-0.106826014816761,-0.9232352375984192,0.2312668263912201,-39.012020111083984,2.183976888656616,69.19612884521484,28.83,1
-0.1189347580075264,-0.8779657483100891,0.2323803603649139,-11.479202270507812,2.183075189590454,69.28350067138672,28.83,1
-0.126705452799797,-0.8545121550559998,0.2386927306652069,16.195907592773438,2.1824965476989746,69.33956909179688,28.83,1
-0.1316922307014465,-0.8506565093994141,0.2483414262533188,40.83116149902344,2.1821250915527344,69.37554931640625,28.83,1
-0.134892463684082,-0.8593777418136597,0.2545334100723266,61.06155014038086,2.181886672973633,69.39864349365234,28.83,1
-0.1481417417526245,-0.8705723285675049,0.2641048431396484,74.69628143310547,2.1817338466644287,69.41345977783203,28.83,1
-0.1734376847743988,-0.8889518976211548,0.2758449912071228,77.3845443725586,2.181635618209839,69.42296600341797,28.83,1
-0.1952689439058303,-0.9007468223571776,0.2945747077465057,65.28097534179688,2.181572675704956,69.42906951904297,28.83,1
-0.2092789858579635,-0.913913905620575,0.3289854526519775,39.32486724853516,2.180155038833618,69.4329833984375,28.83,1
-0.229465365409851,-0.9615482091903688,0.3622638285160064,5.736476898193359,2.1792454719543457,69.43550109863281,28.83,1
-0.2424198240041732,-1.0033127069473269,0.3780221939086914,-28.73738479614257,2.178661584854126,69.4371109008789,28.83,1
-0.2507332563400268,-1.1196792125701904,0.3825372457504272,-61.21437072753906,2.1782870292663574,69.43814849853516,28.83,1
-0.2560683488845825,-1.2167476415634155,0.3798369765281677,-90.62574768066406,2.178046703338623,69.43881225585938,28.83,1
-0.2482965439558029,-1.2454538345336914,0.3501152098178863,-111.87911224365234,2.1778924465179443,69.43923950195312,28.83,1
-0.2433090507984161,-1.1239315271377563,0.2974548637866974,-116.95594024658205,2.177793264389038,69.43951416015625,28.83,1
-0.2401083558797836,-1.012358784675598,0.246867150068283,-103.94548034667967,2.177729606628418,69.43968963623047,28.83,1
-0.2380543351173401,-1.002333402633667,0.1808162182569503,-80.00833129882812,2.178147792816162,69.43980407714844,28.83,1
-0.2311384081840515,-1.0126930475234983,0.1272329837083816,-53.34023666381836,2.1784162521362305,69.43987274169922,28.83,1
-0.2211023867130279,-1.0473301410675049,0.0760530307888984,-27.380809783935547,2.178588390350342,69.4399185180664,28.83,1
-0.2146618515253067,-1.052764892578125,0.0152198132127523,-3.384430170059204,2.178699016571045,69.43994903564453,28.83,1
-0.2049309164285659,-1.033861517906189,-0.0238194465637207,17.60030174255371,2.178769826889038,69.43997192382812,28.83,1
-0.1874906122684478,-0.9825459718704224,-0.0208837240934371,35.71369552612305,2.1788153648376465,69.43997955322266,28.83,1
-0.1818961948156356,-0.9440168142318726,-0.0078041977249085,50.820091247558594,2.178844690322876,69.43998718261719,28.83,1
-0.1950993537902832,-0.9304865598678588,0.017382813617587,60.96949768066406,2.178863286972046,69.43999481201172,28.83,1
-0.1923768222332,-0.916205883026123,0.0391441620886325,64.76720428466797,2.1774981021881104,69.43999481201172,28.83,1
-0.1794341206550598,-0.907041311264038,0.0587071180343627,63.62178039550781,2.176622152328491,69.43999481201172,28.83,1
-0.143139362335205,-0.8843666911125183,0.0936525911092758,60.43623352050781,2.1760599613189697,69.43999481201172,28.83,1
-0.1310430169105529,-0.869815468788147,0.1216763630509376,57.39239501953125,2.175699234008789,69.43999481201172,28.83,1
-0.1288780570030212,-0.9052594900131226,0.1452581733465194,55.184669494628906,2.175467729568481,69.43999481201172,28.83,1
-0.1162931621074676,-0.9336032271385192,0.1715871691703796,53.29139709472656,2.175319194793701,69.43999481201172,28.83,1
-0.1082169041037559,-0.9517925977706908,0.1884836107492447,50.43200302124024,2.1752238273620605,69.43999481201172,28.83,1
-0.1030340269207954,-1.013845443725586,0.2049245536327362,43.78202438354492,2.1751625537872314,69.43999481201172,28.83,1
-0.0885124057531356,-1.0704606771469116,0.2602576017379761,29.11065101623535,2.1742055416107178,69.61912536621094,28.83,1
-0.0679977163672447,-1.0955976247787476,0.3181582689285278,6.088787078857422,2.173591375350952,69.73408508300781,28.83,1
-0.0548325702548027,-1.0277624130249023,0.4056955277919769,-17.77789878845215,2.1731972694396973,69.80785369873047,28.83,1
-0.0407861620187759,-0.9562407732009888,0.4618719220161438,-34.025634765625,2.1729443073272705,69.85519409179688,28.83,1
-0.0373697616159915,-0.9719178676605223,0.4587382674217224,-41.69749069213867,2.1727819442749023,69.88557434082031,28.83,1
-0.0351773090660572,-1.004369616508484,0.4399339556694031,-44.310089111328125,2.172677755355835,69.90507507324219,28.83,1
-0.0337703190743923,-1.030793070793152,0.3998775482177734,-43.11705780029297,2.1726107597351074,69.91758728027344,28.83,1
-0.0496607199311256,-1.0085656642913818,0.3517805635929107,-38.13116836547852,2.172567844390869,69.92562103271484,28.83,1
-0.0710538104176521,-0.9775080680847168,0.3041213452816009,-31.366846084594727,2.172080993652344,69.93077087402344,28.83,1
-0.0903804376721382,-0.9127948880195618,0.2511453032493591,-25.686010360717773,2.1717686653137207,69.93407440185547,28.83,1
-0.1083809286355972,-0.8544723987579346,0.2115505635738372,-22.72823143005371,2.1715681552886963,69.93619537353516,28.83,1
-0.1255303919315338,-0.8226421475410461,0.1973364949226379,-22.68229103088379,2.171439409255981,69.93756103515625,28.83,1
-0.1533292531967163,-0.8134108781814575,0.1882147192955017,-25.017309188842773,2.1713569164276123,69.93843841552734,28.83,1
-0.1767667233943939,-0.8074867725372314,0.1823608875274658,-29.281538009643555,2.171303987503052,69.93899536132812,28.83,1
-0.2086008787155151,-0.8260761499404907,0.1953975558280944,-35.15641021728516,2.17126989364624,69.9393539428711,28.83,1
-0.2402257472276687,-0.8492012619972229,0.2149592936038971,-42.158050537109375,2.171248197555542,69.93958282470703,28.83,1
-0.2661185562610626,-0.8976282477378845,0.25550177693367,-50.083404541015625,2.1707751750946045,69.93973541259766,28.83,1
-0.2715395092964172,-0.951097011566162,0.2927151322364807,-59.29298782348633,2.170471668243408,69.93983459472656,28.83,1
-0.2694205939769745,-1.0301923751831057,0.3165965378284454,-70.39790344238281,2.1702768802642822,69.93989562988281,28.83,1
-0.2680608034133911,-1.1649178266525269,0.326324462890625,-84.5498275756836,2.170151948928833,69.93993377685547,28.83,1
-0.2615903913974762,-1.1898013353347778,0.3325673043727875,-102.55591583251952,2.170071840286255,69.93995666503906,28.83,1
-0.246242493391037,-1.1106079816818235,0.3309758007526397,-121.0900421142578,2.170020341873169,69.93997192382812,28.83,1
-0.2307953238487243,-0.9646241068840028,0.3075633943080902,-131.68011474609375,2.169987201690674,69.93997955322266,28.83,1
-0.215284451842308,-0.870940089225769,0.2701475620269775,-127.40248107910156,2.169965982437134,69.93998718261719,28.83,1
-0.2165260165929794,-0.8835901021957397,0.2069517970085144,-109.11612701416016,2.1754608154296875,69.93999481201172,28.83,1
-0.2117249965667724,-0.9085015058517456,0.1663963943719864,-82.2267074584961,2.1789872646331787,69.93999481201172,28.83,1
-0.1862528920173645,-0.969270408153534,0.1347724944353103,-50.0706901550293,2.1812503337860107,69.93999481201172,28.83,1
-0.1811019033193588,-1.0026706457138062,0.1088803261518478,-13.997488975524902,2.1827025413513184,69.93999481201172,28.83,1
-0.200187399983406,-1.0017138719558716,0.1146553233265876,22.65494155883789,2.1836345195770264,69.93999481201172,28.83,1
-0.2124353647232055,-0.956317663192749,0.1463502496480941,54.67423248291016,2.184232711791992,69.93999481201172,28.83,1
-0.2090998589992523,-0.9271849989891052,0.1666902303695678,78.37861633300781,2.1846165657043457,69.93999481201172,28.83,1
-0.1845682263374328,-0.9140871167182922,0.1741454899311065,93.03184509277344,2.1848628520965576,69.93999481201172,28.83,1
-0.1352385878562927,-0.9000838398933411,0.1789298504590988,99.60163116455078,2.18088960647583,70.1119613647461,28.79,1
-0.0979838892817497,-0.8854995965957642,0.1820001751184463,99.66194915771484,2.178339719772339,70.22232055664062,28.79,1
-0.0908692926168441,-0.8705424666404724,0.1783727556467056,95.31558990478516,2.176703453063965,70.29313659667969,28.79,1
-0.0919013246893882,-0.8665416240692139,0.1760448813438415,88.66790771484375,2.1756532192230225,70.33858489990234,28.79,1
-0.1093569472432136,-0.8751696944236755,0.1577576696872711,81.18107604980469,2.1749792098999023,70.36775207519531,28.79,1
-0.1485478281974792,-0.9310866594314576,0.1348264366388321,74.39170837402344,2.174546718597412,70.38646697998047,28.79,1
-0.1792960613965988,-0.9837642312049866,0.1201104894280433,69.46147155761719,2.174269199371338,70.39848327636719,28.79,1
-0.2046262770891189,-1.0903407335281372,0.0938733220100402,63.76106643676758,2.174091100692749,70.40618896484375,28.79,1
-0.2320773005485534,-1.1531376838684082,0.071438044309616,50.60546875,2.174435615539551,70.4111328125,28.79,1
-0.2608893513679504,-1.1654481887817385,0.057040374726057,27.177047729492188,2.174656867980957,70.414306640625,28.79,1
-0.3017703592777252,-1.0445996522903442,0.0645941048860549,1.186521053314209,2.1747987270355225,70.41634368896484,28.79,1
-0.3224076628684997,-0.9110682010650636,0.0694416537880897,-15.87962245941162,2.17488980293274,70.41765594482422,28.79,1
-0.3188581764698028,-0.9317331314086914,0.0613569803535938,-20.96701431274414,2.174948215484619,70.41849517822266,28.79,1
-0.3109825253486633,-0.9561902284622192,0.0561687014997005,-19.58879280090332,2.174985647201538,70.41903686523438,28.79,1
-0.2835372984409332,-0.9998742938041688,0.0696324855089187,-16.106962203979492,2.175009727478028,70.41938018798828,28.79,1
-0.2491312026977539,-1.0055171251296997,0.1062616407871246,-10.508484840393066,2.175025224685669,70.41960144042969,28.79,1
-0.2214535772800445,-0.9755517244338988,0.1409636735916137,-2.892472267150879,2.1768712997436523,70.41974639892578,28.79,1
-0.1868983507156372,-0.9283327460289,0.1912223100662231,5.323259353637695,2.178056001663208,70.41983795166016,28.79,1
-0.1535272449254989,-0.8868348002433777,0.2234754115343094,13.827125549316406,2.178816080093384,70.4198989868164,28.79,1
-0.1377093642950058,-0.8602038025856018,0.2441736012697219,22.82758522033692,2.1793038845062256,70.41993713378906,28.79,1
-0.1275583654642105,-0.8375157713890076,0.2462609559297561,31.22958946228028,2.179616928100586,70.41996002197266,28.79,1
-0.1266418099403381,-0.817358136177063,0.2420027256011963,37.80376434326172,2.179817914962769,70.41997528076172,28.79,1
-0.142846941947937,-0.7988243699073792,0.2336722612380981,42.85384750366211,2.1799468994140625,70.41998291015625,28.79,1
-0.1588442325592041,-0.7981259822845459,0.2283262461423874,46.93660354614258,2.1800296306610107,70.41999053955078,28.79,1
-0.2026970237493515,-0.8312644362449646,0.2472865879535675,48.804344177246094,2.1782467365264893,70.41999053955078,28.79,1
-0.2252414524555206,-0.9085085391998292,0.270649790763855,45.84358215332031,2.177102565765381,70.41999053955078,28.79,1
-0.2341113835573196,-0.9860682487487792,0.2744473814964294,36.68881988525391,2.176368236541748,70.41999053955078,28.79,1
-0.2454013675451278,-1.1533948183059692,0.25449338555336,23.54477310180664,2.1758968830108643,70.41999053955078,28.79,1
-0.2582444250583648,-1.1432222127914429,0.2360902726650238,11.835206031799316,2.1755945682525635,70.41999053955078,28.79,1
-0.2496930211782455,-1.0695207118988037,0.2242802083492279,6.183619499206543,2.175400495529175,70.41999053955078,28.79,1
-0.210618570446968,-0.9438544511795044,0.2167011946439743,5.469390392303467,2.175276041030884,70.41999053955078,28.79,1
-0.1855428516864776,-0.9135890603065492,0.2006418704986572,2.911649703979492,2.1751961708068848,70.41999053955078,28.79,1
-0.1862440109252929,-0.9277530908584596,0.1791403740644455,-7.155979156494141,2.176522016525269,70.58837127685547,28.79,1
-0.1810962110757827,-0.981624960899353,0.1541464030742645,-22.250810623168945,2.177372932434082,70.6964340209961,28.79,1
-0.1889881938695907,-1.0609790086746216,0.1381067037582397,-32.84419631958008,2.1779189109802246,70.76577758789062,28.79,1
-0.1940528154373169,-1.044730544090271,0.1558022201061248,-31.73925971984864,2.178269386291504,70.8102798461914,28.79,1
-0.2029007673263549,-1.0119121074676514,0.1671581864356994,-21.09210968017578,2.1784942150115967,70.83883666992188,28.79,1
-0.1861877739429474,-0.9740578532218932,0.1632502526044845,-8.99657917022705,2.178638458251953,70.85716247558594,28.79,1
-0.1642667949199676,-0.9441673755645752,0.1607423573732376,-1.6033685207366943,2.1787309646606445,70.86892700195312,28.79,1
-0.1278080642223358,-0.924985408782959,0.1703284829854965,-0.3446776568889618,2.178790330886841,70.87648010253906,28.79,1
-0.0988131836056709,-0.9126755595207214,0.1764803081750869,-3.6712145805358887,2.176992416381836,70.8813247680664,28.79,1
-0.0802059397101402,-0.8991780281066895,0.1804281920194625,-8.68996810913086,2.1758387088775635,70.88442993164062,28.79,1
-0.0794604271650314,-0.8849182724952698,0.1885595023632049,-12.315546035766602,2.175098419189453,70.88642883300781,28.79,1
-0.0845797732472419,-0.8757672309875488,0.1937776952981948,-12.29922866821289,2.174623250961304,70.88771057128906,28.79,1
-0.0878650769591331,-0.8922857046127319,0.1971264332532882,-7.86069393157959,2.174318313598633,70.8885269165039,28.79,1
-0.0843756198883056,-0.9252774119377136,0.1824821382761001,-0.1471603363752365,2.1741225719451904,70.88905334472656,28.79,1
-0.0877340659499168,-0.9576451182365416,0.1562909483909607,8.876330375671387,2.173996925354004,70.88938903808594,28.79,1
-0.1178781911730766,-1.0120035409927368,0.1002985313534736,18.48252868652344,2.173916339874268,70.88961029052734,28.79,1
-0.1540162861347198,-1.0916697978973389,0.036376953125,28.37311363220215,2.172487497329712,70.8897476196289,28.79,1
-0.2331853657960891,-1.1260017156600952,-0.0326331108808517,37.980464935302734,2.171570539474488,70.88983917236328,28.79,1
-0.3119803965091705,-1.052871823310852,-0.048930924385786,49.211673736572266,2.1709821224212646,70.88990020751953,28.79,1
-0.3513509631156921,-0.9499634504318236,-0.0481943748891353,64.83110046386719,2.170604467391968,70.88993835449219,28.79,1
-0.3430300951004028,-0.9734871983528136,-0.0309283751994371,82.4533920288086,2.1703622341156006,70.88996124267578,28.79,1
-0.3432880043983459,-0.9829856157302856,-0.0142502775415778,96.4134750366211,2.1702067852020264,70.88997650146484,28.79,1
-0.3210624158382416,-1.005874514579773,0.0020505413413047,105.18954467773438,2.170106887817383,70.88998413085938,28.79,1
-0.2732126712799072,-0.9925743937492372,0.0237070173025131,110.42742919921876,2.1700427532196045,70.8899917602539,28.79,1
-0.2257121354341507,-0.972843587398529,0.0488004460930824,111.44580078125,2.170460700988769,70.8899917602539,28.79,1
-0.195229023694992,-0.9321926236152648,0.0816972851753234,107.08372497558594,2.170728921890259,70.8899917602539,28.79,1
-0.1868622750043869,-0.900507390499115,0.1028085872530937,99.82408905029295,2.17090106010437,70.8899917602539,28.79,1
-0.1982862949371338,-0.8745758533477783,0.110758826136589,94.17648315429688,2.171011447906494,70.8899917602539,28.79,1
-0.2056175768375396,-0.8635322451591492,0.1214586123824119,93.48271942138672,2.171082258224488,70.8899917602539,28.79,1
-0.2103223651647567,-0.8564451336860657,0.1395206600427627,100.48926544189452,2.171127796173096,70.8899917602539,28.79,1
-0.2245371788740158,-0.8574947714805603,0.1679051667451858,118.6603546142578,2.171156883239746,70.8899917602539,28.79,1
-0.2448549717664718,-0.8749616742134094,0.2029140293598175,148.3633575439453,2.171175479888916,70.8899917602539,28.79,1
-0.2914804220199585,-0.9309531450271606,0.2421740293502807,181.25735473632807,2.170269727706909,71.02255249023438,28.79,1
-0.3158041536808014,-0.9780808091163636,0.2617710530757904,202.80032348632807,2.16968846321106,71.10762023925781,28.79,1
-0.3202181756496429,-1.0083246231079102,0.2575539946556091,201.44241333007807,2.1693153381347656,71.1622085571289,28.79,1
-0.323050856590271,-1.072515606880188,0.232456624507904,173.1392059326172,2.169075965881348,71.1972427368164,28.79,1
-0.330466479063034,-1.1249052286148071,0.221948355436325,122.89745330810548,2.168922185897827,71.2197265625,28.79,1
-0.3184320628643036,-1.124939203262329,0.2264003008604049,67.74819946289062,2.168823719024658,71.2341537475586,28.79,1
-0.2939157485961914,-1.0242010354995728,0.246050626039505,27.43412208557129,2.1687605381011963,71.24341583251953,28.79,1
-0.2669870555400848,-0.9091731309890748,0.253063291311264,4.092165470123291,2.16871976852417,71.24935913085938,28.79,1
-0.2329124361276626,-0.880137026309967,0.2463680654764175,-19.363733291625977,2.1700708866119385,71.253173828125,28.79,1
-0.2166430801153183,-0.8838944435119629,0.2364736795425415,-58.05421447753906,2.170938014984131,71.25562286376953,28.79,1
-0.206202358007431,-0.9646745324134828,0.2133307158946991,-112.90910339355467,2.171494483947754,71.25719451904297,28.79,1
-0.199502095580101,-1.0221123695373535,0.1760877966880798,-176.88705444335938,2.171851634979248,71.2582015991211,28.79,1
-0.1896044760942459,-1.0477770566940308,0.1465896517038345,-241.51060485839844,2.1720807552337646,71.25885009765625,28.79,1
-0.1776549816131591,-1.0138672590255735,0.1388549953699112,-299.7415771484375,2.1722278594970703,71.25926208496094,28.79,1
-0.1755842566490173,-0.9697147607803344,0.1394891142845153,-349.2808532714844,2.1723222732543945,71.25952911376953,28.79,1
-0.1742553859949112,-0.9245869517326356,0.1510916054248809,-390.5339050292969,2.1723828315734863,71.25969696044922,28.79,1
-0.1622070521116256,-0.8956264853477478,0.1697329580783844,-420.7228698730469,2.1696672439575195,71.25980377197266,28.79,1
-0.1488773375749588,-0.8770413398742676,0.1760981380939483,-434.4323425292969,2.167924642562866,71.25987243652344,28.79,1
-0.1347253322601318,-0.8483211398124695,0.185780718922615,-429.9676208496094,2.166806221008301,71.25991821289062,28.79,1
-0.1256433874368667,-0.8410857319831848,0.1919944435358047,-410.9951477050781,2.166088581085205,71.25994873046875,28.79,1
-0.1198151111602783,-0.8532357811927795,0.1903842687606811,-381.0967102050781,2.165627956390381,71.25997161865234,28.79,1
-0.1160748600959777,-0.8890218734741211,0.1837531775236129,-339.6224060058594,2.165332317352295,71.25997924804688,28.79,1
-0.1136745810508728,-0.9231828451156616,0.1738999634981155,-284.57525634765625,2.165142774581909,71.2599868774414,28.79,1
-0.1121342256665229,-0.9730942845344543,0.1675767302513122,-217.6616058349609,2.1650209426879883,71.25999450683594,28.79,1
-0.1055479347705841,-1.0387111902236938,0.1579210758209228,-144.7592010498047,2.165401697158813,71.25999450683594,28.79,1
-0.1405056565999984,-1.108809232711792,0.1405290812253952,-71.43849182128906,2.1656460762023926,71.25999450683594,28.79,1
-0.2189172506332397,-1.1370007991790771,0.1685523241758346,0.7104571461677551,2.1658029556274414,71.25999450683594,28.79,1
-0.2860306203365326,-1.0935169458389282,0.2033293396234512,71.26911926269531,2.1659035682678223,71.25999450683594,28.79,1
-0.3123067915439605,-0.9592538475990297,0.2256472259759903,135.4942626953125,2.165968179702759,71.25999450683594,28.79,1
-0.317973792552948,-0.9122759699821472,0.2287740111351013,186.21484375,2.1660096645355225,71.25999450683594,28.79,1
-0.3104149997234344,-0.9437037706375122,0.1971939653158188,221.52296447753903,2.166036367416382,71.25999450683594,28.79,1
-0.2775753140449524,-1.0198500156402588,0.1713299304246902,246.109115600586,2.166053533554077,71.25999450683594,28.79,1
-0.2453051507472992,-1.0407274961471558,0.1603296548128128,265.25830078125,2.1656055450439453,71.34956359863281,28.81,1
-0.2078026980161667,-0.9981476664543152,0.170063629746437,281.4127502441406,2.165318012237549,71.40704345703125,28.81,1
-0.1893335580825805,-0.9540290832519532,0.1819081157445907,295.3838195800781,2.165133476257324,71.44393157958984,28.81,1
-0.2054699957370758,-0.8977274298667908,0.183911457657814,307.9716186523437,2.1650149822235107,71.46760559082031,28.81,1
-0.2326187491416931,-0.8671940565109253,0.1795993000268936,321.0116271972656,2.1649391651153564,71.48279571533203,28.81,1
-0.2444434911012649,-0.8475995063781738,0.1712342351675033,335.8214111328125,2.1648902893066406,71.49254608154297,28.81,1
-0.2408363819122314,-0.8294270634651184,0.1658660173416137,348.5498046875,2.1648590564727783,71.4988021850586,28.81,1
-0.2441193163394928,-0.806569516658783,0.1680187880992889,350.0438232421875,2.164839029312134,71.50281524658203,28.81,1
-0.2574216723442077,-0.803096354007721,0.1861936300992965,333.3655700683594,2.163449048995972,71.50538635253906,28.81,1
-0.288349449634552,-0.8400519490242004,0.2146505117416381,298.39404296875,2.1625568866729736,71.50704193115234,28.81,1
-0.313794881105423,-0.8861590027809143,0.2385102808475494,247.6454162597656,2.161984443664551,71.50810241699219,28.81,1
-0.3021354377269745,-0.9829211235046388,0.2538221180438995,182.0572662353516,2.161617040634156,71.50878143310547,28.81,1
-0.2834575176239013,-1.112190842628479,0.2580505907535553,101.729736328125,2.161381244659424,71.50921630859375,28.81,1
-0.249080017209053,-1.228735327720642,0.2551664113998413,10.076796531677246,2.161230087280273,71.5094985961914,28.81,1
-0.2158229649066925,-1.2195602655410769,0.214131087064743,-80.2495346069336,2.161133050918579,71.50968170166016,28.81,1
-0.1888827234506607,-1.1632922887802124,0.1766014248132705,-150.45384216308594,2.1610705852508545,71.50979614257812,28.81,1
-0.165996253490448,-1.0264227390289309,0.1245281770825386,-192.916732788086,2.1601123809814453,71.50987243652344,28.81,1
-0.1513090282678604,-0.9497833251953124,0.0855127871036529,-220.79034423828125,2.1594974994659424,71.50991821289062,28.81,1
-0.1810680478811264,-0.9453827142715454,0.0380838625133037,-253.6997528076172,2.1591029167175293,71.50994873046875,28.81,1
-0.2505456507205963,-0.9649497866630554,-0.0203421656042337,-299.30242919921875,2.1588497161865234,71.50997161865234,28.81,1
-0.2895345985889435,-0.994300127029419,-0.0802277252078056,-350.6040344238281,2.158687114715576,71.50997924804688,28.81,1
-0.2697732448577881,-0.940364420413971,-0.1186588257551193,-392.2178039550781,2.158582925796509,71.5099868774414,28.81,1
-0.2347004562616348,-0.8889582753181458,-0.1265283674001693,-408.9671325683594,2.158515930175781,71.50999450683594,28.81,1
-0.2065949887037277,-0.8671643137931824,-0.1091874986886978,-396.4112243652344,2.158473014831543,71.50999450683594,28.81,1
-0.2109496146440506,-0.8587759733200073,-0.0868635773658752,-363.3543701171875,2.157527208328247,71.50999450683594,28.81,1
-0.2193419337272644,-0.8645883798599243,-0.0725373700261116,-321.8450927734375,2.1569201946258545,71.50999450683594,28.81,1
-0.2023365497589111,-0.8795139789581299,-0.068941406905651,-278.3114013671875,2.1565306186676025,71.50999450683594,28.81,1
-0.185825690627098,-0.8890923857688904,-0.0610359497368335,-234.42434692382807,2.156280755996704,71.50999450683594,28.81,1
-0.1752299815416336,-0.9344236254692078,-0.0447671338915824,-189.7874755859375,2.1561203002929688,71.50999450683594,28.81,1
-0.1908213645219802,-0.9915034770965576,-0.0175334215164184,-142.35865783691406,2.156017303466797,71.50999450683594,28.81,1
-0.2120225578546524,-1.0393296480178833,0.0055413823574781,-90.28998565673828,2.1559512615203857,71.50999450683594,28.81,1
-0.2200304865837097,-1.0924128293991089,0.0203494634479284,-33.60289764404297,2.1559088230133057,71.50999450683594,28.81,1
-0.2195717394351959,-1.13767409324646,0.0354502126574516,25.4497299194336,2.1572587490081787,71.5708999633789,28.81,1
-0.2304728925228119,-1.1219379901885986,0.0843254253268241,79.6649398803711,2.158125162124634,71.6099853515625,28.81,1
-0.2374686300754547,-1.0222750902175903,0.1492773592472076,118.8852081298828,2.158681154251098,71.63507080078125,28.81,1
-0.2251647710800171,-0.9303282499313354,0.1965575516223907,140.37521362304688,2.1590378284454346,71.65116882324219,28.81,1
-0.1836822032928466,-0.9217020273208618,0.1989103853702545,149.13990783691406,2.159266710281372,71.6614990234375,28.81,1
-0.1514633148908615,-0.9329595565795898,0.1836269795894622,144.4646759033203,2.1594138145446777,71.66812896728516,28.81,1
-0.1251893043518066,-1.0297483205795288,0.1514278650283813,119.64649963378906,2.159508228302002,71.67237854003906,28.81,1
-0.1251214891672134,-1.035884141921997,0.1307643353939056,78.2331771850586,2.1595687866210938,71.67510986328125,28.81,1
-0.1418712884187698,-1.0062350034713743,0.1342969983816146,36.49861526489258,2.160066843032837,71.67686462402344,28.81,1
-0.1694136708974838,-0.9368279576301576,0.1589551568031311,8.160937309265137,2.160386562347412,71.67798614501953,28.81,1
-0.1926865577697754,-0.8698954582214355,0.18037711083889,-3.407534599304199,2.1605916023254395,71.6787109375,28.81,1
-0.2244150787591934,-0.8381375670433044,0.1661356091499328,-0.9830142855644226,2.1607232093811035,71.6791763305664,28.81,1
-0.2615699470043182,-0.8401482701301575,0.1625940203666687,9.833861351013184,2.160807609558105,71.67947387695312,28.81,1
-0.2910115718841553,-0.8470364212989807,0.1659190058708191,22.278345108032227,2.160861730575561,71.6796646118164,28.81,1
-0.3099054992198944,-0.8682501316070557,0.1848461031913757,31.69036293029785,2.1608965396881104,71.6797866821289,28.81,1
-0.3220305442810058,-0.8930594325065613,0.2081879824399948,37.09992218017578,2.160918951034546,71.67986297607422,28.81,1
-0.329811692237854,-0.914578378200531,0.2455585449934005,38.62612915039063,2.160933256149292,71.6799087524414,28.81,1
-0.3180118799209595,-0.922790229320526,0.2639430463314056,34.303348541259766,2.160942554473877,71.67993927001953,28.81,1
-0.2992438971996307,-0.9392556548118592,0.2645456194877624,20.14022827148437,2.1609485149383545,71.67996215820312,28.81,1
-0.2760041356086731,-0.9778110980987548,0.2425412237644195,-7.549581050872803,2.16095232963562,71.67997741699219,28.81,1
-0.2610901892185211,-1.013749361038208,0.2284200638532638,-50.03549575805664,2.160954713821411,71.67998504638672,28.81,1
-0.2571170330047607,-1.0648013353347778,0.2137601375579834,-103.38883209228516,2.1609561443328857,71.67999267578125,28.81,1
-0.2657628655433655,-1.103161334991455,0.1875589191913604,-155.2506103515625,2.160957098007202,71.67999267578125,28.81,1
-0.2769090235233307,-1.1445719003677368,0.1651467084884643,-187.7694396972656,2.1609578132629395,71.67999267578125,28.81,1
-0.284061998128891,-1.092777967453003,0.1563616245985031,-188.7620086669922,2.159581184387207,71.67999267578125,28.81,1
-0.2774567902088165,-1.0035618543624878,0.1395283043384552,-160.02903747558594,2.1586976051330566,71.67999267578125,28.81,1
-0.2564246356487274,-0.957503616809845,0.1119323298335075,-113.70309448242188,2.158130645751953,71.67999267578125,28.81,1
-0.2597207427024841,-0.961532711982727,0.0886250510811805,-62.36367416381836,2.157766819000244,71.67999267578125,28.81,1
-0.2618359923362732,-0.9697161316871644,0.0736677795648574,-13.177178382873535,2.157533407211304,71.67999267578125,28.81,1
-0.2631934285163879,-0.9917610883712769,0.0528735145926475,31.51802444458008,2.157383441925049,71.67999267578125,28.81,1
-0.2528690099716186,-0.9779193997383118,0.039528951048851,70.8804931640625,2.157287359237671,71.67999267578125,28.81,1
-0.235047847032547,-0.941047728061676,0.0477585047483444,102.84405517578124,2.157225608825684,71.67999267578125,28.81,1
-0.2348067909479141,-0.9061900973320008,0.0698330774903297,124.0693588256836,2.1571860313415527,71.6728286743164,28.81,1
-0.2514454126358032,-0.8894182443618774,0.0839992687106132,132.48147583007812,2.157160520553589,71.6682357788086,28.81,1
-0.2565253674983978,-0.8842527866363525,0.0762969925999641,130.0591278076172,2.15714430809021,71.665283203125,28.81,1
-0.2485898286104202,-0.8865357041358948,0.0713541135191917,123.19522857666016,2.157133817672729,71.66339111328125,28.81,1
-0.226703941822052,-0.8935984969139099,0.0737798362970352,119.41732025146484,2.157127141952514,71.66217803955078,28.81,1
-0.2182566076517105,-0.9093265533447266,0.0865320712327957,122.6676788330078,2.157122850418091,71.6613998413086,28.81,1
-0.2184333652257919,-0.9306154251098632,0.1003134995698928,131.7252655029297,2.1571199893951416,71.66089630126953,28.81,1
-0.2185468077659607,-0.9554729461669922,0.1091576218605041,142.3349609375,2.157118082046509,71.66057586669922,28.81,1
-0.2186195999383926,-0.9770228862762452,0.120431050658226,148.51312255859375,2.1571168899536133,71.66036987304688,28.81,1
-0.2242640852928161,-1.0356346368789673,0.1332634538412094,143.51431274414062,2.157116174697876,71.66024017333984,28.81,1
-0.2278863936662674,-1.0900415182113647,0.1470963358879089,124.23851013183594,2.1571156978607178,71.66015625,28.81,1
-0.2358087599277496,-1.1137611865997314,0.1671690344810485,94.3388671875,2.1571154594421387,71.66010284423828,28.81,1
-0.2296973317861557,-1.028223156929016,0.1968438476324081,60.77770614624024,2.15711522102356,71.66006469726562,28.81,1
-0.2201775908470153,-0.9789275527000428,0.2214852124452591,30.032865524291992,2.15711522102356,71.66004180908203,28.81,1
-0.1972750425338745,-1.0032702684402466,0.2261030822992324,8.496976852416992,2.15711522102356,71.66002655029297,28.81,1
-0.1713819652795791,-1.046880841255188,0.2066754549741745,0.8922520279884338,2.15711522102356,71.66001892089844,28.81,1
-0.1491675078868866,-1.0636720657348633,0.183012381196022,6.193656921386719,2.1557376384735107,71.6600112915039,28.81,1
-0.1237159892916679,-1.024067759513855,0.1790223270654678,18.953481674194336,2.154853582382202,71.6600112915039,28.81,1
-0.1073826700448989,-0.9706631302833556,0.1764617413282394,34.081451416015625,2.1542861461639404,71.6600112915039,28.81,1
-0.1136942133307457,-0.902804434299469,0.1804162859916687,47.07135009765625,2.1539220809936523,71.6600112915039,28.81,1
-0.1513312458992004,-0.8536588549613953,0.1773563027381897,52.38740921020508,2.153688430786133,71.6600112915039,28.81,1
-0.1810822933912277,-0.8221200704574585,0.1697948127985,45.9898567199707,2.153538465499878,71.6600112915039,28.81,1
-0.2281636744737625,-0.8298691511154175,0.1537467390298843,28.28840065002441,2.1534423828125,71.6600112915039,28.81,1
-0.2471822500228881,-0.8460376262664795,0.1546435505151748,2.9100074768066406,2.1533806324005127,71.6600112915039,28.81,1
-0.2425939589738845,-0.8676091432571411,0.1888057142496109,-25.66461944580078,2.152423143386841,71.6600112915039,28.81,1
-0.2172583639621734,-0.8982458710670471,0.2331201285123825,-53.023094177246094,2.151808738708496,71.6600112915039,28.81,1
-0.2009994238615036,-0.9179067611694336,0.2671563327312469,-75.62803649902344,2.151414394378662,71.6600112915039,28.81,1
-0.1905653774738311,-0.9249261617660522,0.2945965826511383,-91.35983276367188,2.151161193847656,71.6600112915039,28.81,1
-0.183869406580925,-0.9462241530418396,0.3066083788871765,-98.71133422851562,2.150998830795288,71.6600112915039,28.81,1
-0.1795723140239715,-0.9654897451400756,0.3087190985679626,-96.64729309082033,2.1508946418762207,71.6600112915039,28.81,1
-0.1880102455615997,-1.033831000328064,0.304475873708725,-86.61347198486328,2.150827646255493,71.6600112915039,28.81,1
-0.2102185487747192,-1.0944818258285522,0.296155035495758,-72.53270721435547,2.150784730911255,71.6600112915039,28.81,1
-0.2244705557823181,-1.1501973867416382,0.2796196341514587,-56.64301300048828,2.1493799686431885,71.84988403320312,28.81,1
-0.2336166650056839,-1.1299747228622437,0.2578126192092895,-38.28123474121094,2.148478507995605,71.97173309326172,28.81,1
-0.2226928025484085,-0.9994436502456664,0.2046337127685547,-18.28643798828125,2.147900104522705,72.0499267578125,28.81,1
-0.1988891661167144,-0.9716541171073914,0.1537132412195205,0.0980635359883308,2.147528886795044,72.10011291503906,28.81,1
-0.1948089152574539,-0.9706137180328368,0.1154376342892646,15.912246704101562,2.147290706634521,72.13231658935547,28.81,1
-0.208983764052391,-1.0147281885147097,0.0796790048480033,30.986921310424805,2.1471378803253174,72.15298461914062,28.81,1
-0.2292759120464325,-1.037440538406372,0.0455356240272522,45.21443176269531,2.1470396518707275,72.16624450683594,28.81,1
-0.225504919886589,-1.0296249389648438,0.0068310447968542,55.53066253662109,2.1469767093658447,72.17475891113281,28.81,1
-0.2006938159465789,-0.9910227060317992,0.0043837712146341,59.27779769897461,2.146477460861206,72.18022155761719,28.81,1
-0.1847714781761169,-0.960652232170105,0.0196065753698349,56.06859970092773,2.1461570262908936,72.18372344970703,28.81,1
-0.2025423198938369,-0.9635533094406128,0.0349734686315059,47.388519287109375,2.145951271057129,72.18597412109375,28.81,1
-0.2083488404750824,-0.965415060520172,0.0448350571095943,36.4478645324707,2.145819187164306,72.18741607666016,28.81,1
-0.1896840333938598,-0.9666098356246948,0.0399681068956851,27.96150779724121,2.1457345485687256,72.18833923339844,28.81,1
-0.1553149372339248,-0.9785721302032472,0.0480403266847133,25.92606544494629,2.1456801891326904,72.18893432617188,28.81,1
-0.1388566046953201,-0.9974443912506104,0.0588183887302875,30.6278133392334,2.1456453800201416,72.18931579589844,28.81,1
-0.1394901424646377,-1.003957748413086,0.0825284495949745,38.86135482788086,2.145622968673706,72.18955993652344,28.81,1
-0.1398967206478119,-1.0137354135513306,0.0977442041039466,47.2691764831543,2.14239501953125,72.1897201538086,28.81,1
-0.1345598548650741,-1.0200101137161257,0.1075088009238243,53.78617477416992,2.140323638916016,72.1898193359375,28.81,1
-0.1199394166469574,-1.0408302545547483,0.1137751564383506,56.09114074707031,2.1389942169189453,72.18988800048828,28.81,1
-0.1105568632483482,-1.0989736318588257,0.1121987700462341,51.86687469482422,2.13814115524292,72.18992614746094,28.81,1
-0.1157312244176864,-1.1138955354690552,0.1223826855421066,41.03428649902344,2.1375937461853027,72.18995666503906,28.81,1
-0.113454058766365,-1.1234716176986694,0.1457114517688751,25.68499565124512,2.137242317199707,72.18997192382812,28.81,1
-0.1231882572174072,-1.0400525331497192,0.1830736100673675,8.701797485351562,2.137016773223877,72.18997955322266,28.81,1
-0.0958484560251236,-0.952932357788086,0.2126482725143432,-6.094883441925049,2.1368720531463623,72.18998718261719,28.81,1
-0.0615100227296352,-0.9250125288963318,0.2316275835037231,-14.422622680664062,2.137697458267212,72.18999481201172,28.81,1
-0.0394735932350158,-0.9406818151474,0.2326118648052215,-13.493796348571776,2.138227224349976,72.18999481201172,28.81,1
-0.0365274287760257,-0.9675307869911194,0.2332435250282287,-2.497511148452759,2.1385672092437744,72.18999481201172,28.81,1
-0.04023452475667,-0.9455764889717102,0.2392466515302658,17.67866325378418,2.1387853622436523,72.18999481201172,28.81,1
-0.0426135249435901,-0.9146941304206848,0.2430991232395172,42.96854019165039,2.138925313949585,72.18999481201172,28.81,1
-0.0497380048036575,-0.8780823349952698,0.23997363448143,65.41748046875,2.1390151977539062,72.18999481201172,28.81,1
-0.0711034089326858,-0.8377936482429504,0.2267723381519317,76.85037994384766,2.1390726566314697,72.18999481201172,28.81,1
-0.0904122665524482,-0.8231342434883118,0.2183005064725875,74.18839263916016,2.1391096115112305,72.18999481201172,28.81,1
-0.1028035804629325,-0.83051997423172,0.2240593135356903,60.0306282043457,2.1372973918914795,72.3727035522461,28.79,1
-0.1163533926010131,-0.8464552760124207,0.2277549803256988,38.28058624267578,2.136134386062622,72.48995971679688,28.79,1
-0.1306466609239578,-0.867877185344696,0.2357244342565536,11.471964836120604,2.135388135910034,72.5652084350586,28.79,1
-0.1510148048400879,-0.8928200602531433,0.2688276469707489,-17.945266723632812,2.134909152984619,72.61349487304688,28.79,1
-0.1752814501523971,-0.9256203174591064,0.2956691384315491,-47.492462158203125,2.134601831436157,72.64448547363281,28.79,1
-0.2076477110385894,-0.9802562594413756,0.2961011528968811,-76.54268646240234,2.134404420852661,72.66437530517578,28.79,1
-0.1948318630456924,-1.0433073043823242,0.2851828336715698,-105.639404296875,2.134277820587158,72.67713928222656,28.79,1
-0.1642162948846817,-1.1285520792007446,0.2613827586174011,-133.4798126220703,2.134196519851685,72.6853256225586,28.79,1
-0.1613623052835464,-1.1944527626037598,0.2517070174217224,-155.18670654296875,2.1341443061828613,72.69058227539062,28.79,1
-0.170726329088211,-1.2031574249267578,0.2566932439804077,-164.24105834960938,2.134110927581787,72.69395446777344,28.79,1
-0.1879311650991439,-1.0743969678878784,0.2486975640058517,-158.1001434326172,2.134089469909668,72.69612121582031,28.79,1
-0.1933744698762893,-0.9357882142066956,0.2267730683088302,-141.36587524414062,2.13407564163208,72.697509765625,28.79,1
-0.1912698894739151,-0.8748259544372559,0.1959098726511001,-120.61349487304688,2.1340668201446533,72.69840240478516,28.79,1
-0.1899192929267883,-0.902877151966095,0.1705058813095092,-97.62643432617188,2.134061098098755,72.698974609375,28.79,1
-0.194650337100029,-0.9544654488563538,0.1374097317457199,-70.9769287109375,2.1340575218200684,72.6993408203125,28.79,1
-0.1920886784791946,-1.0211584568023682,0.1049749776721,-41.48626708984375,2.1340551376342773,72.69957733154297,28.79,1
-0.1848469823598861,-1.035969376564026,0.0953557714819908,-11.805965423583984,2.1349713802337646,72.6997299194336,28.79,1
-0.1857974529266357,-1.0062897205352783,0.1115738153457641,16.459110260009766,2.135559558868408,72.6998291015625,28.79,1
-0.1808096319437027,-0.942460834980011,0.1387749463319778,41.315338134765625,2.135936975479126,72.69989013671875,28.79,1
-0.1720109581947326,-0.9014991521835328,0.1506332904100418,59.16540145874024,2.136179208755493,72.6999282836914,28.79,1
-0.1607667058706283,-0.8808100819587708,0.1470477432012558,68.5820541381836,2.1363346576690674,72.699951171875,28.79,1
-0.1423552334308624,-0.8619352579116821,0.1503445208072662,72.76934814453125,2.136434316635132,72.69996643066406,28.79,1
-0.1249420419335365,-0.849822461605072,0.1524602025747299,75.63922119140625,2.136498212814331,72.6999740600586,28.79,1
-0.1305605769157409,-0.8588424921035767,0.1594157069921493,77.78546142578125,2.1365392208099365,72.69998168945312,28.79,1
-0.1453617811203003,-0.8870221376419067,0.1638793498277664,78.18475341796875,2.1370248794555664,72.69998931884766,28.79,1
-0.1604581177234649,-0.9330950975418092,0.1611460745334625,77.80687713623047,2.1373367309570312,72.69998931884766,28.79,1
-0.1645483076572418,-0.9794554114341736,0.1481964737176895,79.9969482421875,2.137536764144897,72.69998931884766,28.79,1
-0.1615753769874572,-1.0260001420974731,0.1398861557245254,87.34590148925781,2.137665033340454,72.69998931884766,28.79,1
-0.1764608472585678,-1.1230430603027344,0.1121619790792465,97.28185272216795,2.1377475261688232,72.69998931884766,28.79,1
-0.2028068006038665,-1.162928581237793,0.0887724235653877,101.44055938720705,2.137800455093384,72.69998931884766,28.79,1
-0.2644963264465332,-1.138144850730896,0.084957905113697,92.02535247802734,2.137834310531616,72.69998931884766,28.79,1
-0.2984873354434967,-0.9990890026092528,0.0937055125832557,68.8620834350586,2.1378560066223145,72.69998931884766,28.79,1
-0.2811163663864136,-0.8986554145812988,0.0881236791610717,38.23748016357422,2.137870073318481,72.87195587158203,28.81,1
-0.2419798225164413,-0.92936509847641,0.0677482560276985,6.4036149978637695,2.137879133224488,72.98231506347656,28.81,1
-0.2168642431497573,-0.9546706080436708,0.0546724796295166,-23.053617477416992,2.1378848552703857,73.05313873291016,28.81,1
-0.2007465064525604,-0.9765079617500304,0.046281199902296,-47.47832107543945,2.1378884315490723,73.09858703613281,28.81,1
-0.2015986144542694,-0.9513375163078308,0.0576894804835319,-64.29911804199219,2.137890815734864,73.12775421142578,28.81,1
-0.2021454572677612,-0.918391227722168,0.0762062072753906,-71.71894836425781,2.137892246246338,73.14646911621094,28.81,1
-0.1968986093997955,-0.8692593574523926,0.0992847234010696,-69.2652587890625,2.1378931999206543,73.15848541259766,28.81,1
-0.1935314834117889,-0.8153382539749146,0.1140951886773109,-58.028419494628906,2.137893915176392,73.16619110107422,28.81,1
-0.1745773404836654,-0.7919303178787231,0.1627841144800186,-40.61766815185547,2.1360578536987305,73.17113494873047,28.81,1
-0.2127936333417892,-0.810495138168335,0.1884320974349975,-21.168701171875,2.1348795890808105,73.17430877685547,28.81,1
-0.2485141903162002,-0.8280067443847656,0.1936959475278854,-4.968760013580322,2.1341235637664795,73.17634582519531,28.81,1
-0.2882309257984161,-0.8336468935012817,0.1858784258365631,3.5537428855896,2.133638381958008,73.17765808105469,28.81,1
-0.3081210553646087,-0.8596575260162354,0.1920571476221084,2.735574722290039,2.133327007293701,73.17849731445312,28.81,1
-0.3152876198291778,-0.9155340790748596,0.2016200572252273,-7.455267429351807,2.133127212524414,73.17903900146484,28.81,1
-0.2974956035614013,-1.001772403717041,0.246941402554512,-27.22203254699707,2.1329989433288574,73.17938232421875,28.81,1
-0.2748821675777435,-1.0627129077911377,0.2872215807437897,-55.49499130249024,2.1329166889190674,73.17960357666016,28.81,1
-0.271565705537796,-1.141005516052246,0.2962777614593506,-87.27781677246094,2.1333231925964355,73.17974853515625,28.81,1
-0.2806329429149627,-1.1744558811187744,0.2852961719036102,-113.87205505371094,2.1335840225219727,73.17984008789062,28.81,1
-0.258462905883789,-1.1063579320907593,0.2614555060863495,-127.20207977294922,2.133751392364502,73.17990112304688,28.81,1
-0.2666265666484833,-0.9786900281906128,0.2517537176609039,-125.90802001953124,2.1338586807250977,73.17993927001953,28.81,1
-0.2718655169010162,-0.8799667954444885,0.2399298846721649,-116.85914611816406,2.133927583694458,73.17996215820312,28.81,1
-0.230445384979248,-0.8669918775558472,0.2099509388208389,-108.05706787109376,2.133971929550171,73.17997741699219,28.81,1
-0.1926687806844711,-0.8922519683837891,0.1739188432693481,-100.06539154052734,2.134000301361084,73.17998504638672,28.81,1
-0.17962147295475,-0.9812334775924684,0.1060133278369903,-86.11290740966797,2.134018421173096,73.17999267578125,28.81,1
-0.1768462359905243,-1.0439344644546509,0.0792288035154342,-59.90532302856445,2.133111953735352,73.17999267578125,28.81,1
-0.1806630343198776,-1.0505857467651367,0.0788333564996719,-22.282791137695312,2.132530212402344,73.17999267578125,28.81,1
-0.1943079829216003,-0.9932786226272584,0.1121662259101867,18.61330986022949,2.1321568489074707,73.17999267578125,28.81,1
-0.1974667459726333,-0.945306658744812,0.1447528898715973,52.596435546875,2.1319172382354736,73.17999267578125,28.81,1
-0.1659072190523147,-0.9089232087135316,0.1712629199028015,73.57727813720703,2.131763458251953,73.17999267578125,28.81,1
-0.156849667429924,-0.8967699408531189,0.1882755309343338,81.7429428100586,2.131664752960205,73.17999267578125,28.81,1
-0.1510370522737503,-0.8945684432983398,0.1935954689979553,80.59904479980469,2.131601572036743,73.17999267578125,28.81,1
-0.1752957254648208,-0.8875579237937927,0.1746183931827545,72.9362564086914,2.131560802459717,73.17999267578125,28.81,1
-0.2020590901374817,-0.8830589652061462,0.1568422317504882,60.20512390136719,2.1278622150421143,73.35553741455078,28.79,1
-0.2248320579528808,-0.8801717758178711,0.1342389583587646,44.52952194213867,2.125488758087158,73.46819305419922,28.79,1
-0.2506419718265533,-0.906307816505432,0.1085379347205162,29.493623733520508,2.1239655017852783,73.54048919677734,28.79,1
-0.2728030681610107,-0.9342759847640992,0.0864467248320579,19.18525505065918,2.122987985610962,73.58688354492188,28.79,1
-0.2814270257949829,-0.9690176844596864,0.0610743053257465,16.24207878112793,2.1223607063293457,73.61666107177734,28.79,1
-0.2813636064529419,-1.0584862232208252,0.0279984269291162,18.584339141845703,2.1219582557678223,73.63577270507812,28.79,1
-0.3205073177814483,-1.132695198059082,-0.00442331796512,19.85818099975586,2.121699810028076,73.64803314208984,28.79,1
-0.3624208271503448,-1.1075472831726074,0.0083569176495075,15.903669357299805,2.1215341091156006,73.65589904785156,28.79,1
-0.383720725774765,-0.996246576309204,0.0389496348798275,7.6158576011657715,2.1223459243774414,73.66094970703125,28.79,1
-0.3694009184837341,-0.8744402527809143,0.0865711495280265,-3.0479860305786133,2.1228668689727783,73.66419219970703,28.79,1
-0.3546135127544403,-0.8914341330528259,0.1227296739816665,-13.620888710021973,2.1232011318206787,73.66627502441406,28.79,1
-0.3227327167987823,-0.924730896949768,0.1347385793924331,-18.44988250732422,2.12341570854187,73.66761016845703,28.79,1
-0.2406979203224182,-0.968489944934845,0.13684743642807,-13.219364166259766,2.123553514480591,73.66846466064453,28.79,1
-0.1712593883275985,-0.990974187850952,0.1437985450029373,-1.318275809288025,2.1236417293548584,73.66901397705078,28.79,1
-0.1434910595417022,-0.9438278079032898,0.181846022605896,9.611544609069824,2.123698472976685,73.66936492919922,28.79,1
-0.1480620503425598,-0.9023764133453368,0.2174582481384277,15.253547668457031,2.123734951019287,73.66959381103516,28.79,1
-0.1565932184457779,-0.8477864265441895,0.2571054399013519,15.61769962310791,2.1223812103271484,73.66973876953125,28.79,1
-0.1564702540636062,-0.8183514475822449,0.2657554149627685,11.444823265075684,2.1215124130249023,73.66983032226562,28.79,1
-0.145195797085762,-0.7994617819786072,0.2825020253658294,2.744601249694824,2.120954751968384,73.66989135742188,28.79,1
-0.1771449148654937,-0.7985350489616394,0.2540646195411682,-10.31911849975586,2.1205968856811523,73.66992950439453,28.79,1
-0.2088435739278793,-0.8091358542442322,0.2246195673942566,-27.623273849487305,2.120367288589477,73.66995239257812,28.79,1
-0.234783723950386,-0.8327322006225586,0.2169189751148224,-49.31101608276367,2.1202199459075928,73.66996765136719,28.79,1
-0.2458328455686569,-0.8870593905448914,0.2343682795763015,-72.49349975585938,2.120125293731689,73.66997528076172,28.79,1
-0.2529235482215881,-0.9443145394325256,0.2455662339925766,-89.09390258789062,2.1200647354125977,73.66998291015625,28.79,1
-0.2630717158317566,-0.9754598140716552,0.2527524530887604,-91.0665054321289,2.121861934661865,73.66999053955078,28.79,1
-0.2695842087268829,-1.0122404098510742,0.2517663538455963,-77.06705474853516,2.1230151653289795,73.66999053955078,28.79,1
-0.2905568778514862,-1.125408411026001,0.2567313313484192,-52.24085998535156,2.1237552165985107,73.66999053955078,28.79,1
-0.3040159344673157,-1.158848762512207,0.2767108678817749,-24.27138328552246,2.124230146408081,73.66999053955078,28.79,1
-0.2958598732948303,-1.1243311166763306,0.2895326018333435,-0.1386589705944061,2.124535083770752,73.66999053955078,28.79,1
-0.2514413595199585,-1.0070174932479858,0.3033586144447326,17.630435943603516,2.1247305870056152,73.66999053955078,28.79,1
-0.206142783164978,-0.9205368161201476,0.3066335916519165,32.42631530761719,2.1248562335968018,73.66999053955078,28.79,1
-0.1826705485582351,-0.9322117567062378,0.2807464003562927,48.84299850463867,2.124936819076538,73.66999053955078,28.79,1
-0.1676074117422104,-1.0068774223327637,0.2361446171998977,67.08439636230469,2.123152494430542,73.84195709228516,28.79,1
-0.1635385304689407,-1.0659890174865725,0.1907284408807754,82.60970306396484,2.122007369995117,73.95231628417969,28.79,1
-0.1609273552894592,-1.0871301889419556,0.1559851765632629,89.99349975585938,2.121272563934326,74.02313995361328,28.79,1
-0.1648494303226471,-1.0727084875106812,0.1560800522565841,87.51668548583984,2.120800971984864,74.06858825683594,28.79,1
-0.1673664003610611,-1.007475733757019,0.1897275894880294,79.00567626953125,2.1204981803894043,74.0977554321289,28.79,1
-0.1577860862016677,-0.9208309054374696,0.1945273131132125,70.52368927001953,2.1203038692474365,74.11647033691406,28.79,1
-0.151638001203537,-0.8708249926567078,0.1864119470119476,65.31330108642578,2.1201791763305664,74.12848663330078,28.79,1
-0.1308991909027099,-0.8443318605422974,0.1812039762735366,62.90104675292969,2.1200993061065674,74.13619232177734,28.79,1
-0.1119924411177635,-0.8273300528526306,0.1722640246152877,62.05876541137695,2.1191296577453613,74.1411361694336,28.79,1
-0.0942614004015922,-0.8164193034172058,0.1665268838405609,62.70048904418945,2.1185073852539062,74.1443099975586,28.79,1
-0.0996759608387947,-0.8206129670143127,0.168442890048027,64.78536987304688,2.1181082725524902,74.14634704589844,28.79,1
-0.1087484881281852,-0.8233042359352112,0.1696724742650985,66.94731903076172,2.117851972579956,74.14765930175781,28.79,1
-0.1201684921979904,-0.8586179614067078,0.1592659950256347,68.05171203613281,2.117687463760376,74.14849853515625,28.79,1
-0.1330949664115905,-0.8924758434295654,0.1469899415969848,69.81014251708984,2.117582082748413,74.14904022216797,28.79,1
-0.1469882130622863,-0.9701815843582152,0.1223185583949089,75.7929916381836,2.117514371871948,74.14938354492188,28.79,1
-0.1670996397733688,-1.1320041418075562,0.0840947851538658,87.87953186035156,2.117470979690552,74.14960479736328,28.79,1
-0.1967993229627609,-1.235852599143982,0.0539671927690506,103.84007263183594,2.1188201904296875,74.14974975585938,28.79,1
-0.2494455128908157,-1.268909931182861,0.0514263622462749,116.3145751953125,2.1196861267089844,74.14984130859375,28.79,1
-0.2944263517856598,-1.2341464757919312,0.0553935766220092,116.26636505126952,2.120241641998291,74.14990234375,28.79,1
-0.3288902342319488,-1.0439040660858154,0.0635372772812843,101.77973175048828,2.120598316192627,74.14994049072266,28.79,1
-0.3342138528823852,-0.9665995836257936,0.0687634423375129,81.08686828613281,2.1208271980285645,74.14996337890625,28.79,1
-0.3264347016811371,-1.000956654548645,0.0609217435121536,63.37215423583984,2.120974063873291,74.14997863769531,28.79,1
-0.3046491742134094,-0.9950161576271056,0.0446938425302505,50.02986907958984,2.121068239212036,74.14998626708984,28.79,1
-0.2794729173183441,-1.0079971551895142,0.0342797115445137,37.11114883422852,2.121128797531128,74.14999389648438,28.79,1
-0.252120703458786,-0.9995343685150146,0.0499876178801059,22.253795623779297,2.124840021133423,74.14999389648438,28.79,1
-0.2457631677389145,-0.9493212103843688,0.1048502475023269,7.782413005828857,2.1272218227386475,74.14999389648438,28.79,1
-0.2416832745075225,-0.9059017300605774,0.1568512469530105,-1.3002806901931765,2.128750324249268,74.14999389648438,28.79,1
-0.2278694808483123,-0.883635401725769,0.2070158123970031,-2.8406877517700195,2.1297311782836914,74.14999389648438,28.79,1
-0.207809031009674,-0.8693461418151855,0.2392085492610931,-0.1105186641216278,2.1303606033325195,74.14999389648438,28.79,1
-0.1893376111984253,-0.860176146030426,0.2654657661914825,2.5622684955596924,2.1307644844055176,74.14999389648438,28.79,1
-0.1550926268100738,-0.8598891496658325,0.3494894206523895,4.349161148071289,2.131023645401001,74.14999389648438,28.79,1
-0.1723005920648574,-0.8653027415275574,0.3922154307365417,6.108506202697754,2.131190061569214,74.14999389648438,28.79,1
-0.2449191808700561,-0.8687768578529358,0.3860478699207306,5.199067115783691,2.124411106109619,74.33271026611328,28.79,1
-0.269130527973175,-0.8877996802330017,0.3820898830890655,-6.641011714935303,2.120060682296753,74.44996643066406,28.79,1
-0.2510813176631927,-0.955985188484192,0.379549890756607,-37.31466293334961,2.1172688007354736,74.52521514892578,28.79,1
-0.2227050513029098,-1.0557204484939575,0.377919852733612,-82.61107635498047,2.1154773235321045,74.57350158691406,28.79,1
-0.2044948041439056,-1.1645070314407349,0.3768737912178039,-124.43009185791016,2.1143274307250977,74.6044921875,28.79,1
-0.2040040642023086,-1.189537763595581,0.3650069534778595,-147.9281768798828,2.1135895252227783,74.62438201904297,28.79,1
-0.2092869132757187,-1.188807725906372,0.3461959362030029,-157.1647186279297,2.1131160259246826,74.63714599609375,28.79,1
-0.2126771360635757,-1.1043726205825806,0.3117330074310303,-166.10154724121094,2.1128122806549072,74.64533233642578,28.79,1
-0.2092550098896026,-0.999807059764862,0.2616278231143951,-177.7837677001953,2.111699104309082,74.65058898925781,28.79,1
-0.1958633363246917,-0.9606917500495912,0.2126798778772354,-181.013900756836,2.1109848022460938,74.65396118164062,28.79,1
-0.1816715598106384,-0.9747742414474488,0.1588768064975738,-165.5930938720703,2.110526323318481,74.6561279296875,28.79,1
-0.1781618744134903,-0.989409327507019,0.1131535395979881,-132.4674835205078,2.11023211479187,74.65751647949219,28.79,1
-0.1871051043272018,-0.9932035207748412,0.061419878154993,-89.58495330810547,2.1100432872772217,74.65840911865234,28.79,1
-0.2040399014949798,-0.939660668373108,0.0226224213838577,-46.477630615234375,2.109922170639038,74.65898132324219,28.79,1
-0.2205054610967636,-0.882908821105957,-0.0022755553945899,-13.006476402282717,2.109844446182251,74.65934753417969,28.79,1
-0.2478654235601425,-0.8408910036087036,-0.0126558691263198,5.313553810119629,2.10979437828064,74.65958404541016,28.79,1
-0.2710212469100952,-0.8195241689682007,-0.0193173568695783,12.319798469543455,2.109303474426269,74.65973663330078,28.79,1
-0.263490229845047,-0.8282032608985901,-0.0179945416748523,15.791386604309082,2.1089882850646973,74.65983581542969,28.79,1
-0.2418639361858368,-0.8617618680000305,-0.0115478606894612,18.20554542541504,2.108786106109619,74.65989685058594,28.79,1
-0.2223876416683197,-0.8888956308364868,-0.001812978181988,17.91337013244629,2.108656406402588,74.6599349975586,28.79,1
-0.2042911052703857,-0.9286996126174928,0.0268254075199365,16.29283905029297,2.108573198318481,74.65995788574219,28.79,1
-0.1870800107717514,-0.9710368514060974,0.0508016496896743,17.284194946289062,2.1085197925567627,74.65997314453125,28.79,1
-0.1704371571540832,-1.0261952877044678,0.071785993874073,22.323375701904297,2.108485460281372,74.65998077392578,28.79,1
-0.1485611796379089,-1.0783861875534058,0.0852525383234024,31.074398040771484,2.1084635257720947,74.65998840332031,28.79,1
-0.145717978477478,-1.0782926082611084,0.0938945934176445,44.131309509277344,2.107072114944458,74.65999603271484,28.79,1
-0.1606867015361786,-1.1118192672729492,0.1106361150741577,61.53141021728516,2.1061792373657227,74.65999603271484,28.79,1
-0.1870860904455185,-1.088552474975586,0.1549665033817291,81.88351440429688,2.1056063175201416,74.65999603271484,28.79,1
-0.1872343719005584,-0.9504701495170592,0.2114040702581405,102.21337127685548,2.105238676071167,74.65999603271484,28.79,1
-0.1481451094150543,-0.8786501884460449,0.2252313494682312,115.87610626220705,2.1050026416778564,74.65999603271484,28.79,1
-0.1342554241418838,-0.8773424625396729,0.2285071313381195,116.81971740722656,2.104851245880127,74.65999603271484,28.79,1
-0.1477329283952713,-0.9156876802444458,0.2362071126699447,109.00980377197266,2.104753971099853,74.65999603271484,28.79,1
-0.1507842391729354,-0.996273159980774,0.2355507463216781,103.4712142944336,2.104691505432129,74.65999603271484,28.79,1
-0.1583401709794998,-1.019999384880066,0.2239339798688888,104.48464965820312,2.10465145111084,74.82479858398438,28.79,1
-0.1631891280412674,-0.97365003824234,0.2220767736434936,106.27069091796876,2.104625940322876,74.93055725097656,28.79,1
-0.177496463060379,-0.9215145707130432,0.2152871638536453,101.48412322998048,2.104609489440918,74.99842834472656,28.79,1
-0.2034714072942733,-0.882459282875061,0.1997344344854354,86.4000015258789,2.104598999023437,75.04198455810547,28.79,1
-0.2201406210660934,-0.8685913681983948,0.1841558068990707,60.193458557128906,2.104592084884644,75.06993865966797,28.79,1
-0.2252402007579803,-0.870887279510498,0.1797561198472976,24.588584899902344,2.10458779335022,75.08787536621094,28.79,1
-0.2397083640098571,-0.9003495573997498,0.1881282031536102,-15.198993682861328,2.1045849323272705,75.0993881225586,28.79,1
-0.2601887583732605,-0.930452287197113,0.2046964615583419,-51.46576690673828,2.1045830249786377,75.10677337646484,28.79,1
-0.2845274209976196,-0.9553682804107666,0.2321223467588424,-78.37600708007812,2.103204727172852,75.11151123046875,28.79,1
-0.3001465797424316,-0.9769557118415833,0.2609182596206665,-95.83174896240234,2.1023201942443848,75.11455535888672,28.79,1
-0.2989745140075683,-1.002004861831665,0.2905933558940887,-108.65674591064452,2.101752519607544,75.11650848388672,28.79,1
-0.2814290225505829,-1.0292755365371704,0.2984415888786316,-122.7123565673828,2.1013882160186768,75.11775970458984,28.79,1
-0.2701693475246429,-1.052374005317688,0.2922825813293457,-141.652587890625,2.101154565811157,75.11856079101562,28.79,1
-0.2685413062572479,-1.10638165473938,0.2715367376804352,-164.75927734375,2.1010046005249023,75.11907958984375,28.79,1
-0.2730942964553833,-1.129845142364502,0.2582232654094696,-185.62803649902344,2.1009082794189453,75.1194076538086,28.79,1
-0.2704183757305145,-1.156098246574402,0.2328861206769943,-195.08316040039065,2.100846529006958,75.11962127685547,28.79,1
-0.2631033360958099,-1.150554895401001,0.199832871556282,-188.9379119873047,2.100806951522827,75.11975860595703,28.79,1
-0.2472134232521057,-1.1190085411071775,0.161827877163887,-171.3697052001953,2.100781440734864,75.11984252929688,28.79,1
-0.2258206307888031,-1.0371884107589722,0.1206451430916786,-147.91827392578125,2.1007652282714844,75.11990356445312,28.79,1
-0.2120919823646545,-0.9958764910697936,0.083020880818367,-118.08319854736328,2.100754737854004,75.11994171142578,28.79,1
-0.2032817155122757,-1.0029515027999878,0.0420824736356735,-78.38352966308594,2.100748062133789,75.11996459960938,28.79,1
-0.2032255679368972,-1.013089656829834,-0.0009827627800405,-29.630577087402344,2.100743770599365,75.11997985839844,28.79,1
-0.2031895369291305,-1.0307912826538086,-0.0398151017725467,22.170089721679688,2.100740909576416,75.11998748779297,28.79,1
-0.191970869898796,-0.9973689913749696,-0.0759310126304626,69.7789077758789,2.100739002227783,75.1199951171875,28.79,1
-0.1847713738679886,-0.9535293579101562,-0.0879125744104385,107.99462890625,2.1002790927886963,75.1199951171875,28.79,1
-0.1857489198446273,-0.9142000675201416,-0.0676127821207046,134.79421997070312,2.099983930587769,75.1199951171875,28.79,1
-0.19757179915905,-0.8889607787132263,-0.0377922169864177,150.37332153320312,2.099794387817383,75.1199951171875,28.79,1
-0.2051590532064438,-0.8839592337608337,-0.0130573194473981,154.8145294189453,2.099672794342041,75.1199951171875,28.79,1
-0.1932347863912582,-0.8919450640678406,0.0028161134105175,147.40773010253906,2.099594831466675,75.1199951171875,28.79,1
-0.1743869334459304,-0.8914721608161926,0.0130027681589126,129.1266632080078,2.0995447635650635,75.1199951171875,28.79,1
-0.156693696975708,-0.902364194393158,0.0419310741126537,105.52943420410156,2.0995125770568848,75.1199951171875,28.79,1
-0.1397414207458496,-0.9149518609046936,0.0884844660758972,86.1084976196289,2.099492073059082,75.1199951171875,28.79,1
-0.1288624256849289,-0.923029899597168,0.1295552998781204,77.39620971679688,2.093510866165161,75.25971984863281,28.79,1
-0.1218809112906456,-0.9394094944000244,0.1783033013343811,75.68151092529297,2.089672565460205,75.3493881225586,28.79,1
-0.11180280148983,-0.9499209523200988,0.2151847332715988,71.3496322631836,2.087209463119507,75.40692901611328,28.79,1
-0.0997374728322029,-0.9510688185691832,0.2332553416490554,60.48381042480469,2.0856287479400635,75.44385528564453,28.79,1
-0.1031901910901069,-1.0077831745147705,0.222460925579071,46.112735748291016,2.0846142768859863,75.4675521850586,28.79,1
-0.1221992671489715,-1.0441792011260986,0.2099359035491943,31.355127334594727,2.08396315574646,75.48275756835938,28.79,1
-0.1567893028259277,-1.0675361156463623,0.2074958384037017,19.638267517089844,2.083545446395874,75.49251556396484,28.79,1
-0.1845849603414535,-1.048938512802124,0.2115277200937271,16.84806251525879,2.0832772254943848,75.498779296875,28.79,1
-0.2080203890800476,-0.9866237044334412,0.2141151577234268,25.403947830200195,2.0863187313079834,75.50279998779297,28.79,1
-0.2230599075555801,-0.9410358667373656,0.2101778537034988,40.65356063842773,2.088270664215088,75.50537872314453,28.79,1
-0.2271136194467544,-0.9509646892547609,0.2076511085033416,56.69864273071289,2.0895233154296875,75.50703430175781,28.79,1
-0.2185195088386535,-1.007716417312622,0.2116273641586303,70.69267272949219,2.090327262878418,75.50809478759766,28.79,1
-0.1962109804153442,-1.0609296560287476,0.2197768837213516,80.69068145751953,2.0908432006835938,75.50878143310547,28.79,1
-0.1818946599960327,-1.078285574913025,0.2473978698253631,83.80728149414062,2.0911741256713867,75.50921630859375,28.79,1
-0.1615117192268371,-1.044641375541687,0.2875145375728607,77.07301330566406,2.091386556625366,75.5094985961914,28.79,1
-0.1372355669736862,-1.0006593465805054,0.313259094953537,58.29923629760742,2.0915229320526123,75.50968170166016,28.79,1
-0.1104609817266464,-0.9500431418418884,0.3185849189758301,26.167388916015625,2.090233325958252,75.50979614257812,28.79,1
-0.0988763719797134,-0.917560577392578,0.3108071684837341,-19.133344650268555,2.089405536651612,75.50987243652344,28.79,1
-0.1026375815272331,-0.8855196237564087,0.2890225350856781,-74.19991302490234,2.088874340057373,75.50991821289062,28.79,1
-0.1218446344137191,-0.8649575710296631,0.2582491040229797,-132.1803436279297,2.088533639907837,75.50994873046875,28.79,1
-0.1397683918476104,-0.8517619967460632,0.232902705669403,-185.56417846679688,2.088315010070801,75.50997161865234,28.79,1
-0.168064147233963,-0.8600872159004211,0.216636836528778,-228.70046997070312,2.08817458152771,75.50997924804688,28.79,1
-0.1974182873964309,-0.8766253590583801,0.2061983495950698,-257.9090576171875,2.0880844593048096,75.5099868774414,28.79,1
-0.2274516373872757,-0.9040319323539734,0.1994995176792144,-271.4801940917969,2.088026523590088,75.50999450683594,28.79,1
-0.241127535700798,-0.9552065134048462,0.1840050518512725,-269.5383605957031,2.088907241821289,75.50999450683594,28.79,1
-0.2499039322137832,-1.0832096338272097,0.1684638261795044,-252.50379943847656,2.089472532272339,75.50999450683594,28.79,1
-0.2891227602958679,-1.1205724477767944,0.1752836853265762,-221.1154937744141,2.0898354053497314,75.50999450683594,28.79,1
-0.3030956089496612,-1.066180944442749,0.1852580457925796,-178.8928680419922,2.0900681018829346,75.50999450683594,28.79,1
-0.2784759402275085,-0.9417111873626708,0.2028545588254928,-131.97801208496094,2.0902175903320312,75.50999450683594,28.79,1
-0.2458831220865249,-0.8674314022064209,0.2253425419330597,-85.49480438232422,2.09031343460083,75.50999450683594,28.79,1
-0.236162468791008,-0.870142936706543,0.2229807078838348,-41.18378829956055,2.0903749465942383,75.50999450683594,28.79,1
-0.2355220913887024,-0.9558496475219728,0.1878783851861953,1.5505290031433103,2.090414524078369,75.50999450683594,28.79,1
-0.2295133620500564,-1.0556334257125854,0.142960637807846,43.14762496948242,2.0881447792053223,75.62821960449219,28.79,1
-0.2256572991609573,-1.0804845094680786,0.1253305524587631,82.03016662597656,2.086688280105591,75.70409393310547,28.79,1
-0.2231827080249786,-1.0740413665771484,0.1699943244457245,114.6888656616211,2.0857534408569336,75.7527847290039,28.79,1
-0.2215946614742279,-1.0531132221221924,0.2098525166511535,138.13722229003906,2.085153579711914,75.78402709960938,28.79,1
-0.192586675286293,-1.0004984140396118,0.2130401134490966,152.73004150390625,2.084768533706665,75.8040771484375,28.79,1
-0.168373242020607,-0.9499399065971376,0.203890174627304,161.8763427734375,2.084521532058716,75.81694793701172,28.79,1
-0.1360411196947097,-0.9230921268463136,0.2036160379648208,168.36927795410156,2.0843629837036133,75.82520294189453,28.79,1
-0.1208900064229965,-0.8722761273384094,0.1922445744276046,171.6225128173828,2.084261178970337,75.83050537109375,28.79,1
-0.1167646646499633,-0.8452631235122681,0.1849470138549804,168.576416015625,2.084195852279663,75.83390808105469,28.79,1
-0.1253128051757812,-0.8447210192680359,0.1802638620138168,156.3933563232422,2.084153890609741,75.83609008789062,28.79,1
-0.1252007335424423,-0.8499709367752075,0.1772584915161132,135.36244201660156,2.084127187728882,75.83748626708984,28.79,1
-0.1195310428738594,-0.8589377999305725,0.1753298193216323,110.09724426269533,2.0841100215911865,75.83838653564453,28.79,1
-0.1158925667405128,-0.8870832920074463,0.1628965586423874,86.58220672607422,2.0840988159179688,75.8389663696289,28.79,1
-0.1135575994849205,-0.8995476961135864,0.1493198275566101,67.48270416259766,2.084091663360596,75.8393325805664,28.79,1
-0.1120591536164283,-0.98591548204422,0.1070204153656959,51.93693923950195,2.0840871334075928,75.83956909179688,28.79,1
-0.1334886401891708,-1.0861235857009888,0.0630817711353302,39.42051696777344,2.084084272384644,75.8397216796875,28.79,1
-0.1976208090782165,-1.1000514030456543,0.034884475171566,30.707508087158203,2.0840823650360107,75.8398208618164,28.79,1
-0.23877714574337,-1.0418161153793335,0.0279846228659153,24.50696182250977,2.0840811729431152,75.83988189697266,28.79,1
-0.25959113240242,-0.9988462924957277,0.0347522422671318,16.712366104125977,2.084080457687378,75.83992004394531,28.79,1
-0.2785461246967315,-0.9992595911026,0.050290860235691,4.595248222351074,2.08407998085022,75.83995056152344,28.79,1
-0.3075036704540252,-0.9939270615577698,0.0714581981301307,-11.180712699890137,2.0840797424316406,75.8399658203125,28.79,1
-0.309293657541275,-0.9737116694450378,0.0906399562954902,-29.74178123474121,2.084079504013061,75.83997344970703,28.79,1
-0.2768557071685791,-0.9327496886253356,0.1085474789142608,-51.37273406982422,2.0840792655944824,75.83998107910156,28.79,1
-0.2448433488607406,-0.9120604395866394,0.1256372630596161,-74.66566467285156,2.0840792655944824,75.8399887084961,28.79,1
-0.2410929799079895,-0.9323698878288268,0.1422022879123687,-95.3171844482422,2.081324815750122,75.8399887084961,28.79,1
-0.2498817592859268,-0.9789899587631226,0.1472349911928177,-108.21904754638672,2.079557180404663,75.8399887084961,28.79,1
-0.2555218935012817,-0.969723641872406,0.1560624539852142,-109.57360076904295,2.078422784805298,75.8399887084961,28.79,1
-0.2479458600282669,-0.9413859844207764,0.1505318731069564,-98.31585693359376,2.077694892883301,75.8399887084961,28.79,1
-0.2374862283468246,-0.9232004880905152,0.146982654929161,-76.31316375732422,2.077227830886841,75.8399887084961,28.79,1
