acc_x,acc_y,acc_z,bvp,eda,hr,temp,label
0.0,0.0,0.0,0.0,0.0,0.0,34.63,1
-0.0286458320915699,-0.1588541567325592,0.0442708320915699,-1.316666603088379,0.4530923068523407,10.999999046325684,34.63,1
-0.0628810971975326,-0.3677591681480407,0.1036585420370101,-2.889755964279175,1.0608991384506226,25.7560977935791,34.63,1
-0.0876764953136444,-0.5444871187210083,0.1503322273492813,-3.5149500370025635,1.58958637714386,38.59136199951172,34.63,1
-0.1271188706159591,-0.6894343495368958,0.1843831986188888,-2.94271206855774,1.9752923250198364,47.955379486083984,34.63,1
-0.1373538672924041,-0.7875697016716003,0.1909679770469665,-1.466122269630432,2.23643159866333,54.29521560668945,34.63,1
-0.1829410195350647,-0.835301399230957,0.2119477689266204,0.9563061594963074,2.407776355743408,58.45505905151367,34.63,1
-0.1845689266920089,-0.8662148714065552,0.219956025481224,4.806918144226074,2.518748044967652,61.14918518066406,34.63,1
-0.1856175810098648,-0.8917186260223389,0.2307048887014389,10.27834129333496,2.5755631923675537,62.88466644287109,34.63,1
-0.2086701691150665,-0.9137056469917296,0.2432082891464233,16.58074188232422,2.6120805740356445,64.00013732910156,34.63,1
-0.2290699630975723,-0.9278246760368348,0.2456409037113189,21.08273696899414,2.635530471801758,64.71643829345703,34.63,1
-0.2365676015615463,-0.9312906265258788,0.2527996897697449,20.28291893005371,2.650583267211914,65.17623901367188,34.63,1
-0.2413796782493591,-0.939112663269043,0.2629918456077575,15.051517486572266,2.6602442264556885,65.47134399414062,34.63,1
-0.2444679290056228,-0.9385349154472352,0.2639351785182953,10.168002128601074,2.6664443016052246,65.66073608398438,34.63,1
-0.2408520877361297,-0.9325664043426514,0.2701382935047149,8.305790901184082,2.6704232692718506,65.78227996826172,34.63,1
-0.2385316342115402,-0.92873615026474,0.2685213685035705,8.816022872924805,2.6729767322540283,65.86028289794922,34.63,1
-0.2426402568817138,-0.9374736547470092,0.2674837112426758,11.61185359954834,2.6966497898101807,65.91033935546875,34.63,1
-0.2508746981620788,-0.9374830722808838,0.2500244975090027,16.637540817260742,2.711841821670532,65.94245910644531,34.63,1
-0.256159096956253,-0.9374891519546508,0.2388201802968979,22.485183715820312,2.7215912342071533,65.96307373046875,34.63,1
-0.2651481032371521,-0.943090796470642,0.2260321080684662,27.58133125305176,2.7278478145599365,65.97630310058594,34.63,1
-0.2709167301654815,-0.9466856122016908,0.2234232425689697,31.76888465881348,2.731862783432007,65.98479461669922,34.63,1
-0.2746187150478363,-0.960188090801239,0.2329445630311966,35.61697006225586,2.7344393730163574,65.99024200439453,34.63,1
-0.2881899774074554,-0.9800487756729126,0.2278592586517334,39.24003982543945,2.736093044281006,65.99373626708984,34.63,1
-0.2801058888435364,-0.9760009050369264,0.2301935702562332,41.89829635620117,2.737154245376587,65.99597930908203,34.63,1
-0.2693202197551727,-0.9566099047660828,0.2428871542215347,42.51511001586914,2.741966724395752,65.99742126464844,34.63,1
-0.2568008303642273,-0.9553614258766174,0.2510331571102142,40.77931213378906,2.7450549602508545,65.99834442138672,34.63,1
-0.2599621415138244,-0.9545602202415466,0.250663012266159,37.46567535400391,2.747036933898926,65.99893951416016,34.63,1
-0.2675886750221252,-0.954046070575714,0.2392299324274063,33.36159133911133,2.748308658599853,65.99932098388672,34.63,1
-0.2724829614162445,-0.9481183290481568,0.2318928390741348,27.50709342956543,2.7491250038146973,65.99956512451172,34.63,1
-0.2700260579586029,-0.9443142414093018,0.227184310555458,19.33627891540528,2.7496488094329834,65.99971771240234,34.63,1
-0.2684493362903595,-0.9362751841545104,0.2241626530885696,10.055158615112305,2.7499849796295166,65.99981689453125,34.63,1
-0.2674374878406524,-0.931116223335266,0.2278213053941726,1.4587113857269287,2.7502007484436035,65.99988555908203,34.63,1
-0.2723859250545501,-0.9445987939834596,0.2413647621870041,-6.9598798751831055,2.754929542541504,63.850379943847656,34.63,1
-0.2699637711048126,-0.9644467234611512,0.2612517178058624,-16.525400161743164,2.7579641342163086,62.470951080322266,34.63,1
-0.2740071415901184,-1.0219660997390747,0.2796117961406708,-25.97071647644043,2.75991153717041,61.58571243286133,34.63,1
-0.2486130744218826,-1.0196943283081057,0.26900315284729,-33.766143798828125,2.7611613273620605,61.01762008666992,34.63,1
-0.226718857884407,-0.99024760723114,0.2565973699092865,-40.524261474609375,2.761963367462158,60.65304946899414,34.63,1
-0.2126684039831161,-0.9489592909812928,0.2542338073253631,-50.120452880859375,2.7624781131744385,60.419090270996094,34.63,1
-0.2148471772670745,-0.9112672805786132,0.2527170181274414,-63.86663436889648,2.762808322906494,60.26894760131836,34.63,1
-0.2498320341110229,-0.875883162021637,0.234950304031372,-80.78118133544922,2.7630202770233154,60.1725959777832,34.63,1
-0.3002721667289734,-0.8475778698921204,0.2123530954122543,-99.46747589111328,2.766828775405884,60.11076354980469,34.65,1
-0.3382395207881927,-0.8350109457969666,0.1978515088558197,-119.92130279541016,2.769272804260254,60.071083068847656,34.65,1
-0.3905936479568481,-0.8605328798294067,0.194142997264862,-140.8072509765625,2.770841360092163,60.04561614990234,34.65,1
-0.4353870749473572,-0.882509171962738,0.1861653178930282,-156.26705932617188,2.77184796333313,60.029273986816406,34.65,1
-0.4697307050228119,-0.9078078269958496,0.1754479259252548,-162.13278198242188,2.772493839263916,60.0187873840332,34.65,1
-0.4805749058723449,-0.9184452891349792,0.1685701310634613,-144.05410766601562,2.7729084491729736,60.01205825805664,34.65,1
-0.459545224905014,-0.9084784388542176,0.1641563475131988,-96.57276153564452,2.773174524307251,60.00774002075195,34.65,1
-0.4180607199668884,-0.8852890133857727,0.1669216156005859,-41.61505889892578,2.773345232009888,60.00496673583984,34.65,1
-0.3858405649662018,-0.8816028833389282,0.1686962097883224,1.7574127912521362,2.777127265930176,60.00318908691406,34.65,1
-0.3595657646656036,-0.8960306644439697,0.1586394906044006,29.100557327270508,2.7795543670654297,60.002044677734375,34.65,1
-0.3427040874958038,-0.9164851307868958,0.1521856635808944,43.42707824707031,2.7811119556427,60.001312255859375,34.65,1
-0.3206876814365387,-0.946404993534088,0.1480439752340316,49.66539001464844,2.782111406326294,60.0008430480957,34.65,1
-0.3009610474109649,-0.976801335811615,0.156581625342369,53.24961471557617,2.782752990722656,60.00054168701172,34.65,1
-0.2827038764953613,-1.0075035095214844,0.1732561439275741,56.327186584472656,2.783164501190185,60.00034713745117,34.65,1
-0.2709874510765075,-1.0439997911453247,0.183956891298294,58.1338119506836,2.78342866897583,60.000221252441406,34.65,1
-0.2634685337543487,-1.0898120403289795,0.1796284615993499,55.1015853881836,2.783598184585572,60.00014114379883,34.65,1
-0.2474477738142013,-1.0800273418426514,0.1712529510259628,47.54536437988281,2.7846248149871826,60.000091552734375,34.65,1
-0.2147754877805709,-1.1129324436187744,0.1602802574634552,39.80149841308594,2.78528380393982,60.00005722045898,34.65,1
-0.1994060575962066,-1.128451228141785,0.1588363945484161,35.54486083984375,2.7857065200805664,60.000038146972656,34.65,1
-0.2231294959783554,-1.0824326276779177,0.1467142552137375,33.50821685791016,2.785977840423584,60.0000228881836,34.65,1
-0.2271582782268524,-1.0081182718276978,0.1165438592433929,29.49637031555176,2.786151885986328,60.00001525878906,34.65,1
-0.2129503935575485,-0.9492321014404296,0.0803889110684394,22.29311180114746,2.7862637042999268,60.0000114440918,34.65,1
-0.1982348263263702,-0.950626790523529,0.0739800706505775,14.145219802856444,2.7863354682922363,60.00000762939453,34.65,1
-0.1887912154197693,-0.9403262734413148,0.0754650235176086,7.3221259117126465,2.786381483078003,60.00000381469727,34.65,1
-0.1827308535575866,-0.9169226288795472,0.0932113006711006,1.7110506296157837,2.787329196929932,61.43303298950195,34.65,1
-0.1732438802719116,-0.8907079696655273,0.1045998409390449,-2.498852252960205,2.78793740272522,62.35266876220703,34.65,1
-0.1447646021842956,-0.873884916305542,0.1454949975013733,-4.365785121917725,2.788327693939209,62.94283676147461,34.65,1
-0.0761082619428634,-0.8854799270629883,0.2557057738304138,-4.105767250061035,2.7885782718658447,63.32157516479492,34.65,1
-0.0432441271841526,-0.8985187411308289,0.3264327049255371,-3.143570899963379,2.788738965988159,63.56462478637695,34.65,1
-0.0837293341755867,-0.9012885093688964,0.2766590118408203,-2.515340805053711,2.78884220123291,63.72060012817383,34.65,1
-0.1265037357807159,-0.9030659794807434,0.2279237955808639,-2.312803268432617,2.7889084815979004,63.82069778442383,34.65,1
-0.15395388007164,-0.9098044633865356,0.185452789068222,-2.3727028369903564,2.7889509201049805,63.88493347167969,34.65,1
-0.1323853880167007,-0.891737699508667,0.1749906688928604,-2.414725542068481,2.791273593902588,63.92615509033203,34.63,1
-0.1129461973905563,-0.8801435232162476,0.1738744527101516,-1.9329674243927,2.792764186859131,63.95261001586914,34.63,1
-0.1172645613551139,-0.889496386051178,0.1731581389904022,-0.7066634297370911,2.7937207221984863,63.96958923339844,34.63,1
-0.1368291676044464,-0.9178895950317384,0.1671006679534912,0.9007176160812378,2.7943344116210938,63.98048400878906,34.63,1
-0.1997645646333694,-0.9529040455818176,0.1688111126422882,2.3549861907958984,2.794728279113769,63.98747634887695,34.63,1
-0.2625439763069153,-1.048145413398743,0.1867021024227142,3.32766056060791,2.794981002807617,63.99196243286133,34.63,1
-0.325223296880722,-1.154047966003418,0.2149768322706222,3.443141222000122,2.7951433658599854,63.99484252929688,34.63,1
-0.3934361338615417,-1.2499990463256836,0.2499152421951294,2.163036346435547,2.7952475547790527,63.99668884277344,34.63,1
-0.4260156750679016,-1.2555971145629885,0.2611411511898041,-0.8080067038536072,2.795773267745972,63.99787521362305,34.63,1
-0.3461633920669555,-1.1976141929626465,0.2403564304113388,-5.122142314910889,2.7961106300354004,63.99863815307617,34.63,1
-0.2445388436317443,-1.182795166969299,0.2606046497821808,-9.520777702331545,2.7963271141052246,63.99912643432617,34.63,1
-0.17372427880764,-1.201274037361145,0.2847943305969238,-12.225343704223633,2.796466112136841,63.99943923950195,34.63,1
-0.1506706625223159,-1.1963393688201904,0.2891223132610321,-12.373897552490234,2.796555280685425,63.99964141845703,34.63,1
-0.1582672744989395,-1.142792582511902,0.2639108896255493,-10.6349515914917,2.796612501144409,63.99977111816406,34.63,1
-0.1911312192678451,-1.035658359527588,0.2085472345352172,-7.989236831665039,2.796649217605591,63.99985122680664,34.63,1
-0.2178191840648651,-0.9221235513687134,0.1618224829435348,-4.9120774269104,2.796672821044922,63.99990463256836,34.63,1
-0.2405437529087066,-0.8492634296417236,0.1318372339010238,-1.927047848701477,2.795769691467285,63.99993896484375,34.63,1
-0.2327359765768051,-0.8248971104621887,0.1069966480135917,0.3611603081226349,2.7951900959014893,63.999961853027344,34.63,1
-0.2165298461914062,-0.8148579597473145,0.0966531634330749,2.06963324546814,2.794818162918091,63.999977111816406,34.63,1
-0.2061296850442886,-0.8028176426887512,0.1124064028263092,3.807313680648804,2.79457950592041,63.99998474121094,34.63,1
-0.1994554549455642,-0.7782975435256958,0.1169181540608406,5.8646745681762695,2.794426441192627,63.9999885559082,34.63,1
-0.2231611907482147,-0.7513664364814758,0.1030202135443687,8.370802879333496,2.794328212738037,63.99999237060547,34.63,1
-0.2999496757984161,-0.7452791333198547,0.0941013172268867,11.612746238708496,2.794265031814575,63.999996185302734,34.63,1
-0.3716192245483398,-0.7637637257575989,0.0939754545688629,15.477361679077148,2.794224500656128,63.999996185302734,34.63,1
-0.4120148420333862,-0.7980172038078308,0.099492460489273,19.0859603881836,2.798330068588257,63.14017868041992,34.63,1
-0.4379384219646454,-0.8647813200950623,0.0694463104009628,21.426830291748047,2.800964593887329,62.58839797973633,34.63,1
-0.5105524063110352,-0.9188222289085388,0.0333710946142673,21.879369735717773,2.8026554584503174,62.23429489135742,34.63,1
-0.5011741518974304,-1.0038825273513794,0.0270134229212999,20.142045974731445,2.8037405014038086,62.00705337524414,34.63,1
-0.4951557219028473,-1.0976537466049194,0.0621178559958934,16.598146438598633,2.8044369220733643,61.86122131347656,34.63,1
-0.4745001196861267,-1.0906574726104736,0.0902436301112175,12.697385787963867,2.8048837184906006,61.76763534545898,34.63,1
-0.4388534426689148,-1.1029609441757202,0.1698686480522155,9.875252723693848,2.80517053604126,61.70757675170898,34.63,1
-0.3599997162818908,-1.1276499032974243,0.2937384843826294,8.314950942993164,2.805354595184326,61.669036865234375,34.63,1
-0.4101558625698089,-1.1602872610092163,0.3116554915904999,7.639652729034424,2.8063907623291016,61.64430236816406,34.65,1
-0.4927231669425964,-1.0692764520645142,0.2615780830383301,8.012365341186523,2.807055711746216,61.6284294128418,34.65,1
-0.5233190059661865,-0.971686601638794,0.2014524042606353,9.21526336669922,2.807482481002808,61.61824417114258,34.65,1
-0.537355899810791,-0.8698745965957642,0.1628672033548355,9.403254508972168,2.807756423950196,61.6117057800293,34.65,1
-0.5351684093475342,-0.7877442240715027,0.1548987627029419,6.754565238952637,2.807932138442993,61.607513427734375,34.65,1
-0.5001779794692993,-0.7126465439796448,0.1609806269407272,2.1958935260772705,2.808044910430908,61.60482025146485,34.65,1
-0.4833208918571472,-0.6700509786605835,0.1536880731582641,-1.4246190786361694,2.808117389678955,61.60309219360352,34.65,1
-0.5060896277427673,-0.6539111137390137,0.1210192590951919,-2.7556822299957275,2.80816388130188,61.60198211669922,34.65,1
-0.5430923700332642,-0.6435534954071045,0.0888587459921836,-2.7321510314941406,2.8003897666931152,61.60127258300781,34.65,1
-0.5892297029495239,-0.6313087940216064,0.0626222044229507,-2.4734349250793457,2.795400857925415,61.60081481933594,34.65,1
-0.6244357824325562,-0.6122552752494812,0.0569806508719921,-2.3754749298095703,2.79219913482666,61.60052108764648,34.65,1
-0.6470290422439575,-0.6056256294250488,0.0701535493135452,-2.8428308963775635,2.790144443511963,61.60033416748047,34.65,1
-0.650332510471344,-0.6461532711982727,0.134584903717041,-3.698052167892456,2.7888259887695312,61.60021209716797,34.65,1
-0.6636480689048767,-0.7337371110916138,0.2039221078157425,-3.2258501052856445,2.7879798412323,61.600135803222656,34.65,1
-0.6889865398406982,-0.7899433970451355,0.2316254079341888,0.1187886670231819,2.7874367237091064,61.6000862121582,34.65,1
-0.7388339638710022,-0.7980244755744934,0.2158171534538269,5.335453033447266,2.78708815574646,61.60005569458008,34.65,1
-0.7540298104286194,-0.8535904288291931,0.2504545152187347,10.162811279296877,2.7882416248321533,61.60003662109375,34.65,1
-0.7749772071838379,-0.9228360652923584,0.2670850157737732,13.95216941833496,2.788981914520264,61.60002136230469,34.65,1
-0.7940177917480469,-0.944882869720459,0.2273775339126587,17.319013595581055,2.789457082748413,61.60001373291016,34.65,1
-0.783845841884613,-0.9254446029663086,0.1795044541358947,20.08869743347168,2.789762020111084,61.60000991821289,34.65,1
-0.7605247497558594,-0.8849813342094421,0.1375867277383804,21.14244079589844,2.789957523345948,61.600006103515625,34.65,1
-0.762351930141449,-0.8646121025085449,0.0994907915592193,19.38252067565918,2.790083169937134,61.60000228881836,34.65,1
-0.7467312216758728,-0.8627358675003052,0.0750430151820182,14.580965995788574,2.79016375541687,61.60000228881836,34.65,1
-0.6863267421722412,-0.8727273344993591,0.1041360348463058,8.110487937927246,2.790215492248535,61.60000228881836,34.65,1
-0.664355993270874,-0.8847370743751526,0.1284040361642837,2.2241411209106445,2.79346227645874,62.99720764160156,34.65,1
-0.6390608549118042,-0.8644553422927856,0.1383800655603408,-1.9008870124816888,2.795545816421509,63.89385223388672,34.65,1
-0.6172301173210144,-0.8066575527191162,0.1279887855052948,-4.709308624267578,2.7968828678131104,64.46926879882812,34.65,1
-0.5920248627662659,-0.7583706974983215,0.1101247072219848,-7.160037994384766,2.797740936279297,64.83853912353516,34.65,1
-0.5758495926856995,-0.7161874175071716,0.0818672478199005,-9.782469749450684,2.798291683197021,65.07551574707031,34.65,1
-0.5654692053794861,-0.6835188269615173,0.063733235001564,-12.414777755737305,2.79864501953125,65.22759246826172,34.65,1
-0.5532099008560181,-0.6513584852218628,0.0576936453580856,-14.777565956115724,2.798871755599976,65.32518768310547,34.65,1
-0.5229514837265015,-0.6195242404937744,0.0594155564904212,-17.415212631225586,2.7990171909332275,65.3878173828125,34.65,1
-0.4979356229305267,-0.5878993272781372,0.0605205819010734,-20.856201171875,2.8050780296325684,65.42800903320312,34.63,1
-0.4874796569347381,-0.5620064735412598,0.1004141420125961,-23.619728088378903,2.8089675903320312,65.45380401611328,34.63,1
-0.5199540257453918,-0.57337886095047,0.1819932758808136,-22.91764068603516,2.811463594436645,65.47035217285156,34.63,1
-0.5911741852760315,-0.6534480452537537,0.3127149045467376,-17.60910987854004,2.813065528869629,65.48097229003906,34.63,1
-0.5976947546005249,-0.7272229194641113,0.3686156570911407,-9.11155891418457,2.814093589782715,65.48778533935547,34.63,1
-0.607477068901062,-0.8081540465354919,0.3932940065860748,0.3290862441062927,2.814753293991089,65.4921646118164,34.63,1
-0.6249503493309021,-0.8656887412071228,0.3755444884300232,8.931178092956543,2.815176725387573,65.4949722290039,34.63,1
-0.630565881729126,-0.9026111960411072,0.3697516322135925,15.386557579040527,2.81544828414917,65.49677276611328,34.63,1
-0.600583016872406,-0.8479371070861816,0.3660341203212738,18.920209884643555,2.818835735321045,65.49793243408203,34.63,1
-0.5701461434364319,-0.7624704241752625,0.3244640231132507,19.557832717895508,2.821009635925293,65.49867248535156,34.63,1
-0.5674068331718445,-0.7132205963134766,0.2865911722183227,17.924955368041992,2.822404861450196,65.4991455078125,34.63,1
-0.6664088368415833,-0.7431904077529907,0.2622865736484527,14.594966888427734,2.8233001232147217,65.49945068359375,34.63,1
-0.7579315304756165,-0.7624233365058899,0.2746781408786773,10.064811706542969,2.8238747119903564,65.49964904785156,34.63,1
-0.7830788493156433,-0.7635703682899475,0.3218147456645965,5.32692289352417,2.8242435455322266,65.49977111816406,34.63,1
-0.8439991474151611,-0.7475131154060364,0.2848910093307495,1.4624263048171997,2.824480056762696,65.4998550415039,34.63,1
-0.8495076894760132,-0.7316107153892517,0.2220110744237899,-1.5083980560302734,2.824631929397583,65.49990844726562,34.63,1
-0.8362494111061096,-0.7158077359199524,0.1256805956363678,-4.443101406097412,2.819220781326294,65.49993896484375,34.63,1
-0.8165454268455505,-0.7112640738487244,0.0526656992733478,-7.608987331390381,2.81574821472168,65.49996185302734,34.63,1
-0.7647161483764648,-0.6803593039512634,0.0170044917613267,-10.138648986816406,2.8135197162628174,65.4999771118164,34.63,1
-0.6866729259490967,-0.6325375437736511,0.0109125040471553,-11.052689552307127,2.812089681625366,65.49998474121094,34.63,1
-0.6197959184646606,-0.5962505340576172,0.0014052425976842,-10.406862258911133,2.8111720085144043,65.49999237060547,34.63,1
-0.5712803602218628,-0.5729635953903198,0.0064995782449841,-9.039443016052246,2.8105831146240234,65.49999237060547,34.63,1
-0.5345481038093567,-0.569214940071106,0.0153666045516729,-7.040565490722656,2.8102052211761475,65.49999237060547,34.63,1
-0.5053776502609253,-0.6339825391769409,0.037850271910429,-3.382553100585937,2.809962749481201,65.49999237060547,34.63,1
-0.5426355004310608,-0.7651110887527466,0.0690723210573196,2.389890670776367,2.803380250930786,66.54969024658203,34.63,1
-0.5721431970596313,-0.8884462118148804,0.1059021577239036,8.9818696975708,2.7991559505462646,67.22332763671875,34.63,1
-0.5742862224578857,-1.1131377220153809,0.1743196249008178,14.623756408691406,2.79644513130188,67.65562438964844,34.63,1
-0.4525104463100433,-1.150974154472351,0.2294215708971023,18.62056541442871,2.794705390930176,67.93305206298828,34.63,1
-0.3183840215206146,-1.0465065240859983,0.2479894906282425,21.17115592956543,2.793588876724243,68.111083984375,34.63,1
-0.2099183052778244,-0.9626719355583192,0.2319164425134658,22.44972038269043,2.792872428894043,68.225341796875,34.63,1
-0.1571045815944671,-0.9592517018318176,0.2160039097070694,22.60745429992676,2.792412519454956,68.29866027832031,34.63,1
-0.1791895180940628,-1.0018389225006104,0.2337810397148132,22.096057891845703,2.7921175956726074,68.34571075439453,34.63,1
-0.2549378871917724,-1.023571252822876,0.2451893836259842,21.02269744873047,2.785501718521118,68.37590789794922,34.61,1
-0.3371354639530182,-0.9983333349227904,0.2413150519132614,18.51034545898437,2.781255960464477,68.3952865600586,34.61,1
-0.3730918169021606,-0.9541482329368592,0.2444265037775039,13.788387298583984,2.778531312942505,68.40772247314453,34.61,1
-0.3905687630176544,-0.9034016728401184,0.2352277040481567,7.695003986358643,2.776782751083374,68.41570281982422,34.61,1
-0.3905889093875885,-0.8708354830741882,0.2069333493709564,1.7640485763549805,2.775660753250122,68.42082214355469,34.61,1
-0.3682107329368591,-0.8555341362953186,0.1831778883934021,-3.844132900238037,2.774940729141236,68.42411041259766,34.61,1
-0.314665287733078,-0.8625079393386841,0.1623352169990539,-10.119324684143066,2.7744786739349365,68.42622375488281,34.61,1
-0.263509601354599,-0.90616774559021,0.1769484579563141,-16.97661590576172,2.774182081222534,68.42757415771484,34.61,1
-0.2250830382108688,-0.9509794116020204,0.2031197249889373,-22.065086364746094,2.7643518447875977,68.4284439086914,34.61,1
-0.1948253065347671,-1.002128005027771,0.2367082685232162,-22.389278411865234,2.7580432891845703,68.42900085449219,34.61,1
-0.1754076331853866,-1.0461478233337402,0.2638612389564514,-17.399009704589844,2.753994941711426,68.42935943603516,34.61,1
-0.1741420477628708,-1.079995036125183,0.2924819886684418,-9.510533332824709,2.751396894454956,68.4295883178711,34.61,1
-0.2013187259435653,-1.0905206203460691,0.2996535897254944,-0.8333441019058228,2.749729633331299,68.42973327636719,34.61,1
-0.2299547046422958,-1.080482006072998,0.3042559027671814,8.890963554382324,2.748659610748291,68.4298324584961,34.61,1
-0.2707227170467376,-1.0180621147155762,0.3072094023227691,19.792394638061523,2.7479729652404785,68.42989349365234,34.61,1
-0.3080808520317077,-0.9332224130630492,0.3091048002243042,29.36776161193848,2.747532367706299,68.429931640625,34.61,1
-0.3376529216766357,-0.8451905250549316,0.2823322713375091,34.25519561767578,2.749085664749145,68.4299545288086,34.61,1
-0.3230439126491546,-0.8782610893249512,0.287542313337326,33.59772109985352,2.750082492828369,68.42996978759766,34.61,1
-0.2688865065574646,-0.9330705404281616,0.2964836061000824,29.63620948791504,2.750722169876098,68.42997741699219,34.61,1
-0.3125002384185791,-0.9738418459892272,0.2742327153682709,24.87632369995117,2.7511327266693115,68.42998504638672,34.61,1
-0.3516845703125,-0.983213186264038,0.2543556094169616,19.58975982666016,2.7513961791992188,68.42999267578125,34.61,1
-0.3656352758407593,-0.972433865070343,0.2360018491744995,12.937003135681152,2.7515652179718018,68.42999267578125,34.61,1
-0.3354036211967468,-0.9711140990257264,0.2186256945133209,5.049245834350586,2.751673698425293,68.42999267578125,34.61,1
-0.310404896736145,-0.970267117023468,0.2018769085407257,-3.434022665023804,2.75174331665039,68.42999267578125,34.61,1
-0.2999599277973175,-0.975321352481842,0.1743351817131042,-12.335282325744627,2.749492883682251,69.2145767211914,34.61,1
-0.2988547384738922,-0.9729670882225036,0.1622582525014877,-21.089204788208008,2.748048782348633,69.71807861328125,34.61,1
-0.3037432432174682,-0.9714562892913818,0.1713013052940368,-28.38361358642578,2.747122049331665,70.04119873046875,34.61,1
-0.2900871038436889,-0.981682300567627,0.1827023774385452,-33.423004150390625,2.746527194976806,70.2485580444336,34.61,1
-0.2701278328895569,-0.9882447719573976,0.1900189369916916,-36.62475204467773,2.746145486831665,70.38162994384766,34.61,1
-0.2517213225364685,-0.9924561977386476,0.1835187375545501,-38.76543045043945,2.745900630950928,70.46702575683594,34.61,1
-0.2287135422229766,-0.9895610213279724,0.179347276687622,-39.831092834472656,2.7457435131073,70.5218276977539,34.61,1
-0.2139484733343124,-0.982105314731598,0.1654747277498245,-38.77742385864258,2.74564266204834,70.55699920654297,34.61,1
-0.2044731080532074,-0.9661251306533812,0.1509743481874466,-34.078006744384766,2.7451186180114746,70.5795669555664,34.59,1
-0.2039901316165924,-0.9446744322776794,0.1360710710287094,-24.76402473449707,2.7447824478149414,70.59405517578125,34.59,1
-0.2092779725790023,-0.9700930118560792,0.1153114512562751,-11.893970489501951,2.7445666790008545,70.60334777832031,34.59,1
-0.2182691693305969,-1.0199918746948242,0.1075868979096412,1.1587753295898438,2.7444281578063965,70.60931396484375,34.59,1
-0.2688213884830475,-1.085600733757019,0.1250208169221878,11.039958000183104,2.744339227676392,70.61314392089844,34.59,1
-0.3180562257766723,-1.0101513862609863,0.113817811012268,16.711191177368164,2.7442822456359863,70.6156005859375,34.59,1
-0.3440545499324798,-0.9953190088272096,0.0842372700572013,18.93912696838379,2.7442455291748047,70.61717987060547,34.59,1
-0.3495432138442993,-1.1313426494598389,0.0820474997162818,18.706573486328125,2.7442219257354736,70.61819458007812,34.59,1
-0.3474677503108978,-1.2186347246170044,0.0862400084733963,16.640655517578125,2.74466609954834,70.61884307861328,34.59,1
-0.3069514036178589,-1.2354693412780762,0.0721371993422508,13.100835800170898,2.7449512481689453,70.61925506591797,34.59,1
-0.2529614865779876,-1.1511106491088867,0.0630868226289749,8.5040922164917,2.745134115219116,70.61952209472656,34.59,1
-0.2127160876989364,-1.0801807641983032,0.0628765895962715,3.644653558731079,2.7452516555786133,70.61969757080078,34.59,1
-0.1868889033794403,-1.0234664678573608,0.0851327702403068,-0.7241732478141785,2.7453269958496094,70.61980438232422,34.59,1
-0.1815100610256195,-0.9926683306694032,0.0994155034422874,-4.319583892822266,2.745375394821167,70.619873046875,34.59,1
-0.1836560070514679,-0.9840993881225586,0.102983571588993,-6.777379989624023,2.74540638923645,70.61991882324219,34.59,1
-0.1794353723526001,-0.9786003828048706,0.0884800255298614,-7.473338603973389,2.745426177978516,70.61994934082031,34.59,1
-0.1711290329694748,-0.9750714302062988,0.0623791627585887,-6.196745872497559,2.7458980083465576,70.6199722290039,34.59,1
-0.1378096342086792,-1.0175889730453491,0.0120424823835492,-3.417833089828491,2.7462007999420166,70.61997985839844,34.59,1
-0.0772427394986152,-1.0560697317123413,-0.0146629270166158,0.1532186418771743,2.7463951110839844,70.61998748779297,34.59,1
-0.0271788481622934,-1.0527756214141846,-0.0150075973942875,3.7668843269348153,2.7465198040008545,70.6199951171875,34.59,1
-0.0622240155935287,-1.0562595129013062,0.0295534096658229,6.69854736328125,2.746599674224853,70.6199951171875,34.59,1
-0.1183006316423416,-1.0305063724517822,0.0637478679418563,8.490355491638184,2.7466509342193604,70.6199951171875,34.59,1
-0.1766784787178039,-0.9580017328262328,0.0968874543905258,9.0097017288208,2.7466838359832764,70.6199951171875,34.59,1
-0.2085442394018173,-0.9058746099472046,0.1181545332074165,8.38644027709961,2.7467050552368164,70.6199951171875,34.59,1
-0.2289938479661941,-0.8948135375976562,0.1206069737672805,6.850790500640869,2.7453415393829346,71.27202606201172,34.59,1
-0.2589105665683746,-0.915704071521759,0.138974130153656,4.557658672332764,2.744466543197632,71.69046020507812,34.59,1
-0.2837071716785431,-0.923512637615204,0.1675544381141662,1.900226354598999,2.743904829025269,71.95899200439453,34.59,1
-0.2940224111080169,-0.9453170299530028,0.2194822877645492,-0.2135744392871856,2.743544578552246,72.13131713867188,34.59,1
-0.2894465923309326,-0.9817009568214417,0.2584043741226196,-1.0506165027618408,2.7433133125305176,72.24190521240234,34.59,1
-0.2417279034852981,-1.027441143989563,0.2665889859199524,-0.9679964184761048,2.7431647777557373,72.31287384033203,34.59,1
-0.1719203740358352,-1.0400012731552124,0.288634717464447,-0.9615490436553956,2.743069648742676,72.3584213256836,34.59,1
-0.1271219253540039,-1.0312682390213013,0.3139779567718506,-1.5019630193710327,2.7430083751678467,72.38764953613281,34.59,1
-0.1151661798357963,-1.0144684314727783,0.335839569568634,-2.321669578552246,2.7425103187561035,72.40640258789062,34.61,1
-0.1130914464592933,-0.9924916625022888,0.3442713022232055,-2.998178243637085,2.7421905994415283,72.41844177246094,34.61,1
-0.1005644500255584,-0.9671927094459534,0.3328889906406402,-3.1994550228118896,2.741985321044922,72.42616271972656,34.61,1
-0.1037208959460258,-0.9565550684928894,0.2975956201553345,-2.483135223388672,2.741853713989258,72.43112182617188,34.61,1
-0.1169420704245567,-0.9553261995315552,0.2693485915660858,-0.5259256958961487,2.741769313812256,72.4343032836914,34.61,1
-0.1422199755907058,-0.9489398002624512,0.2288301587104797,2.2240326404571533,2.7417151927948,72.43634796142578,34.61,1
-0.1696374416351318,-0.9448413848876952,0.2084255367517471,4.673069953918457,2.741680383682251,72.43766021728516,34.61,1
-0.2040257155895233,-0.9310157299041748,0.150548830628395,6.011853218078613,2.7416579723358154,72.4384994506836,34.61,1
-0.2148985713720321,-0.899752140045166,0.0742224752902984,6.161657333374023,2.738889455795288,72.43904113769531,34.61,1
-0.2218761444091797,-0.8740911483764648,0.0140450662001967,5.455296039581299,2.7371127605438232,72.43938446044922,34.61,1
-0.2263539582490921,-0.8744167685508728,-0.0021822340786457,4.385791301727295,2.73597264289856,72.43960571289062,34.61,1
-0.2348253279924392,-0.8914190530776978,0.0041973423212766,3.07607650756836,2.735240936279297,72.43975067138672,34.61,1
-0.2402617633342743,-1.0478723049163818,0.0418780334293842,0.924354076385498,2.734771251678467,72.4398422241211,34.61,1
-0.2829349935054779,-1.2378393411636353,0.1332326233386993,-2.0901520252227783,2.7344698905944824,72.43990325927734,34.61,1
-0.327113538980484,-1.2925759553909302,0.1918587386608123,-4.253973484039307,2.734276533126831,72.43994140625,34.61,1
-0.2659003734588623,-1.2605295181274414,0.2070905119180679,-4.12716007232666,2.734152317047119,72.4399642944336,34.61,1
-0.1762373298406601,-1.251159429550171,0.2056698352098465,-2.616330623626709,2.734072685241699,72.43997955322266,34.61,1
-0.0347301252186298,-1.250744104385376,0.2383447736501693,-1.3673263788223269,2.7340216636657715,72.43998718261719,34.61,1
-0.0278855692595243,-1.1944997310638428,0.276106983423233,-0.6804296970367432,2.7339887619018555,72.43999481201172,34.61,1
-0.0794708728790283,-1.096829891204834,0.2723517417907715,-0.3972522616386413,2.7339677810668945,72.43999481201172,34.61,1
-0.112575352191925,-0.9333910346031188,0.2083663195371627,-0.9177101254463196,2.7339541912078857,72.43999481201172,34.61,1
-0.1282221227884292,-0.8061143159866333,0.1449130624532699,-2.3229002952575684,2.733945608139038,72.43999481201172,34.61,1
-0.121469996869564,-0.7300332188606262,0.0873990878462791,-4.041497707366943,2.7339401245117188,72.43999481201172,34.61,1
-0.1395279765129089,-0.7427842617034912,0.0336966030299663,-5.516982078552246,2.733936548233032,72.43999481201172,34.61,1
-0.1511165350675583,-0.7789559960365295,-0.0007665587472729,-6.213082790374756,2.7316389083862305,72.96305084228516,34.61,1
-0.1193689927458763,-0.8189622759819031,0.005105840973556,-5.595775127410889,2.730164289474488,73.29872131347656,34.61,1
-0.1045930236577987,-0.8446359634399414,0.0144721837714314,-3.845409154891968,2.729218006134033,73.5141372680664,34.61,1
-0.1230995282530784,-0.8723074197769165,0.014885189011693,-2.019940137863159,2.728610754013061,73.65237426757812,34.61,1
-0.1517692655324936,-0.940445363521576,0.026345781981945,-1.500488042831421,2.7282211780548096,73.7410888671875,34.61,1
-0.1813633888959884,-0.9953678846359252,0.0337005294859409,-3.377582550048828,2.727971076965332,73.79801940917969,34.61,1
-0.2227462977170944,-1.0642006397247314,0.038420382887125,-7.330029487609863,2.7278106212615967,73.83455657958984,34.61,1
-0.2660968005657196,-1.1699490547180176,0.0302537642419338,-11.0308198928833,2.727707624435425,73.85800170898438,34.61,1
-0.3498944044113159,-1.2266167402267456,0.0641973167657852,-11.915422439575195,2.732231855392456,73.873046875,34.63,1
-0.3588886857032776,-1.1286362409591677,0.1139692068099975,-9.348355293273926,2.735135316848755,73.88270568847656,34.63,1
-0.3142807185649872,-1.0601602792739868,0.1459099501371383,-4.268852233886719,2.7369985580444336,73.88890075683594,34.63,1
-0.1736983954906463,-1.0777918100357056,0.1832010000944137,2.093390703201294,2.738194227218628,73.89287567138672,34.63,1
-0.0666874349117279,-1.0611178874969482,0.2071322500705719,8.279284477233887,2.7389614582061768,73.89543151855469,34.63,1
-0.0483939312398433,-0.9832441806793212,0.205696627497673,12.836577415466309,2.739453792572021,73.8970718383789,34.63,1
-0.059045311063528,-0.9276715517044068,0.2103731036186218,15.424423217773438,2.73976993560791,73.89812469482422,34.63,1
-0.1050651744008064,-0.903203785419464,0.2077764123678207,16.773469924926758,2.7399728298187256,73.89879608154297,34.63,1
-0.1569891721010208,-0.8875017762184143,0.2229033261537552,17.323944091796875,2.7387256622314453,73.89923095703125,34.63,1
-0.1847132295370102,-0.8774251341819763,0.2382086962461471,16.86037826538086,2.7379252910614014,73.89950561523438,34.63,1
-0.1801138371229171,-0.8877518773078918,0.2480307966470718,15.348396301269531,2.7374117374420166,73.8996810913086,34.63,1
-0.1883577555418014,-0.8831834197044373,0.2151496261358261,13.027462005615234,2.7370822429656982,73.89979553222656,34.63,1
-0.1880504637956619,-0.8858494162559509,0.1996461600065231,9.807635307312012,2.736870765686035,73.89987182617188,34.63,1
-0.1486688405275344,-0.8931580781936646,0.1840991526842117,5.641947269439697,2.7367351055145264,73.89991760253906,34.63,1
-0.1513848453760147,-0.9034461379051208,0.1573286652565002,1.0949609279632568,2.7366480827331543,73.89994812011719,34.63,1
-0.1699211448431015,-0.9212439656257628,0.1289533525705337,-3.3563754558563232,2.736592054367065,73.89997100830078,34.63,1
-0.2098055481910705,-0.999838888645172,0.1275370270013809,-8.04010009765625,2.7374744415283203,73.89997863769531,34.63,1
-0.2577921748161316,-1.0782654285430908,0.1490192115306854,-13.16314697265625,2.7380406856536865,73.89998626708984,34.63,1
-0.3221738636493683,-1.1118017435073853,0.2019896656274795,-17.278398513793945,2.7384040355682373,73.89999389648438,34.63,1
-0.3914791941642761,-1.1053345203399658,0.2415808290243148,-17.576326370239258,2.738637208938598,73.89999389648438,34.63,1
-0.3967709541320801,-1.0564020872116089,0.2445970624685287,-12.443811416625977,2.7387869358062744,73.89999389648438,34.63,1
-0.3385913670063019,-1.1089667081832886,0.2017505168914795,-3.693796396255493,2.7388830184936523,73.89999389648438,34.63,1
-0.2788639664649963,-1.1818840503692627,0.1798518449068069,4.676460266113281,2.7389445304870605,73.89999389648438,34.63,1
-0.1901543885469436,-1.2846559286117554,0.2105807214975357,9.908288955688477,2.7389841079711914,73.89999389648438,34.63,1
-0.1108345910906791,-1.3282179832458496,0.2358985245227813,11.872153282165527,2.7417638301849365,74.35856628417969,34.63,1
-0.0655294805765152,-1.249815821647644,0.2633415758609772,11.828391075134276,2.7435476779937744,74.6528549194336,34.63,1
-0.0252597257494926,-1.1715129613876345,0.2977462708950043,10.876002311706545,2.744692325592041,74.84170532226562,34.63,1
-0.0274057872593402,-1.1436537504196167,0.2638474702835083,9.20078945159912,2.745426893234253,74.96289825439453,34.63,1
0.0999658107757568,-1.053004264831543,0.2141043096780777,6.287872314453125,2.745898485183716,75.04067993164062,34.63,1
0.1817055642604828,-0.9724395871162416,0.1541931480169296,2.0683605670928955,2.746201038360596,75.09059143066406,34.63,1
0.1837814599275589,-0.9151400327682496,0.1045500636100769,-2.3268721103668213,2.7463951110839844,75.12261962890625,34.63,1
0.1347336918115615,-0.8615751266479492,0.0726919844746589,-5.523650169372559,2.7465198040008545,75.14317321777344,34.63,1
0.0584754571318626,-0.8272002935409546,0.052247304469347,-7.288552284240723,2.746599674224853,75.15636444091797,34.61,1
-0.1024181768298149,-0.8275315761566162,0.0335293114185333,-8.349513053894043,2.7466509342193604,75.16483306884766,34.61,1
-0.222463771700859,-0.8333419561386108,0.0215171817690134,-8.962307929992676,2.7466838359832764,75.1702651977539,34.61,1
-0.2939043641090393,-0.8538640141487122,0.008210714906454,-8.61038875579834,2.7467050552368164,75.17375183105469,34.61,1
-0.3229574859142303,-0.8838272094726562,-0.0171219352632761,-7.119897842407227,2.746718645095825,75.17598724365234,34.61,1
-0.3080154657363891,-0.9198492169380188,-0.0277811959385871,-4.791260242462158,2.746727466583252,75.17742156982422,34.61,1
-0.2648398876190185,-0.99894380569458,-0.0234261471778154,-1.5163346529006958,2.746732950210572,75.1783447265625,34.61,1
-0.24832783639431,-1.1056798696517944,-0.0150335524231195,2.6094791889190674,2.746736526489258,75.17893981933594,34.61,1
-0.254524677991867,-1.2021658420562744,0.0239389780908823,6.285388469696045,2.7458205223083496,75.1793212890625,34.61,1
-0.2585014402866363,-1.1185429096221924,0.0601448528468608,8.447333335876465,2.7452328205108643,75.1795654296875,34.61,1
-0.2386624068021774,-1.0872695446014404,0.0777819231152534,9.644868850708008,2.7448556423187256,75.17971801757812,34.61,1
-0.1811486631631851,-1.1231778860092163,0.1002959311008453,10.3990478515625,2.744613647460937,75.17981719970703,34.61,1
-0.1610329747200012,-1.129428505897522,0.109146349132061,10.041131019592283,2.744458198547364,75.17988586425781,34.61,1
-0.1873083114624023,-1.083059787750244,0.0868371650576591,8.367663383483887,2.744358539581299,75.17992401123047,34.61,1
-0.2321591824293136,-1.0029230117797852,0.0725204199552536,6.218955039978027,2.7442946434021,75.1799545288086,34.61,1
-0.2609418928623199,-0.9347025156021118,0.0689305290579795,3.59688401222229,2.744253635406494,75.17996978759766,34.61,1
-0.2682174146175384,-0.8909225463867188,0.0946156159043312,-0.4646402597427368,2.741014003753662,75.17997741699219,34.61,1
-0.2784842252731323,-0.8628270626068115,0.1166966035962104,-5.582478046417236,2.7389349937438965,75.17998504638672,34.61,1
-0.2962684035301208,-0.8503947854042053,0.1420624554157257,-9.558249473571776,2.737600803375244,75.17999267578125,34.61,1
-0.3132790327072143,-0.8592097759246826,0.1751341223716735,-10.680222511291504,2.7367446422576904,75.17999267578125,34.61,1
-0.3241954743862152,-0.876062273979187,0.2075531631708145,-9.40832805633545,2.7361950874328613,75.17999267578125,34.61,1
-0.3423965871334076,-0.9540505409240724,0.2507489323616028,-7.671377658843994,2.73584246635437,75.17999267578125,34.61,1
-0.3372836709022522,-1.0152944326400757,0.2840672731399536,-7.072594165802002,2.7356162071228027,75.17999267578125,34.61,1
-0.3116114139556885,-1.0434017181396484,0.311046838760376,-7.6233811378479,2.73547101020813,75.17999267578125,34.61,1
-0.2783431112766266,-1.1286126375198364,0.3899362981319427,-7.994757652282715,2.73354172706604,75.47377014160156,34.61,1
-0.2681889832019806,-1.1497094631195068,0.4517585635185241,-6.993514537811279,2.7323036193847656,75.66229248046875,34.61,1
-0.3008570671081543,-1.0960749387741089,0.4914325177669525,-4.509530544281006,2.731509208679199,75.78327941894531,34.61,1
-0.2826371490955353,-1.1008397340774536,0.5000996589660645,-0.9844442009925842,2.73099946975708,75.86092376708984,34.61,1
-0.2373580038547516,-1.1486797332763672,0.4944661855697632,3.3090736865997314,2.7306723594665527,75.91075134277344,34.61,1
-0.2306915521621704,-1.2241629362106323,0.4684598445892334,7.87360668182373,2.7304623126983643,75.9427261352539,34.61,1
-0.2376089543104171,-1.2726036310195925,0.3957927227020263,11.408316612243652,2.730327606201172,75.96324157714844,34.61,1
-0.2644392251968384,-1.2645057439804075,0.3155725002288818,12.494440078735352,2.730241060256958,75.97640991210938,34.61,1
-0.2368751615285873,-1.253711223602295,0.2640917897224426,10.930846214294434,2.726512908935547,75.98486328125,34.61,1
-0.1240239664912223,-1.1460239887237549,0.2198588848114013,8.128969192504883,2.724120616912842,75.99028778076172,34.61,1
0.0603529214859008,-1.043329834938049,0.230657160282135,6.212660312652588,2.722585201263428,75.99376678466797,34.61,1
0.2234575897455215,-0.943839967250824,0.2375868856906891,6.45173978805542,2.721599817276001,75.99600219726562,34.61,1
0.2441621571779251,-0.8576020002365112,0.2028495520353317,8.210161209106445,2.720967531204224,75.9974365234375,34.61,1
0.2294602841138839,-0.7966616749763489,0.1637638062238693,9.34936237335205,2.7205617427825928,75.99835205078125,34.61,1
0.1024722009897232,-0.7911403179168701,0.0547142103314399,7.855656623840332,2.720301389694214,75.99893951416016,34.61,1
-0.1301613450050354,-0.7987926006317139,0.0015257869381457,3.3001766204833984,2.720134258270264,75.99932098388672,34.61,1
-0.3298321366310119,-0.8148989081382751,-0.0270097106695175,-3.1628530025482178,2.719568014144897,75.99956512451172,34.61,1
-0.4467737972736358,-0.8308327794075012,-0.039724376052618,-10.16218376159668,2.7192046642303467,75.99971771240234,34.61,1
-0.477038025856018,-0.8242649435997009,-0.0254928171634674,-16.839323043823242,2.7189714908599854,75.99981689453125,34.61,1
-0.4516776800155639,-0.8648322820663452,0.0508134700357914,-21.894580841064453,2.7188220024108887,75.99988555908203,34.61,1
-0.4354028701782226,-0.9188548922538756,0.0885869041085243,-23.497934341430664,2.7187259197235107,75.99992370605469,34.61,1
-0.4361541867256164,-0.9759145975112916,0.1016321703791618,-20.80816078186035,2.7186644077301025,75.99995422363281,34.61,1
-0.4478318691253662,-1.0741077661514282,0.0932105481624603,-14.610963821411133,2.718624830245972,75.99996948242188,34.61,1
-0.4609237313270569,-1.131524682044983,0.065414935350418,-7.04063606262207,2.718599557876587,75.9999771118164,34.61,1
-0.4693253338336944,-1.1011983156204224,0.0419795401394367,-1.0646716356277466,2.72179651260376,75.99998474121094,34.61,1
-0.4411303400993347,-1.04255211353302,0.0549289248883724,1.6167685985565186,2.7238481044769287,75.99999237060547,34.61,1
-0.4006453156471252,-1.0329052209854126,0.0800324156880378,2.097991466522217,2.7251646518707275,75.99999237060547,34.61,1
-0.3410777151584625,-1.0267144441604614,0.1353268176317215,1.9948163032531736,2.7260096073150635,75.99999237060547,34.61,1
-0.297252893447876,-0.9835571646690368,0.170811578631401,1.0007174015045166,2.7265517711639404,75.99999237060547,34.61,1
-0.2579330801963806,-0.9166768789291382,0.1879858821630478,-1.6327327489852903,2.7268998622894287,75.99999237060547,34.61,1
-0.2159065753221511,-0.8569636344909668,0.199007362127304,-5.139095306396484,2.727123022079468,75.99999237060547,34.61,1
-0.1889363825321197,-0.8186430931091309,0.2116780877113342,-8.224017143249512,2.727266311645508,75.99999237060547,34.61,1
-0.1884217858314514,-0.8052467107772827,0.2254071980714798,-10.407949447631836,2.7259812355041504,76.2471923828125,34.61,1
-0.2104826420545578,-0.8246386051177979,0.2342177480459213,-11.684081077575684,2.725156545639038,76.40583038330078,34.61,1
-0.2862155437469482,-0.8762676119804382,0.2566651701927185,-11.929816246032717,2.7246272563934326,76.50763702392578,34.61,1
-0.3460121154785156,-0.9038023352622986,0.2878639698028564,-10.955421447753906,2.724287509918213,76.57296752929688,34.61,1
-0.3619950115680694,-0.9270703196525574,0.324678897857666,-8.54957103729248,2.724069595336914,76.61489868164062,34.61,1
-0.2938830852508545,-0.9252090454101562,0.3595001399517059,-4.598143577575684,2.723929643630981,76.64180755615234,34.61,1
-0.2501727640628814,-0.9240146279335022,0.3818463981151581,0.5780132412910461,2.72383975982666,76.65907287597656,34.61,1
-0.2613064050674438,-0.9288458824157716,0.3681980669498443,6.146047592163086,2.7237823009490967,76.67015075683594,34.61,1
-0.3020379841327667,-0.9655329585075378,0.3426460325717926,11.277711868286133,2.7223682403564453,76.67726135253906,34.61,1
-0.3505682647228241,-1.0338587760925293,0.3262482285499573,15.51313591003418,2.7214608192443848,76.68182373046875,34.61,1
-0.4152988493442535,-1.144879698753357,0.3325183689594269,18.517793655395508,2.72087836265564,76.68475341796875,34.61,1
-0.4568392336368561,-1.2105287313461304,0.3197488486766815,20.008935928344727,2.7205045223236084,76.68663024902344,34.61,1
-0.4555085897445678,-1.2078763246536257,0.3003585636615753,20.39981842041016,2.720264673233032,76.68783569335938,34.61,1
-0.4042746722698211,-1.1334030628204346,0.2599261403083801,20.9766788482666,2.7201106548309326,76.68861389160156,34.61,1
-0.3546023666858673,-1.0800126791000366,0.2339789271354675,22.9339542388916,2.720011949539185,76.6891098022461,34.61,1
-0.3003344535827636,-1.0849342346191406,0.2173275053501129,26.561687469482425,2.719948530197144,76.6894302368164,34.61,1
-0.2934972941875458,-1.138472557067871,0.2234348952770233,31.17902374267578,2.7208261489868164,76.68963623046875,34.61,1
-0.3003051578998565,-1.1672325134277344,0.2161587178707122,34.97332000732422,2.7213892936706543,76.68976593017578,34.61,1
-0.2654896378517151,-1.1577001810073853,0.1835004240274429,35.57041931152344,2.7217507362365723,76.68984985351562,34.61,1
-0.1927670687437057,-1.1179962158203125,0.1625422090291977,31.686756134033203,2.721982717514038,76.68990325927734,34.61,1
-0.1013157069683075,-1.0701254606246948,0.1714835315942764,23.57338523864746,2.722131490707397,76.68994140625,34.61,1
-0.1209963336586952,-1.0338069200515747,0.1324393600225448,12.308554649353027,2.722227096557617,76.6899642944336,34.61,1
-0.1728106439113617,-0.993706464767456,0.084991954267025,-0.1762042492628097,2.7222883701324463,76.68997955322266,34.61,1
-0.2116598635911941,-0.9511789679527284,0.0433473959565162,-11.60598087310791,2.722327709197998,76.68998718261719,34.61,1
-0.2421888262033462,-0.9126917123794556,0.0166223142296075,-21.00809860229492,2.720975637435913,76.68999481201172,34.61,1
-0.2561827898025512,-0.8600039482116699,-0.0005283036734908,-28.478450775146484,2.7201080322265625,76.68999481201172,34.61,1
-0.2707610726356506,-0.8261919617652893,-0.0059368093498051,-33.38713455200195,2.7195513248443604,76.68999481201172,34.61,1
-0.2577254772186279,-0.8324822783470154,0.0129834208637475,-34.89284133911133,2.719193935394287,76.68999481201172,34.61,1
-0.2437622249126434,-0.8589101433753967,0.0867008492350578,-33.60567855834961,2.7189645767211914,76.68999481201172,34.61,1
-0.2292036265134811,-0.8702722191810608,0.1452040076255798,-30.8486442565918,2.7188174724578857,76.68999481201172,34.61,1
-0.2254585325717926,-0.905552625656128,0.1771501898765564,-27.40985679626465,2.718723058700561,76.68999481201172,34.61,1
-0.2398484796285629,-0.9617801904678344,0.2032491862773895,-24.17842483520508,2.7186625003814697,76.68999481201172,34.61,1
-0.2770719826221466,-0.9698749780654908,0.2535846531391144,-22.076017379760746,2.721836805343628,76.90495300292969,34.61,1
-0.3177531957626343,-0.8631142377853394,0.3026804029941559,-20.4903621673584,2.723873853683472,77.04290008544922,34.61,1
-0.3494578301906585,-0.816992461681366,0.3117961287498474,-17.74239730834961,2.725181102752685,77.13142395019531,34.61,1
-0.3865973651409149,-0.893751859664917,0.2728638648986816,-13.424534797668455,2.726020097732544,77.188232421875,34.61,1
-0.3544536530971527,-0.9374138116836548,0.2982593476772308,-8.704658508300781,2.726558446884156,77.22469329833984,34.61,1
-0.3002390265464782,-0.9822269082069396,0.4377077519893646,-4.733495712280273,2.7269041538238525,77.24809265136719,34.61,1
-0.5229448080062866,-0.9214209318161012,0.2137223333120346,-2.228022813796997,2.727125883102417,77.26310729980469,34.61,1
-0.6658645868301392,-0.8768014311790466,0.0084058744832873,-1.5695372819900513,2.7272682189941406,77.27274322509766,34.61,1
-0.7967666983604431,-0.8929494023323059,-0.123354397714138,-2.035437822341919,2.726900577545166,77.27892303466797,34.59,1
-0.9311521053314208,-0.8977144360542297,-0.1519328206777572,-1.7540488243103027,2.7266645431518555,77.28289031982422,34.59,1
-0.8214707970619202,-0.8783812522888184,-0.0023395684547722,0.6298145055770874,2.726513147354126,77.28543853759766,34.59,1
-0.5887482166290283,-0.8323876857757568,0.0376830212771892,4.556384086608887,2.726416110992432,77.28707122802734,34.59,1
-0.4561935663223266,-0.8140672445297241,0.0241827946156263,8.136672973632812,2.726353645324707,77.28812408447266,34.59,1
-0.4047142565250397,-0.8079079985618591,-0.0740452632308006,9.99363899230957,2.726313591003418,77.2887954711914,34.59,1
-0.371677815914154,-0.7927597761154175,-0.1370823681354522,10.207289695739746,2.726288080215454,77.28923034667969,34.59,1
-0.2889013886451721,-0.7830385565757751,-0.1383515447378158,9.498910903930664,2.726271629333496,77.28950500488281,34.59,1
-0.2357802540063858,-0.7823978066444397,-0.0440038554370403,8.528423309326172,2.7143256664276123,77.28968048095703,34.59,1
-0.2296790331602096,-0.843562126159668,0.0781185701489448,8.31045150756836,2.7066593170166016,77.289794921875,34.59,1
-0.3936968445777893,-0.9499871730804444,0.0445342287421226,9.797059059143066,2.701739549636841,77.28987121582031,34.59,1
-0.470965176820755,-1.113446831703186,-0.0218004677444696,12.388315200805664,2.698582410812378,77.2899169921875,34.59,1
-0.4421826899051666,-1.2071502208709717,0.0419874601066112,14.165876388549805,2.696556329727173,77.28994750976562,34.59,1
-0.4181139767169952,-1.177719235420227,-0.045825932174921,13.844922065734863,2.695255994796753,77.28997039794922,34.59,1
-0.4250591695308685,-1.119647741317749,-0.1357661634683609,11.507319450378418,2.694421529769897,77.28997802734375,34.59,1
-0.2783762812614441,-1.048794150352478,-0.1822890788316726,8.323369979858398,2.693886041641236,77.28998565673828,34.59,1
-0.161852553486824,-0.9977266192436218,-0.1953514814376831,6.487884044647217,2.688952207565308,77.28999328613281,34.59,1
-0.1150631979107856,-0.9705522060394288,-0.186940848827362,7.670892238616943,2.68578577041626,77.28999328613281,34.59,1
-0.0682431682944297,-0.9811021089553832,-0.1143701002001762,10.583207130432127,2.683753728866577,77.28999328613281,34.59,1
-0.0046101137995719,-0.9990679621696472,0.0049726972356438,12.075992584228516,2.6824498176574707,77.28999328613281,34.59,1
-0.047740701586008,-0.965815246105194,0.0479733869433403,10.866518020629885,2.681612968444824,77.28999328613281,34.59,1
-0.0810172036290168,-0.966866672039032,0.0251887831836938,8.04827880859375,2.6810760498046875,77.28999328613281,34.59,1
-0.0911765992641449,-0.9731391668319702,0.0049691628664731,4.498563289642334,2.680731296539306,77.28999328613281,34.59,1
-0.103294089436531,-1.0275444984436035,-0.0192021764814853,0.0853447765111923,2.6805100440979004,77.28999328613281,34.59,1
-0.1110703945159912,-1.079252004623413,-0.0515072755515575,-5.150712966918945,2.6799092292785645,77.4476318359375,34.59,1
-0.0712785869836807,-1.0620548725128174,-0.0778365954756736,-10.710615158081056,2.679523706436157,77.54878997802734,34.59,1
-0.1241113394498825,-1.0286277532577517,-0.1395154297351837,-16.01260757446289,2.67927622795105,77.61370849609375,34.59,1
-0.1356252580881118,-0.9959805607795716,-0.1343151628971099,-19.984750747680664,2.679117441177368,77.6553726196289,34.59,1
-0.1094275787472724,-0.9638339281082152,-0.0861957371234893,-21.236949920654297,2.679015636444092,77.6821060180664,34.59,1
-0.103810966014862,-0.9264107346534728,-0.0553154610097408,-19.572145462036133,2.678950309753418,77.69926452636719,34.59,1
-0.0778154507279396,-0.9247857928276062,-0.0354982800781726,-16.37571907043457,2.678908348083496,77.71027374267578,34.59,1
-0.0611330270767211,-0.9573296308517456,-0.0115852057933807,-13.031126976013184,2.6788814067840576,77.71733856201172,34.59,1
-0.0280361082404851,-1.0173988342285156,0.0149563793092966,-9.885221481323242,2.674732208251953,77.72187805175781,34.59,1
-0.0683719292283058,-1.2854565382003784,-0.0015974048292264,-6.6626152992248535,2.672069549560547,77.72479248046875,34.59,1
-0.1558326631784439,-1.2671562433242798,-0.0402095429599285,-3.27614426612854,2.670360803604126,77.7266616821289,34.59,1
-0.2119599282741546,-1.003512263298035,-0.0537930428981781,-0.4222127497196197,2.669264316558838,77.72785949707031,34.59,1
-0.0800459384918212,-1.0078517198562622,0.09982530772686,1.226564645767212,2.66856050491333,77.72863006591797,34.59,1
-0.1465310454368591,-1.0218321084976196,0.1088443323969841,2.7969634532928467,2.668108940124512,77.72911834716797,34.59,1
-0.2843595147132873,-1.081183910369873,0.0642522498965263,6.71022367477417,2.667819023132324,77.72943878173828,34.59,1
-0.3616143465042114,-1.0800880193710327,0.0244400724768638,13.911120414733888,2.667633056640625,77.72964477539062,34.59,1
-0.3776054084300995,-1.0346025228500366,-0.0067068659700453,22.45157814025879,2.6730222702026367,77.72977447509766,34.59,1
-0.3598786890506744,-1.0222059488296509,-0.077075146138668,28.67036437988281,2.676480770111084,77.7298583984375,34.59,1
-0.3764915764331817,-0.9974572062492372,-0.1446245610713958,29.61961555480957,2.6787002086639404,77.72991180419922,34.59,1
-0.3927505314350128,-0.947988212108612,-0.1767783313989639,25.19169044494629,2.680124521255493,77.72994232177734,34.59,1
-0.3136202096939087,-0.9554262757301332,-0.1470327973365783,17.728580474853516,2.681038618087769,77.72996520996094,34.59,1
-0.2516433596611023,-0.9378085136413574,-0.2175082266330719,9.39243507385254,2.681625366210937,77.72998046875,34.59,1
-0.2230657488107681,-0.9432957768440248,-0.2739308476448059,1.0334135293960571,2.682001829147339,77.72998809814453,34.59,1
-0.2495084702968597,-0.9860016107559204,-0.3045418560504913,-6.752746105194092,2.6822433471679688,77.72999572753906,34.59,1
-0.2216956913471222,-1.024603247642517,-0.2850018143653869,-13.071425437927246,2.682857751846313,77.72999572753906,34.59,1
-0.1142826601862907,-0.99899560213089,-0.2444732785224914,-17.119226455688477,2.6832518577575684,77.72999572753906,34.59,1
-0.1181222274899482,-0.9993554353713988,-0.2072688490152359,-18.667177200317383,2.683504819869995,77.72999572753906,34.59,1
-0.1317817866802215,-0.993988573551178,-0.1889909654855728,-18.79716110229492,2.683667182922364,77.72999572753906,34.59,1
-0.1405477076768875,-0.9961422085762024,-0.1828590482473373,-19.79413414001465,2.6837713718414307,77.72999572753906,34.59,1
-0.2077486962080001,-1.0479042530059814,-0.1789239346981048,-22.91665840148925,2.683838367462158,77.72999572753906,34.59,1
-0.2340810894966125,-1.0923177003860474,-0.1931919306516647,-26.629404067993164,2.6838812828063965,77.72999572753906,34.59,1
-0.2621752619743347,-1.1208196878433228,-0.163163885474205,-27.994579315185547,2.683908700942993,77.72999572753906,34.59,1
-0.2914000153541565,-1.0383507013320925,-0.1830780357122421,-25.334667205810547,2.682090282440185,77.84822082519531,34.59,1
-0.2877636849880218,-0.9462424516677856,-0.1566733717918396,-19.2784423828125,2.6809232234954834,77.9240951538086,34.59,1
-0.3078212141990661,-0.9599037170410156,-0.1453261524438858,-11.995624542236328,2.6801743507385254,77.97278594970703,34.59,1
-0.3262907564640045,-1.0470396280288696,-0.1660330295562744,-5.423165798187256,2.6796936988830566,78.0040283203125,34.59,1
-0.2989590167999267,-1.097360610961914,-0.1737237274646759,-0.1699756830930709,2.6793854236602783,78.02407836914062,34.59,1
-0.2478324323892593,-1.0736759901046753,-0.1842569559812545,3.9858033657073975,2.679187536239624,78.03694915771484,34.59,1
-0.2542067468166351,-1.0360854864120483,-0.1854187995195388,7.358510494232178,2.679060459136963,78.04520416259766,34.59,1
-0.2191130071878433,-1.0119620561599731,-0.197359949350357,9.931333541870115,2.67897891998291,78.05050659179688,34.59,1
-0.1630052179098129,-0.9908832311630248,-0.2050230950117111,11.023541450500488,2.6793856620788574,78.05390930175781,34.59,1
-0.1214006915688514,-0.9773560762405396,-0.1707564443349838,10.298592567443848,2.6796464920043945,78.05609130859375,34.59,1
-0.1730701476335525,-0.9630773067474364,-0.1543638557195663,9.18491554260254,2.679814100265503,78.05748748779297,34.59,1
-0.2006308436393737,-0.9539140462875366,-0.1494418084621429,9.491255760192873,2.6799216270446777,78.05838775634766,34.59,1
-0.1735355257987976,-0.9256424903869628,-0.140685349702835,10.981157302856444,2.679990530014038,78.05896759033203,34.59,1
-0.1505495309829712,-0.9074994325637816,-0.1462614983320236,12.17374038696289,2.680034875869751,78.05933380126953,34.59,1
-0.1078095734119415,-0.9182473421096802,-0.1498399525880813,12.720534324645996,2.680063247680664,78.0595703125,34.59,1
-0.1475548148155212,-0.9699269533157348,-0.1465386301279068,13.522839546203612,2.680081367492676,78.05972290039062,34.59,1
-0.1674632579088211,-1.047874093055725,-0.1556155830621719,15.205632209777832,2.6805520057678223,78.05982208251953,34.59,1
-0.2026304453611374,-1.1202871799468994,-0.139049544930458,17.195526123046875,2.680854082107544,78.05988311767578,34.59,1
-0.2475898116827011,-1.116377830505371,-0.1060273200273513,18.300561904907227,2.681047916412353,78.05992126464844,34.59,1
-0.2988332509994507,-1.0410979986190796,-0.0288578104227781,18.23587417602539,2.6811723709106445,78.05995178222656,34.59,1
-0.2869361340999603,-0.9983854293823242,0.0654473304748535,17.674888610839844,2.681252241134644,78.05996704101562,34.59,1
-0.2625079452991485,-1.0045616626739502,0.1539558172225952,16.415653228759766,2.6813035011291504,78.05997467041016,34.59,1
-0.1012891978025436,-1.0309163331985474,0.3562976121902466,13.278874397277832,2.6813364028930664,78.05998229980469,34.59,1
0.0301605928689241,-1.0702203512191772,0.5085400342941284,8.281584739685059,2.681357383728028,78.05998992919922,34.59,1
-0.1541756838560104,-0.989085614681244,0.3655361533164978,2.9931352138519287,2.682289123535156,78.05998992919922,34.59,1
-0.2836676239967346,-0.942615807056427,0.2121889591217041,-1.2927485704421997,2.682887077331543,78.05998992919922,34.59,1
-0.3275837004184723,-0.9351852536201476,0.1137795597314834,-4.49458646774292,2.6832706928253174,78.05998992919922,34.59,1
-0.2606043219566345,-0.9751989245414734,0.0562238506972789,-7.308847904205322,2.6835169792175293,78.05998992919922,34.59,1
-0.2232185900211334,-0.9784862995147704,0.0136901317164301,-10.465510368347168,2.6836750507354736,78.05998992919922,34.59,1
-0.2496065497398376,-0.9526070952415466,-0.019203333184123,-13.77741813659668,2.683776378631592,78.05998992919922,34.59,1
-0.3337141275405884,-0.9080104231834412,-0.0850946605205535,-16.013870239257812,2.6838414669036865,78.05998992919922,34.59,1
-0.3485051095485687,-0.8793908953666687,-0.1049888208508491,-16.259681701660156,2.6838831901550293,78.05998992919922,34.59,1
-0.2572371661663055,-0.8610244989395142,-0.0505824610590934,-14.919912338256836,2.676564931869507,78.10298156738281,34.59,1
-0.1426889151334762,-0.8492379784584045,0.0291146095842123,-12.877875328063965,2.6718685626983643,78.13057708740234,34.59,1
-0.091569535434246,-0.8528696298599243,0.0802595987915992,-10.420989990234377,2.6688547134399414,78.14828491210938,34.59,1
-0.0755573809146881,-0.8775913119316101,0.1242770552635192,-7.511583805084228,2.666920661926269,78.1596450805664,34.59,1
-0.0652817040681839,-0.9046518206596376,0.1581227034330368,-4.548226356506348,2.665679454803467,78.16693878173828,34.59,1
-0.0866762325167656,-1.0171798467636108,0.2022339850664138,-2.263178586959839,2.6648828983306885,78.17161560058594,34.59,1
-0.1227971091866493,-1.1285783052444458,0.2529331743717193,-1.119198203086853,2.6643717288970947,78.17462158203125,34.59,1
-0.2691284418106079,-1.2168607711791992,0.3078600764274597,-1.0979900360107422,2.664043664932251,78.17655181884766,34.59,1
-0.3630354702472687,-1.1335710287094116,0.2703379392623901,-1.8403033018112185,2.6647512912750244,78.17778778076172,34.59,1
-0.3785173892974853,-1.1025115251541138,0.2294650673866272,-2.6820998191833496,2.665205478668213,78.17858123779297,34.59,1
-0.3436706066131592,-1.1385570764541626,0.2312240898609161,-2.9285452365875244,2.665496826171875,78.17909240722656,34.59,1
-0.3101124167442322,-1.1560912132263184,0.2435484826564788,-2.613799810409546,2.6656839847564697,78.1794204711914,34.59,1
-0.2773811519145965,-1.1169636249542236,0.2346642315387725,-2.547952175140381,2.665803909301758,78.17962646484375,34.59,1
-0.2451805472373962,-1.0358761548995972,0.2009739726781845,-3.082489490509033,2.665880918502808,78.17976379394531,34.59,1
-0.2189182788133621,-0.9614477157592772,0.1625601798295974,-3.733626365661621,2.6659302711486816,78.17984771728516,34.59,1
-0.1908691227436065,-0.8912927508354187,0.1155173182487487,-4.4130167961120605,2.665961980819702,78.17990112304688,34.59,1
-0.1560754626989364,-0.8350757956504822,0.1021212339401245,-5.526116847991943,2.6632280349731445,78.17993927001953,34.59,1
-0.0609758235514164,-0.7934011816978455,0.0991221740841865,-6.863808631896973,2.661473512649536,78.17996215820312,34.59,1
-0.0167396776378154,-0.8002434968948364,0.0748064517974853,-7.90139102935791,2.6603477001190186,78.17997741699219,34.59,1
-0.0051447870209813,-0.8102322816848755,0.0424087010324001,-8.760710716247559,2.6596250534057617,78.17998504638672,34.59,1
-0.0033016281668096,-0.8334358334541321,0.0048243640922009,-9.795820236206056,2.659161329269409,78.17999267578125,34.59,1
-0.007716569583863,-0.8875109553337097,-0.0248928721994161,-10.965237617492676,2.6588637828826904,78.17999267578125,34.59,1
-0.032940924167633,-0.961397647857666,-0.0327681340277195,-12.00589084625244,2.65867280960083,78.17999267578125,34.59,1
-0.1051062047481536,-1.0591938495635986,-0.0322242528200149,-12.559080123901367,2.658550262451172,78.17999267578125,34.59,1
-0.1626132726669311,-1.1499426364898682,-0.0318752191960811,-12.13666534423828,2.6603078842163086,78.17999267578125,34.59,1
-0.2163113206624984,-1.2417666912078855,-0.0260534547269344,-10.353736877441406,2.661435604095459,78.17999267578125,34.59,1
-0.2787605226039886,-1.2950962781906128,7.37169903004542e-05,-7.199731826782227,2.662159442901612,78.17999267578125,34.59,1
-0.3244345784187317,-1.2117669582366943,0.0896117016673088,-3.158682584762573,2.662623882293701,78.17999267578125,34.59,1
-0.3033655881881714,-1.1414976119995115,0.1190831512212753,0.6527058482170105,2.662921905517578,78.17999267578125,34.59,1
-0.2338669896125793,-1.1299893856048584,0.1379962265491485,3.09147047996521,2.6631131172180176,78.17999267578125,34.59,1
-0.105300173163414,-1.0722241401672363,0.1949157416820526,4.2230377197265625,2.663235902786255,78.17999267578125,34.59,1
-0.0171956196427345,-0.9735782146453856,0.2370411902666092,5.364790916442871,2.663314819335937,78.17999267578125,34.59,1
-0.0110351592302322,-0.8822841048240662,0.2472815513610839,7.183022975921631,2.664283514022827,78.23373413085938,34.59,1
-0.007081729825586,-0.8125012516975403,0.2538532316684723,8.56839656829834,2.664905309677124,78.26821899414062,34.59,1
-0.0437290668487548,-0.7733163833618164,0.2524727880954742,8.311025619506836,2.665304183959961,78.29035186767578,34.59,1
-0.1344205141067505,-0.7873542308807373,0.2347935736179351,6.773733139038086,2.665560245513916,78.30455780029297,34.59,1
-0.2206099331378936,-0.8131561875343323,0.2178502976894378,5.145906448364258,2.665724515914917,78.31367492675781,34.59,1
-0.3039102256298065,-0.8577033281326294,0.2181726247072219,4.090513229370117,2.66582989692688,78.31952667236328,34.59,1
-0.3349764347076416,-0.8806933164596558,0.2239772528409958,3.631759643554688,2.6658976078033447,78.32328033447266,34.59,1
-0.3437173962593078,-0.9010447263717652,0.2388978749513626,3.366018772125244,2.665940999984741,78.32569122314453,34.59,1
-0.3045446574687958,-0.9644850492477416,0.2876574993133545,2.7333292961120605,2.6636736392974854,78.32723236083984,34.59,1
-0.2458191961050033,-1.016392946243286,0.3133508265018463,1.6788593530654907,2.6622185707092285,78.3282241821289,34.59,1
-0.1409592777490615,-1.0832911729812622,0.3410348892211914,1.0379869937896729,2.661284685134888,78.328857421875,34.59,1
-0.0680684521794319,-1.182200312614441,0.3867897987365722,1.7982141971588137,2.6606853008270264,78.32926940917969,34.59,1
-0.0548779629170894,-1.2232834100723269,0.3657726943492889,4.123945713043213,2.6603007316589355,78.32952880859375,34.59,1
-0.1695640981197357,-1.1264971494674685,0.2179385423660278,7.382675647735596,2.660053968429565,78.32969665527344,34.59,1
-0.2879452705383301,-1.05878746509552,0.1342626363039016,10.706347465515137,2.659895658493042,78.32980346679688,34.59,1
-0.3303288221359253,-1.0993019342422483,0.1253464519977569,13.412500381469728,2.6597940921783447,78.32987213134766,34.59,1
-0.2735615372657776,-1.198072910308838,0.136417880654335,15.493081092834473,2.66064715385437,78.32991790771484,34.59,1
-0.225936010479927,-1.244665026664734,0.1603162139654159,17.49463653564453,2.661194562911988,78.32994842529297,34.59,1
-0.2065682411193847,-1.1905986070632937,0.1868483275175094,19.205446243286133,2.661545753479004,78.32997131347656,34.59,1
-0.2109324485063552,-1.1167174577713013,0.2318639904260635,19.30022430419922,2.661771059036255,78.3299789428711,34.59,1
-0.1577554047107696,-1.0133270025253296,0.283143550157547,17.190006256103516,2.661915779113769,78.32998657226562,34.59,1
-0.1740094125270843,-0.9357814192771912,0.2376829832792282,14.05525016784668,2.66200852394104,78.32999420166016,34.59,1
-0.2012336105108261,-0.8804193735122681,0.163726806640625,11.165813446044922,2.6620681285858154,78.32999420166016,34.59,1
-0.241095632314682,-0.8225001096725464,0.0882771164178848,8.111376762390137,2.662106275558472,78.32999420166016,34.59,1
-0.2610790133476257,-0.7741352915763855,0.0398578494787216,3.4392051696777344,2.665343999862671,78.32999420166016,34.59,1
-0.2235232293605804,-0.7263042330741882,0.0311762485653162,-3.489211082458496,2.667421817779541,78.32999420166016,34.59,1
-0.1714332103729248,-0.7012068033218384,0.0535937696695327,-11.772408485412598,2.668755292892456,78.32999420166016,34.59,1
-0.1268092840909958,-0.696296215057373,0.079175591468811,-19.814428329467773,2.669610977172852,78.32999420166016,34.59,1
-0.0925744473934173,-0.7155359983444214,0.0787992104887962,-26.37253761291504,2.6701602935791016,78.32999420166016,34.59,1
-0.0873978212475776,-0.7390785217285156,0.0617643445730209,-30.824769973754883,2.6705126762390137,78.32999420166016,34.59,1
-0.1512490510940551,-0.8717400431632996,0.0620278976857662,-32.97618865966797,2.670738935470581,78.32999420166016,34.59,1
-0.2202139645814895,-1.242361068725586,0.0230126101523637,-32.72677230834961,2.670884132385254,78.32999420166016,34.59,1
-0.3036561012268066,-1.5081931352615356,-0.0188184771686792,-30.01233673095703,2.671436548233032,78.30491638183594,34.59,1
-0.4691599607467651,-1.3989001512527466,0.032705582678318,-25.22876167297364,2.671791076660156,78.28882598876953,34.59,1
-0.5585774779319763,-1.2000133991241455,0.1105529516935348,-18.96686363220215,2.672018527984619,78.27850341796875,34.59,1
-0.4480272531509399,-1.0555859804153442,0.1269242614507675,-11.118563652038574,2.6721644401550293,78.2718734741211,34.59,1
-0.2707247734069824,-1.1252362728118896,0.1374304294586181,-1.5213584899902344,2.672258138656616,78.26762390136719,34.59,1
-0.1009645089507103,-1.169933795928955,0.1721615493297577,8.359871864318848,2.67231822013855,78.264892578125,34.59,1
-0.0144132375717163,-1.103455901145935,0.177656665444374,16.18784523010254,2.6723568439483643,78.26313781738281,34.59,1
-0.0204451344907283,-1.0384031534194946,0.1531942486763,20.94269561767578,2.672381639480591,78.26201629638672,34.59,1
-0.1026849001646041,-0.9350805282592772,0.1263001263141632,22.822582244873047,2.672856569290161,78.26129150390625,34.57,1
-0.2114393860101699,-0.8407851457595825,0.1258343458175659,21.929595947265625,2.673161268234253,78.26082611083984,34.57,1
-0.3036228716373443,-0.7802718281745911,0.1311332136392593,18.669597625732425,2.673356771469116,78.26052856445312,34.57,1
-0.3795742392539978,-0.769426703453064,0.1513270437717437,14.377816200256348,2.673482179641724,78.26033782958984,34.57,1
-0.4115221202373504,-0.7848580479621887,0.16988405585289,10.401939392089844,2.67356276512146,78.26021575927734,34.57,1
-0.3984377980232239,-0.8171520829200745,0.1873906552791595,7.456367492675781,2.673614501953125,78.26013946533203,34.57,1
-0.3732477128505707,-0.8658654093742371,0.232212021946907,6.300497055053711,2.67364764213562,78.26009368896484,34.57,1
-0.3402888476848602,-0.9139201641082764,0.2833668887615204,7.787087917327881,2.67366886138916,78.26006317138672,34.57,1
-0.341528832912445,-0.9951388835906982,0.3497817814350128,11.299055099487305,2.6723053455352783,78.26004028320312,34.57,1
-0.3199334740638733,-1.041662573814392,0.3868052661418915,14.086637496948242,2.671430349349976,78.26002502441406,34.57,1
-0.2780859470367431,-1.1498876810073853,0.4441514611244201,13.525378227233888,2.6708688735961914,78.26001739501953,34.57,1
-0.3407950103282928,-1.1633626222610474,0.436170756816864,9.69009494781494,2.670508623123169,78.260009765625,34.57,1
-0.3642447590827942,-1.121630072593689,0.4030603170394897,4.534734725952148,2.6702773571014404,78.260009765625,34.57,1
-0.3457068204879761,-1.0836529731750488,0.3482252955436706,-0.4037507176399231,2.67012882232666,78.260009765625,34.57,1
-0.3002235889434814,-1.104063630104065,0.3018397986888885,-4.260840892791748,2.670033693313598,78.260009765625,34.57,1
-0.1982639878988266,-1.1339553594589231,0.2552789151668548,-6.230956077575684,2.669972419738769,78.260009765625,34.57,1
-0.1216366440057754,-1.1475403308868408,0.2309966087341308,-6.3739166259765625,2.6680970191955566,78.260009765625,34.57,1
-0.0724616199731826,-1.145062804222107,0.2434024959802627,-5.939021587371826,2.666893720626831,78.260009765625,34.57,1
-0.0912838950753212,-1.08749520778656,0.3241349458694458,-5.932207107543945,2.666121482849121,78.260009765625,34.57,1
-0.0529829747974872,-1.0673449039459229,0.3591510653495788,-6.246683120727539,2.665625810623169,78.260009765625,34.57,1
0.0331718698143959,-0.9872403144836426,0.3536335229873657,-6.50581693649292,2.6653077602386475,78.260009765625,34.57,1
0.038081120699644,-0.98061603307724,0.2941149175167084,-6.758095741271973,2.6651036739349365,78.260009765625,34.57,1
-0.0091483760625123,-0.9931582808494568,0.2223326712846756,-7.102705001831055,2.6649725437164307,78.260009765625,34.57,1
-0.123424157500267,-1.0124026536941528,0.1706691831350326,-7.266534328460693,2.664888381958008,78.260009765625,34.57,1
-0.1967597752809524,-1.0191549062728882,0.1319167613983154,-6.776963233947754,2.668507099151612,78.29225158691406,34.57,1
-0.2158334851264953,-0.9899014234542848,0.0846565812826156,-5.585053443908691,2.6708292961120605,78.31294250488281,34.57,1
-0.1776939332485199,-0.9151504635810852,0.0935121402144432,-4.598034858703613,2.6723196506500244,78.32621765136719,34.57,1
-0.1532181650400161,-0.8447884917259216,0.1047929003834724,-5.243602752685547,2.673275947570801,78.3347396850586,34.57,1
-0.1375110149383545,-0.7604498267173767,0.1176300197839737,-7.936408996582031,2.673889636993408,78.3402099609375,34.57,1
-0.1330288499593734,-0.7007283568382263,0.1258681416511535,-10.606714248657228,2.674283504486084,78.34371948242188,34.57,1
-0.1581413298845291,-0.6735981106758118,0.1199593469500541,-9.432806968688965,2.674536228179932,78.3459701538086,34.57,1
-0.1798548400402069,-0.7065674662590027,0.1161674261093139,-2.7037246227264404,2.6746983528137207,78.347412109375,34.57,1
-0.2049848735332489,-0.761311948299408,0.1025384366512298,6.228970527648926,2.67434310913086,78.34833526611328,34.59,1
-0.2714918553829193,-0.9923658967018129,0.099389910697937,12.004450798034668,2.6741151809692383,78.34893035888672,34.59,1
-0.3589543998241424,-1.3309673070907593,0.1309560090303421,12.894917488098145,2.673969030380249,78.34931182861328,34.59,1
-0.4262783825397491,-1.5258711576461792,0.2687665820121765,10.933486938476562,2.673875093460083,78.34955596923828,34.59,1
-0.5702430009841919,-1.2647027969360352,0.2564455270767212,7.836892604827881,2.6738147735595703,78.34971618652344,34.59,1
-0.4555135369300842,-1.0915021896362305,0.2261475026607513,4.276925563812256,2.673776149749756,78.34981536865234,34.59,1
-0.2419423907995224,-1.1202963590621948,0.2402906119823455,1.5301915407180786,2.6737513542175293,78.34988403320312,34.59,1
-0.0992869511246681,-1.121981501579285,0.2157801985740661,0.1006752774119377,2.673735380172729,78.34992218017578,34.59,1
-0.0469233281910419,-1.0726829767227173,0.17765973508358,-1.9559649229049685,2.674643516540528,78.3499526977539,34.59,1
-0.1084815338253974,-0.9962638020515442,0.0916206911206245,-6.367561340332031,2.675226211547852,78.34996795654297,34.59,1
-0.1815726906061172,-0.9080379605293274,0.0140146929770708,-11.910679817199709,2.675600051879883,78.3499755859375,34.59,1
-0.2452717125415802,-0.8010396957397461,-0.0301905963569879,-16.281179428100586,2.675840139389038,78.34998321533203,34.59,1
-0.2805522978305816,-0.7267765998840332,-0.0305701363831758,-18.5234489440918,2.6759941577911377,78.34999084472656,34.59,1
-0.2864000201225281,-0.7015098929405212,-0.0084226056933403,-18.05647850036621,2.676093101501465,78.34999084472656,34.59,1
-0.3237394094467163,-0.7132840752601624,0.0281815025955438,-13.58668613433838,2.676156520843506,78.34999084472656,34.59,1
-0.3532994389533996,-0.7432311773300171,0.0572696886956691,-5.31212329864502,2.676197290420532,78.34999084472656,34.59,1
-0.3834649324417114,-0.8128294348716736,0.1151212304830551,3.154263019561768,2.6679606437683105,78.34999084472656,34.59,1
-0.4364100396633148,-0.8910802602767944,0.2082247585058212,7.541390895843506,2.66267466545105,78.34999084472656,34.59,1
-0.4759849607944488,-0.9972748756408693,0.3687331974506378,7.408337116241455,2.6592824459075928,78.34999084472656,34.59,1
-0.3670352697372436,-1.048631191253662,0.5389115810394287,6.047554016113281,2.6571054458618164,78.34999084472656,34.59,1
-0.185162141919136,-1.053599834442139,0.676111102104187,6.306375980377197,2.6557085514068604,78.34999084472656,34.59,1
-0.0684464424848556,-1.028799533843994,0.7025823593139648,8.07746696472168,2.6548120975494385,78.34999084472656,34.59,1
-0.066316083073616,-1.0408729314804075,0.6915811896324158,9.52931785583496,2.6542367935180664,78.34999084472656,34.59,1
-0.2160888612270355,-1.1045987606048584,0.6005547046661377,9.450745582580566,2.653867483139038,78.34999084472656,34.59,1
-0.446550965309143,-1.1790809631347656,0.4469769597053528,8.587078094482422,2.658679723739624,78.37865447998047,34.59,1
-0.5832527279853821,-1.170901656150818,0.3148329555988312,9.168501853942873,2.6617679595947266,78.39704895019531,34.59,1
-0.5366334915161133,-1.081686019897461,0.2692149579524994,12.199896812438965,2.663749933242798,78.40885162353516,34.59,1
-0.417151540517807,-1.0244325399398804,0.3127110302448272,15.280948638916016,2.6650216579437256,78.41642761230469,34.59,1
-0.3068882822990417,-1.0100816488265991,0.3630153834819793,14.89369010925293,2.6658380031585693,78.4212875366211,34.59,1
-0.2641165256500244,-1.0624475479125977,0.3841022849082947,10.758075714111328,2.6663618087768555,78.42440795898438,34.59,1
-0.2590591609477997,-1.1072485446929932,0.3752435445785522,5.693003177642822,2.6666979789733887,78.4264144897461,34.59,1
-0.2670091986656189,-1.091217041015625,0.3023852109909057,1.46807062625885,2.666913747787476,78.42769622802734,34.59,1
-0.2777088582515716,-1.047342300415039,0.2052489668130874,-2.443410873413086,2.6592485904693604,78.42852020263672,34.57,1
-0.2733797132968902,-1.0023926496505735,0.1317169666290283,-6.340031147003174,2.654329538345337,78.4290542602539,34.57,1
-0.2594059705734253,-0.945557713508606,0.0733328163623809,-9.370879173278809,2.651172876358032,78.42938995361328,34.57,1
-0.2448406666517257,-0.9034865498542786,0.0414630062878131,-11.333815574645996,2.6491470336914062,78.42961120605469,34.57,1
-0.2298957109451294,-0.8708899021148682,0.0378041192889213,-13.145231246948242,2.647846937179565,78.42974853515625,34.57,1
-0.2091093510389328,-0.8387757539749146,0.0522493794560432,-15.371719360351562,2.647012710571289,78.42984008789062,34.57,1
-0.1845743209123611,-0.8013734221458435,0.0895083919167518,-17.696195602416992,2.646477222442627,78.42990112304688,34.57,1
-0.1744269132614135,-0.7773707509040833,0.1190168485045433,-18.92280006408692,2.6461336612701416,78.42993927001953,34.57,1
-0.184708222746849,-0.7675649523735046,0.1435514539480209,-16.13813591003418,2.6449949741363525,78.42996215820312,34.57,1
-0.2192950397729873,-0.7668699622154236,0.1648941338062286,-6.279555797576904,2.6442642211914062,78.42997741699219,34.57,1
-0.2806752920150757,-0.777619481086731,0.17299285531044,9.325984001159668,2.643795251846313,78.42998504638672,34.57,1
-0.3928366601467132,-0.8460934162139893,0.1781901568174362,24.47096824645996,2.643494367599488,78.42999267578125,34.57,1
-0.5039998292922974,-0.9740026593208312,0.1983187943696975,33.82472610473633,2.643301248550415,78.42999267578125,34.57,1
-0.5697401762008667,-1.0280985832214355,0.200040653347969,36.49205017089844,2.6431772708892822,78.42999267578125,34.57,1
-0.5951352119445801,-0.9844453930854796,0.2123411893844604,33.557186126708984,2.6430976390838623,78.42999267578125,34.57,1
-0.4714879095554352,-1.006811261177063,0.3209949135780334,25.93805694580078,2.6430466175079346,78.42999267578125,34.57,1
-0.4313226044178009,-1.032359957695007,0.4578959047794342,15.0942964553833,2.6494405269622803,78.42999267578125,34.57,1
-0.5454912185668945,-0.9927778840065002,0.7024887800216675,2.804523468017578,2.653543710708618,78.42999267578125,34.57,1
-0.747506856918335,-0.950583040714264,0.6355434060096741,-9.779102325439451,2.656177043914795,78.42999267578125,34.57,1
-0.7819867134094238,-0.850733757019043,0.4750284552574157,-21.45145606994629,2.657866954803467,78.42999267578125,34.57,1
-0.7761250138282776,-0.7866562604904175,0.2768570482730865,-30.539928436279297,2.6589512825012207,78.42999267578125,34.57,1
-0.7835588455200195,-0.7567305564880371,0.1048998534679412,-36.37955093383789,2.659647226333618,78.42999267578125,34.57,1
-0.6875694990158081,-0.7375259399414062,-0.0110501535236835,-39.8906364440918,2.6600937843322754,78.42999267578125,34.57,1
-0.6539579629898071,-0.6972126960754395,-0.1134490594267845,-41.3377685546875,2.6603803634643555,78.42999267578125,34.57,1
-0.6379857659339905,-0.6657441854476929,-0.1623694598674774,-38.44026565551758,2.658268928527832,78.4228286743164,34.57,1
-0.6501268148422241,-0.6231583952903748,-0.1881659924983978,-28.7457218170166,2.656913995742798,78.4182357788086,34.57,1
-0.6803093552589417,-0.5902315378189087,-0.2047207206487655,-13.743428230285645,2.6560444831848145,78.415283203125,34.57,1
-0.7052765488624573,-0.5579054355621338,-0.1761601716279983,1.7524399757385254,2.655486583709717,78.41339111328125,34.57,1
-0.7380923628807068,-0.5147692561149597,-0.1298427879810333,14.222511291503906,2.6551284790039062,78.41217803955078,34.57,1
-0.7815427780151367,-0.470293641090393,-0.0945211797952652,22.952348709106445,2.6548986434936523,78.4113998413086,34.57,1
-0.8374156355857849,-0.4193606376647949,-0.0830493494868278,28.006521224975582,2.6547510623931885,78.41089630126953,34.57,1
-0.8956627249717712,-0.3810769915580749,-0.0588940680027008,29.576934814453125,2.654656410217285,78.41057586669922,34.57,1
-0.9106512665748596,-0.3397154510021209,-0.0042081763967871,28.277557373046875,2.6504642963409424,78.41036987304688,34.59,1
-0.892281174659729,-0.3019764423370361,0.0588749535381794,24.710187911987305,2.6477739810943604,78.41024017333984,34.59,1
-0.8525034189224243,-0.2609643936157226,0.0881625264883041,19.95245933532715,2.646047592163086,78.41015625,34.59,1
-0.9333340525627136,-0.2682318687438965,0.0285887625068426,16.089561462402344,2.644939661026001,78.41010284423828,34.59,1
-1.001999855041504,-0.3120801448822021,-0.037631120532751,14.527715682983398,2.64422869682312,78.41006469726562,34.59,1
-0.911719024181366,-0.306632786989212,-0.0969205498695373,14.20968532562256,2.64377236366272,78.41004180908203,34.59,1
-0.7866086959838867,-0.2863436639308929,-0.1461646407842636,12.68362045288086,2.643479585647583,78.41002655029297,34.59,1
-0.8014822006225586,-0.4076698720455169,-0.2113533169031143,8.540865898132324,2.643291711807251,78.41001892089844,34.59,1
-0.7942338585853577,-0.5862900018692017,-0.2587854266166687,2.374943256378174,2.644548177719116,78.4100112915039,34.59,1
-0.7559956312179565,-0.6617336869239807,-0.2780290842056274,-4.157863140106201,2.6453545093536377,78.4100112915039,34.59,1
-0.664283275604248,-0.7269424200057983,-0.2399985790252685,-9.647133827209473,2.645872116088867,78.4100112915039,34.59,1
-0.5830364227294922,-0.763191819190979,-0.1987994611263275,-13.323883056640623,2.646204233169556,78.4100112915039,34.59,1
-0.5308969020843506,-0.8200412392616272,-0.1219802796840667,-15.13169288635254,2.6464173793792725,78.4100112915039,34.59,1
-0.5142300724983215,-0.8901106119155884,-0.0334977284073829,-15.829689025878906,2.6465542316436768,78.4100112915039,34.59,1
-0.5091320276260376,-0.946272611618042,0.0456763766705989,-16.385099411010742,2.646641969680786,78.4100112915039,34.59,1
-0.4722737669944763,-0.9991074800491332,0.0852902084589004,-17.354150772094727,2.646698236465454,78.4100112915039,34.59,1
-0.415033608675003,-1.0330138206481934,0.1051143184304237,-19.02214431762696,2.645357131958008,78.4100112915039,34.59,1
-0.3111268877983093,-1.0379797220230105,0.1290318369865417,-21.253320693969727,2.6444966793060303,78.4100112915039,34.59,1
-0.1996633261442184,-1.0411665439605713,0.1891629248857498,-22.925193786621094,2.643944501876831,78.4100112915039,34.59,1
-0.122534655034542,-1.037613868713379,0.2389471381902694,-22.5543270111084,2.643589973449707,78.4100112915039,34.59,1
-0.1234178841114044,-1.0353339910507202,0.2652980089187622,-19.36070251464844,2.643362522125244,78.4100112915039,34.59,1
-0.1407780051231384,-1.0618597269058228,0.2766107022762298,-13.17334270477295,2.643216609954834,78.4100112915039,34.59,1
-0.2078964859247207,-1.1460556983947754,0.2726749777793884,-3.85744881629944,2.643122911453247,78.4100112915039,34.59,1
-0.3181425631046295,-1.0993279218673706,0.2813448309898376,8.462115287780762,2.643062829971313,78.4100112915039,34.59,1
-0.3944899141788482,-1.0021674633026123,0.3037019670009613,22.261438369750977,2.6402699947357178,78.41717529296875,34.59,1
-0.3931052684783935,-0.8950332403182983,0.256473958492279,33.63560104370117,2.638477563858032,78.42176818847656,34.59,1
-0.3978144824504852,-0.8878561854362488,0.2765457034111023,38.13330841064453,2.6373274326324463,78.42472076416016,34.59,1
-0.3840432465076446,-0.9560214281082152,0.2670355141162872,34.85765075683594,2.636589288711548,78.4266128540039,34.59,1
-0.3752056658267975,-0.9885703921318054,0.2553346455097198,27.170284271240234,2.636115550994873,78.42782592773438,34.59,1
-0.3415453433990478,-0.9814695715904236,0.2646190226078033,18.61499214172364,2.6358115673065186,78.42860412597656,34.59,1
-0.2975529730319977,-0.960119366645813,0.2649794220924377,10.49867057800293,2.635616540908813,78.42910766601562,34.59,1
-0.2581256628036499,-0.946418046951294,0.2596129179000854,3.5059590339660645,2.635491371154785,78.42942810058594,34.59,1
-0.2272257059812545,-0.9320275187492372,0.2505712509155273,-1.475955605506897,2.633115530014038,78.42963409423828,34.59,1
-0.2241892218589782,-0.9227925539016724,0.2391710430383682,-4.640819072723389,2.631590843200684,78.42976379394531,34.59,1
-0.2390339076519012,-0.9112682938575744,0.237452819943428,-7.058764457702637,2.63061261177063,78.42984771728516,34.59,1
-0.2933425605297088,-0.9318615794181824,0.2475457191467285,-8.940059661865234,2.6299846172332764,78.42990112304688,34.59,1
-0.333792507648468,-0.9618704319000244,0.2540227472782135,-9.652971267700195,2.6295816898345947,78.42993927001953,34.59,1
-0.3429576158523559,-1.0315083265304563,0.2357882410287857,-9.264988899230955,2.6293232440948486,78.42996215820312,34.59,1
-0.3040570616722107,-1.0426113605499268,0.1904997378587722,-8.718649864196777,2.629157304763794,78.42997741699219,34.59,1
-0.2622996270656585,-1.0329432487487793,0.1502406448125839,-8.729881286621094,2.6290507316589355,78.42998504638672,34.59,1
-0.201915442943573,-0.981956660747528,0.1188068985939025,-9.482264518737791,2.628523349761963,78.42999267578125,34.59,1
-0.1631643623113632,-0.9268453121185304,0.0986345261335372,-10.86074447631836,2.6281850337982178,78.42999267578125,34.59,1
-0.1606872379779815,-0.8578913807868958,0.0968846082687377,-12.13945770263672,2.627967834472656,78.42999267578125,34.59,1
-0.1758908927440643,-0.8416295647621155,0.0901638343930244,-12.591056823730469,2.627828598022461,78.42999267578125,34.59,1
-0.1968432664871215,-0.9095625281333924,0.0802530571818351,-13.138812065124512,2.627739191055298,78.42999267578125,34.59,1
-0.2998536825180053,-1.0875046253204346,0.1074795350432396,-15.424921035766602,2.6276817321777344,78.42999267578125,34.59,1
-0.4107420444488525,-1.123328685760498,0.1137563735246658,-18.522085189819336,2.6276450157165527,78.42999267578125,34.59,1
-0.459512710571289,-1.1239274740219116,0.0618067421019077,-19.47788619995117,2.6276214122772217,78.42999267578125,34.59,1
-0.4628220498561859,-1.230669379234314,0.0004795898566953,-17.615703582763672,2.62852430343628,78.42999267578125,34.59,1
-0.4425546824932098,-1.3047679662704468,-0.0388766452670097,-15.16676139831543,2.629103899002075,78.42999267578125,34.59,1
-0.3623749613761902,-1.2739514112472534,-0.0697309896349906,-13.55576229095459,2.6294758319854736,78.42999267578125,34.59,1
-0.2885291278362274,-1.220588445663452,-0.078335978090763,-11.880635261535645,2.6297144889831543,78.42999267578125,34.59,1
-0.2075524777173996,-1.1807453632354736,-0.0446737483143806,-8.931947708129883,2.629867553710937,78.42999267578125,34.59,1
-0.1499885618686676,-1.1215897798538208,0.0049176034517586,-4.628576755523682,2.629965782165528,78.42999267578125,34.59,1
-0.1242428943514823,-1.072431564331055,0.036742478609085,0.5011616349220276,2.6300289630889893,78.42999267578125,34.59,1
-0.1357096880674362,-1.0352869033813477,0.0571658536791801,5.820870399475098,2.6300694942474365,78.42999267578125,34.59,1
-0.1374706327915191,-1.0114495754241943,0.0590768530964851,10.449246406555176,2.629636287689209,78.49806213378906,34.59,1
-0.0826229676604271,-0.9625654816627502,0.0379121229052543,13.541278839111328,2.629358291625977,78.541748046875,34.59,1
-0.0754137635231018,-0.9311944842338562,0.0299275927245616,15.228214263916016,2.629179716110229,78.56978607177734,34.59,1
-0.0707873106002807,-0.9446490406990052,0.0304013546556234,16.514999389648438,2.6290652751922607,78.58777618408203,34.59,1
-0.0734160915017128,-0.9756745100021362,0.0251076146960258,17.942655563354492,2.628991842269897,78.59931945800781,34.59,1
-0.0918964147567749,-1.012378215789795,0.0217103958129882,18.90183448791504,2.628944635391236,78.60672760009766,34.59,1
-0.0981582477688789,-1.063921332359314,0.0307258050888776,18.105846405029297,2.628914356231689,78.61148071289062,34.59,1
-0.1189700588583946,-1.0746077299118042,0.0589024722576141,14.66447925567627,2.628894805908203,78.61453247070312,34.59,1
-0.1547169834375381,-1.0590745210647583,0.099375732243061,9.231689453125,2.62980055809021,78.61649322509766,34.59,1
-0.2112439423799514,-1.0658994913101196,0.1477402448654174,3.7175004482269287,2.63038182258606,78.61775207519531,34.59,1
-0.2307263612747192,-1.0702793598175049,0.1899733543395996,-0.1901940107345581,2.630754947662353,78.61856079101562,34.59,1
-0.1368713527917862,-1.045101284980774,0.2170761227607727,-1.7055540084838867,2.6309943199157715,78.61907958984375,34.59,1
-0.0262606423348188,-1.0121500492095947,0.2400669008493423,-0.8294157981872559,2.631147861480713,78.6194076538086,34.59,1
0.0111363036558032,-0.9966016411781312,0.2604188323020935,1.4381452798843384,2.631246328353882,78.61962127685547,34.59,1
-0.0488311052322387,-0.9698302745819092,0.2958706319332123,3.4808778762817383,2.631309509277344,78.61975860595703,34.59,1
-0.120901383459568,-0.9470521807670592,0.3242193162441253,4.354712009429932,2.63135027885437,78.61984252929688,34.59,1
-0.1895430386066436,-0.9268367290496826,0.32561856508255,3.958940505981445,2.6318352222442627,78.61990356445312,34.59,1
-0.2223977446556091,-0.8970702886581421,0.3209187388420105,2.196692943572998,2.6321463584899902,78.61994171142578,34.59,1
-0.2378842383623123,-0.8835656642913818,0.3123048841953277,-1.004944920539856,2.6323461532592773,78.61996459960938,34.59,1
-0.2366270273923874,-0.9084858298301696,0.3067770004272461,-4.843694686889648,2.632474422454834,78.61997985839844,34.59,1
-0.224624678492546,-0.9244781732559204,0.2976317703723907,-7.414660453796387,2.632556676864624,78.61998748779297,34.59,1
-0.2057267129421234,-0.9515344500541688,0.2749695479869842,-6.89351749420166,2.632609367370605,78.6199951171875,34.59,1
-0.1824035346508026,-0.9577020406723022,0.2380351424217224,-3.20578670501709,2.632643222808838,78.6199951171875,34.59,1
-0.1618382781744003,-0.9616600275039672,0.2031372189521789,1.6972496509552002,2.632664918899536,78.6199951171875,34.59,1
-0.1374451369047165,-0.9642000794410706,0.1639484167098999,5.252150058746338,2.630842924118042,78.6199951171875,34.59,1
-0.1217910200357437,-0.9602323770523072,0.1499948501586914,5.7816009521484375,2.629673480987549,78.6199951171875,34.59,1
-0.1397339850664138,-0.912903904914856,0.1634313464164734,3.3090503215789795,2.628923177719116,78.6199951171875,34.59,1
-0.2016287147998809,-0.9049223065376282,0.1664563417434692,-0.1979508996009826,2.628441572189331,78.6199951171875,34.59,1
-0.2637403011322021,-0.9669734835624696,0.1851909458637237,-2.473620653152466,2.6281325817108154,78.6199951171875,34.59,1
-0.4043598771095276,-1.113152027130127,0.2587892413139343,-3.62949538230896,2.627934217453003,78.6199951171875,34.59,1
-0.4890036582946777,-1.1229944229125977,0.283629298210144,-5.34931230545044,2.6278069019317627,78.6199951171875,34.59,1
-0.4257698953151703,-1.1125173568725586,0.170821413397789,-7.2590718269348145,2.62772536277771,78.6199951171875,34.59,1
-0.3516034483909607,-1.2177492380142212,0.1488077640533447,-6.983545780181885,2.6299681663513184,78.69881439208984,34.59,1
-0.2872143685817718,-1.2908788919448853,0.1682673245668411,-3.9084255695343018,2.6314074993133545,78.74939727783203,34.59,1
-0.2514909505844116,-1.2762336730957031,0.1863531321287155,0.1608161330223083,2.632331371307373,78.78185272216797,34.59,1
-0.2397612631320953,-1.171673059463501,0.164372906088829,3.657117605209351,2.6329240798950195,78.80268096923828,34.59,1
-0.2546249032020569,-1.0709854364395142,0.1222783923149108,5.958163738250732,2.6333045959472656,78.81604766845703,34.59,1
-0.1130236387252807,-0.92800110578537,0.1624378561973571,6.6108503341674805,2.6335487365722656,78.82463073730469,34.59,1
-0.0277498699724674,-0.8250464200973511,0.1994054317474365,5.754310131072998,2.633705377578736,78.83013916015625,34.59,1
-0.0457971394062042,-0.7757693529129028,0.1895424425601959,3.8110098838806152,2.633805990219116,78.83367156982422,34.59,1
-0.0685743913054466,-0.7385483980178833,0.1328329741954803,0.1707512885332107,2.632952213287353,78.8359375,34.57,1
-0.1279737055301666,-0.7370532751083374,0.0572556853294372,-5.740767478942871,2.632404327392578,78.83739471435547,34.57,1
-0.1828860938549041,-0.7640826106071472,0.0031567567493766,-12.250032424926758,2.632052659988404,78.83832550048828,34.57,1
-0.2181257009506225,-0.7758307456970215,-0.0259630475193262,-16.738988876342773,2.631827116012573,78.83892059326172,34.57,1
-0.2183493673801422,-0.8113588690757751,-0.0222593639045953,-18.580795288085938,2.6316823959350586,78.83930969238281,34.57,1
-0.2184928953647613,-0.8677454590797424,-0.0142847783863544,-19.03549766540528,2.631589412689209,78.83955383300781,34.57,1
-0.2185849994421005,-0.9487133026123048,0.0020284003112465,-18.98337173461914,2.6315298080444336,78.83971405029297,34.57,1
-0.2466329783201217,-1.1070314645767212,0.0124972593039274,-17.946800231933594,2.6314916610717773,78.83981323242188,34.57,1
-0.2814258933067322,-1.2814021110534668,0.0248133447021245,-14.755871772766112,2.6305489540100098,78.83988189697266,34.57,1
-0.3429383933544159,-1.303738713264465,0.0719015225768089,-9.000151634216309,2.62994384765625,78.83992004394531,34.57,1
-0.3824135661125183,-1.2173131704330444,0.1133155524730682,-1.9854146242141724,2.6295554637908936,78.83995056152344,34.57,1
-0.3293776214122772,-1.1282635927200315,0.1230993717908859,4.454413414001465,2.6293063163757324,78.8399658203125,34.57,1
-0.1833867281675338,-1.1438877582550049,0.1125847399234771,9.90909481048584,2.629146337509156,78.83997344970703,34.57,1
-0.0896981656551361,-1.120327711105347,0.1002392768859863,14.756644248962402,2.6290438175201416,78.83998107910156,34.57,1
-0.0911497622728347,-1.0324372053146362,0.0867188945412635,18.290266036987305,2.6289780139923096,78.8399887084961,34.57,1
-0.1200701892375946,-0.9648385643959044,0.0780422911047935,19.386438369750977,2.6289358139038086,78.8399887084961,34.57,1
-0.1722162961959839,-0.9102621078491212,0.0724741443991661,18.474157333374023,2.6307451725006104,78.8399887084961,34.57,1
-0.2504628598690033,-0.8752381205558777,0.0856941565871238,17.000228881835938,2.631906270980835,78.8399887084961,34.57,1
-0.3230681121349334,-0.8527616858482361,0.0941779986023902,15.39157009124756,2.632651329040528,78.8399887084961,34.57,1
-0.3808575272560119,-0.8551309704780579,0.1052202135324478,13.277287483215332,2.633129596710205,78.8399887084961,34.57,1
-0.4067479074001312,-0.8678469657897949,0.1123064681887626,11.132296562194824,2.633436441421509,78.8399887084961,34.57,1
-0.4009717404842376,-0.8872029185295105,0.1336473524570465,9.788007736206056,2.6336333751678467,78.8399887084961,34.57,1
-0.3524827361106872,-0.9276133179664612,0.1697337925434112,8.574228286743164,2.6337597370147705,78.8399887084961,34.57,1
-0.3045719861984253,-0.9591441750526428,0.1928920000791549,6.075658321380615,2.633840799331665,78.8399887084961,34.57,1
-0.2626300752162933,-0.9961721897125244,0.2021558284759521,2.56628966331482,2.63435173034668,78.85432434082031,34.57,1
-0.2469097077846527,-1.0087391138076782,0.2081008106470108,-0.2841111421585083,2.6346795558929443,78.863525390625,34.57,1
-0.2648101449012756,-1.0056082010269165,0.2343070656061172,-1.755076885223389,2.634890079498291,78.86942291259766,34.57,1
-0.3098842799663543,-1.0539790391921997,0.3182980120182037,-2.484103441238404,2.6350250244140625,78.87321472167969,34.57,1
-0.3388102650642395,-1.057031750679016,0.3721985816955566,-3.310208320617676,2.6351118087768555,78.87564086914062,34.57,1
-0.3237866461277008,-1.053393006324768,0.3732022047042846,-4.857806205749512,2.635167360305786,78.87720489501953,34.57,1
-0.2861564755439758,-1.067851185798645,0.3570529520511627,-6.882747650146484,2.635203123092652,78.87820434570312,34.57,1
-0.2116276323795318,-1.127509593963623,0.341091513633728,-7.831145763397217,2.635226011276245,78.87884521484375,34.57,1
-0.1861903965473175,-1.210577130317688,0.2748706340789795,-6.630572319030762,2.6320273876190186,78.87925720214844,34.59,1
-0.1138885021209716,-1.2526895999908447,0.1596028208732605,-4.10465145111084,2.629974842071533,78.87952423095703,34.59,1
0.100443921983242,-1.212541580200195,0.2367704957723617,-0.6099736094474792,2.628657579421997,78.87969207763672,34.59,1
0.1876101642847061,-1.1531902551651,0.3086833655834198,5.3263444900512695,2.627812147140503,78.87979888916016,34.59,1
0.2659395337104797,-1.059124231338501,0.3044529259204864,13.058852195739746,2.627269744873047,78.87986755371094,34.59,1
0.2994135022163391,-0.9987581372261048,0.2233692407608032,17.82408905029297,2.6269216537475586,78.87991333007812,34.59,1
0.3320907056331634,-0.9656164050102234,0.2161165922880172,15.905946731567385,2.6266982555389404,78.87994384765625,34.59,1
0.2355078011751175,-0.9835323691368104,0.1330934166908264,8.749412536621094,2.6265547275543213,78.87996673583984,34.59,1
0.1791242212057113,-0.972638726234436,0.074216142296791,-0.0563478432595729,2.624626398086548,78.87997436523438,34.59,1
-0.0137972021475434,-0.993636667728424,-0.0083500957116484,-8.5411958694458,2.623388767242432,78.8799819946289,34.59,1
-0.1879830360412597,-0.9343408346176147,-0.050140805542469,-15.885047912597656,2.6225945949554443,78.87998962402344,34.59,1
-0.2885699272155761,-0.8850926756858826,-0.0601663552224636,-21.26785087585449,2.622084856033325,78.87998962402344,34.59,1
-0.3307296931743622,-0.8422924876213074,-0.0106224305927753,-24.15975952148437,2.621757745742798,78.87998962402344,34.59,1
-0.3465898633003235,-0.8316190838813782,0.0491608791053295,-24.18492317199707,2.6215479373931885,78.87998962402344,34.59,1
-0.3455724716186523,-0.8639539480209351,0.0595374926924705,-20.41787338256836,2.621413230895996,78.87998962402344,34.59,1
-0.3393217921257019,-0.9014979004859924,-0.0121722370386123,-12.357840538024902,2.6213266849517822,78.87998962402344,34.59,1
-0.3241149187088012,-0.9871670007705688,-0.0693869590759277,-2.388306140899658,2.6217305660247803,78.87998962402344,34.59,1
-0.297562688589096,-1.198882222175598,-0.0669196546077728,4.833559513092041,2.621989727020264,78.87998962402344,34.59,1
-0.2805230021476745,-1.284368872642517,-0.0541407316923141,7.264853000640869,2.622156143188477,78.87998962402344,34.59,1
-0.3031745553016662,-1.188089370727539,0.0100377900525927,7.4135823249816895,2.622262716293335,78.87998962402344,34.59,1
-0.3456998765468597,-1.1542916297912598,0.0400283224880695,8.010588645935059,2.622331142425537,78.87998962402344,34.59,1
-0.3170124590396881,-1.182982087135315,0.0872633904218673,8.80212688446045,2.622375249862671,78.87998962402344,34.59,1
-0.2538203299045563,-1.1566118001937866,0.1343694627285003,8.410863876342773,2.622403383255005,78.87998962402344,34.59,1
-0.2076694667339325,-1.1061022281646729,0.1590016484260559,6.185774803161621,2.6224215030670166,78.87998962402344,34.59,1
-0.2004435956478119,-1.0009169578552246,0.1468203067779541,2.006422519683838,2.621056079864502,78.90865325927734,34.59,1
-0.2181975543498993,-0.8942307233810425,0.1222096905112266,-3.4342281818389893,2.6201796531677246,78.92704772949219,34.59,1
-0.2463843375444412,-0.8201678991317749,0.1064160168170929,-8.251276969909668,2.619617223739624,78.93885040283203,34.59,1
-0.2700707614421844,-0.7894319295883179,0.1242694184184074,-10.62606716156006,2.6192562580108643,78.94642639160156,34.59,1
-0.2908691167831421,-0.7865006923675537,0.1525200307369232,-10.244140625,2.6190247535705566,78.95128631591797,34.59,1
-0.3154118657112121,-0.8014129400253296,0.1706496477127075,-8.075199127197266,2.6188762187957764,78.95440673828125,34.59,1
-0.3199664354324341,-0.8445693850517273,0.1878819614648819,-5.031729698181152,2.618780851364136,78.95641326904297,34.59,1
-0.3172915279865265,-0.883460283279419,0.2101362198591232,-1.4342039823532104,2.618719577789306,78.95769500732422,34.59,1
-0.3155749142169952,-0.925211489200592,0.2412110418081283,2.2036166191101074,2.6159260272979736,78.9585189819336,34.59,1
-0.3144733011722564,-0.963200569152832,0.2667508423328399,4.7746100425720215,2.614133358001709,78.95905303955078,34.59,1
-0.2969730198383331,-0.970786452293396,0.2999341487884521,5.6829328536987305,2.612982988357544,78.95938873291016,34.59,1
-0.2577534914016723,-1.0148390531539917,0.3268270492553711,5.900419235229492,2.6122446060180664,78.95960998535156,34.59,1
-0.2549757361412048,-1.1046850681304932,0.3664764761924743,7.354794979095459,2.611770868301392,78.95974731445312,34.59,1
-0.2867797911167145,-1.123158574104309,0.4478989243507385,11.05746078491211,2.611466884613037,78.9598388671875,34.59,1
-0.3015920221805572,-1.067840576171875,0.4833578467369079,15.46493911743164,2.611271619796753,78.95989990234375,34.59,1
-0.2607176899909973,-1.037938356399536,0.4053533971309662,16.96068572998047,2.6111464500427246,78.9599380493164,34.59,1
-0.1561180502176284,-1.085922122001648,0.3888812959194183,13.639392852783203,2.6129021644592285,78.9599609375,34.59,1
-0.0721987038850784,-1.1503020524978638,0.3951037526130676,8.98942756652832,2.6140286922454834,78.95997619628906,34.59,1
-0.0295396484434604,-1.2587906122207642,0.3487170040607452,9.419541358947754,2.6147518157958984,78.9599838256836,34.59,1
-0.0245546195656061,-1.283630132675171,0.2965575754642486,16.871461868286133,2.61521577835083,78.95999145507812,34.59,1
-0.256462037563324,-1.2491908073425293,0.1903135776519775,25.90977668762207,2.615513563156128,78.95999145507812,34.59,1
-0.0078448895364999,-1.1263296604156494,0.256478875875473,29.07685279846192,2.6157045364379883,78.95999145507812,34.59,1
0.16289883852005,-1.0642777681350708,0.2933422029018402,23.44975471496582,2.6158270835876465,78.95999145507812,34.59,1
0.1773101687431335,-1.0020653009414673,0.2722167670726776,11.77064609527588,2.61590576171875,78.95999145507812,34.59,1
0.1137874573469162,-0.9677387475967408,0.247464120388031,-0.5572274923324585,2.615497350692749,78.95999145507812,34.59,1
-0.0557265765964984,-0.9401121735572816,0.1700037717819214,-9.364191055297852,2.6152353286743164,78.95999145507812,34.59,1
-0.1869020164012909,-0.883198618888855,0.0699142143130302,-14.220662117004396,2.61506724357605,78.95999145507812,34.59,1
-0.2654850780963897,-0.807490348815918,0.0112802693620324,-17.54863739013672,2.614959239959717,78.95999145507812,34.59,1
-0.2711329758167267,-0.719720721244812,0.0128368018195033,-21.389646530151367,2.6148898601531982,78.95999145507812,34.59,1
-0.2635619342327118,-0.6689929962158203,0.0194334685802459,-25.853662490844727,2.6148455142974854,78.95999145507812,34.59,1
-0.2419099509716034,-0.6644276976585388,0.0348623804748058,-29.764522552490234,2.614816904067993,78.95999145507812,34.59,1
-0.2112216204404831,-0.7398667931556702,0.0951437354087829,-31.135028839111328,2.6147985458374023,78.95999145507812,34.59,1
-0.2251142710447311,-0.8554525971412659,0.1618177145719528,-28.217010498046875,2.6115736961364746,79.01373291015625,34.59,1
-0.3347896933555603,-1.058377742767334,0.1542252600193023,-21.798105239868164,2.609504222869873,79.0482177734375,34.59,1
-0.4275641739368438,-1.2501789331436155,0.0989728942513465,-14.669458389282228,2.6081759929656982,79.07035064697266,34.59,1
-0.4815037250518799,-1.3508747816085815,0.0299284625798463,-7.902167320251465,2.60732364654541,79.08455657958984,34.59,1
-0.5161190032958984,-1.275551199913025,0.0136085906997323,-0.3994775414466858,2.606776714324951,79.09367370605469,34.59,1
-0.5663219690322876,-1.143246293067932,0.0199287589639425,7.360193729400635,2.6064257621765137,79.09952545166016,34.59,1
-0.6097348928451538,-1.0807316303253174,0.0855602025985717,12.712491989135742,2.6062004566192627,79.10327911376953,34.59,1
-0.6319970488548279,-1.0518089532852173,0.1164831295609474,14.338088989257812,2.606055974960327,79.1056900024414,34.59,1
-0.6070992350578308,-0.9884657859802246,0.1139365881681442,13.066959381103516,2.6133077144622803,79.10723114013672,34.57,1
-0.5071545839309692,-0.914229154586792,0.1067045927047729,9.435317039489746,2.6179616451263428,79.10822296142578,34.57,1
-0.3982336819171905,-0.8441972732543945,0.0964657366275787,3.554405450820923,2.620948076248169,79.10885620117188,34.57,1
-0.2443679124116897,-0.771265983581543,0.1010905802249908,-3.024782180786133,2.6228647232055664,79.10926818847656,34.57,1
-0.1400279402732849,-0.7244628667831421,0.109656311571598,-7.748486042022705,2.624094724655152,79.10952758789062,34.57,1
-0.1122529730200767,-0.7168183922767639,0.1095555275678634,-9.389847755432127,2.6248841285705566,79.10969543457031,34.57,1
-0.1783952116966247,-0.7734881639480591,0.1094908490777015,-8.55516242980957,2.6253905296325684,79.10980224609375,34.57,1
-0.2656236886978149,-0.8490399718284607,0.1318404376506805,-6.009684085845947,2.625715732574463,79.10987091064453,34.57,1
-0.3495907783508301,-0.908720314502716,0.1797697693109512,-1.811018466949463,2.621792793273926,79.10991668701172,34.57,1
-0.4202693402767181,-0.8966397643089294,0.2385169267654419,3.470062732696533,2.6192753314971924,79.10994720458984,34.57,1
-0.4488334655761719,-0.8776916265487671,0.2874130308628082,7.880190372467041,2.6176598072052,79.10997009277344,34.57,1
-0.4167842864990234,-0.8991184234619141,0.3467805981636047,9.764556884765623,2.6166229248046875,79.10997772216797,34.57,1
-0.3794236481189728,-0.9296622276306152,0.3960748314857483,9.59454345703125,2.615957736968994,79.1099853515625,34.57,1
-0.3330566585063934,-1.0052412748336792,0.4836867749691009,9.062694549560549,2.6155307292938232,79.10999298095703,34.57,1
-0.3033009767532348,-1.0873302221298218,0.5567044019699097,9.068894386291504,2.6152567863464355,79.10999298095703,34.57,1
-0.2954010367393493,-1.1176190376281738,0.5811718106269836,9.366643905639648,2.6150808334350586,79.10999298095703,34.57,1
-0.3295157551765442,-1.1594477891921997,0.5297002792358398,9.478906631469728,2.614509105682373,79.10999298095703,34.57,1
-0.3458108305931091,-1.1694977283477783,0.4742777347564697,9.443472862243652,2.614142179489136,79.10999298095703,34.57,1
-0.3002903163433075,-1.1031761169433594,0.4555040597915649,10.699712753295898,2.6139068603515625,79.10999298095703,34.57,1
-0.2486867904663086,-1.021430253982544,0.4322606325149536,15.464641571044922,2.613755702972412,79.10999298095703,34.57,1
-0.2379617094993591,-0.9745683073997498,0.3781599402427673,23.11894416809082,2.6136586666107178,79.10999298095703,34.57,1
-0.2814589440822601,-0.989277184009552,0.3154523372650146,28.73321914672852,2.6135964393615723,79.10999298095703,34.57,1
-0.3205685019493103,-1.0323030948638916,0.2640146613121032,28.10511589050293,2.6135566234588623,79.10999298095703,34.57,1
-0.3568623065948486,-1.0543168783187866,0.2142116129398346,22.24218940734864,2.6135311126708984,79.10999298095703,34.57,1
-0.3633602857589721,-1.0348573923110962,0.1598597764968872,14.47079849243164,2.6103010177612305,79.1708984375,34.57,1
-0.3395414352416992,-1.011173963546753,0.1081865802407264,6.241336345672607,2.608228206634521,79.2099838256836,34.57,1
-0.313060313463211,-0.9847797155380248,0.0974167883396148,-1.7876945734024048,2.6068978309631348,79.23506927490234,34.57,1
-0.2960662543773651,-0.9622436165809632,0.0905053615570068,-8.265817642211914,2.606044292449951,79.25116729736328,34.57,1
-0.2907582223415375,-0.9421834945678712,0.0692766830325126,-13.024975776672363,2.605496406555176,79.2614974975586,34.57,1
-0.2873518168926239,-0.9181144833564758,0.0500555634498596,-17.569480895996094,2.605144739151001,79.26812744140625,34.57,1
-0.2739702463150024,-0.8914728164672852,0.0321227796375751,-22.259258270263672,2.604919195175171,79.27237701416016,34.57,1
-0.2597849369049072,-0.885571300983429,0.0206145513802766,-25.064680099487305,2.604774475097656,79.27510833740234,34.57,1
-0.2506816387176513,-0.9041751623153688,0.0188270062208175,-23.89508438110352,2.6037635803222656,79.27686309814453,34.59,1
-0.2560352087020874,-0.921711802482605,0.0008865400450304,-18.7056941986084,2.6031148433685303,79.27798461914062,34.59,1
-0.2706663608551025,-0.9273680448532104,-0.0610065907239913,-11.567163467407228,2.602698564529419,79.2787094116211,34.59,1
-0.2856535911560058,-0.9645845293998718,-0.1007260382175445,-5.828894138336182,2.602431535720825,79.2791748046875,34.59,1
-0.2896737456321716,-1.027652382850647,-0.0702379494905471,-4.267287254333496,2.602260112762451,79.27947235107422,34.59,1
-0.2922536432743072,-1.1073100566864014,-0.000292477721814,-6.750983715057373,2.6021502017974854,79.2796630859375,34.59,1
-0.260322630405426,-1.1192454099655151,0.1341588944196701,-10.47292709350586,2.602079629898072,79.27978515625,34.59,1
-0.2566244602203369,-1.0541337728500366,0.2148442715406417,-12.71098804473877,2.602034330368042,79.27986145019531,34.59,1
-0.2990334033966064,-1.023544430732727,0.2218413054943084,-12.499261856079102,2.602464199066162,79.2799072265625,34.59,1
-0.3542378842830658,-1.082282781600952,0.2375271469354629,-10.396553993225098,2.6027400493621826,79.27993774414062,34.59,1
-0.3784693777561188,-1.1367709636688232,0.24759341776371,-7.936559200286865,2.602916955947876,79.27996063232422,34.59,1
-0.3660309016704559,-1.1717383861541748,0.2820422351360321,-6.888097286224365,2.6030304431915283,79.27997589111328,34.59,1
-0.3300597369670868,-1.1941784620285034,0.3321383893489837,-8.0566987991333,2.6031033992767334,79.27998352050781,34.59,1
-0.2677910923957824,-1.2029813528060913,0.4090693891048431,-10.81288242340088,2.6031501293182373,79.27999114990234,34.59,1
-0.2502217590808868,-1.085479497909546,0.3576793372631073,-13.932272911071776,2.603180170059204,79.27999114990234,34.59,1
-0.2109578847885131,-1.0044758319854736,0.3247001767158508,-16.550321578979492,2.603199481964112,79.27999114990234,34.59,1
-0.1633695065975189,-0.8909168243408203,0.2755471765995025,-17.857847213745117,2.598621129989624,79.27999114990234,34.59,1
-0.172014445066452,-0.8012478947639465,0.2272102832794189,-16.51156997680664,2.5956830978393555,79.27999114990234,34.59,1
-0.2167466878890991,-0.7548990845680237,0.1961904466152191,-11.491819381713867,2.593797445297241,79.27999114990234,34.59,1
-0.2622465789318084,-0.7195572853088379,0.1650881618261337,-3.519936800003052,2.592587471008301,79.27999114990234,34.59,1
-0.291445791721344,-0.6856814026832581,0.1283351778984069,5.429314613342285,2.591810941696167,79.27999114990234,34.59,1
-0.3101841807365417,-0.658344030380249,0.0879559069871902,14.06356716156006,2.5913126468658447,79.27999114990234,34.59,1
-0.3166116178035736,-0.6463983058929443,0.0620428137481212,22.320125579833984,2.590992927551269,79.27999114990234,34.59,1
-0.2983452677726745,-0.6667210459709167,0.0734021514654159,30.00470542907715,2.590787649154663,79.27999114990234,34.59,1
-0.3593940436840057,-0.8365007042884827,0.3493850827217102,35.624080657958984,2.586065530776977,79.33373260498047,34.59,1
-0.5161249041557312,-1.029422163963318,0.4817128479480743,37.134464263916016,2.5830352306365967,79.36821746826172,34.59,1
-0.8014323115348816,-1.0636636018753052,0.3371244370937347,33.869136810302734,2.581090450286865,79.39035034179688,34.59,1
-0.8221907019615173,-1.0800400972366333,0.2107492834329605,27.3563232421875,2.579842329025269,79.40455627441406,34.59,1
-0.7851322889328003,-1.023376226425171,0.1072578951716423,20.138750076293945,2.5790414810180664,79.4136734008789,34.59,1
-0.5990148782730103,-0.9534260034561156,0.0744297206401825,13.937759399414062,2.5785274505615234,79.41952514648438,34.59,1
-0.5243576169013977,-1.0036981105804443,0.0533624850213527,8.74024486541748,2.578197717666626,79.42327880859375,34.59,1
-0.4596535861492157,-1.052753210067749,0.023049421608448,3.602743864059448,2.577986001968384,79.42568969726562,34.59,1
-0.4517168998718261,-1.050647258758545,-0.0187948551028966,-1.6932860612869265,2.5796866416931152,79.42723083496094,34.57,1
-0.4242324829101562,-1.0269047021865845,-0.0344525538384914,-6.202571392059326,2.580777883529663,79.42822265625,34.57,1
-0.3674101531505584,-0.9836792349815368,-0.010914116166532,-9.1071195602417,2.5814783573150635,79.4288558959961,34.57,1
-0.3085537552833557,-0.9503418803215028,0.009789272211492,-10.777631759643556,2.58192777633667,79.42926788330078,34.57,1
-0.2707830965518951,-0.9289478659629822,0.0230755135416984,-12.175684928894045,2.582216262817383,79.42952728271484,34.57,1
-0.2633374035358429,-0.9152184128761292,0.0371996350586414,-13.87895393371582,2.5824012756347656,79.42969512939453,34.57,1
-0.2529613971710205,-0.90080988407135,0.0518614575266838,-15.914231300354004,2.582520008087158,79.42980194091797,34.57,1
-0.2519004642963409,-0.897161066532135,0.0556727945804595,-18.11958122253418,2.5825963020324707,79.42987060546875,34.57,1
-0.2568173706531524,-0.8948194980621338,0.0637164637446403,-20.244197845458984,2.5817270278930664,79.42991638183594,34.57,1
-0.248777225613594,-0.8933168053627014,0.0576828829944133,-21.52525520324707,2.5811691284179688,79.42994689941406,34.57,1
-0.2492152899503708,-0.9259390830993652,0.0482131019234657,-20.50592041015625,2.5808112621307373,79.42996978759766,34.57,1
-0.2550942003726959,-0.9692652821540833,0.0477337166666984,-15.982588768005373,2.5805814266204834,79.42997741699219,34.57,1
-0.258866935968399,-1.0530472993850708,0.0474260747432708,-8.454669952392578,2.580434083938598,79.42998504638672,34.57,1
-0.2556902766227722,-1.1739870309829712,0.0472286492586135,-0.2524818181991577,2.580339431762696,79.42999267578125,34.57,1
-0.2704450190067291,-1.1788281202316284,0.0582975000143051,6.279442310333252,2.5802786350250244,79.42999267578125,34.57,1
-0.3190981745719909,-1.053186058998108,0.1157808229327201,10.514246940612791,2.580239772796631,79.42999267578125,34.57,1
-0.350320965051651,-0.9557629227638244,0.1638658493757248,13.124423027038574,2.582509994506836,79.42999267578125,34.57,1
-0.3703579604625702,-0.9436222910881042,0.149941861629486,14.609607696533203,2.5839669704437256,79.42999267578125,34.57,1
-0.394412100315094,-0.986211121082306,0.1130173802375793,14.860528945922852,2.584902048110962,79.42999267578125,34.57,1
-0.27550208568573,-1.080715537071228,0.190081313252449,13.828557968139648,2.5855021476745605,79.42999267578125,34.57,1
-0.1544102877378463,-1.0965807437896729,0.301112025976181,12.12376880645752,2.5858871936798096,79.42999267578125,34.57,1
-0.1438738256692886,-1.0731755495071411,0.2995940744876861,10.872099876403809,2.586134195327759,79.42999267578125,34.57,1
-0.159503236413002,-1.0133732557296753,0.248239979147911,10.527420043945312,2.5862927436828613,79.42999267578125,34.57,1
-0.1863266080617904,-0.9749955534934998,0.2040883302688598,10.102018356323242,2.5863945484161377,79.42999267578125,34.57,1
-0.1923447549343109,-0.9615625143051147,0.1533632427453994,8.471223831176758,2.582787275314331,79.44790649414062,34.57,1
-0.1906090825796127,-0.9417464137077332,0.0928219258785247,5.894913196563721,2.580472469329834,79.45940399169922,34.57,1
-0.1950930058956146,-0.9290295839309692,0.0483722202479839,3.152482748031616,2.578986883163452,79.46678161621094,34.57,1
-0.2147638499736786,-0.9152708649635316,0.0310425069183111,0.3177758157253265,2.578033447265625,79.47151947021484,34.57,1
-0.227387472987175,-0.9064412713050842,0.0367146171629428,-2.4041848182678223,2.5774216651916504,79.47455596923828,34.57,1
-0.2354885786771774,-0.9119704961776732,0.0739412978291511,-4.072165966033936,2.57702898979187,79.47650909423828,34.57,1
-0.2350896298885345,-0.9267144203186036,0.1090267896652221,-4.293509483337402,2.57677698135376,79.4777603149414,34.57,1
-0.2124425172805786,-0.9361761808395386,0.1371404081583023,-3.7799439430236816,2.576615333557129,79.47856140136719,34.57,1
-0.2091044485569,-0.9422482252120972,0.1327910125255584,-3.174508810043335,2.5746755599975586,79.47908020019531,34.59,1
-0.2405489087104797,-0.9237537980079652,0.1020109504461288,-2.803888320922852,2.5734307765960693,79.47940826416016,34.59,1
-0.2999125719070434,-0.8838962912559509,0.0598669834434986,-3.440193653106689,2.572632074356079,79.47962188720703,34.59,1
-0.3492043018341064,-0.858318030834198,0.0496147312223911,-5.836867332458496,2.5721194744110107,79.4797592163086,34.59,1
-0.369641363620758,-0.8642944693565369,0.0542309768497943,-9.341748237609863,2.5717904567718506,79.47984313964844,34.59,1
-0.3939522206783294,-0.9744875431060792,0.085182286798954,-11.927741050720217,2.5715792179107666,79.47990417480469,34.59,1
-0.4319446384906769,-1.0843875408172607,0.1218383833765983,-12.075435638427734,2.571443796157837,79.47994232177734,34.59,1
-0.4899126291275024,-1.0597528219223022,0.1341665983200073,-10.328773498535156,2.571356773376465,79.47996520996094,34.59,1
-0.4823309481143951,-0.9543793201446532,0.0749048516154289,-8.36954402923584,2.573137044906616,79.47998046875,34.59,1
-0.4606721401214599,-0.94273442029953,0.0256785210222005,-6.976085662841797,2.574279546737671,79.47998809814453,34.59,1
-0.4803594052791595,-1.0248258113861084,0.0052834469825029,-5.723586559295654,2.575012683868408,79.47999572753906,34.59,1
-0.5097869038581848,-1.0831050872802734,-0.0022071623243391,-4.335844993591309,2.575483083724976,79.47999572753906,34.59,1
-0.48948734998703,-1.126103162765503,0.0097791198641061,-3.291221618652344,2.575784921646118,79.47999572753906,34.59,1
-0.3868958652019501,-1.1033169031143188,0.0062756761908531,-3.226297616958618,2.575978755950928,79.47999572753906,34.59,1
-0.2986674606800079,-1.0663028955459597,-0.0015704067191109,-4.116102695465088,2.5761032104492188,79.47999572753906,34.59,1
-0.2252542376518249,-1.020158290863037,0.0045899781398475,-5.263923168182373,2.5761830806732178,79.47999572753906,34.59,1
-0.1725440770387649,-0.9849475622177124,0.019738906994462,-6.122335910797119,2.576693296432495,79.47999572753906,34.59,1
-0.1331199556589126,-0.9679490923881532,0.0406561680138111,-6.673215866088867,2.5770206451416016,79.47999572753906,34.59,1
-0.1190153732895851,-0.9850293397903442,0.0652752071619033,-6.754463195800781,2.57723069190979,79.47999572753906,34.59,1
-0.1211594119668006,-0.9959904551506042,0.0698787420988082,-5.649430751800537,2.5773653984069824,79.47999572753906,34.59,1
-0.1505241990089416,-0.980633556842804,0.0560397021472454,-2.7405834197998047,2.5774519443511963,79.47999572753906,34.59,1
-0.1693688333034515,-0.9931694865226746,0.0471586026251316,1.7665058374404907,2.577507495880127,79.47999572753906,34.59,1
-0.1758644580841064,-1.0180076360702517,0.0246659033000469,6.815606594085693,2.577543020248413,79.47999572753906,34.59,1
-0.1968263089656829,-1.0283496379852295,-0.0065619419328868,10.79025650024414,2.577565908432007,79.47999572753906,34.59,1
-0.2046806365251541,-1.057377576828003,-0.0321999490261077,12.563539505004885,2.5784988403320312,79.51940155029297,34.59,1
-0.2153188735246658,-1.0648105144500732,-0.0486529469490051,12.873955726623535,2.579097509384156,79.54469299316406,34.59,1
-0.2389391958713531,-1.047189474105835,-0.0536137595772743,13.234378814697266,2.579481601715088,79.56092071533203,34.59,1
-0.2876839935779571,-0.9631102085113524,-0.0064173555001616,13.505085945129396,2.579728126525879,79.57133483886719,34.59,1
-0.3357589244842529,-0.8419796824455261,0.0462616793811321,12.729427337646484,2.5798864364624023,79.57801818847656,34.59,1
-0.3498173356056213,-0.8034294843673706,0.0744702741503715,11.558130264282228,2.5799880027771,79.58230590820312,34.59,1
-0.3420459032058716,-0.9186345338821412,0.0925729274749755,11.028578758239746,2.5800530910491943,79.5850601196289,34.59,1
-0.3146675229072571,-1.037348747253418,0.0985924005508422,10.058209419250488,2.580095052719116,79.58683013916016,34.59,1
-0.2691088020801544,-1.0799460411071775,0.0856620222330093,7.035157203674316,2.5773675441741943,79.58796691894531,34.57,1
-0.22307850420475,-1.068098068237305,0.1053529232740402,2.519263982772827,2.5756173133850098,79.58869171142578,34.57,1
-0.1095722988247871,-1.049299240112305,0.2467382103204727,-1.5252004861831665,2.5744941234588623,79.58915710449219,34.57,1
-0.1039038375020027,-1.0204418897628784,0.4102422297000885,-3.966654062271118,2.5737733840942383,79.5894546508789,34.57,1
-0.223417192697525,-0.9795317649841307,0.4423986375331878,-4.756019592285156,2.573310852050781,79.58964538574219,34.57,1
-0.3225050866603851,-0.9140936136245728,0.3902637064456939,-4.209311485290527,2.5730140209198,79.58976745605469,34.57,1
-0.3189207017421722,-0.8665013909339905,0.3288176357746124,-3.2852537631988525,2.5728235244750977,79.58985137939453,34.57,1
-0.3054248988628387,-0.847154974937439,0.2837873101234436,-3.548482179641724,2.5727012157440186,79.58990478515625,34.57,1
-0.3079596161842346,-0.8515328764915466,0.2436938732862472,-5.698571681976318,2.572163820266724,79.58993530273438,34.57,1
-0.3095862567424774,-0.8487446308135986,0.212366446852684,-8.77651596069336,2.571818828582764,79.58995819091797,34.57,1
-0.3106301128864288,-0.858150839805603,0.1978600770235061,-11.529181480407717,2.5715975761413574,79.58997344970703,34.57,1
-0.2889089286327362,-0.8921760320663452,0.2333329170942306,-13.489143371582031,2.571455478668213,79.58998107910156,34.57,1
-0.2637739479541778,-0.9196092486381532,0.2672928869724273,-14.317025184631348,2.571364402770996,79.5899887084961,34.57,1
-0.2924259603023529,-0.9372143149375916,0.233108714222908,-13.47976779937744,2.571305990219116,79.5899887084961,34.57,1
-0.3388020694255829,-0.965305507183075,0.1887801736593246,-11.341053009033203,2.571268320083618,79.5899887084961,34.57,1
-0.3909546732902527,-1.0113216638565063,0.1547348946332931,-9.176799774169922,2.571244239807129,79.5899887084961,34.57,1
-0.4188254475593567,-1.0240589380264282,0.1608754694461822,-7.447562217712402,2.567556381225586,79.5899887084961,34.57,1
-0.4423090815544128,-1.0322329998016355,0.159218356013298,-5.291725158691406,2.5651895999908447,79.5899887084961,34.57,1
-0.4237928688526153,-1.0654674768447876,0.1357638239860534,-2.0524587631225586,2.5636706352233887,79.5899887084961,34.57,1
